AccX,AccY,AccZ,GyrX,GyrY,GyrZ,Time
-22.87,-6.15,-13.15,0.34,0.02,-2.31,1721201008159
-36.35,0.79,-17.46,-0.14,-0.03,-1.07,1721201008164
-30.38,-3.79,6.28,-0.42,-0.27,1.36,1721201008174
-4.13,-10.50,13.42,-0.43,-0.02,2.24,1721201008184
17.23,-5.46,30.25,0.50,-0.14,1.90,1721201008194
24.95,2.00,3.65,0.26,-0.18,0.68,1721201008204
19.86,5.22,0.72,-0.42,-0.09,-0.85,1721201008214
11.12,-6.45,14.40,-0.16,-0.53,-1.74,1721201008224
0.31,-12.64,18.44,0.28,-0.56,-1.16,1721201008234
-5.36,0.48,-2.31,0.20,-0.15,-0.30,1721201008244
4.12,1.08,10.95,-0.29,0.48,-0.33,1721201008254
3.20,-2.35,24.02,-0.03,-0.19,-0.95,1721201008264
-5.20,-6.96,14.06,0.35,-0.09,-1.16,1721201008274
-12.40,1.56,0.94,0.16,-0.05,-0.77,1721201008284
-13.82,-4.37,0.34,-0.31,-0.19,-0.22,1721201008294
-9.86,-9.40,18.45,-0.02,-0.15,0.37,1721201008304
1.60,-5.85,16.52,0.41,-0.01,0.67,1721201008314
7.52,8.31,0.00,0.04,-0.00,0.14,1721201008324
7.73,1.69,13.27,-0.18,-0.09,-0.69,1721201008334
2.84,-5.60,8.12,0.19,-0.23,-0.81,1721201008344
0.93,-3.96,11.29,-0.00,0.17,-0.48,1721201008354
2.60,-1.25,21.64,0.33,-0.01,-0.41,1721201008364
3.17,6.45,6.82,0.36,0.10,-0.52,1721201008374
1.51,-3.65,4.35,-0.53,-0.00,-0.79,1721201008384
-8.30,-2.76,23.12,0.40,-0.43,-1.01,1721201008394
-8.92,-5.88,-2.30,0.07,-0.07,-0.63,1721201008404
-8.72,-3.39,18.97,-0.05,-0.24,0.22,1721201008414
0.21,-6.23,6.97,0.16,-0.10,0.74,1721201008424
8.35,2.04,13.42,0.10,0.36,0.26,1721201008434
12.66,5.91,5.04,0.23,0.02,-0.55,1721201008444
4.67,-1.82,6.00,-0.45,-0.18,-0.99,1721201008454
-2.36,-7.47,23.13,0.21,0.18,-0.67,1721201008464
2.19,0.02,7.98,0.37,0.31,0.01,1721201008474
6.08,9.28,4.00,-0.12,0.47,-0.01,1721201008484
3.58,2.04,19.05,-0.14,0.11,-0.64,1721201008494
-3.60,0.37,17.93,0.27,0.06,-0.71,1721201008504
-4.52,6.11,-2.43,0.07,0.12,0.07,1721201008514
-2.24,8.70,10.87,-0.31,0.41,0.34,1721201008524
5.73,-7.58,20.96,-0.26,0.10,0.07,1721201008534
-0.24,11.13,11.66,0.69,-0.30,0.09,1721201008544
6.53,8.42,-10.53,-0.49,0.64,0.35,1721201008554
1.37,2.14,20.68,-0.34,0.37,0.16,1721201008564
4.50,-4.58,23.21,0.24,0.01,-0.39,1721201008574
3.77,9.80,7.82,0.27,0.47,-0.35,1721201008584
3.54,6.83,-3.42,-0.38,0.30,0.10,1721201008594
6.73,2.07,20.09,-0.24,0.84,-0.20,1721201008604
6.65,-1.70,14.53,-0.04,0.36,-0.72,1721201008614
-6.88,7.86,4.16,0.22,0.38,-0.81,1721201008624
-8.32,4.79,3.37,-0.28,0.68,-0.67,1721201008634
-11.92,-7.66,17.55,-0.30,0.07,-0.03,1721201008644
-7.77,-6.43,15.72,0.30,0.43,0.80,1721201008654
8.88,6.46,4.13,0.21,0.91,0.75,1721201008664
10.99,6.09,2.45,-0.27,0.32,-0.41,1721201008674
-2.57,-4.41,13.64,-0.12,-0.07,-1.27,1721201008684
-11.60,-5.06,10.37,0.14,0.30,-0.55,1721201008694
-5.22,-4.76,12.73,0.04,0.69,0.70,1721201008704
3.95,-6.24,9.44,-0.04,0.36,0.49,1721201008714
1.70,1.52,10.89,0.31,0.19,-0.55,1721201008724
0.45,-0.76,8.54,0.22,0.51,-0.69,1721201008734
-2.90,-11.09,6.67,-0.24,0.30,-0.13,1721201008744
-6.86,-8.48,10.70,0.15,0.12,0.18,1721201008754
-0.93,-4.34,14.16,0.10,0.84,-0.21,1721201008764
0.91,-4.02,17.03,0.24,0.45,-0.28,1721201008774
-7.18,-4.38,1.27,-0.04,-0.29,-0.13,1721201008784
-10.30,-3.75,15.29,0.02,0.39,-0.23,1721201008794
-2.53,-9.37,1.45,0.20,0.22,0.04,1721201008804
-0.01,-6.78,12.37,-0.16,0.19,0.19,1721201008814
-1.44,-9.81,10.97,0.13,0.12,0.01,1721201008824
-7.42,-1.31,3.42,0.06,-0.17,-0.41,1721201008834
-4.26,-5.56,12.60,0.01,0.31,-0.18,1721201008844
1.71,-10.59,20.33,0.01,0.29,0.19,1721201008854
-2.24,-3.91,6.61,0.11,-0.34,-0.05,1721201008864
-6.82,4.20,6.80,0.06,-0.12,-0.49,1721201008874
-5.41,-2.31,10.33,-0.04,0.26,-0.31,1721201008884
-5.66,-3.35,10.73,0.10,0.00,0.16,1721201008894
-1.19,1.12,13.59,0.14,0.01,0.16,1721201008904
1.05,7.71,-0.08,0.09,-0.28,-0.14,1721201008914
3.07,-0.10,10.22,-0.42,0.32,-0.24,1721201008924
2.79,2.77,22.90,0.37,-0.06,-0.09,1721201008934
5.52,1.49,9.10,-0.02,0.43,-0.52,1721201008944
-0.92,3.53,16.46,0.05,-0.19,-0.58,1721201008954
-5.53,5.07,-2.86,0.04,-0.22,-0.17,1721201008964
0.89,5.20,11.48,-0.22,0.61,-0.10,1721201008974
2.70,-0.12,11.35,0.10,0.02,-0.49,1721201008984
-2.86,2.12,11.55,0.02,0.07,-0.68,1721201008994
-7.19,2.82,7.40,0.02,0.09,-0.43,1721201009004
-8.27,1.73,6.79,-0.11,0.01,-0.20,1721201009014
-4.70,-2.15,18.10,-0.04,0.17,-0.02,1721201009024
0.19,1.68,12.36,0.23,0.03,0.18,1721201009034
2.23,-2.30,2.17,-0.42,0.02,-0.07,1721201009044
-6.53,0.34,8.67,0.11,-0.34,-0.45,1721201009054
-10.13,-4.84,8.49,-0.17,0.38,-0.47,1721201009064
-6.81,-1.42,17.28,0.13,-0.33,0.18,1721201009074
-2.75,2.57,7.25,0.06,-0.28,0.35,1721201009084
-3.92,0.53,13.09,-0.16,-0.14,-0.16,1721201009094
-8.22,-4.41,13.42,0.02,-0.30,-0.33,1721201009104
-9.38,3.63,8.83,0.22,-0.41,0.41,1721201009114
-2.48,0.19,-1.32,-0.44,-0.33,0.91,1721201009124
3.82,3.20,12.19,-0.03,-0.38,0.63,1721201009134
12.25,-4.08,11.70,-0.06,-0.11,0.07,1721201009144
5.31,1.20,8.24,0.07,-0.53,0.06,1721201009154
0.45,-0.09,4.92,-0.29,-0.23,0.09,1721201009164
-1.84,1.47,14.05,-0.04,-0.24,0.11,1721201009174
0.77,-5.21,2.88,-0.28,-0.29,0.20,1721201009184
-2.39,2.08,17.14,-0.09,-0.26,0.50,1721201009194
-0.23,-2.79,-0.45,-0.33,-0.17,0.68,1721201009204
-1.18,3.71,24.01,-0.44,0.02,0.73,1721201009214
1.47,-6.53,2.47,-0.07,-0.51,0.80,1721201009224
2.18,-3.44,13.85,-0.50,0.03,0.79,1721201009234
4.66,2.93,10.97,0.11,-0.29,0.85,1721201009244
5.66,0.88,9.60,-0.46,-0.01,0.62,1721201009254
1.44,3.06,14.79,0.02,-0.46,0.55,1721201009264
2.10,4.60,7.82,-0.13,-0.02,0.58,1721201009274
3.57,1.45,13.59,-0.16,-0.19,0.77,1721201009284
2.47,5.33,14.28,-0.03,-0.14,0.76,1721201009294
3.65,5.88,7.19,0.12,-0.15,0.55,1721201009304
5.49,2.94,10.72,-0.02,-0.01,0.37,1721201009314
4.92,5.70,10.82,0.20,-0.22,0.25,1721201009324
4.41,5.86,10.83,0.04,0.16,0.09,1721201009334
1.49,6.62,11.93,0.25,-0.23,0.17,1721201009344
4.13,1.12,7.41,-0.05,0.18,0.14,1721201009354
5.68,0.92,12.82,0.07,0.03,0.16,1721201009364
1.60,4.46,11.40,0.08,0.10,-0.16,1721201009374
-1.55,1.08,8.51,0.01,-0.02,-0.17,1721201009384
0.03,-1.52,8.94,-0.05,0.07,0.14,1721201009394
1.60,-0.55,12.00,-0.04,0.19,0.29,1721201009404
3.27,0.58,11.01,-0.01,0.02,-0.02,1721201009414
6.00,-3.69,6.29,-0.07,0.09,-0.29,1721201009424
1.22,1.20,9.72,-0.07,0.22,-0.55,1721201009434
-3.22,-3.85,8.39,-0.18,0.18,-0.54,1721201009444
-6.56,-4.68,10.13,-0.15,0.05,-0.24,1721201009454
-3.94,-1.92,8.94,-0.11,0.23,-0.08,1721201009464
1.97,-2.00,12.28,-0.20,0.25,-0.01,1721201009474
2.29,-0.54,11.06,-0.16,0.16,-0.33,1721201009484
0.75,-2.13,8.34,-0.08,0.04,-0.53,1721201009494
-2.15,-6.06,10.49,-0.35,0.29,-0.52,1721201009504
-1.41,3.59,17.63,0.09,0.09,-0.18,1721201009514
-0.29,-4.33,1.89,-0.03,0.12,-0.03,1721201009524
-1.39,-2.18,14.64,-0.18,0.20,-0.27,1721201009534
-0.77,3.17,11.48,0.23,0.19,-0.49,1721201009544
-1.27,-5.10,8.05,-0.41,0.24,-0.28,1721201009554
-6.52,-3.94,14.27,-0.09,-0.18,-0.09,1721201009564
-4.51,-2.94,8.96,0.01,0.26,0.07,1721201009574
0.82,-0.09,15.93,-0.09,0.39,0.11,1721201009584
-0.45,5.06,11.73,0.05,-0.19,-0.02,1721201009594
-1.81,2.92,5.35,0.04,-0.02,-0.22,1721201009604
-2.80,-2.82,9.65,-0.01,0.13,-0.23,1721201009614
-3.06,0.02,10.23,0.19,-0.03,0.17,1721201009624
-3.07,0.66,12.11,0.12,0.12,0.27,1721201009634
-0.06,3.71,10.64,0.31,-0.01,0.16,1721201009644
-0.32,1.43,10.87,0.09,0.14,-0.11,1721201009654
-1.24,5.34,11.46,0.36,-0.06,-0.11,1721201009664
-1.73,1.34,8.02,0.18,0.01,0.08,1721201009674
-1.09,-0.38,11.66,0.19,-0.08,0.12,1721201009684
0.09,2.69,8.44,0.34,0.01,0.13,1721201009694
1.83,2.46,6.31,0.12,-0.03,-0.04,1721201009704
-0.51,2.64,12.83,0.07,-0.16,-0.37,1721201009714
-5.39,2.70,6.24,0.19,-0.21,-0.30,1721201009724
-6.61,-2.34,5.26,-0.14,-0.07,0.15,1721201009734
-3.45,1.25,19.58,-0.12,0.02,0.42,1721201009744
0.66,3.40,7.69,0.21,-0.22,0.30,1721201009754
3.02,0.89,7.18,-0.25,0.03,-0.03,1721201009764
1.29,5.27,14.31,0.04,-0.19,-0.05,1721201009774
-0.00,-2.00,3.12,-0.12,-0.16,-0.09,1721201009784
-0.79,-1.93,15.87,-0.14,-0.08,0.02,1721201009794
-1.15,-1.20,4.20,0.11,-0.23,0.15,1721201009804
-1.15,0.62,13.10,-0.27,0.17,0.11,1721201009814
-2.16,-7.88,8.22,0.00,-0.48,0.24,1721201009824
-1.66,-4.24,14.04,-0.30,0.09,0.20,1721201009834
3.05,-3.44,10.08,0.17,-0.34,0.28,1721201009844
3.34,0.48,13.98,-0.20,0.16,0.16,1721201009854
1.61,1.72,9.45,0.14,-0.29,0.10,1721201009864
-0.16,-8.24,8.88,-0.45,-0.01,-0.06,1721201009874
-0.15,-1.52,15.48,0.07,-0.17,0.15,1721201009884
3.16,-6.68,9.51,-0.16,0.09,0.22,1721201009894
1.04,6.13,11.78,0.04,-0.09,0.13,1721201009904
3.17,-3.55,8.47,-0.14,0.00,-0.33,1721201009914
2.27,5.88,16.56,0.03,0.02,-0.38,1721201009924
2.04,-8.04,1.22,-0.26,0.01,-0.17,1721201009934
-3.42,0.42,23.59,-0.16,0.25,-0.18,1721201009944
0.17,2.82,6.29,0.29,0.01,0.02,1721201009954
2.41,0.76,7.82,-0.25,0.37,-0.11,1721201009964
2.03,6.37,14.60,0.24,0.08,-0.32,1721201009974
1.42,-1.20,8.44,0.01,0.24,-0.70,1721201009984
-2.40,2.95,15.70,0.27,-0.01,-0.42,1721201009994
-0.06,-3.78,6.60,0.15,0.22,-0.09,1721201010004
1.24,6.11,13.53,0.44,0.23,-0.16,1721201010014
2.28,-2.24,4.28,0.25,0.21,-0.45,1721201010024
-2.36,7.54,18.95,0.38,0.23,-0.62,1721201010034
-1.95,-1.07,0.94,0.47,0.14,-0.25,1721201010044
0.42,4.00,11.26,0.13,0.61,-0.04,1721201010054
4.21,1.76,7.80,0.37,0.23,-0.13,1721201010064
3.33,4.61,13.35,0.15,0.46,-0.50,1721201010074
2.19,-0.95,7.04,0.26,0.20,-0.43,1721201010084
-0.40,-2.65,9.60,-0.05,0.50,-0.61,1721201010094
-4.48,5.07,9.37,0.34,0.28,-0.72,1721201010104
-6.51,-0.61,9.61,-0.10,0.46,-0.55,1721201010114
-7.27,3.57,14.68,0.25,0.16,-0.03,1721201010124
0.68,-2.96,4.91,-0.13,0.52,0.18,1721201010134
3.22,3.61,15.09,0.02,0.31,-0.12,1721201010144
4.54,-1.22,2.68,0.11,0.22,-0.55,1721201010154
-6.26,-1.03,16.19,-0.09,0.12,-0.65,1721201010169
-3.90,-0.55,16.66,0.22,0.24,-0.36,1721201010173
-2.63,-5.40,7.30,-0.23,0.38,0.03,1721201010183
-0.85,-2.34,17.22,-0.02,0.30,-0.14,1721201010193
2.43,-6.68,5.81,-0.07,0.35,-0.53,1721201010203
-5.62,-4.68,6.06,-0.03,0.08,-0.62,1721201010213
-8.35,-10.20,4.79,-0.19,0.21,-0.26,1721201010223
-7.65,-4.60,16.96,-0.12,0.41,0.17,1721201010233
-2.75,-6.13,10.02,-0.06,0.13,0.37,1721201010243
0.32,-1.96,14.38,-0.17,0.41,0.14,1721201010253
2.94,-5.93,6.67,-0.19,0.12,-0.06,1721201010263
-4.70,-1.24,12.31,-0.25,0.07,-0.17,1721201010273
-5.13,1.69,14.15,0.03,0.19,0.15,1721201010283
-3.14,-0.20,9.74,-0.19,0.11,0.43,1721201010293
-1.91,1.91,12.17,-0.11,-0.07,0.48,1721201010303
1.31,-0.41,9.59,-0.12,0.06,0.47,1721201010313
-0.34,-2.65,6.24,-0.10,0.04,0.26,1721201010323
-1.84,1.60,13.87,0.02,0.18,0.13,1721201010333
0.15,4.67,9.50,0.16,0.03,0.28,1721201010343
-3.66,4.75,4.62,0.04,-0.12,0.26,1721201010353
-1.10,0.12,13.49,-0.13,0.29,0.11,1721201010363
-1.82,4.47,14.83,0.29,-0.19,0.22,1721201010373
-4.36,6.10,4.81,0.14,-0.16,0.32,1721201010383
-4.66,4.84,12.07,0.12,-0.21,0.36,1721201010393
-3.04,-1.37,5.43,0.15,-0.30,0.56,1721201010403
-3.29,1.04,10.45,-0.02,-0.13,0.65,1721201010413
1.27,3.99,16.73,0.17,-0.04,0.69,1721201010423
5.89,1.18,10.84,0.19,-0.08,0.74,1721201010433
6.57,2.81,8.32,0.07,-0.06,0.43,1721201010443
4.85,1.92,8.49,-0.16,-0.14,-0.07,1721201010453
-3.88,-0.74,11.74,-0.02,-0.31,-0.18,1721201010463
-9.45,-4.75,4.56,0.00,-0.26,0.32,1721201010473
-6.66,-1.56,12.94,-0.13,-0.03,0.89,1721201010483
0.17,-5.71,6.21,-0.02,-0.41,1.01,1721201010493
10.50,4.31,12.91,0.00,0.30,0.68,1721201010503
12.08,-3.70,1.61,-0.28,-0.57,0.06,1721201010513
-6.13,-1.08,20.69,-0.28,-0.25,-0.23,1721201010523
-6.79,-4.55,13.44,0.12,-0.16,0.12,1721201010533
-5.50,1.47,9.79,-0.08,-0.24,0.92,1721201010543
2.94,3.99,9.87,-0.15,-0.17,1.13,1721201010553
10.60,-0.88,12.21,-0.18,-0.10,0.48,1721201010563
7.34,-4.90,2.38,-0.01,-0.47,-0.14,1721201010573
-0.07,-3.64,13.96,-0.19,0.10,-0.53,1721201010583
-5.94,-5.72,12.31,-0.02,-0.30,0.01,1721201010593
-8.01,3.57,18.05,-0.15,-0.24,0.72,1721201010603
0.88,5.73,7.82,0.04,-0.05,0.78,1721201010613
5.80,0.90,7.17,-0.17,-0.18,0.18,1721201010623
6.92,-6.61,11.68,-0.26,-0.21,-0.31,1721201010633
-0.30,-3.36,12.06,0.08,-0.37,-0.32,1721201010643
-4.09,0.28,11.40,0.01,-0.01,0.06,1721201010653
-3.42,3.98,9.33,0.15,-0.33,0.57,1721201010663
3.64,4.94,8.03,-0.06,0.00,0.44,1721201010673
5.86,1.09,9.95,-0.08,-0.21,-0.15,1721201010683
-0.19,-1.62,9.77,0.06,-0.32,-0.44,1721201010693
-2.79,-0.12,8.64,0.13,-0.12,0.06,1721201010703
-1.07,-1.41,5.25,0.07,-0.20,0.39,1721201010713
1.92,3.17,13.30,0.01,-0.04,0.13,1721201010723
4.36,0.67,15.91,-0.01,-0.20,-0.11,1721201010733
0.48,5.77,9.51,0.24,-0.23,-0.14,1721201010743
2.66,-5.06,2.64,-0.11,0.08,0.02,1721201010753
0.28,3.09,14.39,0.21,-0.19,0.01,1721201010763
2.68,4.39,10.31,0.17,0.08,-0.18,1721201010773
0.85,-4.76,12.80,-0.08,-0.10,-0.40,1721201010783
-4.58,5.71,15.93,0.36,-0.26,-0.23,1721201010793
-0.37,-1.47,2.85,-0.02,0.20,-0.11,1721201010803
-0.02,1.99,14.10,0.25,-0.15,-0.05,1721201010813
1.18,0.96,1.28,0.23,-0.06,-0.08,1721201010823
2.40,0.13,11.91,-0.05,0.18,-0.21,1721201010833
0.79,-1.51,9.72,0.12,-0.22,-0.29,1721201010843
-0.25,-1.84,13.64,-0.10,0.24,-0.44,1721201010853
-1.16,2.84,15.23,0.23,-0.02,-0.27,1721201010863
1.30,1.20,5.00,0.02,0.12,-0.01,1721201010873
2.68,4.27,10.12,-0.03,0.16,-0.50,1721201010883
0.68,-1.35,9.96,-0.08,0.08,-0.77,1721201010893
-3.37,-0.31,11.52,-0.04,0.08,-0.48,1721201010903
-4.70,4.89,9.42,0.11,0.10,-0.26,1721201010913
-0.53,1.13,5.75,-0.07,0.16,-0.17,1721201010923
1.89,1.04,14.43,-0.20,0.18,-0.24,1721201010933
1.96,0.52,11.68,0.04,0.09,-0.44,1721201010943
-0.51,-6.61,6.33,-0.28,0.22,-0.93,1721201010953
-18.31,12.90,18.88,-0.15,-0.40,-0.47,1721201010963
-7.64,-11.46,6.71,-0.41,0.21,0.64,1721201010973
10.50,3.58,13.85,0.21,0.43,1.20,1721201010983
15.66,0.77,-2.01,-0.09,0.07,-0.09,1721201010993
10.27,2.67,16.25,-0.33,0.40,-1.63,1721201011003
-5.86,-4.16,16.32,-0.08,-0.56,-1.76,1721201011013
-17.51,1.21,16.48,-0.23,-0.01,-0.62,1721201011023
-9.58,-0.11,6.82,0.12,0.34,0.52,1721201011033
2.49,-3.75,11.62,-0.45,0.45,0.51,1721201011043
2.86,3.84,15.39,-0.02,-0.17,-0.09,1721201011053
1.35,-3.15,4.65,-0.17,0.07,-0.41,1721201011063
-2.81,5.27,13.97,0.05,-0.03,-0.28,1721201011073
-1.07,-3.96,5.37,-0.12,0.02,0.00,1721201011083
-3.18,6.82,11.35,-0.02,-0.11,0.14,1721201011093
3.57,1.78,11.13,-0.10,0.32,-0.11,1721201011103
1.53,-3.64,11.94,-0.15,-0.13,-0.36,1721201011113
-2.77,0.89,8.44,0.08,0.12,-0.39,1721201011123
-3.43,-3.32,7.35,0.02,0.09,-0.28,1721201011133
-5.34,4.75,13.66,0.15,-0.07,0.06,1721201011143
-1.25,0.51,8.94,0.14,0.06,0.30,1721201011153
0.87,0.76,13.31,-0.04,0.11,0.08,1721201011163
0.27,-0.52,5.15,0.18,-0.16,-0.05,1721201011173
0.82,-1.04,11.37,-0.10,0.34,-0.27,1721201011183
-2.74,0.60,9.29,0.23,-0.34,-0.23,1721201011193
-3.23,-4.52,7.98,-0.08,0.35,-0.05,1721201011203
-1.13,-2.35,10.70,0.21,-0.13,0.26,1721201011213
2.14,5.27,16.72,0.08,0.40,0.10,1721201011223
0.88,4.12,6.19,0.19,-0.51,-0.20,1721201011233
-1.11,-4.59,3.46,-0.16,0.28,-0.32,1721201011243
-1.92,-4.46,13.98,0.11,-0.12,0.03,1721201011253
-4.34,-0.89,9.04,-0.03,-0.26,0.15,1721201011263
0.08,5.66,12.53,0.20,0.12,0.28,1721201011273
4.87,-5.33,8.28,-0.19,0.17,-0.00,1721201011283
-1.86,-0.18,9.77,0.04,-0.28,-0.18,1721201011293
0.87,-0.04,12.26,0.02,0.42,-0.17,1721201011303
-0.71,0.23,12.15,0.04,-0.22,-0.03,1721201011313
-3.40,2.30,7.21,0.10,-0.14,0.04,1721201011323
2.18,2.99,14.55,0.07,0.27,0.05,1721201011333
0.99,0.70,6.89,0.15,-0.40,0.12,1721201011343
0.25,0.97,9.15,-0.05,0.19,-0.16,1721201011353
1.09,2.99,15.74,0.15,0.05,-0.36,1721201011363
-3.36,1.34,5.52,0.10,-0.20,-0.09,1721201011373
-1.94,-1.57,10.03,-0.08,0.20,0.03,1721201011383
2.25,1.72,13.88,0.21,-0.01,0.11,1721201011393
2.62,-1.27,10.19,-0.02,0.10,-0.09,1721201011403
0.69,13.75,12.52,0.44,-0.22,-0.17,1721201011413
3.00,0.50,7.37,-0.01,0.26,-0.26,1721201011423
-2.39,-0.25,11.13,0.18,-0.38,-0.20,1721201011433
-0.89,-5.01,9.33,-0.12,0.31,-0.21,1721201011443
-1.17,2.90,14.39,0.11,-0.13,-0.15,1721201011453
-1.28,7.20,9.16,0.16,0.16,-0.16,1721201011463
-0.38,-1.22,4.11,0.05,-0.07,-0.11,1721201011473
-3.06,-1.36,10.57,-0.07,-0.04,-0.17,1721201011483
-1.21,1.45,9.95,0.09,0.03,-0.11,1721201011493
-0.94,1.66,15.82,-0.13,0.14,-0.05,1721201011503
-1.76,-0.42,5.16,0.20,-0.32,-0.02,1721201011513
-0.19,-5.82,9.05,-0.19,0.18,0.05,1721201011523
0.79,0.86,10.87,0.18,-0.08,0.18,1721201011533
1.49,0.22,7.18,-0.17,0.19,-0.09,1721201011543
-1.41,-1.74,12.86,-0.07,-0.18,-0.34,1721201011553
-2.66,2.90,10.11,0.06,0.11,-0.27,1721201011563
-1.06,-8.43,6.17,-0.29,-0.02,0.08,1721201011573
-3.31,2.81,18.19,-0.08,-0.02,0.24,1721201011583
2.29,-6.19,3.31,-0.21,0.02,0.07,1721201011593
0.82,0.47,17.16,-0.18,0.01,-0.17,1721201011603
-0.06,-2.39,3.98,0.07,-0.12,-0.10,1721201011613
-1.71,2.98,11.95,-0.21,0.15,-0.11,1721201011623
-1.16,-1.38,6.95,-0.11,-0.12,-0.01,1721201011633
-0.78,-1.34,12.48,-0.38,0.08,0.01,1721201011643
-0.26,-2.92,9.56,-0.10,-0.18,0.02,1721201011653
0.14,-0.85,11.76,-0.35,0.17,-0.07,1721201011663
0.94,5.59,12.04,-0.03,-0.11,0.03,1721201011673
1.03,0.03,9.84,-0.30,0.07,-0.09,1721201011683
-1.15,-0.28,14.04,-0.29,-0.20,-0.12,1721201011693
-1.50,6.99,11.20,-0.13,0.05,-0.14,1721201011703
0.84,-4.83,5.81,-0.17,-0.16,-0.04,1721201011713
-0.58,-3.33,13.20,-0.19,0.03,-0.05,1721201011723
1.14,1.24,10.17,0.17,0.02,0.05,1721201011733
0.40,1.33,9.91,-0.00,0.10,-0.12,1721201011743
-1.59,6.18,13.51,0.09,-0.10,-0.19,1721201011753
-0.47,3.69,10.64,0.08,0.09,-0.10,1721201011763
0.50,-5.36,8.50,-0.04,-0.06,0.07,1721201011773
-0.65,4.73,14.44,0.10,0.09,-0.01,1721201011783
2.27,1.84,8.55,0.24,-0.05,-0.09,1721201011793
1.76,-5.11,10.55,0.00,0.12,-0.17,1721201011803
0.20,5.47,12.85,0.28,0.03,-0.15,1721201011813
-1.41,-3.45,5.49,0.09,0.02,-0.25,1721201011823
-2.55,0.32,15.85,0.03,0.10,-0.21,1721201011833
-0.74,0.51,5.65,0.26,0.02,-0.11,1721201011843
-0.40,-1.75,9.47,0.11,0.06,0.01,1721201011853
1.32,0.73,14.09,0.20,0.14,-0.10,1721201011863
0.47,-2.37,9.87,0.04,-0.01,-0.09,1721201011873
-1.38,3.32,10.71,0.10,0.02,-0.07,1721201011883
1.15,-2.98,6.23,-0.01,0.15,-0.15,1721201011893
-0.61,-1.43,13.29,0.03,0.05,-0.35,1721201011903
-1.81,-1.60,9.14,0.19,0.04,-0.28,1721201011913
-1.60,1.30,13.52,0.11,0.20,-0.00,1721201011923
1.62,2.80,9.60,0.27,0.04,0.18,1721201011933
2.88,1.99,8.88,0.14,0.22,-0.10,1721201011943
1.01,-0.19,7.41,0.21,-0.02,-0.27,1721201011953
-1.91,-0.17,10.86,0.02,0.15,-0.32,1721201011963
-2.02,1.31,10.20,0.21,0.05,-0.12,1721201011973
-0.72,-6.25,7.90,-0.06,0.20,-0.06,1721201011983
-1.35,1.39,17.75,0.12,0.10,-0.10,1721201011993
0.50,2.95,7.65,0.21,0.08,-0.04,1721201012003
-0.56,2.90,6.24,0.11,0.15,-0.16,1721201012013
-1.07,0.96,12.99,0.05,0.12,-0.15,1721201012023
-1.25,-0.96,10.86,0.08,-0.02,0.08,1721201012033
-0.60,2.23,10.57,0.02,0.19,-0.02,1721201012043
0.22,-0.98,9.22,-0.09,0.04,-0.10,1721201012053
-0.74,0.53,11.14,0.01,0.07,-0.10,1721201012063
0.06,2.09,9.37,-0.01,0.21,-0.12,1721201012073
-3.35,0.92,9.32,0.01,-0.14,-0.09,1721201012083
-2.47,0.63,8.64,0.04,0.01,0.12,1721201012093
3.41,0.12,11.57,-0.16,0.23,0.08,1721201012103
2.62,-2.34,14.92,-0.18,-0.17,-0.15,1721201012113
-0.33,7.90,11.51,0.22,0.10,-0.32,1721201012123
0.05,-2.47,2.36,-0.09,0.11,-0.33,1721201012133
-3.23,1.53,11.27,0.09,-0.14,-0.16,1721201012143
-0.34,0.24,8.21,-0.09,0.25,-0.02,1721201012153
0.74,0.64,16.04,-0.10,-0.03,-0.04,1721201012163
1.21,-1.14,9.55,-0.14,0.09,-0.19,1721201012178
1.02,-0.13,6.64,-0.09,0.10,-0.27,1721201012182
-0.71,-0.64,7.99,-0.14,0.05,-0.28,1721201012192
-1.57,-5.46,10.87,-0.19,0.02,-0.14,1721201012202
-1.01,3.18,10.48,0.13,0.10,0.02,1721201012212
2.76,1.02,5.90,-0.07,0.16,-0.01,1721201012222
1.10,-2.81,14.58,-0.30,-0.04,-0.20,1721201012232
-1.23,2.96,11.37,-0.01,0.08,-0.29,1721201012242
-0.94,0.95,8.71,-0.16,0.13,-0.19,1721201012252
-2.96,-4.08,8.69,-0.17,-0.10,-0.05,1721201012262
-0.45,2.69,12.28,-0.04,0.34,-0.06,1721201012272
1.80,0.64,11.42,-0.10,0.05,-0.19,1721201012282
-3.22,-0.35,7.85,-0.11,-0.01,-0.33,1721201012292
-1.49,-2.32,10.96,-0.16,0.34,-0.31,1721201012302
-1.86,1.69,14.03,0.03,-0.05,-0.01,1721201012312
-1.83,5.65,10.41,0.07,0.16,0.02,1721201012322
1.41,-2.32,9.56,-0.01,0.08,-0.04,1721201012332
-0.36,1.40,11.32,0.09,0.04,-0.11,1721201012342
0.79,3.13,8.50,0.15,0.16,-0.22,1721201012352
-0.93,0.48,13.69,0.04,0.09,-0.19,1721201012362
-2.98,-3.06,8.13,0.18,-0.15,-0.05,1721201012372
-1.40,-0.68,14.11,0.03,0.37,0.12,1721201012382
1.51,3.92,10.25,0.29,-0.01,0.02,1721201012392
0.34,0.56,6.11,0.14,-0.03,-0.13,1721201012402
-0.56,-2.38,10.09,0.07,0.16,-0.33,1721201012412
-2.89,3.40,11.64,0.26,0.01,-0.19,1721201012422
-2.08,-3.36,7.60,0.03,-0.00,0.12,1721201012432
0.35,0.60,11.96,0.09,0.15,0.18,1721201012442
2.99,-3.42,8.23,0.05,0.12,0.05,1721201012452
-1.17,5.52,14.71,0.08,0.10,-0.25,1721201012462
-2.06,-1.14,4.39,0.16,-0.10,-0.19,1721201012472
-1.92,-0.84,15.26,-0.02,0.22,0.08,1721201012482
0.72,1.52,7.78,0.26,-0.07,0.21,1721201012492
1.08,-2.07,9.30,-0.12,0.21,0.03,1721201012502
0.87,3.94,12.50,0.29,0.02,-0.16,1721201012512
0.39,-5.04,8.77,-0.12,0.18,-0.22,1721201012522
-3.51,3.13,14.35,0.21,-0.20,0.01,1721201012532
-1.08,0.78,7.28,0.09,0.34,-0.00,1721201012542
0.04,3.40,14.03,0.18,-0.03,0.06,1721201012552
-0.65,-2.22,6.57,0.07,-0.01,0.00,1721201012562
-0.88,1.70,13.05,0.20,0.11,-0.07,1721201012572
-0.26,2.07,7.98,0.17,-0.01,0.01,1721201012582
0.24,1.45,11.78,0.06,-0.02,0.09,1721201012592
0.77,2.52,11.99,0.24,0.09,-0.05,1721201012602
0.75,-2.89,8.04,-0.02,0.05,-0.15,1721201012612
-2.92,0.63,8.02,0.16,-0.16,-0.09,1721201012622
-1.49,1.53,8.43,0.08,0.18,-0.03,1721201012632
0.10,0.34,13.60,0.14,0.04,0.02,1721201012642
-0.28,-1.64,6.42,0.11,-0.05,0.06,1721201012652
-0.01,4.60,11.34,0.09,0.21,-0.03,1721201012662
0.64,0.40,8.35,-0.01,0.01,-0.07,1721201012672
-1.89,-1.91,13.97,-0.05,-0.03,-0.03,1721201012682
-1.88,-0.52,10.06,0.04,0.04,0.06,1721201012692
-0.67,3.75,11.65,0.09,0.02,0.14,1721201012702
0.76,1.43,7.73,-0.05,0.06,0.06,1721201012712
-0.08,-0.98,13.91,-0.20,0.03,-0.02,1721201012722
-2.58,5.74,9.98,0.22,-0.13,-0.04,1721201012732
-0.17,-7.49,4.63,-0.34,0.14,0.11,1721201012742
-1.74,4.52,16.42,0.11,-0.17,0.25,1721201012752
2.33,0.17,8.69,-0.23,0.19,0.06,1721201012762
0.45,-0.76,13.34,-0.06,-0.26,-0.04,1721201012772
-1.88,1.50,8.51,-0.15,0.10,-0.08,1721201012782
-1.93,2.09,10.80,-0.11,-0.10,-0.00,1721201012792
-2.31,-4.93,10.66,-0.24,-0.08,0.15,1721201012802
-1.42,1.82,11.15,-0.08,0.03,0.13,1721201012812
1.45,-3.86,9.39,-0.30,-0.01,0.06,1721201012822
-0.65,2.02,10.92,-0.01,-0.22,0.15,1721201012832
0.80,0.99,3.06,-0.03,0.04,0.09,1721201012842
1.00,1.77,14.64,-0.16,-0.02,-0.13,1721201012852
-1.00,1.54,9.24,0.07,-0.32,-0.05,1721201012862
-0.69,-1.19,11.17,-0.35,0.18,0.00,1721201012872
-0.68,0.83,14.63,-0.13,-0.22,0.17,1721201012882
-1.73,1.20,9.05,-0.11,0.02,0.05,1721201012892
0.82,-4.77,6.34,-0.13,-0.06,0.04,1721201012902
0.14,5.13,12.18,0.05,-0.06,0.05,1721201012912
2.66,2.58,11.71,-0.03,0.01,-0.04,1721201012922
1.12,2.73,13.05,-0.04,-0.12,-0.12,1721201012932
-1.14,-1.07,8.55,-0.03,-0.02,-0.13,1721201012942
-2.73,-1.85,10.38,-0.10,-0.07,-0.12,1721201012952
-1.17,1.79,10.97,0.11,-0.12,0.11,1721201012962
1.80,-0.95,10.09,0.03,0.08,0.06,1721201012972
1.55,2.57,7.72,0.24,-0.11,0.02,1721201012982
1.43,-2.30,10.10,-0.10,0.14,-0.26,1721201012992
-1.63,5.89,14.99,0.17,-0.22,-0.29,1721201013002
-1.43,-1.28,3.92,0.05,0.06,-0.11,1721201013012
-1.11,-2.73,13.41,0.03,0.00,0.07,1721201013022
0.06,1.26,11.85,0.18,-0.10,0.02,1721201013032
1.06,4.64,10.61,0.09,0.10,-0.19,1721201013042
1.23,-1.86,10.69,0.04,-0.05,-0.17,1721201013052
-2.29,0.55,8.63,0.18,-0.06,-0.15,1721201013062
-0.51,-2.78,7.90,0.09,0.25,-0.19,1721201013072
-1.13,-4.65,11.40,0.08,-0.13,-0.01,1721201013082
-0.97,4.49,11.65,0.23,0.00,0.10,1721201013092
3.06,4.08,10.76,0.04,0.21,-0.13,1721201013102
0.13,2.23,8.66,0.23,-0.26,-0.18,1721201013112
-0.73,-6.40,7.62,-0.02,0.20,-0.25,1721201013122
-2.84,2.46,13.36,0.16,-0.02,-0.17,1721201013132
-2.26,-0.16,9.11,0.02,0.00,0.09,1721201013142
-0.14,2.59,10.71,0.25,0.02,0.08,1721201013152
2.81,-2.69,5.04,0.10,0.07,-0.00,1721201013162
1.25,1.64,17.14,0.08,0.04,-0.26,1721201013172
-0.95,1.36,10.41,0.24,0.02,-0.32,1721201013182
-4.12,0.52,7.99,0.02,-0.00,-0.06,1721201013192
-2.79,5.02,14.09,0.19,0.10,0.09,1721201013202
2.64,-5.22,8.24,-0.08,0.08,0.15,1721201013212
-0.04,1.99,12.28,0.07,-0.11,-0.10,1721201013222
0.46,4.36,7.38,-0.01,0.20,-0.24,1721201013232
-0.62,-1.10,10.47,-0.09,-0.04,-0.18,1721201013242
-2.30,1.27,11.19,0.14,-0.06,0.03,1721201013252
2.74,-2.27,7.93,-0.12,0.28,0.05,1721201013262
0.92,3.14,9.25,0.08,-0.23,0.06,1721201013272
1.51,2.76,15.13,-0.27,0.29,-0.33,1721201013282
-0.58,5.90,11.00,0.27,-0.20,-0.35,1721201013292
-0.93,-5.13,1.17,-0.31,0.21,-0.18,1721201013302
-1.83,0.92,17.20,-0.05,-0.05,0.05,1721201013312
1.79,-0.98,6.64,-0.05,0.09,0.11,1721201013322
1.54,1.89,15.20,-0.09,0.08,-0.33,1721201013332
-0.67,-0.17,2.53,0.14,-0.16,-0.32,1721201013342
-0.75,-0.85,11.36,-0.25,0.41,-0.24,1721201013352
-0.40,0.18,10.11,0.09,-0.11,0.05,1721201013362
1.04,-1.10,10.51,-0.29,0.41,-0.16,1721201013372
1.38,1.30,11.17,0.08,-0.09,-0.34,1721201013382
0.09,-4.50,4.71,-0.20,0.07,-0.17,1721201013392
-2.66,-0.38,13.79,-0.10,0.15,-0.17,1721201013402
-0.93,-0.99,10.30,-0.10,0.18,-0.19,1721201013412
-2.00,2.70,12.19,-0.07,-0.03,-0.10,1721201013422
-0.80,1.03,10.37,-0.05,0.13,-0.10,1721201013432
0.54,-2.13,4.59,-0.06,0.06,-0.09,1721201013442
1.01,-5.29,11.20,-0.33,0.29,-0.22,1721201013452
-1.22,2.94,15.60,-0.00,-0.08,-0.32,1721201013462
-3.10,0.23,9.46,-0.13,0.10,-0.26,1721201013472
-3.30,5.90,13.59,-0.01,0.07,-0.08,1721201013482
-0.17,-5.22,5.60,-0.13,0.09,0.03,1721201013492
-0.68,1.83,13.14,0.02,0.09,-0.04,1721201013502
0.70,-0.51,7.02,0.08,0.10,-0.19,1721201013512
-3.06,1.30,7.63,0.11,-0.07,-0.15,1721201013522
-0.90,-0.57,11.47,0.03,0.19,-0.00,1721201013532
0.47,3.55,17.70,0.09,0.11,-0.00,1721201013542
1.58,1.69,9.14,0.11,0.02,0.01,1721201013552
-1.19,-1.29,9.02,-0.02,0.01,-0.19,1721201013562
-3.27,-1.61,7.28,0.17,-0.04,-0.17,1721201013572
-1.43,2.29,11.75,0.12,0.23,-0.16,1721201013582
-0.12,2.24,9.45,0.21,-0.13,0.01,1721201013592
-2.32,-1.11,8.17,0.07,0.06,0.09,1721201013602
1.97,2.87,16.36,0.11,0.32,-0.08,1721201013612
2.02,-3.64,7.60,0.08,-0.18,-0.10,1721201013622
-3.18,6.57,8.60,0.24,0.13,-0.13,1721201013632
-0.74,-3.38,8.92,0.03,0.17,-0.22,1721201013642
-3.91,-0.92,13.47,0.05,-0.18,-0.04,1721201013652
-1.07,1.15,10.32,0.10,0.23,0.13,1721201013662
1.16,-0.06,7.95,0.06,-0.00,0.02,1721201013672
0.77,3.98,14.16,0.18,0.17,-0.15,1721201013682
0.40,-3.78,2.26,0.13,-0.17,-0.15,1721201013692
-4.83,2.80,13.38,0.10,0.05,-0.13,1721201013702
-0.72,1.34,10.92,0.21,0.19,0.01,1721201013712
0.51,1.25,11.08,0.16,0.04,0.07,1721201013722
-0.54,3.16,7.43,0.20,-0.02,-0.04,1721201013732
-0.53,-4.36,10.09,-0.07,0.13,-0.12,1721201013742
-2.24,2.11,13.30,0.23,-0.12,-0.08,1721201013752
1.94,0.15,8.10,0.14,0.15,0.15,1721201013762
2.05,-0.69,11.21,0.09,0.00,0.09,1721201013772
0.25,4.15,13.83,0.08,0.08,-0.27,1721201013782
-0.20,1.74,3.50,0.22,-0.13,-0.20,1721201013792
-1.63,-1.87,11.21,-0.15,0.25,-0.12,1721201013802
-1.27,-1.51,13.64,0.12,-0.06,0.09,1721201013812
-0.42,2.83,9.45,0.00,0.14,0.07,1721201013822
1.92,3.68,11.40,0.08,0.17,-0.03,1721201013832
0.11,-4.47,5.90,-0.13,-0.09,-0.09,1721201013842
-4.24,3.06,10.83,0.09,-0.09,-0.06,1721201013852
-0.49,4.69,9.77,-0.01,0.29,-0.02,1721201013862
0.39,-1.09,8.76,-0.05,-0.13,0.07,1721201013872
-1.59,-1.36,8.42,-0.17,0.03,-0.03,1721201013882
-0.84,-1.67,11.10,-0.19,0.11,-0.06,1721201013892
-2.31,3.01,15.28,-0.10,-0.02,-0.06,1721201013902
-2.08,-0.31,6.05,-0.04,-0.05,0.08,1721201013912
-0.39,-0.49,10.24,-0.22,0.17,0.18,1721201013922
1.24,-2.71,8.48,-0.20,-0.07,0.07,1721201013932
-0.09,3.90,11.12,-0.10,-0.02,-0.08,1721201013942
0.59,-0.40,8.19,-0.19,0.03,-0.08,1721201013952
-2.72,4.50,13.55,-0.02,-0.17,0.03,1721201013962
-0.65,-6.04,4.65,-0.33,0.08,0.04,1721201013972
-1.69,1.72,17.53,-0.20,-0.07,0.01,1721201013982
-2.15,3.39,7.54,-0.02,-0.14,0.00,1721201013992
-0.35,-4.20,9.05,-0.21,0.08,0.13,1721201014002
-0.73,1.70,8.39,0.14,-0.16,0.21,1721201014012
1.10,2.79,12.26,-0.22,0.17,0.09,1721201014022
0.77,4.55,17.00,0.01,-0.27,0.09,1721201014032
0.00,-2.05,3.77,-0.08,-0.08,0.02,1721201014042
-0.56,1.63,11.45,-0.08,-0.03,-0.01,1721201014052
-0.28,-0.45,8.08,0.03,-0.16,0.09,1721201014062
0.33,1.54,19.26,-0.10,0.05,0.10,1721201014072
0.93,4.27,8.60,0.16,-0.21,0.11,1721201014082
0.75,1.55,6.51,-0.02,0.09,-0.02,1721201014092
1.75,-3.99,11.71,-0.05,-0.09,0.02,1721201014102
-0.29,3.99,11.05,0.19,-0.13,0.16,1721201014112
1.40,0.92,7.22,0.14,0.00,0.04,1721201014122
1.27,0.90,10.59,0.11,-0.08,-0.04,1721201014132
0.55,-1.96,7.74,0.09,-0.13,-0.07,1721201014142
-0.53,2.35,14.07,0.07,0.10,-0.04,1721201014152
0.44,-4.06,8.11,0.07,-0.13,0.17,1721201014162
-1.38,1.85,14.91,0.08,0.06,0.10,1721201014172
2.54,-0.97,7.54,-0.03,0.11,0.16,1721201014187
0.85,0.51,12.53,-0.02,0.02,-0.02,1721201014191
2.19,3.94,10.92,0.28,-0.02,-0.06,1721201014201
1.09,-2.60,6.70,0.05,-0.00,-0.17,1721201014211
-2.31,-4.22,8.05,0.10,-0.15,-0.02,1721201014221
-0.43,0.64,19.22,0.01,0.29,-0.13,1721201014231
0.88,2.42,8.69,0.31,-0.23,0.17,1721201014241
1.69,-2.80,7.16,-0.02,0.21,0.07,1721201014251
3.29,3.40,12.65,0.29,0.12,-0.17,1721201014261
1.39,0.10,8.48,0.03,0.06,-0.40,1721201014271
-3.42,1.18,7.47,0.22,-0.15,-0.15,1721201014281
-1.04,0.46,14.94,0.04,0.33,-0.04,1721201014291
2.39,-3.69,10.66,0.21,-0.05,0.02,1721201014301
-0.24,3.07,8.00,0.15,0.01,-0.16,1721201014311
0.28,4.40,12.98,0.15,0.41,-0.35,1721201014321
-1.98,-5.45,6.67,0.00,-0.06,-0.22,1721201014331
-4.75,3.85,9.55,0.24,0.02,0.04,1721201014341
4.23,-0.36,6.61,0.00,0.42,0.05,1721201014351
4.33,2.60,16.53,0.17,-0.06,-0.11,1721201014361
0.36,0.49,6.41,0.03,0.00,-0.38,1721201014371
-3.16,5.02,16.48,0.03,0.17,-0.39,1721201014381
-2.36,0.48,6.62,0.12,0.07,-0.25,1721201014391
-3.11,-2.38,10.09,-0.09,0.05,-0.03,1721201014401
-0.36,2.63,8.22,0.18,0.03,0.16,1721201014411
2.73,6.11,13.34,-0.01,0.42,-0.09,1721201014421
-0.10,-1.96,5.40,0.03,-0.25,-0.20,1721201014431
-3.91,-2.69,10.20,-0.25,0.06,-0.21,1721201014441
-0.33,3.80,16.86,0.10,0.27,0.10,1721201014451
3.19,-2.68,1.70,0.01,-0.01,0.10,1721201014461
2.14,-2.67,13.47,-0.21,0.16,-0.26,1721201014471
0.38,4.66,12.78,0.18,0.00,-0.35,1721201014481
-1.45,1.17,8.06,-0.30,0.25,-0.43,1721201014491
-2.85,-3.71,12.87,-0.02,-0.14,-0.04,1721201014501
-0.09,-9.46,5.22,-0.43,0.28,0.05,1721201014511
-0.08,4.47,12.55,0.15,-0.09,0.13,1721201014521
4.18,0.47,6.43,-0.19,0.37,-0.29,1721201014531
-0.36,-2.25,12.71,-0.19,-0.15,-0.42,1721201014541
-4.57,0.22,9.26,-0.11,0.08,-0.10,1721201014551
0.23,1.53,17.37,-0.19,0.47,0.17,1721201014561
0.94,-3.51,5.19,-0.17,-0.16,0.03,1721201014571
-1.47,3.19,10.57,-0.16,0.28,-0.45,1721201014581
1.13,-0.42,11.61,-0.12,0.19,-0.44,1721201014591
-2.66,-1.59,12.96,-0.16,0.04,-0.15,1721201014601
-3.48,4.32,11.70,0.02,0.24,-0.10,1721201014611
-1.70,-3.25,7.74,-0.19,0.13,-0.08,1721201014621
-0.92,4.04,14.50,0.05,0.20,-0.09,1721201014631
1.11,4.86,7.51,0.18,0.15,-0.07,1721201014641
-0.74,-3.12,9.28,-0.16,0.06,-0.23,1721201014651
-3.01,-0.69,14.65,0.03,0.09,-0.13,1721201014661
-0.93,5.95,9.48,0.24,0.25,0.00,1721201014671
1.19,1.23,8.25,0.07,0.03,-0.07,1721201014681
-1.12,1.88,10.16,0.06,-0.09,-0.24,1721201014691
-1.63,-2.56,9.20,0.11,0.20,-0.22,1721201014701
-3.08,-0.15,12.53,0.06,0.21,-0.24,1721201014711
-3.22,4.31,12.71,0.17,0.00,-0.10,1721201014721
-0.54,1.54,7.34,0.14,0.10,0.10,1721201014731
-1.34,-1.25,7.23,-0.05,0.10,-0.14,1721201014741
-2.35,4.27,11.55,0.19,-0.03,-0.22,1721201014751
-1.47,-6.43,7.33,-0.15,0.03,-0.11,1721201014761
-5.30,0.55,10.61,0.18,-0.28,0.22,1721201014771
1.05,3.88,10.59,0.10,0.53,0.23,1721201014781
2.96,-0.90,14.11,-0.01,-0.13,0.06,1721201014791
-2.86,3.57,8.51,0.08,-0.35,-0.16,1721201014801
-2.31,-0.01,5.85,0.05,0.08,-0.11,1721201014811
-2.52,2.04,12.58,0.13,0.02,0.05,1721201014821
0.37,-4.10,8.24,0.05,-0.06,0.30,1721201014831
-0.34,3.79,13.48,0.14,-0.04,0.15,1721201014841
0.56,0.56,5.04,-0.00,-0.07,-0.04,1721201014851
-1.59,3.45,18.43,0.06,-0.03,-0.14,1721201014861
-1.53,2.11,9.67,0.12,-0.15,0.09,1721201014871
-3.14,3.70,9.19,0.17,-0.24,0.30,1721201014881
-2.51,-2.96,5.62,-0.14,0.03,0.20,1721201014891
-1.78,1.86,17.93,0.02,-0.13,0.26,1721201014901
0.19,4.19,3.02,0.23,-0.20,0.47,1721201014911
3.42,-1.58,13.58,-0.28,0.15,0.19,1721201014921
1.27,3.31,12.32,0.27,-0.56,0.15,1721201014931
1.29,-4.27,7.07,-0.24,0.09,0.03,1721201014941
-1.27,0.27,18.04,0.16,-0.26,0.16,1721201014951
-1.23,2.63,4.33,0.02,-0.15,0.23,1721201014961
-0.11,5.86,13.03,0.08,-0.13,0.32,1721201014971
1.40,-2.15,6.38,-0.13,-0.19,0.15,1721201014981
-1.64,-0.96,13.26,-0.14,-0.30,0.08,1721201014991
0.25,-5.01,8.62,-0.22,-0.08,0.02,1721201015001
0.28,-0.79,11.94,-0.00,-0.35,0.25,1721201015011
2.76,2.47,6.28,-0.09,-0.07,0.32,1721201015021
3.03,-0.02,11.86,-0.27,-0.16,-0.09,1721201015031
-0.69,-3.62,12.25,-0.19,-0.34,-0.36,1721201015041
-3.25,-3.51,11.88,-0.25,0.00,-0.16,1721201015051
-3.47,-0.15,6.20,-0.05,-0.23,0.25,1721201015061
0.90,-2.84,11.87,-0.30,-0.07,0.36,1721201015071
4.59,-1.49,6.20,-0.07,-0.27,0.12,1721201015081
4.75,0.55,8.79,-0.35,0.12,-0.46,1721201015091
-0.94,1.03,17.70,-0.25,-0.30,-0.54,1721201015101
-3.85,1.13,12.99,-0.12,-0.16,-0.20,1721201015111
0.40,-5.94,8.79,-0.29,0.17,-0.00,1721201015121
-0.41,-0.23,7.09,-0.05,-0.27,-0.12,1721201015131
-0.14,6.54,8.52,-0.10,-0.01,-0.37,1721201015141
1.89,4.21,14.75,-0.10,-0.01,-0.45,1721201015151
-1.23,-3.15,10.00,-0.14,-0.20,-0.33,1721201015161
-1.32,-6.62,11.10,-0.15,0.14,-0.20,1721201015171
-0.78,0.75,13.57,0.05,-0.00,-0.18,1721201015181
0.71,6.11,13.76,0.12,0.12,-0.32,1721201015191
-0.55,7.81,7.45,0.36,-0.16,-0.37,1721201015201
2.65,-4.49,5.27,0.02,0.19,-0.27,1721201015211
-0.62,-3.19,14.97,0.05,-0.03,-0.16,1721201015221
-2.24,-0.81,13.28,0.04,0.15,-0.36,1721201015231
-0.47,0.10,6.03,0.25,-0.17,-0.20,1721201015241
2.35,2.40,9.36,0.24,0.35,-0.29,1721201015251
2.06,0.04,10.89,0.19,0.16,-0.45,1721201015261
-4.93,-2.26,14.03,-0.07,-0.05,-0.53,1721201015271
-4.03,-1.42,7.11,0.17,0.02,-0.07,1721201015281
2.64,0.60,10.52,0.06,0.35,0.14,1721201015291
3.79,6.98,14.69,0.22,0.05,-0.24,1721201015301
0.98,-0.35,2.91,0.13,0.02,-0.54,1721201015311
-2.09,1.03,8.33,0.03,0.33,-0.53,1721201015321
-2.03,-6.14,9.03,0.03,0.13,-0.24,1721201015331
-3.64,-0.48,15.28,0.19,0.10,-0.10,1721201015341
0.09,2.81,7.34,0.25,0.20,-0.05,1721201015351
1.96,5.84,8.71,0.21,0.19,-0.19,1721201015361
0.39,1.10,12.67,0.03,0.26,-0.51,1721201015371
-5.57,-1.90,9.98,0.12,-0.01,-0.37,1721201015381
-4.86,-0.59,7.58,0.13,0.27,0.10,1721201015391
4.66,1.25,12.03,0.13,0.43,0.26,1721201015401
6.43,1.08,11.70,0.16,0.05,-0.22,1721201015411
0.08,9.50,10.76,0.17,0.26,-0.66,1721201015421
-4.00,0.86,2.14,-0.08,0.19,-0.57,1721201015431
-8.39,-3.42,15.57,-0.25,0.11,-0.20,1721201015441
-3.98,-2.12,7.54,0.21,0.09,0.33,1721201015451
3.68,-1.34,11.10,-0.28,0.49,0.20,1721201015461
3.06,10.85,14.90,0.34,-0.03,-0.14,1721201015471
2.22,-6.36,-1.15,-0.28,0.23,-0.43,1721201015481
-7.18,-0.04,24.86,-0.04,0.01,-0.16,1721201015491
-2.94,-11.07,5.13,-0.24,0.03,0.17,1721201015501
-1.19,7.36,21.93,0.12,0.19,0.16,1721201015511
6.51,3.40,-0.54,0.13,0.14,-0.00,1721201015521
-0.71,1.07,7.85,-0.34,-0.08,-0.41,1721201015531
-3.94,0.45,5.88,0.09,-0.09,-0.49,1721201015541
-1.25,-9.32,9.08,-0.35,0.41,-0.17,1721201015551
-2.66,1.55,19.80,0.03,-0.10,0.25,1721201015561
0.36,0.55,2.66,-0.10,0.08,0.19,1721201015571
0.96,0.98,14.44,-0.36,0.20,-0.19,1721201015581
-0.22,4.75,11.89,-0.03,-0.01,-0.31,1721201015591
-0.95,-4.77,6.47,-0.34,0.09,0.08,1721201015601
-2.55,0.76,10.15,0.01,-0.06,0.24,1721201015611
2.92,-2.84,12.93,-0.22,0.40,0.09,1721201015621
-0.48,3.79,8.56,0.00,-0.24,-0.03,1721201015631
1.20,8.05,15.68,-0.13,0.59,-0.29,1721201015641
-0.34,1.01,12.45,-0.02,-0.23,-0.17,1721201015651
-4.69,-4.96,12.20,-0.28,0.22,-0.06,1721201015661
-2.77,-3.76,8.09,0.19,-0.10,0.20,1721201015671
0.17,4.25,10.82,0.08,0.38,0.11,1721201015681
-0.68,6.57,11.34,0.24,-0.25,-0.23,1721201015691
-4.55,-1.49,9.42,-0.19,0.05,-0.32,1721201015701
-5.84,1.38,11.53,0.14,-0.06,0.12,1721201015711
-0.40,-3.84,10.29,0.02,0.15,0.47,1721201015721
0.91,-2.32,6.95,0.20,-0.34,0.42,1721201015731
4.46,2.17,13.63,0.15,0.40,-0.09,1721201015741
3.17,3.96,9.95,0.25,-0.16,-0.39,1721201015751
-3.83,-3.28,7.54,-0.05,-0.02,-0.46,1721201015761
-5.86,-1.10,16.27,0.13,-0.20,0.08,1721201015771
-4.09,2.82,9.46,0.17,-0.07,0.49,1721201015781
0.46,-2.82,8.66,0.00,-0.13,0.23,1721201015791
2.22,3.91,12.73,0.25,0.08,-0.06,1721201015801
2.99,-3.10,8.40,-0.07,-0.03,-0.19,1721201015811
-5.98,5.52,8.66,0.17,-0.60,-0.13,1721201015821
-3.48,3.34,10.13,0.17,0.23,0.11,1721201015831
1.54,-6.16,9.85,0.01,-0.15,0.38,1721201015841
0.11,-2.17,12.14,-0.02,-0.26,0.15,1721201015851
3.42,9.73,13.89,0.33,0.17,-0.25,1721201015861
2.15,0.12,2.05,0.04,-0.21,-0.40,1721201015871
-5.75,3.17,10.83,0.05,-0.41,-0.21,1721201015881
-2.30,-3.78,10.53,0.12,0.12,0.19,1721201015891
2.56,2.43,14.41,0.21,0.02,0.18,1721201015901
2.08,2.61,4.46,0.16,-0.19,-0.15,1721201015911
-3.58,6.91,10.18,-0.01,-0.16,-0.34,1721201015921
-2.04,1.81,9.89,0.13,-0.06,0.02,1721201015931
-0.24,-7.94,10.97,-0.26,-0.12,0.20,1721201015941
-0.32,-1.28,11.39,0.05,-0.18,0.23,1721201015951
4.54,8.96,14.75,0.24,0.29,-0.13,1721201015961
2.66,2.95,4.23,0.12,-0.38,-0.21,1721201015971
-2.09,1.15,16.06,-0.20,0.17,-0.25,1721201015981
-1.53,-2.26,8.95,0.14,-0.17,-0.15,1721201015991
-2.94,-4.19,10.46,-0.29,-0.04,-0.21,1721201016001
-3.14,9.52,15.47,0.40,-0.26,0.04,1721201016011
2.95,-7.19,-2.22,-0.19,-0.02,0.10,1721201016021
-2.01,-2.92,18.09,-0.13,-0.03,-0.21,1721201016031
-1.63,-4.54,10.23,-0.06,-0.12,-0.37,1721201016041
-4.34,6.96,15.02,0.14,-0.15,-0.01,1721201016051
0.27,-5.10,0.29,-0.21,-0.01,0.18,1721201016061
-0.27,-2.18,12.32,-0.24,-0.10,0.07,1721201016071
3.18,-0.68,6.82,-0.05,-0.08,-0.21,1721201016081
1.85,0.54,14.96,-0.21,-0.04,-0.31,1721201016091
-1.85,-1.55,13.75,-0.14,-0.06,-0.25,1721201016101
-5.04,-4.72,4.38,-0.21,-0.15,-0.16,1721201016111
-5.41,2.73,12.19,-0.12,0.02,-0.07,1721201016121
2.27,-7.91,5.81,-0.19,-0.09,0.20,1721201016131
3.43,0.04,15.82,-0.09,-0.03,0.14,1721201016141
3.48,1.31,5.87,-0.01,0.03,-0.35,1721201016151
-1.98,6.90,20.40,-0.15,-0.08,-0.50,1721201016161
-4.32,-0.25,5.65,0.07,-0.22,-0.10,1721201016171
-0.95,-4.89,13.30,-0.34,0.22,-0.02,1721201016181
4.98,-1.75,6.35,0.04,0.16,-0.12,1721201016196
3.90,1.13,8.78,0.02,0.19,-0.15,1721201016200
2.06,10.68,14.59,0.30,-0.01,-0.41,1721201016210
-0.19,3.14,7.58,0.11,0.02,-0.46,1721201016220
-2.60,-4.30,10.00,0.04,0.04,-0.41,1721201016230
-3.25,-8.69,10.31,-0.05,0.06,-0.18,1721201016240
-1.91,5.69,14.05,0.30,0.05,0.22,1721201016250
4.90,-1.62,1.76,0.11,0.16,-0.05,1721201016260
2.02,2.20,17.05,0.06,0.06,-0.44,1721201016270
-0.52,-5.92,15.72,0.02,0.09,-0.61,1721201016280
-5.62,-0.97,6.49,0.17,-0.04,-0.23,1721201016290
-2.96,2.18,11.38,0.09,0.28,0.08,1721201016300
1.19,5.12,8.43,0.36,-0.06,0.19,1721201016310
5.76,7.97,13.34,0.19,0.41,-0.22,1721201016320
4.93,-7.22,6.49,-0.03,-0.04,-0.59,1721201016330
-5.92,-3.83,8.53,-0.05,-0.05,-0.71,1721201016340
-6.26,1.52,11.07,0.06,0.34,-0.23,1721201016350
-2.72,3.68,11.15,0.22,0.18,0.35,1721201016360
3.12,-0.47,7.98,0.11,0.17,0.25,1721201016370
5.12,-2.05,10.08,-0.02,0.19,-0.33,1721201016380
0.28,4.14,14.54,0.05,0.17,-0.58,1721201016390
-4.28,-1.77,7.53,0.01,0.07,-0.18,1721201016400
-3.91,-1.43,11.15,0.14,0.10,0.19,1721201016410
4.87,-0.12,10.51,0.20,0.41,0.22,1721201016420
6.00,0.89,9.00,-0.04,0.14,-0.34,1721201016430
-2.10,8.25,16.06,0.11,0.03,-0.62,1721201016440
-3.55,-1.33,13.83,-0.05,0.38,-0.52,1721201016450
-4.49,-1.63,6.13,0.30,0.01,0.10,1721201016460
2.42,1.07,6.47,-0.06,0.58,0.14,1721201016470
3.35,2.79,6.53,-0.00,0.02,-0.18,1721201016480
-1.74,1.40,9.43,-0.15,0.31,-0.67,1721201016490
-3.23,-6.97,13.01,-0.14,0.24,-0.49,1721201016500
-5.09,-4.31,12.76,-0.03,-0.01,0.16,1721201016510
-0.68,7.96,14.60,0.05,0.39,0.37,1721201016520
5.90,4.23,8.50,0.07,0.20,0.04,1721201016530
1.72,3.69,6.90,-0.02,0.10,-0.43,1721201016540
-2.30,-3.84,10.98,-0.18,0.27,-0.51,1721201016550
-5.26,-4.88,8.35,-0.04,0.01,-0.05,1721201016560
-1.74,2.57,13.77,-0.09,0.42,0.35,1721201016570
4.52,-1.59,8.71,-0.05,0.21,0.08,1721201016580
1.35,1.69,9.64,-0.09,0.05,-0.31,1721201016590
-2.55,1.35,5.68,0.03,0.10,-0.27,1721201016600
-2.65,3.23,12.14,-0.04,0.42,-0.05,1721201016610
-1.02,-3.05,10.72,-0.14,0.09,0.21,1721201016620
-1.89,-6.15,9.20,-0.28,0.04,0.11,1721201016630
0.91,2.31,15.03,0.03,0.41,-0.09,1721201016640
1.91,1.18,7.72,0.03,0.04,-0.07,1721201016650
-2.35,0.78,12.16,-0.09,0.11,-0.08,1721201016660
-0.53,1.39,13.83,0.03,0.28,0.02,1721201016670
-0.69,-1.61,9.32,0.00,0.04,0.11,1721201016680
-2.79,2.87,2.78,0.16,-0.00,0.08,1721201016690
0.48,4.92,9.22,-0.05,0.31,-0.01,1721201016700
-1.04,-1.37,9.43,0.05,-0.19,0.02,1721201016710
-2.33,-3.86,14.29,-0.12,0.43,0.04,1721201016720
0.63,-2.60,16.68,-0.06,0.15,-0.03,1721201016730
-2.87,1.39,9.48,-0.01,-0.34,0.21,1721201016740
-1.56,5.58,9.27,0.17,0.27,0.12,1721201016750
3.22,-3.11,8.60,0.03,0.22,0.00,1721201016760
-3.74,-2.55,10.74,-0.04,-0.33,0.08,1721201016770
-3.65,2.59,9.16,0.18,0.05,0.21,1721201016780
3.18,-3.07,9.76,-0.02,0.31,0.16,1721201016790
0.32,2.79,14.65,0.08,-0.17,0.08,1721201016800
-1.62,1.49,8.34,0.11,0.07,-0.04,1721201016810
-0.14,-4.21,11.30,-0.15,0.06,0.02,1721201016820
-1.73,2.42,12.00,0.28,-0.20,0.26,1721201016830
1.69,-0.99,9.65,-0.15,0.30,0.06,1721201016840
-1.85,6.09,13.48,0.33,-0.37,0.06,1721201016850
-2.08,-1.02,1.98,-0.05,0.14,0.00,1721201016860
-1.10,-3.45,12.45,-0.01,-0.14,0.12,1721201016870
-1.16,-1.74,10.47,-0.13,-0.02,0.10,1721201016880
1.81,5.76,19.25,0.27,0.11,0.24,1721201016890
2.69,-7.42,0.40,-0.12,-0.06,0.19,1721201016900
-4.14,6.92,14.31,0.18,-0.07,-0.17,1721201016910
0.35,3.30,6.49,0.22,0.07,-0.14,1721201016920
-0.17,2.44,13.60,0.02,-0.06,0.34,1721201016930
0.85,-1.72,9.40,-0.02,-0.08,0.27,1721201016940
1.06,-3.99,6.75,-0.12,-0.20,0.01,1721201016950
-0.94,6.90,8.58,0.24,0.02,-0.13,1721201016960
3.14,-6.22,7.10,-0.36,0.20,0.07,1721201016970
-1.08,10.52,23.42,0.24,-0.25,0.15,1721201016980
1.33,-1.80,-5.96,0.02,-0.05,-0.10,1721201016990
-2.59,-6.82,15.64,-0.47,0.14,-0.12,1721201017000
-5.37,5.03,19.40,0.24,-0.35,0.25,1721201017010
2.58,-0.29,2.99,-0.22,0.15,0.29,1721201017020
2.00,0.28,12.16,-0.02,-0.32,0.24,1721201017030
3.49,-2.72,9.46,-0.24,0.30,-0.26,1721201017040
-1.51,9.22,16.74,0.07,-0.13,-0.35,1721201017050
-4.62,-1.38,5.26,-0.17,-0.03,-0.15,1721201017060
-5.29,1.32,13.49,-0.05,-0.02,0.35,1721201017070
1.05,1.52,7.96,-0.05,0.13,0.46,1721201017080
5.10,-2.81,7.78,-0.27,-0.06,0.20,1721201017090
2.34,-0.47,12.03,-0.20,0.03,-0.36,1721201017100
-0.81,-1.02,15.43,-0.14,0.02,-0.28,1721201017110
-2.98,2.19,11.75,-0.01,-0.08,0.20,1721201017120
-0.56,0.36,4.43,-0.01,0.05,0.16,1721201017130
1.88,4.53,14.55,0.00,0.25,-0.15,1721201017140
1.81,-5.22,9.73,-0.18,-0.18,-0.19,1721201017150
-2.82,0.27,12.21,-0.14,0.06,-0.21,1721201017160
-1.03,2.17,7.22,0.02,0.08,-0.06,1721201017170
0.06,1.26,10.38,0.01,0.07,0.05,1721201017180
1.51,-2.87,8.77,0.02,0.05,0.04,1721201017190
0.74,1.86,16.22,-0.16,0.33,-0.20,1721201017200
-1.90,4.38,14.24,0.10,-0.10,-0.22,1721201017210
-2.24,-4.75,-1.21,-0.00,-0.03,-0.02,1721201017220
-1.44,-0.89,13.35,0.01,0.27,-0.02,1721201017230
2.24,1.20,8.69,0.19,-0.01,0.05,1721201017240
-0.47,2.96,10.75,0.07,0.09,-0.15,1721201017250
-0.21,-8.18,8.20,-0.11,0.07,-0.08,1721201017260
-3.86,4.47,21.30,0.04,0.05,0.04,1721201017270
0.45,0.33,-0.62,0.26,-0.02,0.28,1721201017280
1.48,-5.22,10.61,-0.10,0.23,0.06,1721201017290
1.01,-1.31,12.96,0.28,-0.23,0.02,1721201017300
-0.50,7.04,14.69,0.07,0.37,-0.10,1721201017310
-0.03,-3.44,10.93,-0.01,0.02,-0.02,1721201017320
-5.85,5.39,10.60,0.18,-0.11,0.02,1721201017330
1.41,-1.58,4.74,0.11,0.29,0.09,1721201017340
2.81,-3.49,12.09,0.06,-0.04,0.22,1721201017350
0.07,8.92,11.91,0.19,0.21,-0.14,1721201017360
0.41,-3.08,10.60,-0.03,0.14,-0.39,1721201017370
-4.00,-1.19,17.63,0.14,-0.25,0.10,1721201017380
-1.44,0.48,6.66,0.17,0.16,0.53,1721201017390
3.45,-0.46,5.29,0.06,0.16,0.37,1721201017400
3.97,7.15,16.68,0.13,0.14,-0.19,1721201017410
1.08,-1.87,7.05,0.21,-0.09,-0.55,1721201017420
-6.11,-1.78,11.85,0.10,0.07,-0.12,1721201017430
-4.37,2.36,8.41,0.24,0.12,0.41,1721201017440
2.47,-2.02,5.92,-0.11,0.15,0.50,1721201017450
3.27,5.12,15.10,0.12,0.03,0.02,1721201017460
1.13,1.52,10.70,0.02,0.04,-0.50,1721201017470
-5.68,3.01,6.23,0.22,-0.24,-0.14,1721201017480
-3.21,-6.87,6.89,-0.38,0.32,0.32,1721201017490
-1.36,2.95,19.15,0.10,-0.16,0.53,1721201017500
3.85,4.60,3.39,0.12,0.04,0.24,1721201017510
5.11,2.89,8.07,-0.05,0.05,-0.12,1721201017520
0.16,-4.77,11.52,-0.20,-0.09,-0.22,1721201017530
-6.04,3.96,17.14,0.03,0.02,-0.20,1721201017540
-3.49,1.11,3.06,0.05,0.02,0.22,1721201017550
-0.09,0.40,7.77,-0.11,-0.04,0.55,1721201017560
5.38,-3.93,14.53,-0.19,0.10,0.33,1721201017570
4.22,1.26,10.30,0.07,-0.26,-0.27,1721201017580
1.24,0.16,9.09,-0.14,0.10,-0.33,1721201017590
-2.30,-4.38,11.65,-0.19,-0.04,0.03,1721201017600
-4.47,2.43,10.79,0.03,-0.03,0.18,1721201017610
1.02,-1.02,10.18,-0.24,0.22,0.20,1721201017620
2.62,4.50,12.33,0.09,-0.18,0.13,1721201017630
4.87,-4.57,8.94,-0.32,0.29,-0.16,1721201017640
-3.01,1.77,9.52,0.05,-0.41,-0.19,1721201017650
-1.71,-1.55,13.32,-0.26,0.51,-0.15,1721201017660
-0.24,-0.18,9.95,0.05,-0.34,0.17,1721201017670
-0.19,4.75,5.57,-0.01,0.26,0.09,1721201017680
4.82,-1.75,18.22,-0.20,0.31,-0.33,1721201017690
-1.19,2.66,14.03,0.13,-0.33,-0.33,1721201017700
-3.34,2.79,4.91,-0.01,0.26,-0.22,1721201017710
-3.61,-6.54,10.10,-0.11,-0.05,0.06,1721201017720
-4.27,7.77,10.65,0.28,-0.11,0.25,1721201017730
3.64,0.47,6.73,-0.02,0.30,0.10,1721201017740
-0.32,0.49,12.33,-0.00,-0.37,-0.12,1721201017750
-1.41,3.42,8.86,0.07,0.22,-0.26,1721201017760
0.33,-6.71,5.05,-0.05,-0.11,-0.08,1721201017770
-1.85,0.43,21.95,-0.05,0.13,-0.05,1721201017780
-0.19,5.56,6.85,0.45,-0.08,0.02,1721201017790
-0.42,0.47,4.84,-0.15,0.10,-0.04,1721201017800
-0.39,4.12,15.04,0.21,-0.03,-0.22,1721201017810
-0.51,-6.51,6.96,-0.13,-0.02,-0.29,1721201017820
-6.35,7.74,12.11,0.25,-0.17,-0.01,1721201017830
-0.40,-4.60,6.21,-0.11,0.17,0.12,1721201017840
-0.01,6.84,14.73,0.17,-0.33,0.13,1721201017850
2.04,-3.82,5.75,-0.06,0.17,-0.11,1721201017860
-1.91,-2.37,10.60,-0.02,-0.15,-0.31,1721201017870
-4.81,5.09,13.34,0.13,0.07,-0.26,1721201017880
-2.30,-2.10,7.30,0.11,-0.17,0.30,1721201017890
-1.55,0.50,7.77,0.15,0.00,0.37,1721201017900
5.23,1.89,12.85,0.09,0.12,0.10,1721201017910
4.38,0.85,12.66,0.01,-0.35,-0.01,1721201017920
-2.60,2.00,6.47,0.10,-0.35,-0.18,1721201017930
-2.79,-0.20,12.91,-0.03,0.23,-0.14,1721201017940
-1.88,-1.56,12.89,0.09,-0.12,0.01,1721201017950
-2.79,3.41,4.12,0.15,-0.17,0.32,1721201017960
2.33,0.66,11.05,-0.13,0.23,0.22,1721201017970
1.50,-0.76,10.77,0.00,-0.37,0.01,1721201017980
-1.01,4.37,11.43,0.02,0.02,-0.20,1721201017990
0.46,-2.62,7.82,-0.06,-0.13,0.05,1721201018000
-3.89,-1.63,12.50,-0.18,-0.27,0.17,1721201018010
-1.00,6.50,12.47,0.07,-0.01,0.27,1721201018020
3.47,-0.95,4.97,-0.13,-0.04,0.12,1721201018030
0.45,1.23,13.19,-0.05,-0.27,-0.04,1721201018040
-0.22,1.60,8.27,0.04,-0.10,-0.07,1721201018050
-2.02,3.05,11.10,-0.11,-0.08,0.02,1721201018060
-1.92,-2.72,8.26,-0.13,-0.23,0.24,1721201018070
-0.67,1.12,9.05,-0.06,-0.11,0.22,1721201018080
3.60,-0.92,10.93,-0.20,0.13,-0.12,1721201018090
0.79,-0.84,12.33,-0.09,-0.31,-0.15,1721201018100
-2.79,3.07,7.75,-0.04,-0.09,-0.01,1721201018110
-0.97,1.13,10.32,-0.13,-0.02,0.14,1721201018120
0.85,-3.69,6.99,-0.11,-0.23,0.09,1721201018130
-1.18,0.37,11.62,-0.19,-0.09,-0.21,1721201018140
-3.94,2.88,17.82,-0.04,0.22,-0.23,1721201018685
-4.80,-0.82,10.63,0.07,-0.14,-0.07,1721201018690
-2.94,3.49,6.50,0.06,0.29,0.21,1721201018700
1.58,-3.84,10.60,-0.17,0.11,-0.00,1721201018710
-1.42,-3.36,9.21,-0.02,-0.20,-0.17,1721201018720
-0.94,4.02,8.22,0.02,0.31,-0.24,1721201018730
1.72,-0.36,18.46,-0.16,0.29,-0.12,1721201018740
-1.80,0.82,8.06,0.17,-0.25,-0.04,1721201018750
-0.20,-2.64,10.01,-0.28,0.45,-0.10,1721201018760
-0.34,2.36,14.94,0.08,-0.34,0.13,1721201018770
-0.58,5.73,4.06,0.13,0.23,-0.16,1721201018780
3.57,-1.21,15.36,-0.09,0.15,-0.21,1721201018790
-2.80,0.40,4.53,0.12,-0.45,-0.10,1721201018800
-1.93,0.32,12.59,-0.10,0.62,-0.20,1721201018810
0.38,-3.86,15.57,0.09,0.04,0.00,1721201018820
-2.33,7.47,9.67,0.27,0.09,0.05,1721201018830
2.27,-2.46,9.20,-0.11,0.19,-0.19,1721201018840
-3.60,8.04,9.14,0.28,-0.59,-0.15,1721201018850
0.30,1.43,8.56,-0.03,0.60,-0.20,1721201018860
-0.67,-2.63,11.72,0.14,-0.37,0.11,1721201018870
-2.53,0.69,10.79,0.02,0.21,0.03,1721201018880
0.79,-0.31,8.62,0.23,-0.12,-0.02,1721201018890
-1.89,1.48,6.67,0.05,-0.00,-0.06,1721201018900
0.41,4.05,16.68,0.22,0.19,-0.12,1721201018910
0.88,-1.82,11.00,0.17,-0.03,0.01,1721201018920
-0.88,2.48,11.35,0.12,-0.07,0.04,1721201018930
0.67,2.77,8.14,0.13,0.05,-0.02,1721201018940
0.65,-3.44,7.86,-0.05,-0.03,-0.05,1721201018950
-0.75,2.68,16.89,0.16,0.03,-0.22,1721201018960
-1.60,2.16,3.78,0.22,-0.10,-0.13,1721201018970
-3.86,0.00,11.72,-0.16,0.02,-0.00,1721201018980
-2.84,-0.45,11.74,0.19,-0.25,0.31,1721201018990
-0.42,0.43,5.67,-0.15,0.09,0.19,1721201019000
1.37,0.48,11.05,0.09,-0.18,0.00,1721201019010
-1.29,1.02,8.83,-0.06,0.07,-0.03,1721201019020
-2.68,0.55,11.79,-0.14,-0.09,0.05,1721201019030
-0.21,0.52,13.92,-0.01,-0.06,0.24,1721201019040
4.01,2.13,10.81,0.02,-0.08,0.15,1721201019050
2.13,0.47,7.11,-0.08,-0.14,-0.05,1721201019060
-2.43,2.35,7.86,-0.11,-0.09,-0.29,1721201019070
-1.15,-10.58,6.82,-0.27,-0.07,-0.19,1721201019080
-3.57,-3.27,13.59,-0.21,-0.24,-0.01,1721201019090
-1.94,4.51,15.17,-0.04,0.04,0.14,1721201019100
0.45,2.96,5.72,-0.02,-0.12,0.02,1721201019110
2.87,-6.45,13.24,-0.44,0.21,-0.24,1721201019120
-0.99,-4.10,4.96,0.02,-0.33,-0.13,1721201019130
-2.62,0.90,8.63,-0.27,0.15,-0.14,1721201019140
2.58,3.33,20.97,0.07,-0.02,-0.03,1721201019150
3.14,6.11,4.01,0.21,-0.18,0.07,1721201019160
5.46,-5.01,7.58,-0.44,0.30,-0.24,1721201019170
-1.52,1.58,19.25,-0.02,-0.10,-0.64,1721201019180
-5.35,0.05,3.95,-0.01,-0.06,-0.35,1721201019190
-3.18,-5.38,8.45,-0.11,0.01,0.27,1721201019200
3.92,7.58,16.77,0.19,0.23,0.28,1721201019210
7.95,-0.97,8.57,-0.01,0.07,-0.26,1721201019220
-1.46,1.32,12.27,-0.13,-0.08,-0.65,1721201019230
-5.22,1.74,16.41,-0.10,0.19,-0.45,1721201019240
-3.56,1.14,8.97,0.15,-0.08,0.21,1721201019250
0.73,-0.68,1.72,0.11,0.19,0.19,1721201019260
4.92,-9.50,9.67,-0.19,0.25,-0.21,1721201019270
0.80,-0.11,16.50,0.15,-0.09,-0.40,1721201019280
-0.51,-3.96,3.85,0.15,0.18,-0.16,1721201019290
-2.15,10.44,15.16,0.45,0.15,0.14,1721201019300
2.65,18.56,10.99,0.53,0.26,0.13,1721201019310
4.84,-0.36,8.77,-0.02,0.14,-0.27,1721201019320
1.48,-16.36,13.01,-0.22,0.15,-0.71,1721201019330
-6.39,-1.69,8.29,0.18,-0.10,-0.42,1721201019340
-5.24,10.87,9.69,0.31,0.34,0.25,1721201019350
5.31,0.56,7.34,0.33,0.45,0.18,1721201019360
4.73,-4.25,9.75,0.09,0.05,-0.44,1721201019370
-3.46,5.09,14.53,0.07,0.13,-0.71,1721201019380
-6.41,4.41,11.47,0.16,0.19,-0.29,1721201019390
-2.73,-3.01,9.83,0.15,0.24,0.38,1721201019400
2.15,-4.56,1.47,0.13,0.16,0.32,1721201019410
2.93,3.37,15.94,-0.07,0.36,-0.41,1721201019420
-0.65,4.46,23.04,0.06,0.12,-0.61,1721201019430
-5.82,4.95,12.56,0.18,0.04,-0.13,1721201019440
-3.15,7.29,2.49,0.46,0.28,0.41,1721201019450
5.03,-0.83,-9.67,0.15,0.28,0.30,1721201019460
6.20,-0.97,-2.42,-0.24,0.04,-0.29,1721201019470
-0.77,-3.09,17.30,-0.54,0.23,-0.84,1721201019480
-11.16,-5.00,34.00,0.25,-0.41,-0.37,1721201019490
-6.59,0.57,2.76,0.09,0.25,0.45,1721201019500
2.29,3.57,10.69,-0.30,0.54,0.36,1721201019510
6.18,6.40,18.56,0.13,0.16,-0.12,1721201019520
3.17,-0.92,3.01,0.01,0.04,-0.39,1721201019530
-3.64,-0.20,9.86,-0.05,0.10,-0.44,1721201019540
-2.97,-9.82,10.58,-0.20,0.29,0.00,1721201019550
-1.98,6.75,10.54,0.13,0.14,0.25,1721201019560
4.16,5.43,10.11,-0.09,0.53,0.03,1721201019570
1.70,-5.23,7.88,-0.06,-0.11,-0.23,1721201019580
-4.39,-4.37,6.88,-0.21,0.21,-0.27,1721201019590
-3.49,0.71,14.51,-0.19,0.27,-0.03,1721201019600
-1.11,0.56,14.30,-0.14,0.04,0.27,1721201019610
0.56,4.58,10.60,0.04,0.25,0.11,1721201019620
1.60,-4.89,3.04,-0.10,0.05,-0.01,1721201019630
-3.81,3.76,11.85,-0.03,0.19,-0.10,1721201019640
-0.50,-0.43,11.60,-0.03,0.27,-0.08,1721201019650
-1.31,-3.31,12.78,-0.18,-0.05,0.17,1721201019660
-1.45,6.74,11.30,0.13,0.11,0.25,1721201019670
3.55,3.56,11.33,0.01,0.27,0.06,1721201019680
0.02,-3.37,8.85,-0.13,-0.28,-0.03,1721201019690
-5.10,-1.52,5.98,0.06,0.11,-0.20,1721201019700
-1.79,1.04,16.79,-0.01,0.36,0.08,1721201019710
-2.65,0.79,12.30,0.12,-0.18,0.35,1721201019720
-2.05,1.60,3.37,0.13,-0.10,0.34,1721201019730
3.75,-3.96,9.91,-0.04,0.38,0.17,1721201019740
3.90,2.11,22.45,0.02,0.04,-0.14,1721201019750
-3.26,5.58,2.85,0.21,-0.33,-0.12,1721201019760
-1.98,-2.09,9.62,-0.09,0.43,-0.02,1721201019770
1.18,5.74,16.01,0.41,-0.04,0.24,1721201019780
1.81,-2.13,4.94,-0.22,-0.06,0.27,1721201019790
-2.34,4.61,15.44,0.13,-0.30,0.01,1721201019800
1.20,-0.34,6.77,0.12,0.24,-0.14,1721201019810
-1.15,0.70,11.99,0.02,-0.11,-0.04,1721201019820
-3.79,1.67,4.96,0.15,-0.21,0.20,1721201019830
-0.80,2.21,15.91,-0.03,0.17,0.33,1721201019840
3.63,-2.15,13.17,0.18,-0.14,0.28,1721201019850
-0.18,-4.00,2.46,-0.08,-0.25,0.03,1721201019860
-0.98,2.73,14.14,0.08,0.11,0.00,1721201019870
0.32,2.59,11.38,0.10,0.14,-0.03,1721201019880
-1.81,7.07,10.20,0.26,-0.20,0.02,1721201019890
1.00,-4.13,2.60,-0.09,0.10,0.13,1721201019900
1.14,-3.12,17.96,-0.09,-0.07,0.18,1721201019910
-1.74,7.02,12.22,0.17,-0.14,0.06,1721201019920
-1.67,1.23,-1.19,-0.09,-0.37,0.17,1721201019930
-2.50,3.79,12.06,0.00,-0.13,0.18,1721201019940
2.23,-3.90,7.93,-0.12,0.07,0.11,1721201019950
-3.43,-3.14,12.68,-0.35,-0.37,-0.10,1721201019960
-5.42,5.62,15.84,0.02,-0.15,0.12,1721201019970
1.37,1.75,3.06,0.02,-0.02,0.48,1721201019980
3.14,0.26,11.32,-0.08,-0.19,0.36,1721201019990
5.10,1.60,9.36,0.11,-0.19,0.03,1721201020000
1.35,3.11,5.29,-0.09,-0.16,-0.30,1721201020010
-5.01,-0.08,13.01,-0.28,-0.29,-0.25,1721201020020
-4.19,-5.86,15.59,-0.08,-0.26,0.25,1721201020030
0.63,3.56,7.21,0.09,0.06,0.48,1721201020040
4.63,0.58,6.09,-0.15,-0.01,0.09,1721201020050
1.65,-4.36,17.18,-0.32,-0.27,-0.31,1721201020060
-2.66,5.66,10.55,0.23,-0.28,-0.08,1721201020070
-1.54,-1.90,3.67,-0.16,0.06,0.15,1721201020080
0.09,-2.04,17.31,-0.02,-0.23,0.38,1721201020090
4.04,-3.72,9.66,-0.11,-0.13,0.04,1721201020100
2.32,2.75,15.37,-0.10,-0.10,-0.37,1721201020110
-0.97,-0.41,2.21,-0.01,-0.25,-0.27,1721201020120
-3.36,2.76,14.79,-0.03,0.08,-0.16,1721201020130
2.43,-4.46,8.72,-0.08,0.00,-0.01,1721201020140
-1.47,1.92,10.82,0.15,-0.25,-0.00,1721201020150
2.51,-5.93,5.91,-0.23,0.29,-0.12,1721201020160
-2.75,4.29,15.50,-0.12,-0.43,-0.08,1721201020170
-1.55,8.71,7.73,0.04,-0.03,-0.07,1721201020180
3.47,-4.91,11.80,-0.17,0.20,-0.26,1721201020190
-2.21,-0.57,10.92,0.08,-0.34,-0.15,1721201020200
-2.06,-0.24,13.13,-0.24,0.13,0.01,1721201020210
1.55,4.27,10.90,0.15,-0.10,0.16,1721201020220
3.22,3.10,9.22,0.05,0.09,-0.09,1721201020230
2.26,2.51,6.63,0.16,-0.16,-0.40,1721201020240
-2.10,0.77,10.44,-0.02,0.01,-0.51,1721201020250
-3.90,1.18,16.76,0.08,-0.03,-0.13,1721201020260
-2.70,-3.69,4.32,0.11,-0.18,0.33,1721201020270
1.29,0.24,11.14,0.01,0.23,0.10,1721201020280
4.24,2.01,10.77,0.16,-0.07,-0.14,1721201020290
0.22,5.14,8.98,0.20,-0.11,-0.27,1721201020300
-0.73,-1.14,15.22,-0.01,0.18,-0.37,1721201020310
-2.62,-2.10,12.13,0.23,-0.15,-0.14,1721201020320
-1.98,1.45,4.54,0.03,0.00,0.11,1721201020330
2.57,-0.18,10.31,0.06,0.10,0.03,1721201020340
2.96,3.60,11.31,0.23,-0.03,-0.27,1721201020350
0.51,-6.04,4.30,-0.07,0.01,-0.37,1721201020360
-5.01,4.56,14.67,0.28,-0.04,-0.33,1721201020370
-1.71,-2.06,10.18,-0.10,0.25,-0.08,1721201020380
-1.56,2.25,15.19,0.11,-0.16,0.31,1721201020390
4.53,3.58,14.28,0.09,0.32,0.02,1721201020400
6.56,1.12,1.89,0.19,-0.12,-0.31,1721201020410
-0.26,-2.59,11.88,-0.23,0.15,-0.64,1721201020420
-3.83,-1.72,8.94,0.00,-0.05,-0.43,1721201020430
-4.72,3.99,10.94,0.00,0.08,-0.08,1721201020440
3.17,-2.02,10.39,-0.04,0.25,0.19,1721201020450
2.86,1.02,7.92,0.07,-0.04,-0.18,1721201020460
1.26,0.83,11.98,-0.24,0.31,-0.59,1721201020470
-1.96,-2.20,11.02,-0.03,-0.12,-0.48,1721201020480
-3.63,3.30,12.27,-0.01,0.35,-0.26,1721201020490
-1.99,-0.68,12.00,-0.01,0.20,-0.11,1721201020500
-4.08,0.80,2.18,-0.02,-0.19,0.00,1721201020510
1.99,-0.05,15.42,-0.20,0.62,-0.18,1721201020520
4.84,0.87,12.56,0.19,-0.00,-0.18,1721201020530
-1.31,4.58,4.42,-0.02,0.06,-0.35,1721201020540
-2.13,-4.50,9.28,-0.13,0.12,-0.44,1721201020550
-2.31,1.20,15.41,-0.00,0.11,-0.13,1721201020560
-0.45,3.64,12.99,0.00,0.22,0.04,1721201020570
-0.54,-3.06,4.06,-0.05,-0.07,-0.12,1721201020580
-2.35,0.59,14.94,0.03,0.26,-0.28,1721201020590
-0.48,-0.53,8.33,0.09,0.11,-0.18,1721201020600
-2.68,3.61,15.00,0.01,0.05,-0.06,1721201020610
0.34,-0.21,8.04,0.05,0.04,0.04,1721201020620
-0.77,-2.67,8.79,-0.07,0.09,-0.27,1721201020630
0.19,1.19,15.85,0.07,0.11,-0.36,1721201020640
-2.41,0.52,1.69,0.11,-0.19,-0.09,1721201020650
-3.96,1.16,12.74,0.01,0.36,-0.01,1721201020660
0.10,-1.12,12.04,0.03,0.11,-0.05,1721201020670
-0.32,1.51,15.00,-0.07,0.03,-0.11,1721201020680
-0.62,0.16,3.61,-0.01,0.04,-0.06,1721201020695
-0.83,-3.89,4.71,-0.11,0.12,-0.12,1721201020699
-1.08,4.32,12.93,0.18,0.06,-0.10,1721201020709
-0.05,0.35,5.78,0.08,0.01,0.05,1721201020719
-1.28,-0.58,10.85,-0.12,0.08,-0.17,1721201020729
0.42,-1.05,15.60,0.00,0.16,-0.20,1721201020739
-0.79,1.61,13.26,-0.02,0.08,-0.07,1721201020749
-1.71,3.38,7.61,0.16,-0.18,0.10,1721201020759
0.41,-1.90,9.05,-0.02,0.27,-0.01,1721201020769
0.26,-1.16,10.08,0.05,-0.20,0.01,1721201020779
-1.30,-1.67,7.67,-0.05,0.14,-0.11,1721201020789
0.93,5.83,20.53,0.18,0.25,-0.08,1721201020799
1.05,0.73,6.52,0.19,-0.14,0.12,1721201020809
-1.95,0.48,5.84,-0.03,-0.05,-0.08,1721201020819
3.29,-3.02,16.15,-0.00,0.39,-0.27,1721201020829
-0.17,3.84,12.63,0.10,-0.09,-0.13,1721201020839
-1.25,1.29,11.30,0.02,0.00,-0.02,1721201020849
-2.57,1.39,6.91,0.14,-0.07,0.13,1721201020859
-1.43,1.31,9.93,-0.02,0.11,0.09,1721201020869
0.86,-0.88,7.83,-0.06,-0.09,-0.04,1721201020879
-1.14,3.17,13.20,0.00,0.04,-0.22,1721201020889
-2.17,-0.15,11.69,-0.13,-0.04,-0.06,1721201020899
-2.56,2.75,13.44,0.12,-0.24,0.31,1721201020909
0.98,3.06,5.70,0.03,0.05,0.19,1721201020919
1.35,-1.67,8.77,-0.11,-0.19,-0.03,1721201020929
-2.64,0.23,11.60,-0.14,-0.24,-0.07,1721201020939
-1.10,0.85,8.82,0.07,-0.08,0.20,1721201020949
1.66,1.40,8.30,0.07,0.04,0.21,1721201020959
1.40,1.85,7.28,0.01,-0.15,-0.06,1721201020969
-1.12,0.40,8.38,-0.05,-0.12,-0.19,1721201020979
-0.96,-3.61,16.87,-0.21,0.18,-0.17,1721201020989
-2.27,1.64,10.94,0.14,-0.31,0.22,1721201020999
0.77,0.95,4.25,0.04,0.06,0.28,1721201021009
3.70,-1.19,12.65,-0.06,-0.06,0.01,1721201021019
0.49,2.29,9.66,0.01,-0.25,-0.14,1721201021029
-1.71,-1.11,9.77,-0.10,0.09,-0.34,1721201021039
-2.08,-2.01,14.68,-0.06,-0.03,-0.04,1721201021049
-1.81,-0.23,8.75,0.12,-0.23,0.29,1721201021059
1.82,2.99,7.89,0.13,0.08,0.14,1721201021069
4.47,-2.60,6.19,-0.01,-0.11,-0.13,1721201021079
-0.01,-0.34,16.12,-0.14,-0.07,-0.39,1721201021089
-2.43,-0.45,11.75,0.02,-0.12,-0.16,1721201021099
-1.61,-2.08,6.87,-0.04,0.01,0.15,1721201021109
0.85,2.21,11.14,0.02,0.05,-0.04,1721201021119
4.23,1.86,10.42,0.02,0.01,-0.22,1721201021129
1.18,-3.57,11.77,-0.09,-0.02,-0.23,1721201021139
-2.27,-0.14,14.66,-0.07,0.08,-0.19,1721201021149
-1.35,1.91,6.91,0.02,-0.01,-0.07,1721201021159
-0.38,-2.26,2.96,-0.08,0.03,-0.11,1721201021169
1.56,-1.37,15.26,-0.10,0.24,-0.26,1721201021179
-0.11,-2.33,8.00,-0.01,-0.12,-0.21,1721201021189
-3.74,5.58,15.30,-0.16,0.25,-0.34,1721201021199
-1.05,2.18,14.10,0.03,0.04,-0.15,1721201021209
-2.51,-1.62,0.21,-0.02,-0.21,0.21,1721201021219
0.84,-4.81,12.72,-0.23,0.32,-0.02,1721201021229
1.73,0.59,12.60,-0.06,-0.11,-0.26,1721201021239
-2.77,1.73,7.12,-0.16,-0.11,-0.29,1721201021249
-0.52,5.07,14.17,0.02,0.28,-0.10,1721201021259
2.23,2.25,11.34,-0.06,0.11,-0.06,1721201021269
-1.81,-0.48,6.77,-0.05,-0.31,-0.07,1721201021279
1.20,-3.96,7.44,-0.17,0.33,-0.32,1721201021289
1.06,-1.02,13.21,-0.11,0.00,-0.37,1721201021299
-3.81,2.98,6.03,0.11,-0.14,-0.14,1721201021309
-0.97,0.59,11.77,0.01,0.30,0.06,1721201021319
2.08,4.70,16.32,0.14,0.07,0.02,1721201021329
1.98,5.30,9.56,0.08,-0.00,-0.20,1721201021339
0.47,-0.99,8.38,-0.08,0.11,-0.28,1721201021349
-1.84,0.02,11.56,0.04,0.06,-0.34,1721201021359
-1.25,-2.61,9.62,0.02,0.03,-0.13,1721201021369
-1.42,3.05,7.35,0.13,0.00,0.03,1721201021379
1.03,2.13,15.34,0.01,0.34,-0.12,1721201021389
0.46,3.42,11.78,0.22,-0.16,-0.12,1721201021399
-1.14,-1.08,5.41,0.01,0.10,-0.18,1721201021409
-0.98,-0.15,12.07,0.17,0.08,-0.14,1721201021419
0.54,-0.29,7.67,0.22,0.10,0.06,1721201021429
0.93,0.36,11.03,0.08,0.11,0.03,1721201021439
1.47,3.56,17.27,0.15,0.11,-0.24,1721201021449
-0.75,-6.35,7.40,0.09,-0.03,-0.26,1721201021459
-4.81,4.70,7.80,0.15,0.00,-0.17,1721201021469
-5.83,3.74,18.63,0.08,0.28,0.31,1721201021479
2.75,-3.59,9.12,0.10,0.16,0.32,1721201021489
6.45,1.29,8.52,0.07,0.01,0.10,1721201021499
2.56,-0.53,9.58,0.00,-0.10,-0.65,1721201021509
-2.97,0.45,14.32,0.07,0.04,-0.49,1721201021519
-5.07,0.12,9.00,0.05,0.08,-0.41,1721201021529
-4.14,-4.89,10.75,0.00,0.01,-0.07,1721201021539
-2.64,6.15,9.14,0.12,0.11,0.04,1721201021549
0.94,-0.81,10.14,-0.08,0.16,-0.10,1721201021559
1.28,1.21,11.91,0.15,0.06,-0.23,1721201021569
1.28,-8.30,2.60,-0.15,-0.02,-0.17,1721201021579
-1.42,-1.57,14.31,-0.15,0.16,-0.14,1721201021589
0.26,6.52,13.02,0.20,0.15,-0.30,1721201021599
1.53,-2.38,7.24,-0.17,0.12,-0.21,1721201021609
-3.87,-0.63,8.16,0.00,-0.23,-0.23,1721201021619
-0.42,2.83,17.48,-0.10,0.53,-0.31,1721201021629
0.78,0.50,12.06,0.06,-0.07,-0.08,1721201021639
-3.09,3.33,6.97,-0.11,-0.01,-0.14,1721201021649
0.00,2.47,7.68,0.18,0.11,-0.18,1721201021659
1.92,-4.20,9.12,-0.05,0.13,-0.06,1721201021669
-3.29,3.76,12.27,-0.01,-0.12,-0.26,1721201021679
-2.54,7.44,8.54,0.15,0.01,-0.19,1721201021689
2.01,1.51,10.42,0.04,0.37,-0.11,1721201021699
0.03,-5.21,10.88,-0.05,-0.03,-0.17,1721201021709
-4.96,3.70,4.37,0.22,-0.16,-0.19,1721201021719
0.81,2.84,13.70,0.01,0.58,-0.23,1721201021729
0.27,1.94,15.54,0.18,-0.16,-0.02,1721201021739
-2.96,-0.92,6.39,-0.00,-0.15,0.01,1721201021749
0.14,-0.69,6.15,0.20,0.15,0.21,1721201021759
1.20,3.75,5.32,0.17,0.03,-0.12,1721201021769
-1.70,-1.38,12.33,-0.05,0.03,-0.41,1721201021779
-3.29,0.94,9.23,0.30,0.14,-0.16,1721201021789
1.57,-2.80,9.68,-0.11,0.40,0.01,1721201021799
1.73,4.54,17.28,0.12,-0.18,0.14,1721201021809
0.88,3.90,12.63,-0.05,0.20,-0.26,1721201021819
-2.87,1.71,9.57,0.09,-0.11,-0.40,1721201021829
-5.78,0.51,2.24,0.07,0.02,0.01,1721201021839
-0.79,0.00,13.96,-0.03,0.30,0.32,1721201021849
2.61,-1.44,12.39,0.05,-0.08,0.36,1721201021859
2.82,4.16,8.27,-0.00,0.06,-0.07,1721201021869
4.92,5.00,12.79,-0.00,0.29,-0.30,1721201021879
-1.72,0.06,8.99,-0.09,-0.18,-0.33,1721201021889
-6.59,-1.43,10.89,-0.13,-0.02,-0.09,1721201021899
-3.28,-3.08,13.09,-0.02,0.11,0.38,1721201021909
0.33,2.52,8.67,0.10,0.06,0.47,1721201021919
3.24,-0.58,5.98,-0.11,0.06,0.06,1721201021929
0.42,2.84,13.13,0.05,-0.09,-0.21,1721201021939
-0.74,-2.71,7.22,-0.08,0.04,-0.16,1721201021949
-3.94,-2.66,9.74,-0.09,-0.10,0.18,1721201021959
-1.19,1.82,12.94,-0.07,0.12,0.37,1721201021969
3.84,-2.21,10.57,-0.11,-0.03,0.14,1721201021979
0.99,0.29,9.66,-0.10,-0.13,-0.12,1721201021989
-1.09,2.93,9.55,-0.08,0.09,-0.19,1721201021999
-1.06,-1.27,14.59,-0.10,-0.01,0.06,1721201022009
-0.54,-1.47,6.06,0.04,-0.08,0.26,1721201022019
0.87,-0.86,9.93,-0.12,0.06,0.10,1721201022029
2.66,0.43,11.82,0.01,0.00,0.02,1721201022039
0.89,1.49,7.49,-0.07,-0.06,-0.07,1721201022049
-1.56,5.80,14.51,-0.01,0.00,-0.22,1721201022059
-0.53,-1.91,14.49,-0.07,0.05,-0.13,1721201022069
-2.66,-4.54,3.26,0.06,-0.27,0.13,1721201022079
-1.89,2.85,11.10,0.02,0.33,0.06,1721201022089
2.59,1.02,14.75,0.02,-0.02,0.01,1721201022099
0.04,2.75,14.31,0.08,-0.14,-0.04,1721201022109
-0.30,0.91,6.17,0.16,0.06,-0.02,1721201022119
-0.81,-2.13,7.56,0.05,-0.01,-0.09,1721201022129
-2.65,-2.35,11.29,0.02,-0.11,0.14,1721201022139
-0.98,4.16,11.97,0.23,0.05,0.15,1721201022149
2.21,-2.42,5.42,0.12,-0.05,0.18,1721201022159
1.86,0.51,14.43,0.07,0.04,-0.02,1721201022169
0.35,0.84,10.15,0.12,-0.09,-0.16,1721201022179
-3.06,4.85,14.20,0.13,-0.08,0.02,1721201022189
0.26,-2.24,7.35,0.17,0.03,0.16,1721201022199
1.94,-1.06,11.63,0.16,-0.05,0.07,1721201022209
2.54,0.00,7.28,0.13,-0.02,-0.08,1721201022219
-0.22,4.06,12.36,0.10,-0.01,-0.27,1721201022229
-1.58,-1.55,8.87,0.06,-0.09,-0.07,1721201022239
-2.28,1.89,11.03,0.22,-0.02,0.13,1721201022249
1.79,-4.02,5.87,0.02,0.06,0.03,1721201022259
0.99,4.14,13.36,0.12,-0.05,0.03,1721201022269
1.73,4.97,11.22,0.05,0.15,-0.02,1721201022279
0.86,-1.79,6.26,0.02,-0.12,-0.16,1721201022289
-0.41,-1.30,12.39,-0.08,0.07,-0.16,1721201022299
1.08,2.12,11.57,0.13,0.05,-0.20,1721201022309
0.07,-0.86,9.77,-0.15,0.13,-0.20,1721201022319
-3.59,4.03,12.66,0.09,-0.14,-0.14,1721201022329
-0.21,2.61,7.42,0.02,0.20,-0.14,1721201022339
3.32,-0.84,10.68,-0.05,0.10,-0.15,1721201022349
0.06,3.54,12.28,-0.00,0.00,-0.29,1721201022359
-1.94,2.48,14.82,-0.01,0.15,-0.33,1721201022369
-1.15,-2.53,5.34,0.07,-0.02,-0.13,1721201022379
0.34,1.21,7.54,0.03,0.24,-0.06,1721201022389
1.95,-2.68,10.59,-0.18,0.21,-0.35,1721201022399
-3.19,3.12,12.33,0.08,-0.13,-0.36,1721201022409
-1.02,2.19,10.07,0.01,0.28,-0.14,1721201022419
0.64,-1.03,8.59,0.02,0.11,-0.02,1721201022429
-1.15,0.24,3.89,-0.04,0.08,-0.22,1721201022439
0.71,-3.25,16.27,-0.28,0.35,-0.38,1721201022449
-1.07,2.53,15.86,0.16,0.01,-0.28,1721201022459
-2.88,3.14,6.55,0.03,0.17,-0.10,1721201022469
-1.80,-3.26,6.75,-0.08,0.08,-0.02,1721201022479
0.55,-1.87,11.46,-0.08,0.13,0.01,1721201022489
0.97,1.36,7.88,0.03,0.11,-0.19,1721201022499
-1.83,0.83,7.03,-0.19,0.05,-0.40,1721201022509
-3.63,-1.47,14.75,0.01,0.07,-0.25,1721201022519
-2.73,-3.65,9.70,-0.09,0.14,0.11,1721201022529
-0.90,5.43,12.27,0.03,0.10,0.14,1721201022539
1.82,-0.57,7.51,-0.09,0.03,-0.00,1721201022549
-0.59,5.07,15.18,0.02,0.00,-0.30,1721201022559
0.48,-2.14,5.66,0.10,0.11,-0.17,1721201022569
-2.96,-2.17,12.76,-0.20,0.14,-0.15,1721201022579
-2.16,3.33,13.51,0.08,-0.08,0.08,1721201022589
0.51,1.05,7.20,-0.12,0.12,0.15,1721201022599
1.75,5.31,15.67,0.17,0.21,-0.14,1721201022609
0.97,-0.49,7.07,-0.03,-0.09,-0.31,1721201022619
-5.25,0.22,6.76,-0.04,-0.28,-0.17,1721201022629
-1.70,-0.73,13.33,0.01,0.40,-0.06,1721201022639
1.40,-0.41,12.75,0.18,0.12,0.17,1721201022649
0.85,5.15,4.35,0.15,-0.03,0.12,1721201022659
2.92,5.33,14.09,0.11,0.26,-0.26,1721201022669
-0.71,1.30,9.06,0.16,-0.18,-0.34,1721201022679
-4.04,-5.25,12.50,-0.13,0.02,-0.21,1721201022689
-0.48,2.29,9.41,0.06,0.19,0.18,1721201022704
-1.57,2.51,9.93,0.09,0.23,0.34,1721201022708
3.97,0.20,11.36,0.04,0.15,0.02,1721201022718
3.57,0.72,11.88,0.12,-0.03,-0.33,1721201022728
-1.62,-0.30,9.69,-0.06,0.07,-0.35,1721201022738
-5.26,0.44,9.43,0.15,-0.12,-0.06,1721201022748
-0.43,2.09,11.35,0.04,0.26,0.22,1721201022758
1.54,2.93,9.19,0.11,-0.06,0.12,1721201022768
-1.21,0.45,6.97,-0.00,-0.02,-0.24,1721201022778
-1.24,-4.37,14.28,-0.28,0.22,-0.32,1721201022788
-3.66,1.11,14.03,0.05,-0.28,0.15,1721201022798
-0.47,2.49,10.96,-0.07,0.22,0.29,1721201022808
2.71,3.90,8.31,0.13,-0.08,0.18,1721201022818
1.18,-0.16,2.91,-0.17,-0.01,-0.17,1721201022828
-3.18,-0.15,13.87,-0.29,-0.00,-0.38,1721201022838
-4.18,0.19,16.07,-0.03,-0.03,-0.06,1721201022848
-1.55,-4.11,3.16,-0.12,-0.05,0.52,1721201022858
2.47,2.45,11.88,-0.05,0.21,0.28,1721201022868
5.77,0.51,12.21,-0.14,-0.09,-0.16,1721201022878
-1.92,3.37,12.02,-0.15,-0.24,-0.47,1721201022888
-4.35,1.46,10.05,-0.06,-0.01,-0.19,1721201022898
-3.82,-6.37,5.57,-0.21,-0.03,0.30,1721201022908
-3.10,-2.85,8.16,-0.13,-0.15,0.39,1721201022918
2.23,2.59,18.18,-0.19,0.30,-0.05,1721201022928
2.42,-1.21,12.06,-0.05,-0.35,-0.07,1721201022938
-0.43,4.28,6.22,-0.06,0.17,-0.18,1721201022948
0.66,-0.44,9.12,-0.09,0.01,-0.24,1721201022958
-2.55,-1.21,12.01,-0.12,-0.14,0.04,1721201022968
-1.69,4.71,12.93,0.04,0.09,0.11,1721201022978
3.29,-2.54,4.50,-0.05,-0.07,0.05,1721201022988
0.62,3.44,13.00,-0.04,-0.05,-0.14,1721201022998
1.54,2.65,8.04,0.13,0.03,-0.16,1721201023008
-0.35,-0.46,11.47,-0.01,0.06,-0.12,1721201023018
-2.52,1.97,9.29,0.21,-0.08,0.01,1721201023028
-0.02,-2.70,11.55,0.06,0.13,-0.06,1721201023038
0.93,2.81,16.54,0.27,-0.01,-0.03,1721201023048
0.75,2.60,9.41,0.15,0.09,0.06,1721201023058
-1.23,1.87,9.82,0.16,-0.07,-0.13,1721201023068
0.23,2.30,13.18,0.17,0.15,-0.28,1721201023078
0.03,-2.95,5.47,0.24,-0.19,-0.04,1721201023088
-1.20,-2.32,11.20,0.17,0.09,0.10,1721201023098
2.46,3.85,16.47,0.32,0.33,-0.08,1721201023108
1.19,4.21,3.66,0.44,-0.18,-0.03,1721201023118
0.09,0.76,6.75,0.05,0.31,-0.16,1721201023128
0.66,-1.77,13.92,0.19,0.04,-0.24,1721201023138
-0.86,-0.36,14.52,0.16,0.04,0.04,1721201023148
1.69,1.97,8.55,0.35,0.21,0.13,1721201023158
3.06,0.97,11.96,0.08,0.29,-0.31,1721201023168
0.13,5.62,13.76,0.37,-0.05,-0.23,1721201023178
-1.56,-1.33,2.04,0.12,0.23,-0.19,1721201023188
-1.25,-5.96,8.63,-0.12,0.17,-0.03,1721201023198
-0.08,-2.62,10.96,-0.04,0.02,-0.03,1721201023208
0.24,6.71,8.47,0.09,0.12,0.03,1721201023218
3.62,1.02,10.75,0.01,0.37,-0.13,1721201023228
0.95,-3.12,12.30,-0.08,0.09,-0.37,1721201023238
-3.75,0.89,7.55,0.01,-0.02,-0.25,1721201023248
-1.92,0.11,12.26,-0.31,0.55,-0.12,1721201023258
-0.78,4.64,14.61,0.14,-0.01,0.02,1721201023268
1.19,4.21,5.14,-0.09,0.29,-0.09,1721201023278
0.48,-2.73,4.70,-0.10,0.08,-0.22,1721201023288
-2.01,-3.69,13.92,-0.40,0.32,-0.39,1721201023298
-2.34,4.71,18.01,0.03,0.17,-0.08,1721201023308
-1.26,3.05,3.29,-0.09,0.09,0.03,1721201023318
0.23,2.65,15.10,-0.11,0.30,-0.11,1721201023328
1.73,1.76,7.75,0.04,0.14,-0.21,1721201023338
-1.78,-6.55,12.03,-0.44,0.18,-0.26,1721201023348
-4.24,6.08,21.08,0.08,0.13,-0.30,1721201023358
-1.94,2.91,-0.17,0.17,0.10,0.03,1721201023368
-2.37,-4.01,5.99,-0.19,0.19,0.04,1721201023378
0.45,-4.53,14.99,-0.12,0.15,-0.08,1721201023388
1.13,4.23,14.57,0.03,0.20,-0.14,1721201023398
-0.76,-3.16,4.99,-0.10,0.02,-0.01,1721201023408
-2.74,2.89,14.03,0.04,0.36,-0.10,1721201023418
1.11,-2.57,5.37,0.08,0.05,-0.02,1721201023428
-1.61,-1.98,8.27,-0.18,-0.16,0.16,1721201023438
-1.35,1.89,9.89,0.07,0.34,-0.09,1721201023448
1.62,1.09,16.83,-0.02,0.38,-0.24,1721201023458
-2.47,-0.77,10.16,-0.01,-0.25,0.11,1721201023468
-5.52,5.35,6.19,0.16,0.00,0.22,1721201023478
4.04,-5.71,11.73,-0.20,0.46,0.24,1721201023488
1.60,-5.77,14.65,-0.03,-0.41,0.16,1721201023498
-2.48,4.52,8.15,0.18,0.23,-0.10,1721201023508
-0.10,1.53,14.75,-0.02,0.30,-0.26,1721201023518
-2.21,4.54,14.16,0.21,-0.22,0.02,1721201023528
-3.28,-4.25,-1.41,-0.14,-0.13,0.29,1721201023538
-1.45,1.47,15.65,0.06,0.28,0.26,1721201023548
4.17,-0.21,4.47,0.22,-0.03,0.19,1721201023558
2.58,0.07,9.35,-0.08,0.06,-0.05,1721201023568
1.64,0.91,10.80,0.16,-0.20,-0.07,1721201023578
-1.33,7.82,14.95,0.20,0.37,-0.21,1721201023588
-0.58,-8.74,3.59,-0.10,-0.09,-0.12,1721201023598
-10.56,2.95,12.83,0.18,-0.29,0.07,1721201023608
-0.35,1.21,6.79,0.12,0.44,0.21,1721201023618
3.94,2.14,18.87,0.29,0.33,0.07,1721201023628
0.33,-5.60,3.87,-0.04,-0.18,-0.17,1721201023638
-4.70,3.58,18.22,0.07,0.04,-0.09,1721201023648
-0.71,4.98,3.73,0.40,-0.00,0.23,1721201023658
2.00,-3.56,11.15,-0.12,0.11,0.17,1721201023668
0.51,0.84,7.72,0.33,-0.30,0.08,1721201023678
0.78,1.01,8.14,-0.12,0.35,-0.20,1721201023688
-2.29,-1.37,14.33,-0.06,-0.12,-0.17,1721201023698
-5.50,0.79,13.09,0.06,-0.01,-0.08,1721201023708
-2.00,-1.25,6.67,0.03,0.09,0.19,1721201023718
0.60,1.21,10.53,0.04,0.03,0.23,1721201023728
1.81,-3.13,8.57,-0.24,0.01,-0.01,1721201023738
-1.68,5.32,13.52,0.12,-0.19,-0.10,1721201023748
1.63,1.21,9.65,-0.08,0.25,-0.02,1721201023758
0.25,-4.49,10.95,-0.06,-0.27,0.11,1721201023768
-1.89,2.80,12.50,0.05,-0.01,0.06,1721201023778
0.76,-3.48,0.97,-0.16,-0.06,-0.07,1721201023788
-4.72,0.94,14.07,-0.08,-0.02,-0.25,1721201023798
-2.99,2.20,3.57,0.22,-0.03,0.06,1721201023808
-0.47,-1.76,9.63,-0.29,0.20,0.16,1721201023818
0.35,3.73,16.80,0.12,-0.15,0.07,1721201023828
0.82,-2.41,-1.67,-0.15,-0.09,-0.12,1721201023838
-2.91,-1.56,11.15,-0.28,0.04,-0.12,1721201023848
-0.52,-2.94,19.10,-0.05,0.20,-0.04,1721201023858
-0.64,3.02,16.99,0.26,-0.14,0.14,1721201023868
-0.27,6.12,2.98,0.08,0.02,0.16,1721201023878
0.66,0.80,8.54,-0.29,0.02,-0.04,1721201023888
-0.30,-1.73,15.81,-0.07,-0.21,-0.09,1721201023898
-1.98,-2.20,6.14,0.04,-0.18,0.00,1721201023908
-2.04,1.60,6.97,0.08,-0.03,0.13,1721201023918
2.73,1.33,13.71,-0.06,0.30,0.11,1721201023928
1.76,8.04,12.95,0.17,-0.12,-0.06,1721201023938
2.03,3.97,13.47,-0.05,0.19,-0.31,1721201023948
-2.31,-2.26,9.81,0.03,-0.33,-0.19,1721201023958
-7.34,2.99,6.98,0.02,-0.10,0.20,1721201023968
1.05,0.25,17.70,-0.22,0.19,0.30,1721201023978
1.03,-3.42,-1.99,0.13,-0.56,0.18,1721201023988
1.55,1.38,19.26,-0.41,0.80,-0.24,1721201023998
3.40,4.80,20.55,0.07,-0.08,-0.15,1721201024008
-1.28,-1.34,3.69,-0.24,-0.24,0.07,1721201024018
-0.76,1.48,15.79,0.09,0.11,-0.12,1721201024028
0.27,4.16,10.62,0.07,0.05,-0.19,1721201024038
0.35,4.26,11.94,0.04,-0.28,0.04,1721201024048
-2.33,1.28,4.41,0.09,-0.21,0.11,1721201024058
0.78,-3.34,10.52,-0.21,0.29,0.07,1721201024068
-0.91,-3.40,9.71,-0.08,-0.23,-0.05,1721201024078
-1.37,8.59,16.35,0.08,0.25,-0.10,1721201024088
3.61,0.88,9.06,0.05,-0.09,0.02,1721201024098
-0.33,-2.81,7.58,-0.19,-0.31,0.06,1721201024108
-0.47,1.83,15.65,-0.01,0.07,-0.03,1721201024118
-0.42,4.84,0.27,0.21,-0.12,-0.28,1721201024128
-0.85,0.97,10.51,-0.19,0.23,-0.30,1721201024138
-0.00,-3.45,18.11,0.18,-0.04,-0.03,1721201024148
-2.21,4.18,6.95,0.20,-0.01,0.16,1721201024158
0.37,-0.78,9.91,-0.23,0.07,0.03,1721201024168
0.47,6.94,14.30,0.27,-0.19,-0.12,1721201024178
3.38,2.31,2.82,0.04,0.09,-0.34,1721201024188
-1.52,-2.34,5.20,-0.01,-0.29,-0.19,1721201024198
-3.90,-3.17,11.30,-0.11,0.23,-0.11,1721201024208
-0.21,-1.70,15.60,0.06,0.07,-0.04,1721201024218
-1.43,6.08,9.27,0.21,-0.06,-0.06,1721201024228
2.94,1.59,9.22,-0.14,0.33,-0.14,1721201024238
0.85,-1.76,10.87,-0.04,-0.31,-0.06,1721201024248
-0.80,-1.76,13.29,-0.11,0.27,-0.24,1721201024258
-0.07,-0.73,13.15,0.17,0.05,-0.25,1721201024268
-2.88,-0.11,3.12,-0.03,-0.15,-0.06,1721201024278
0.88,3.99,13.92,0.05,0.31,0.08,1721201024288
3.42,1.21,4.89,-0.00,0.04,-0.27,1721201024298
-0.91,-2.44,13.82,-0.24,0.03,-0.57,1721201024308
-2.82,-5.45,11.46,-0.05,0.10,-0.28,1721201024318
-2.52,1.87,14.09,0.07,0.24,0.08,1721201024328
-0.23,6.20,4.08,0.13,0.04,0.06,1721201024338
2.26,-2.31,10.07,-0.23,0.22,-0.22,1721201024348
0.32,-1.39,12.63,0.11,-0.08,-0.28,1721201024358
-1.64,0.31,9.02,-0.11,0.26,-0.14,1721201024368
-2.13,7.73,10.02,0.18,0.03,-0.14,1721201024378
-0.74,-0.78,1.39,-0.12,0.18,-0.09,1721201024388
-0.56,-1.95,17.17,-0.22,0.25,-0.09,1721201024398
-1.93,-0.29,11.67,0.06,-0.15,-0.05,1721201024408
-1.93,3.44,8.36,-0.06,0.19,-0.07,1721201024418
1.18,4.85,12.34,-0.06,0.32,-0.20,1721201024428
-0.14,0.54,10.54,-0.13,0.04,-0.15,1721201024438
-2.92,-0.54,10.18,-0.02,-0.09,-0.02,1721201024448
-2.80,-2.39,5.53,-0.09,0.12,0.02,1721201024458
-1.75,4.59,18.73,-0.08,0.34,-0.14,1721201024468
-0.79,2.77,8.94,0.13,-0.16,-0.10,1721201024478
-2.55,3.62,2.93,-0.03,0.19,-0.06,1721201024488
2.27,0.06,17.43,-0.10,0.37,-0.05,1721201024498
-3.37,-2.29,8.95,0.04,-0.35,-0.01,1721201024508
-4.63,3.19,11.82,-0.00,0.10,0.06,1721201024518
-0.47,6.85,8.27,0.35,0.04,0.13,1721201024528
1.05,2.43,3.56,0.04,0.04,0.03,1721201024538
-1.11,-9.21,12.01,-0.37,-0.14,-0.03,1721201024548
-5.51,4.25,15.35,0.20,-0.22,-0.14,1721201024558
-0.59,1.31,6.62,0.04,0.25,0.01,1721201024568
-1.68,-0.56,6.08,0.19,-0.29,0.23,1721201024578
-1.49,-0.85,10.77,-0.15,0.25,0.21,1721201024588
-0.34,4.51,16.93,0.26,-0.18,0.12,1721201024598
-1.05,0.10,4.54,-0.04,-0.12,0.04,1721201024608
-2.13,3.77,12.81,0.02,-0.13,0.06,1721201024618
2.21,-4.10,11.17,-0.05,-0.04,0.07,1721201024628
0.11,-0.74,8.41,0.08,-0.20,0.08,1721201024638
-1.71,0.09,3.99,0.02,-0.04,-0.21,1721201024648
-1.90,-0.89,14.77,-0.18,0.05,-0.21,1721201024658
-2.00,-0.89,12.41,0.09,-0.20,0.10,1721201024668
0.00,-0.99,12.85,-0.09,0.06,0.16,1721201024678
-0.58,0.78,8.55,0.03,-0.29,0.07,1721201024688
-1.09,5.06,11.17,0.02,0.02,-0.04,1721201024698
-0.75,0.09,11.01,0.00,0.05,-0.04,1721201024713
-2.85,0.40,7.85,-0.00,-0.28,-0.03,1721201024717
0.70,-1.29,11.85,-0.15,0.14,0.02,1721201024727
0.39,2.44,13.95,0.09,-0.24,0.10,1721201024737
1.35,4.33,8.21,0.05,0.02,0.03,1721201024747
2.36,-1.73,7.34,-0.05,-0.15,-0.05,1721201024757
-1.88,3.45,9.08,0.17,-0.20,-0.17,1721201024767
-0.28,2.73,8.13,-0.05,0.05,-0.15,1721201024777
-1.36,1.98,17.02,0.06,-0.34,0.06,1721201024787
-0.88,-1.52,8.38,-0.00,-0.04,0.11,1721201024797
0.06,-0.83,6.93,-0.05,-0.10,0.02,1721201024807
0.15,2.38,13.96,-0.05,-0.01,-0.12,1721201024817
0.82,3.92,12.27,0.13,-0.03,-0.16,1721201024827
-1.06,2.19,7.53,0.02,-0.10,-0.11,1721201024837
-0.43,2.61,16.75,0.00,0.04,0.01,1721201024847
0.60,-1.53,3.54,0.17,-0.32,0.08,1721201024857
0.79,0.26,9.42,-0.10,0.17,-0.12,1721201024867
1.95,-0.24,13.20,0.09,-0.13,-0.40,1721201024877
-1.15,4.88,10.09,0.32,-0.19,-0.29,1721201024887
-1.27,-1.53,3.52,-0.09,0.05,-0.16,1721201024897
-3.24,3.25,18.73,-0.03,-0.03,-0.14,1721201024907
1.70,-0.99,10.74,0.04,0.05,-0.14,1721201024917
1.57,-0.34,9.33,0.04,-0.10,-0.10,1721201024927
-3.11,1.35,3.62,0.01,-0.19,-0.26,1721201024937
-2.21,2.54,11.30,0.09,0.14,-0.21,1721201024947
1.84,-1.29,9.93,-0.09,0.16,-0.10,1721201024957
0.62,2.34,16.43,-0.04,-0.13,-0.08,1721201024967
0.94,1.64,8.99,0.08,0.03,-0.32,1721201024977
1.18,0.16,11.91,-0.09,0.21,-0.42,1721201024987
-2.28,5.11,8.94,0.25,-0.21,-0.14,1721201024997
-0.97,-0.03,9.07,-0.16,0.24,-0.17,1721201025007
-2.26,-1.59,7.39,0.11,-0.47,-0.08,1721201025017
0.71,-1.11,12.01,-0.07,0.47,-0.18,1721201025027
2.92,2.12,14.33,0.16,0.07,-0.32,1721201025037
-2.52,7.13,10.59,-0.01,0.02,-0.42,1721201025047
-3.55,0.61,7.60,-0.03,0.01,-0.37,1721201025057
-1.81,-9.18,9.87,-0.16,0.16,0.01,1721201025067
-0.69,3.56,16.29,0.25,0.11,0.04,1721201025077
2.32,1.92,3.70,0.11,0.07,-0.09,1721201025087
-0.02,4.01,10.87,0.06,-0.08,-0.33,1721201025097
-0.30,-0.82,7.73,0.04,0.18,-0.48,1721201025107
-1.92,-2.43,11.97,-0.01,0.13,-0.24,1721201025117
-2.61,2.09,11.19,0.10,0.06,-0.01,1721201025127
-0.95,1.14,4.50,-0.01,0.16,-0.08,1721201025137
2.15,-1.78,18.42,-0.04,0.28,-0.17,1721201025147
0.12,-0.67,7.41,0.19,-0.13,-0.24,1721201025157
-2.07,6.37,5.80,0.00,0.27,-0.27,1721201025167
-0.11,-1.41,14.19,-0.16,0.29,-0.30,1721201025177
-3.55,0.71,11.78,0.19,-0.15,-0.06,1721201025187
-0.26,3.12,4.73,0.01,0.40,0.12,1721201025197
4.33,-0.36,15.14,-0.03,0.22,-0.08,1721201025207
-0.11,3.69,10.63,0.14,-0.03,-0.32,1721201025217
-1.90,-3.72,5.57,-0.17,0.13,-0.17,1721201025227
-2.76,7.07,15.67,0.33,0.13,-0.02,1721201025237
4.45,0.59,7.33,0.10,0.25,0.12,1721201025247
0.67,2.88,6.29,0.08,-0.24,-0.02,1721201025257
-2.03,0.42,10.04,-0.20,0.56,-0.55,1721201025267
-3.34,-0.91,19.40,0.07,0.12,-0.42,1721201025277
-5.92,-0.24,4.44,0.11,-0.12,0.15,1721201025287
-0.64,0.83,9.23,-0.00,0.38,0.58,1721201025297
4.88,4.00,13.06,0.10,0.25,0.23,1721201025307
4.32,2.41,10.89,0.05,0.02,-0.18,1721201025317
-0.64,-3.79,8.09,-0.18,-0.03,-0.37,1721201025327
-4.92,6.57,14.33,0.20,0.14,-0.27,1721201025337
-1.08,-9.21,5.71,-0.31,0.16,0.15,1721201025347
-2.55,4.56,21.37,0.19,-0.05,0.21,1721201025357
2.38,3.24,-0.79,0.28,0.23,0.05,1721201025367
2.26,2.61,10.35,-0.20,0.19,-0.20,1721201025377
-1.18,-1.86,10.59,0.05,-0.14,-0.10,1721201025387
-2.84,-0.63,14.02,0.01,0.32,0.06,1721201025397
-0.29,6.52,9.98,0.21,0.18,0.15,1721201025407
1.66,-3.65,7.65,-0.28,0.02,0.17,1721201025417
0.13,3.72,13.15,0.23,-0.11,0.07,1721201025427
4.54,-2.83,5.06,-0.16,0.53,-0.15,1721201025437
-0.50,4.34,18.76,0.11,-0.13,-0.24,1721201025447
-4.90,-0.49,-1.26,0.05,-0.10,-0.09,1721201025457
-4.24,3.32,16.85,-0.03,0.32,0.11,1721201025467
1.21,-2.56,7.85,0.07,0.10,0.22,1721201025477
1.61,4.64,12.92,0.06,0.19,0.08,1721201025487
3.45,-3.47,5.10,-0.09,0.07,-0.14,1721201025497
-3.05,1.18,13.60,-0.12,-0.05,-0.25,1721201025507
-3.09,1.09,8.40,0.09,0.18,-0.10,1721201025517
0.47,3.77,15.70,0.02,0.43,0.03,1721201025527
0.10,-1.88,6.03,-0.00,-0.19,0.15,1721201025537
-3.47,3.48,9.53,-0.12,0.18,-0.02,1721201025547
0.82,2.29,10.50,0.07,0.31,-0.22,1721201025557
1.13,1.32,14.94,-0.01,0.15,-0.14,1721201025567
-2.58,-2.06,3.45,0.12,-0.18,0.06,1721201025577
-1.39,1.11,9.00,-0.15,0.40,0.19,1721201025587
2.04,2.72,16.97,0.09,0.14,0.07,1721201025597
0.82,0.28,5.41,0.04,-0.07,-0.11,1721201025607
-1.64,7.69,12.87,0.14,0.21,-0.24,1721201025617
-0.75,-2.41,11.52,-0.12,0.15,-0.12,1721201025627
-3.90,0.01,10.94,0.10,-0.27,0.20,1721201025637
-0.06,0.55,7.44,-0.03,0.47,0.04,1721201025647
1.40,3.46,17.05,0.07,0.17,-0.10,1721201025657
-1.40,4.32,4.87,0.26,-0.25,-0.06,1721201025667
-3.29,-2.86,1.87,-0.28,0.11,-0.05,1721201025677
-2.76,3.21,18.09,0.09,0.08,0.07,1721201025687
2.49,-2.07,11.99,-0.04,0.32,0.15,1721201025697
1.26,2.15,8.63,0.10,-0.25,0.17,1721201025707
2.43,1.01,10.99,-0.10,0.36,-0.14,1721201025717
0.80,0.17,12.80,0.09,-0.01,-0.29,1721201025727
-4.74,6.60,8.66,0.09,-0.02,-0.14,1721201025737
-3.64,1.48,7.10,-0.09,0.03,0.08,1721201025747
-0.46,-6.43,16.46,-0.08,0.01,0.22,1721201025757
1.37,2.17,8.01,0.25,-0.09,0.24,1721201025767
2.20,3.63,5.68,-0.12,0.23,-0.07,1721201025777
-1.23,4.05,12.46,0.12,-0.09,-0.32,1721201025787
-1.84,-8.83,12.12,-0.23,0.12,-0.04,1721201025797
-2.83,1.89,4.19,0.37,-0.29,0.37,1721201025807
1.38,6.33,9.74,-0.22,0.59,0.13,1721201025817
4.51,-1.36,15.74,-0.00,-0.47,-0.00,1721201025827
-4.62,4.47,8.27,0.21,0.01,-0.02,1721201025837
1.02,-7.01,7.96,-0.27,0.30,-0.04,1721201025847
-4.46,3.45,18.31,0.11,-0.33,0.10,1721201025857
0.95,2.66,6.14,-0.04,0.29,0.22,1721201025867
2.69,2.00,14.75,0.09,-0.07,0.06,1721201025877
-0.17,4.56,6.70,0.17,-0.05,-0.05,1721201025887
-0.14,-0.49,10.82,-0.13,0.09,-0.06,1721201025897
-2.67,-3.91,11.66,-0.02,-0.26,0.00,1721201025907
-4.05,-0.64,7.64,-0.04,-0.03,0.10,1721201025917
1.06,8.59,15.83,0.33,0.19,0.15,1721201025927
2.34,-1.79,1.28,-0.11,-0.10,0.11,1721201025937
-4.71,-0.66,8.67,-0.04,-0.24,-0.05,1721201025947
1.92,-2.32,12.32,-0.02,0.52,-0.09,1721201025957
1.34,-4.34,11.71,-0.11,-0.25,0.09,1721201025967
-3.59,9.48,15.59,0.31,-0.13,0.18,1721201025977
2.13,6.22,-2.25,0.21,0.11,-0.00,1721201025987
0.17,-3.30,12.06,-0.34,-0.11,-0.00,1721201025997
-0.48,-2.93,20.54,0.10,-0.23,-0.04,1721201026007
-0.39,3.17,7.93,0.19,0.05,-0.12,1721201026017
-1.93,2.14,3.58,0.04,-0.13,-0.01,1721201026027
-4.87,1.01,8.15,-0.17,-0.04,0.01,1721201026037
-1.15,-0.43,11.62,0.07,-0.07,0.09,1721201026047
2.76,-0.46,9.65,-0.09,0.16,0.23,1721201026057
1.34,0.87,13.87,-0.13,0.05,-0.11,1721201026067
0.06,2.13,14.00,0.07,0.01,-0.26,1721201026077
-0.85,-0.10,6.96,-0.02,-0.04,-0.08,1721201026087
-2.78,4.30,10.72,0.05,-0.15,-0.02,1721201026097
-1.44,-0.51,4.66,-0.20,0.04,-0.08,1721201026107
-0.31,4.31,20.70,0.14,0.05,0.05,1721201026117
1.96,-3.78,3.86,-0.06,0.04,0.10,1721201026127
-1.15,1.40,12.14,-0.06,-0.17,-0.10,1721201026137
-1.50,3.12,2.84,-0.04,-0.02,-0.27,1721201026147
-2.20,6.65,17.92,0.04,0.10,-0.18,1721201026157
-0.06,-1.09,7.47,0.00,0.01,0.02,1721201026167
-0.08,-6.04,11.45,-0.15,-0.12,0.23,1721201026177
-1.10,2.15,10.15,0.12,-0.07,0.02,1721201026187
0.71,5.58,7.41,0.03,0.12,-0.30,1721201026197
-1.76,-0.45,5.19,-0.03,-0.19,-0.18,1721201026207
-3.46,4.12,13.54,0.03,0.14,0.09,1721201026217
1.16,-3.84,8.54,0.00,0.06,0.18,1721201026227
-0.30,1.40,15.80,-0.15,0.01,-0.06,1721201026237
0.03,1.94,12.11,-0.04,-0.10,-0.22,1721201026247
-2.65,2.89,7.70,0.10,-0.12,-0.14,1721201026257
0.12,-0.49,13.50,-0.12,0.32,-0.03,1721201026267
-0.02,-1.96,7.75,0.08,-0.38,0.30,1721201026277
0.37,8.49,17.35,0.11,0.42,-0.08,1721201026287
2.55,-3.27,3.90,0.03,-0.29,-0.24,1721201026297
-6.22,0.91,13.05,-0.17,-0.09,-0.29,1721201026307
-1.48,1.08,7.98,0.29,0.15,-0.10,1721201026317
-1.81,-6.76,5.27,-0.34,-0.06,0.22,1721201026327
-2.36,5.47,20.33,0.25,-0.21,0.25,1721201026337
5.42,1.56,3.27,0.17,0.18,0.01,1721201026347
1.50,-1.66,5.25,-0.16,-0.18,-0.21,1721201026357
-3.20,4.22,15.31,0.13,-0.03,-0.30,1721201026367
0.10,2.34,16.06,0.04,0.29,-0.08,1721201026377
-2.17,-1.47,3.02,0.15,-0.39,0.15,1721201026387
-2.80,-5.69,9.20,-0.32,0.11,0.03,1721201026397
0.40,8.07,15.48,0.32,-0.04,0.09,1721201026407
4.37,1.72,6.64,-0.14,0.27,-0.09,1721201026417
-0.39,-3.56,6.61,-0.06,-0.57,-0.13,1721201026427
-5.77,-2.43,14.53,-0.07,0.36,-0.16,1721201026437
1.22,-0.91,10.86,0.10,0.09,0.07,1721201026447
1.65,-0.02,11.71,-0.11,-0.15,0.14,1721201026457
0.67,10.05,10.37,0.40,-0.10,-0.07,1721201026467
1.03,-4.48,-0.43,-0.20,-0.01,-0.36,1721201026477
-7.51,-3.75,22.72,-0.14,-0.42,-0.11,1721201026487
-3.72,5.63,6.48,0.37,0.08,0.11,1721201026497
3.51,-4.47,6.43,-0.29,0.22,0.03,1721201026507
-2.18,3.12,16.78,0.10,-0.34,-0.12,1721201026517
-1.57,-0.52,1.26,0.01,0.13,-0.10,1721201026527
-0.10,2.25,15.36,-0.04,0.09,0.02,1721201026537
2.17,0.32,11.77,0.07,0.02,0.00,1721201026547
1.72,-0.79,8.80,-0.01,0.02,-0.20,1721201026557
-2.38,2.38,12.88,0.06,0.00,-0.32,1721201026567
-3.98,6.26,7.08,0.16,-0.04,-0.04,1721201026577
0.15,-1.57,11.28,-0.22,0.10,0.18,1721201026587
2.66,-0.91,16.54,0.07,-0.08,0.00,1721201026597
1.73,-0.30,7.71,-0.01,0.01,-0.22,1721201026607
-1.82,3.57,11.51,0.07,-0.05,-0.18,1721201026617
-3.20,0.85,6.00,-0.03,0.01,-0.11,1721201026627
-1.84,2.41,12.80,0.09,0.08,-0.01,1721201026637
0.97,-4.01,6.91,-0.14,0.05,-0.01,1721201026647
-2.63,2.97,11.26,0.03,-0.19,-0.07,1721201026657
-0.62,4.07,10.87,0.06,0.27,-0.02,1721201026667
1.60,-0.92,13.39,-0.14,0.05,-0.05,1721201026677
-2.19,-0.12,7.49,0.14,-0.43,-0.03,1721201026687
1.43,1.15,12.97,-0.14,0.52,-0.07,1721201026697
2.08,-0.48,9.50,0.11,-0.32,0.03,1721201026707
2.66,-0.54,12.43,0.08,-0.10,-0.04,1721201026722
1.34,2.03,8.93,0.21,0.23,-0.16,1721201026726
0.71,-0.67,11.63,-0.12,0.05,-0.22,1721201026736
-3.07,3.56,13.75,0.04,-0.24,-0.07,1721201026746
-1.11,0.50,8.91,-0.06,0.19,-0.07,1721201026756
-0.49,3.28,17.67,0.05,0.11,-0.08,1721201026766
-2.12,-4.55,-1.77,0.08,-0.43,0.03,1721201026776
-2.05,0.55,14.74,-0.07,0.48,-0.07,1721201026786
2.46,-3.40,11.22,-0.01,-0.03,-0.04,1721201026796
-3.49,8.90,7.09,0.11,-0.31,-0.10,1721201026806
1.62,2.14,8.28,-0.09,0.37,-0.24,1721201026816
3.03,-7.54,23.24,-0.26,-0.01,0.05,1721201026826
-3.43,7.99,6.99,0.34,-0.46,0.09,1721201026836
-0.04,0.86,3.14,-0.48,0.44,-0.29,1721201026846
-6.86,1.54,30.21,0.10,-0.58,-0.05,1721201026856
-5.32,-4.06,-1.30,-0.02,-0.32,0.14,1721201026866
-2.38,-1.84,11.58,-0.27,0.02,0.08,1721201026876
2.83,3.48,13.54,0.12,0.03,0.03,1721201026886
3.46,3.46,10.12,-0.16,0.01,-0.24,1721201026896
-2.38,7.12,7.59,0.13,-0.36,-0.40,1721201026906
-3.33,-8.62,5.42,-0.43,0.10,-0.22,1721201026916
-5.10,-1.45,17.15,-0.08,-0.34,0.15,1721201026926
0.09,6.95,3.37,0.02,0.02,0.25,1721201026936
6.27,-0.77,16.06,-0.40,0.15,-0.06,1721201026946
2.38,2.47,14.65,0.00,-0.44,-0.16,1721201026956
2.27,5.91,7.36,0.06,0.31,-0.37,1721201026966
2.12,2.05,10.93,-0.10,-0.07,-0.29,1721201026976
-3.76,-0.11,6.89,-0.08,-0.42,-0.03,1721201026986
-1.87,-2.48,11.26,-0.16,0.27,-0.01,1721201026996
0.03,5.27,12.04,0.23,-0.04,-0.06,1721201027006
1.81,-2.78,5.90,-0.07,0.13,-0.08,1721201027016
0.22,2.28,13.42,0.02,-0.06,-0.19,1721201027026
0.08,1.37,14.75,-0.03,0.07,-0.14,1721201027036
-2.73,5.61,10.03,0.24,-0.06,-0.00,1721201027046
0.02,-2.53,7.20,-0.01,0.16,-0.02,1721201027056
0.45,0.96,12.60,0.06,-0.23,0.09,1721201027066
0.39,4.99,6.65,0.10,0.09,-0.10,1721201027076
1.91,0.17,12.12,0.08,0.13,-0.36,1721201027086
-0.74,-4.05,11.22,-0.04,-0.09,-0.22,1721201027096
-4.62,3.00,2.15,0.26,-0.18,0.08,1721201027106
1.56,5.49,17.59,-0.04,0.64,0.03,1721201027116
2.05,3.60,13.65,0.25,-0.33,-0.08,1721201027126
-2.55,-1.63,8.63,-0.18,0.00,-0.29,1721201027136
-2.57,1.13,6.77,0.22,-0.20,-0.13,1721201027146
-0.52,-4.40,7.31,-0.13,0.17,0.20,1721201027156
1.83,-0.66,7.15,0.28,-0.04,0.15,1721201027166
0.12,-2.11,4.09,-0.29,-0.25,-0.49,1721201027176
1.12,-6.29,15.48,0.09,0.08,-0.14,1721201027186
-0.66,-3.64,9.04,-0.24,0.32,0.03,1721201027196
-4.52,-4.16,14.02,-0.13,-0.54,0.52,1721201027206
-0.90,12.19,8.35,0.09,0.52,0.07,1721201027216
5.58,-8.46,8.20,-0.31,-0.22,-0.22,1721201027226
-2.62,1.02,14.26,0.03,-0.35,-0.18,1721201027236
-0.75,-0.53,2.59,-0.04,0.15,0.24,1721201027246
-1.00,1.84,21.14,-0.10,0.20,0.13,1721201027256
1.64,-0.20,7.96,-0.01,-0.27,0.02,1721201027266
1.83,0.01,6.31,-0.10,-0.04,0.13,1721201027276
2.22,4.45,11.71,-0.08,0.18,-0.28,1721201027286
0.04,3.40,13.69,0.04,-0.24,-0.37,1721201027296
-2.39,-5.23,6.42,-0.03,0.07,-0.15,1721201027306
-5.22,0.99,14.06,-0.07,0.20,-0.22,1721201027316
-2.14,6.08,11.26,0.15,-0.08,0.03,1721201027326
2.25,-2.13,4.89,0.15,0.07,0.49,1721201027336
4.04,2.72,14.05,0.16,0.13,0.08,1721201027346
3.34,-0.24,11.15,0.03,-0.05,-0.35,1721201027356
-2.58,3.22,9.82,0.07,-0.14,-0.51,1721201027366
-4.28,-0.81,8.51,0.00,0.11,-0.22,1721201027376
-2.63,-1.11,14.64,0.17,0.04,0.22,1721201027386
1.06,7.38,8.68,0.37,0.11,0.26,1721201027396
3.68,-7.08,8.65,-0.20,0.04,-0.12,1721201027406
0.04,8.67,17.23,0.26,-0.17,-0.21,1721201027416
0.92,1.36,3.72,0.05,0.22,-0.25,1721201027426
-3.29,-4.02,12.42,0.01,-0.23,-0.08,1721201027436
-2.89,2.65,9.34,0.22,0.09,0.08,1721201027446
3.01,-0.43,8.39,0.06,0.23,0.01,1721201027456
2.03,-3.10,12.62,0.00,-0.17,-0.08,1721201027466
-1.34,7.33,14.19,0.24,0.09,-0.26,1721201027476
-1.35,-2.22,0.39,0.04,-0.01,-0.14,1721201027486
-4.23,-1.49,14.23,-0.06,-0.07,0.06,1721201027496
0.68,-0.02,6.86,0.11,0.03,0.06,1721201027506
2.18,1.77,13.28,-0.12,0.16,-0.16,1721201027516
1.54,1.84,13.71,0.05,0.10,-0.14,1721201027526
-0.70,0.37,2.34,-0.00,-0.10,-0.23,1721201027536
-0.46,-0.10,15.57,-0.06,0.29,-0.19,1721201027546
0.83,0.17,7.28,0.05,-0.03,-0.12,1721201027556
-1.54,3.03,10.33,-0.19,0.04,-0.23,1721201027566
-0.54,-1.59,12.61,-0.18,0.08,-0.30,1721201027576
-0.34,1.02,12.93,-0.08,0.03,0.03,1721201027586
0.62,2.04,6.97,-0.08,0.17,-0.06,1721201027596
0.40,-1.71,9.17,-0.28,0.13,-0.35,1721201027606
-1.84,6.43,16.00,0.07,-0.05,-0.34,1721201027616
-0.05,-3.17,5.99,-0.08,-0.02,0.01,1721201027626
-0.84,-0.03,12.90,-0.14,0.06,0.04,1721201027636
1.00,3.97,8.12,0.10,0.18,-0.20,1721201027646
1.99,-3.00,9.17,-0.16,0.24,-0.40,1721201027656
-2.59,2.20,10.98,-0.01,-0.27,-0.35,1721201027666
-4.51,4.15,8.05,-0.00,0.13,-0.22,1721201027676
-1.95,-2.77,10.47,-0.01,0.24,0.00,1721201027686
0.20,-2.38,15.57,-0.11,0.17,0.09,1721201027696
0.69,2.95,8.57,0.06,-0.14,-0.20,1721201027706
-0.02,-2.25,6.52,-0.17,0.16,-0.46,1721201027716
-1.99,4.50,13.57,0.25,0.14,-0.35,1721201027726
-0.21,-6.74,6.85,-0.06,0.11,0.02,1721201027736
-3.55,8.27,12.05,0.19,-0.08,0.15,1721201027746
2.77,1.81,9.53,-0.05,0.32,-0.20,1721201027756
-0.34,-1.73,10.43,0.05,-0.31,-0.45,1721201027766
-3.67,1.03,9.60,0.13,0.36,-0.31,1721201027776
-1.05,-8.30,8.17,-0.02,0.08,0.04,1721201027786
-3.25,5.18,11.97,0.12,0.04,0.10,1721201027796
2.72,7.21,9.33,0.22,0.39,-0.33,1721201027806
1.67,-4.28,13.71,-0.03,0.00,-0.30,1721201027816
-3.60,-0.34,10.89,0.07,-0.12,-0.25,1721201027826
-1.52,2.80,7.12,0.19,0.20,0.02,1721201027836
2.20,0.09,11.51,-0.04,0.25,-0.14,1721201027846
-1.36,-2.37,7.65,0.04,-0.16,-0.41,1721201027856
-5.45,-0.06,6.27,0.17,0.15,-0.36,1721201027866
1.14,-1.01,16.52,0.11,0.61,-0.10,1721201027876
2.25,1.81,17.72,0.17,0.05,0.04,1721201027886
-0.96,8.46,11.67,0.15,0.07,-0.27,1721201027896
-0.25,-3.74,0.46,0.11,-0.02,-0.32,1721201027906
-3.38,3.59,14.11,0.20,0.23,-0.27,1721201027916
-0.17,-2.11,6.86,0.19,0.16,-0.13,1721201027926
-2.32,1.68,10.41,0.05,0.02,-0.14,1721201027936
-0.70,1.40,13.56,0.09,0.31,-0.12,1721201027946
-2.14,0.72,6.11,0.08,-0.04,-0.04,1721201027956
-1.33,-0.76,12.36,-0.05,0.27,-0.10,1721201027966
1.96,3.09,13.24,0.17,0.14,-0.09,1721201027976
2.26,3.14,12.53,0.11,0.22,-0.08,1721201027986
-1.20,-0.66,4.41,0.01,-0.13,-0.06,1721201027996
-2.83,1.52,14.09,-0.08,0.25,-0.07,1721201028006
1.58,0.14,14.06,0.06,0.14,-0.14,1721201028016
-3.05,3.69,0.96,0.14,-0.17,-0.07,1721201028026
0.33,-2.67,10.72,-0.31,0.49,-0.03,1721201028036
-0.70,-1.22,16.52,0.06,-0.12,-0.06,1721201028046
-3.31,4.55,9.51,0.06,0.05,-0.00,1721201028056
-1.47,1.74,6.42,-0.09,0.20,0.00,1721201028066
-3.01,-4.00,11.81,-0.25,-0.07,0.01,1721201028076
-3.75,-1.14,8.15,-0.04,-0.13,0.21,1721201028086
-0.60,2.91,8.41,-0.02,0.21,0.36,1721201028096
2.14,0.41,9.66,-0.16,0.08,0.22,1721201028106
1.94,-1.24,12.88,-0.18,0.04,0.02,1721201028116
0.74,2.96,8.71,-0.15,0.07,-0.03,1721201028126
-1.37,-1.35,12.31,-0.43,0.10,-0.09,1721201028136
-3.76,1.29,13.95,-0.08,-0.16,0.01,1721201028146
-0.91,-0.66,5.46,-0.11,0.12,0.23,1721201028156
-0.53,-3.46,10.13,-0.25,-0.07,0.27,1721201028166
-1.99,2.19,14.05,-0.03,-0.04,0.17,1721201028176
0.06,1.00,8.96,-0.06,0.14,0.11,1721201028186
-1.55,1.90,10.43,-0.00,-0.14,0.12,1721201028196
0.05,-0.94,13.04,-0.07,0.06,0.21,1721201028206
1.87,-0.40,4.43,-0.08,-0.16,0.37,1721201028216
1.31,3.22,16.58,-0.16,0.26,-0.09,1721201028226
0.10,-1.28,7.98,0.16,-0.30,-0.02,1721201028236
-0.91,-5.56,6.13,-0.20,0.16,0.07,1721201028246
-0.10,-2.26,16.65,-0.00,-0.14,0.31,1721201028256
1.16,7.03,8.61,0.13,0.09,0.27,1721201028266
2.98,8.66,12.60,0.11,0.06,0.01,1721201028276
1.64,-2.37,10.22,0.07,-0.13,-0.15,1721201028286
-2.19,-7.26,5.76,-0.12,-0.11,-0.01,1721201028296
-3.26,-8.41,9.11,-0.06,0.00,0.29,1721201028306
-0.84,12.53,20.43,0.25,0.23,0.21,1721201028316
4.78,-0.24,2.13,0.12,-0.26,0.22,1721201028326
2.60,-1.94,12.09,-0.05,0.20,-0.06,1721201028336
0.23,1.56,14.34,0.08,0.06,-0.41,1721201028346
-6.24,-0.29,4.91,0.14,-0.28,-0.03,1721201028356
-3.36,-2.63,14.23,-0.09,0.22,0.45,1721201028366
4.76,-2.48,7.74,0.16,-0.19,0.64,1721201028376
5.38,5.64,11.99,0.11,0.13,-0.07,1721201028386
3.46,1.30,8.35,0.16,-0.15,-0.50,1721201028396
-4.89,-3.30,11.86,-0.05,-0.06,-0.47,1721201028406
-6.99,6.56,13.54,0.39,0.01,0.14,1721201028416
0.16,-1.20,4.89,0.16,0.06,0.54,1721201028426
4.06,3.17,10.99,0.31,0.00,0.34,1721201028436
5.28,-5.04,6.45,-0.04,0.13,-0.21,1721201028446
-3.91,5.19,15.65,0.15,-0.26,-0.52,1721201028456
-3.79,-0.58,5.31,0.03,0.10,-0.13,1721201028466
-1.63,-2.77,12.81,0.05,-0.11,0.39,1721201028476
3.00,5.71,14.55,0.17,0.20,0.36,1721201028486
4.30,2.90,4.15,0.06,-0.05,-0.12,1721201028496
-0.17,3.84,14.67,-0.08,0.04,-0.38,1721201028506
-2.92,-3.74,9.02,0.04,-0.12,-0.20,1721201028516
-4.53,3.66,13.11,0.06,0.04,0.20,1721201028526
2.30,3.09,10.32,0.00,0.10,0.25,1721201028536
4.38,-1.60,7.75,0.05,-0.17,0.10,1721201028546
2.92,-0.07,9.01,-0.12,0.14,-0.40,1721201028556
-1.41,5.97,14.36,0.16,-0.09,-0.52,1721201028566
-3.31,-2.14,2.93,-0.01,0.01,0.06,1721201028576
-2.37,-3.22,8.80,-0.12,-0.05,0.22,1721201028586
2.71,-3.54,11.35,-0.24,0.16,-0.02,1721201028596
3.17,5.83,13.68,0.11,-0.09,-0.21,1721201028606
1.83,-1.47,5.30,-0.11,0.03,-0.29,1721201028616
-1.63,-3.69,15.70,-0.03,0.08,-0.08,1721201028626
-1.98,-3.03,7.75,-0.06,0.09,-0.12,1721201028636
-2.01,5.64,11.10,-0.06,0.04,-0.16,1721201028646
2.07,2.16,11.51,-0.04,0.13,-0.14,1721201028656
1.58,1.79,9.77,0.05,0.05,-0.12,1721201028666
3.36,-5.18,11.13,-0.14,-0.06,-0.11,1721201029212
0.31,-1.01,15.82,-0.08,0.15,-0.22,1721201029217
-1.58,1.95,15.97,0.00,-0.06,-0.10,1721201029227
-3.59,2.12,1.89,0.09,-0.22,0.15,1721201029237
1.62,-3.70,13.87,-0.21,0.27,0.21,1721201029247
2.63,6.26,13.51,0.27,-0.23,-0.01,1721201029257
2.95,-1.62,8.32,-0.19,0.13,-0.17,1721201029267
-1.03,3.96,15.73,0.30,-0.23,-0.11,1721201029277
-0.69,0.91,4.17,0.06,0.21,-0.13,1721201029287
-2.13,-4.98,14.49,-0.11,-0.12,0.01,1721201029297
-1.79,5.74,10.12,0.33,-0.09,0.12,1721201029307
5.34,2.04,4.67,0.18,0.17,0.09,1721201029317
4.69,-4.12,15.22,-0.06,-0.02,-0.21,1721201029327
-3.68,12.47,15.45,0.33,-0.16,-0.39,1721201029337
-1.95,-3.49,0.08,0.01,0.05,-0.01,1721201029346
-4.61,-2.08,14.57,0.09,-0.03,0.07,1721201029356
0.60,-2.55,5.95,0.01,0.01,0.08,1721201029365
0.28,6.69,17.72,0.10,0.06,-0.06,1721201029375
1.98,3.32,9.94,0.32,-0.11,-0.11,1721201029384
-1.01,4.14,5.98,0.29,-0.08,-0.19,1721201029394
0.89,-5.36,11.83,-0.07,0.19,-0.21,1721201029403
-3.02,5.54,11.02,0.48,-0.27,0.00,1721201029413
0.35,-5.66,4.42,-0.11,0.33,0.03,1721201029423
-0.43,3.03,16.69,0.34,-0.26,0.02,1721201029433
3.18,0.19,5.99,0.09,0.18,-0.11,1721201029442
0.40,2.41,14.22,0.06,-0.09,-0.32,1721201029452
-2.94,5.24,9.74,0.19,-0.04,-0.24,1721201029462
-0.75,-5.04,6.03,-0.18,0.22,-0.08,1721201029472
-1.95,-3.62,9.13,-0.09,-0.14,-0.02,1721201029482
-0.11,1.99,11.16,-0.06,0.15,0.02,1721201029492
3.82,5.80,12.77,0.05,0.22,-0.15,1721201029502
0.98,-0.17,9.36,-0.14,-0.08,-0.41,1721201029512
-4.44,-3.64,11.32,-0.04,-0.18,-0.16,1721201029522
-1.40,1.47,14.20,-0.20,0.30,0.02,1721201029532
3.95,-0.68,6.04,-0.06,-0.06,0.06,1721201029542
0.16,4.34,9.36,-0.04,0.08,-0.40,1721201029552
-0.02,-4.36,6.24,-0.22,0.11,-0.45,1721201029562
-4.64,-2.93,14.37,-0.22,-0.15,-0.19,1721201029572
-1.58,8.41,17.75,0.14,0.39,0.05,1721201029582
4.59,-1.38,1.90,-0.25,0.01,-0.11,1721201029592
-1.61,-0.17,13.05,-0.19,-0.11,-0.37,1721201029602
-0.05,0.50,12.13,-0.01,0.35,-0.28,1721201029612
-2.29,1.46,9.92,-0.14,-0.01,-0.26,1721201029622
-3.13,-1.53,9.92,-0.20,-0.05,-0.12,1721201029632
0.34,0.46,13.94,-0.04,0.30,-0.08,1721201029642
2.82,4.69,11.90,0.12,0.16,-0.08,1721201029652
0.35,-3.51,5.66,-0.27,-0.06,-0.31,1721201029662
-4.68,4.03,13.51,0.08,-0.06,-0.37,1721201029672
-0.32,-2.23,10.13,0.02,0.39,-0.26,1721201029682
-1.55,-7.85,4.53,-0.19,-0.19,0.06,1721201029692
-4.88,7.03,16.67,0.11,0.25,-0.10,1721201029702
3.16,7.89,7.83,0.31,0.25,-0.16,1721201029712
-0.25,-4.26,6.01,-0.13,-0.16,-0.20,1721201029722
-3.52,-3.28,12.31,0.11,0.03,-0.17,1721201029732
1.58,3.73,14.92,0.11,0.48,-0.01,1721201029742
0.33,-1.53,8.59,-0.12,-0.22,-0.13,1721201029752
-6.05,2.31,5.36,0.10,-0.23,-0.18,1721201029762
1.10,3.13,9.67,0.13,0.69,-0.01,1721201029772
2.04,-7.15,13.47,-0.14,-0.15,-0.02,1721201029782
-4.71,3.23,12.82,0.04,-0.19,-0.17,1721201029792
1.48,5.05,9.09,0.04,0.28,-0.16,1721201029802
0.58,-2.58,11.99,-0.04,-0.04,-0.12,1721201029812
-3.41,3.88,8.05,0.21,-0.10,-0.06,1721201029822
0.68,-4.59,9.68,-0.16,0.34,-0.10,1721201029832
-1.45,3.55,13.08,0.04,-0.26,-0.17,1721201029842
-1.29,2.48,13.87,-0.08,0.14,-0.05,1721201029852
0.21,-0.01,4.95,0.25,-0.12,-0.06,1721201029862
-0.94,3.77,-0.62,0.11,0.04,-0.17,1721201029872
1.87,-2.30,12.76,-0.07,0.14,-0.21,1721201029882
-0.60,-0.97,18.27,0.07,0.01,-0.09,1721201029892
-2.97,2.13,9.40,0.04,0.00,-0.13,1721201029902
-0.73,6.03,7.69,0.18,0.10,0.00,1721201029912
2.76,-2.59,12.02,-0.13,0.17,-0.13,1721201029922
-1.17,3.43,11.46,0.18,-0.27,-0.19,1721201029932
0.80,3.96,8.02,0.09,0.31,-0.14,1721201029942
1.45,-6.00,5.65,-0.02,-0.26,0.01,1721201029952
-4.01,1.81,12.30,-0.04,-0.01,-0.14,1721201029962
-0.54,2.71,10.72,0.17,0.08,-0.20,1721201029972
-2.61,0.84,10.75,-0.08,0.16,-0.20,1721201029982
-3.28,-0.83,5.28,0.07,-0.14,0.19,1721201029992
1.52,-2.71,11.12,-0.21,0.37,0.19,1721201030002
4.48,5.96,19.19,0.20,0.08,-0.04,1721201030012
2.11,2.04,2.43,0.01,-0.07,-0.25,1721201030022
-4.54,0.60,7.96,-0.11,-0.03,-0.38,1721201030032
-3.08,0.03,15.69,0.12,0.07,-0.10,1721201030042
-1.97,2.17,4.20,0.08,0.05,0.26,1721201030052
0.50,-1.86,11.79,-0.11,0.12,0.12,1721201030062
1.06,-1.46,12.64,-0.06,-0.03,-0.06,1721201030072
-1.34,4.56,2.59,0.02,-0.14,-0.11,1721201030082
1.11,-2.58,14.15,-0.26,0.47,-0.13,1721201030092
0.94,-3.10,19.66,0.11,-0.04,0.12,1721201030102
-1.68,0.05,4.59,-0.13,-0.09,0.14,1721201030112
0.56,8.71,14.06,0.09,0.17,0.02,1721201030122
4.02,-1.97,2.62,-0.11,0.02,-0.09,1721201030132
-2.81,0.10,13.96,-0.15,-0.06,-0.46,1721201030142
-3.22,-8.13,4.78,-0.09,-0.01,-0.16,1721201030152
-2.48,-0.28,17.99,-0.12,0.10,0.25,1721201030162
2.08,7.13,8.20,0.21,-0.00,0.46,1721201030172
5.57,5.90,10.44,-0.04,0.28,0.01,1721201030182
1.73,-4.26,3.94,-0.01,-0.29,-0.44,1721201030192
-5.64,-1.78,16.07,-0.19,0.20,-0.40,1721201030202
-3.52,-3.17,11.02,0.09,0.08,0.19,1721201030212
0.05,-1.30,10.60,-0.05,0.08,0.56,1721201030222
5.15,4.91,8.93,0.15,0.17,0.25,1721201030232
5.67,3.07,9.59,0.06,0.06,-0.47,1721201030242
-1.02,-3.88,12.06,-0.06,-0.16,-0.56,1721201030252
-6.80,-0.25,10.97,0.00,0.03,-0.10,1721201030262
-3.41,2.08,10.99,0.09,0.19,0.37,1721201030272
2.48,-4.39,8.57,-0.04,0.08,0.31,1721201030282
0.63,3.16,11.52,0.11,-0.11,-0.11,1721201030292
0.65,1.15,10.05,0.01,0.24,-0.28,1721201030302
-2.67,-3.70,9.99,0.01,-0.18,-0.12,1721201030312
-5.04,5.51,11.98,0.21,0.06,0.01,1721201030322
0.91,6.22,1.40,0.22,0.18,0.20,1721201030332
0.21,-1.30,11.52,-0.06,-0.16,-0.15,1721201030342
-2.84,-3.40,7.47,-0.01,-0.18,-0.12,1721201030352
-4.00,2.54,15.63,-0.14,0.18,0.01,1721201030362
-1.80,5.73,13.86,0.22,-0.13,0.15,1721201030372
0.99,5.65,7.05,0.14,-0.01,0.12,1721201030382
0.91,0.42,8.17,0.06,-0.08,0.01,1721201030392
-0.97,0.34,13.63,0.08,-0.04,-0.06,1721201030402
-1.08,0.10,10.55,0.18,-0.06,0.13,1721201030412
-1.28,0.99,6.83,0.09,-0.16,0.11,1721201030422
-0.45,5.79,15.35,0.12,-0.03,0.11,1721201030432
1.77,1.25,5.85,0.21,-0.18,0.20,1721201030442
2.16,-1.17,13.57,-0.11,0.16,-0.06,1721201030452
1.03,0.72,17.77,0.24,-0.08,-0.06,1721201030462
-2.77,0.57,4.41,0.21,-0.24,0.03,1721201030472
-0.74,3.17,8.06,0.16,0.02,0.18,1721201030482
4.63,1.31,7.27,0.14,0.05,0.24,1721201030492
3.72,-0.16,12.33,-0.01,-0.04,-0.08,1721201030502
1.01,0.91,8.91,0.12,-0.13,-0.23,1721201030512
0.53,1.45,13.59,-0.04,0.11,-0.14,1721201030522
-0.15,0.37,10.75,0.19,-0.09,-0.00,1721201030532
1.08,-4.59,4.58,-0.10,0.06,0.01,1721201030542
0.56,1.99,11.20,0.12,-0.06,-0.11,1721201030552
1.47,-1.53,6.36,-0.09,0.03,-0.05,1721201030562
-0.37,1.27,15.41,0.05,0.01,-0.12,1721201030572
0.83,-0.22,5.11,0.05,0.16,-0.13,1721201030582
-0.30,-2.97,10.53,-0.23,0.00,-0.07,1721201030592
0.36,-0.26,13.63,0.15,-0.07,0.00,1721201030602
4.12,0.47,10.68,0.12,0.32,-0.18,1721201030612
0.59,2.69,4.56,0.21,-0.11,-0.18,1721201030622
-0.82,0.85,10.67,-0.23,0.31,-0.32,1721201030632
-0.47,-0.67,11.99,0.13,-0.01,-0.31,1721201030642
-0.84,2.19,11.07,-0.03,0.22,-0.12,1721201030652
0.67,-1.52,8.65,-0.10,0.11,-0.02,1721201030662
0.28,2.12,10.90,0.04,0.10,-0.21,1721201030672
2.74,-3.73,9.04,-0.14,0.31,-0.50,1721201030682
-2.66,-0.39,14.15,0.09,-0.01,-0.39,1721201030692
-4.25,1.71,11.16,0.01,0.28,-0.04,1721201030702
-2.28,3.07,8.57,-0.01,0.20,0.04,1721201030712
0.84,1.45,13.11,-0.07,0.17,-0.02,1721201030722
2.60,-2.21,7.49,-0.08,0.18,-0.15,1721201030732
-1.23,0.27,8.62,-0.10,0.06,-0.26,1721201030742
-2.43,4.74,14.26,0.09,0.32,-0.29,1721201030752
-2.63,-2.94,5.28,-0.09,0.16,-0.11,1721201030762
-5.17,5.03,14.23,0.10,-0.01,0.02,1721201030772
0.30,5.57,9.31,-0.01,0.45,0.06,1721201030782
2.06,1.02,12.56,-0.02,0.06,-0.10,1721201030792
-2.29,3.42,9.80,0.16,0.00,-0.16,1721201030802
-0.56,-4.75,-1.02,-0.12,0.16,0.05,1721201030812
-2.17,3.29,21.47,-0.18,0.29,-0.04,1721201030822
-0.11,-0.74,11.59,0.13,0.05,-0.09,1721201030832
-2.13,-5.75,8.18,-0.10,-0.03,-0.00,1721201030842
-1.92,8.96,13.70,0.28,0.30,0.11,1721201030852
3.81,-1.53,1.07,0.01,0.18,0.17,1721201030862
-1.36,3.80,11.25,0.02,-0.10,0.03,1721201030872
-0.35,-1.80,9.61,-0.10,0.27,-0.10,1721201030882
-1.28,-0.69,19.34,0.03,0.08,-0.07,1721201030892
-2.30,2.98,12.60,0.17,-0.01,0.16,1721201030902
1.35,3.32,7.40,0.17,0.13,0.29,1721201030912
3.82,3.86,3.07,0.06,0.12,0.09,1721201030922
3.39,-0.50,12.28,-0.13,0.29,-0.31,1721201030932
-1.85,-4.85,10.92,-0.01,-0.09,-0.24,1721201030942
-6.03,0.37,10.05,0.01,0.01,0.10,1721201030952
-1.14,1.31,8.72,0.09,0.15,0.35,1721201030962
4.98,1.70,11.30,-0.05,0.28,0.21,1721201030972
3.12,-3.71,9.18,-0.09,-0.15,-0.14,1721201030982
-3.72,7.17,14.69,0.10,0.14,-0.32,1721201030992
-1.09,-0.06,10.85,-0.05,0.27,-0.10,1721201031002
-1.51,-5.75,9.72,-0.03,-0.21,0.30,1721201031012
-0.96,6.95,12.55,0.23,0.16,0.18,1721201031022
5.30,2.93,4.01,-0.03,0.24,-0.05,1721201031032
0.66,-1.20,12.41,-0.15,-0.12,-0.14,1721201031042
-1.45,-4.06,14.05,-0.06,0.24,-0.23,1721201031052
-1.19,1.58,8.51,0.29,0.07,0.01,1721201031062
-0.65,0.10,6.26,-0.17,0.15,0.17,1721201031072
-1.63,7.93,16.94,0.16,-0.00,0.07,1721201031082
1.54,0.72,5.73,-0.04,0.13,-0.02,1721201031092
-1.02,-2.97,14.71,-0.23,0.10,-0.13,1721201031102
-3.30,-3.10,9.36,0.07,0.00,-0.09,1721201031112
-1.71,10.57,19.13,0.21,0.37,0.05,1721201031122
2.46,3.87,-4.08,0.34,-0.14,0.25,1721201031132
0.96,-2.07,8.75,-0.29,0.21,0.04,1721201031142
4.26,-1.71,12.56,0.04,-0.05,-0.31,1721201031152
-3.28,7.47,13.27,0.28,0.06,-0.21,1721201031162
-2.60,3.43,3.51,0.10,0.02,0.10,1721201031172
-0.83,-2.52,9.61,-0.12,0.21,0.29,1721201031182
1.12,-0.65,10.26,0.05,0.03,0.27,1721201031192
2.47,2.52,14.50,-0.01,0.18,-0.14,1721201031202
-1.56,0.64,13.29,0.05,0.21,-0.13,1721201031217
-4.77,4.53,12.24,0.19,0.05,0.02,1721201031221
-0.54,-0.07,2.49,0.07,0.09,0.38,1721201031231
1.26,3.76,8.75,0.00,0.07,0.25,1721201031241
2.80,-0.94,11.41,-0.14,0.11,-0.11,1721201031251
-1.58,1.53,13.63,0.10,-0.17,-0.13,1721201031261
-2.78,-4.44,8.37,-0.12,0.02,0.04,1721201031271
-2.19,4.07,18.59,0.26,0.08,0.13,1721201031281
0.86,2.82,2.32,0.08,0.01,0.19,1721201031291
-1.02,0.64,8.13,-0.12,-0.16,0.05,1721201031301
-0.56,-0.58,5.57,-0.11,-0.01,-0.03,1721201031311
1.37,-0.74,16.64,0.03,0.17,0.10,1721201031321
1.11,-2.98,9.28,0.10,-0.09,0.13,1721201031331
-2.12,0.53,10.92,-0.00,-0.17,0.18,1721201031341
0.03,2.72,10.74,-0.01,0.11,0.11,1721201031351
1.07,5.38,12.95,0.11,-0.01,0.12,1721201031361
0.70,1.45,6.94,-0.07,-0.07,-0.04,1721201031371
-0.84,-3.24,9.12,-0.02,-0.10,0.01,1721201031381
-1.24,-0.24,11.06,0.01,0.10,0.07,1721201031391
-0.48,5.38,10.94,0.05,-0.01,0.16,1721201031401
0.47,-1.92,7.22,-0.06,-0.24,0.15,1721201031411
0.46,1.81,16.07,0.03,0.00,0.04,1721201031421
3.30,-2.21,8.46,-0.04,0.08,-0.06,1721201031431
-2.43,-1.05,13.03,-0.13,-0.19,-0.04,1721201031441
-4.15,4.51,7.29,0.23,-0.10,-0.04,1721201031451
2.69,-2.82,5.79,-0.16,0.11,0.25,1721201031461
2.70,4.80,19.93,0.04,-0.06,0.17,1721201031471
0.93,-4.74,8.37,-0.10,-0.15,-0.15,1721201031481
-5.49,6.44,11.31,0.23,-0.26,-0.22,1721201031491
0.64,-0.49,1.43,-0.20,0.15,0.22,1721201031501
1.95,1.94,13.63,0.09,-0.11,0.43,1721201031511
3.53,-1.42,4.27,-0.18,0.13,-0.09,1721201031521
-1.91,1.95,19.39,-0.05,-0.13,-0.51,1721201031531
-5.13,0.35,7.16,0.10,-0.17,-0.11,1721201031541
-2.80,2.62,10.01,0.07,0.04,0.42,1721201031551
3.31,-0.67,7.95,-0.10,0.03,0.34,1721201031561
2.55,-1.02,16.67,-0.15,-0.11,-0.14,1721201031571
-1.87,-1.10,10.83,0.11,-0.21,-0.42,1721201031581
-4.40,5.80,10.83,0.17,-0.00,0.08,1721201031591
0.08,-1.21,9.50,-0.17,0.08,0.36,1721201031601
0.15,2.80,9.19,0.08,-0.36,0.29,1721201031611
3.67,2.35,10.41,-0.11,0.26,-0.27,1721201031621
0.87,-2.23,10.68,-0.04,-0.28,-0.28,1721201031631
-5.48,0.22,10.00,0.06,-0.31,0.10,1721201031641
-0.90,0.30,15.50,-0.08,0.23,0.29,1721201031651
2.33,1.76,10.66,0.25,-0.28,0.22,1721201031661
1.49,3.98,7.51,-0.13,-0.05,-0.17,1721201031671
-0.96,-0.28,7.22,0.09,-0.29,-0.17,1721201031681
-0.71,0.22,12.22,-0.06,0.09,0.11,1721201031691
-0.13,-4.55,7.64,0.01,-0.18,0.21,1721201031701
-1.44,2.72,15.69,-0.01,-0.13,0.02,1721201031711
2.29,-0.09,8.82,0.05,-0.12,0.07,1721201031721
0.67,4.27,9.52,0.13,-0.20,0.13,1721201031731
2.00,-0.74,4.04,-0.20,0.06,0.01,1721201031741
0.78,1.18,23.06,0.12,-0.14,-0.04,1721201031751
-0.85,-2.67,2.07,0.08,-0.24,-0.04,1721201031761
-3.24,1.13,11.38,-0.15,-0.11,0.09,1721201031771
0.57,2.77,12.02,0.02,-0.04,0.13,1721201031781
2.13,1.28,7.52,-0.02,-0.18,0.05,1721201031791
0.38,-1.49,5.98,-0.11,-0.15,-0.10,1721201031801
0.15,-0.76,13.85,-0.16,0.11,-0.23,1721201031811
-1.01,-1.52,13.61,0.12,-0.24,-0.04,1721201031821
-2.18,7.12,8.81,0.20,-0.23,0.16,1721201031831
3.45,1.74,6.91,-0.15,0.11,0.16,1721201031841
2.90,-1.41,13.06,0.00,-0.23,-0.25,1721201031851
-0.52,-2.98,7.11,-0.02,-0.19,-0.29,1721201031861
-2.35,4.40,14.16,0.10,0.00,-0.03,1721201031871
-0.79,1.30,4.96,-0.04,-0.05,0.04,1721201031881
-1.10,2.95,12.65,0.01,-0.29,0.03,1721201031891
3.34,-0.16,9.70,-0.01,0.12,-0.18,1721201031901
1.16,-1.00,11.42,0.02,-0.21,-0.30,1721201031911
-3.94,3.43,8.88,0.14,-0.29,-0.14,1721201031921
0.24,1.43,8.08,-0.09,0.20,0.08,1721201031931
1.58,0.07,11.60,0.02,-0.21,-0.04,1721201031941
0.85,-2.85,11.83,-0.15,-0.16,-0.38,1721201031951
-2.63,0.91,13.10,0.14,-0.11,-0.34,1721201031961
-3.11,7.19,4.35,0.14,0.01,-0.03,1721201031971
-0.46,5.10,10.85,-0.06,-0.02,0.04,1721201031981
1.87,3.39,5.74,0.11,-0.20,-0.02,1721201031991
4.11,-9.47,6.75,-0.53,0.16,-0.32,1721201032001
-1.76,-2.79,17.72,0.13,-0.22,-0.56,1721201032011
-3.11,-1.16,11.65,0.05,0.04,-0.38,1721201032021
-2.15,12.18,13.97,0.58,-0.17,0.15,1721201032031
2.13,7.86,1.15,-0.08,0.03,0.20,1721201032041
2.91,-2.66,10.54,-0.41,-0.02,-0.18,1721201032051
1.75,-6.18,20.94,-0.10,0.05,-0.62,1721201032061
-1.84,3.07,9.21,0.41,-0.09,-0.50,1721201032071
-4.15,0.02,1.97,-0.03,-0.11,-0.06,1721201032081
-2.49,2.51,7.05,0.13,-0.04,0.23,1721201032091
5.83,-2.56,15.58,-0.34,0.36,-0.12,1721201032101
2.14,3.90,20.04,0.29,-0.43,-0.41,1721201032111
-2.55,5.57,6.67,0.15,0.09,-0.54,1721201032121
-3.35,-1.03,3.54,0.00,-0.01,-0.15,1721201032131
-2.58,0.84,11.46,-0.06,0.09,-0.00,1721201032141
1.87,2.43,11.46,0.10,0.03,-0.12,1721201032151
2.58,1.21,14.40,-0.00,0.00,-0.30,1721201032161
-1.20,-2.22,16.68,0.06,-0.08,-0.25,1721201032171
-4.32,4.98,17.90,0.31,0.04,-0.27,1721201032181
-0.54,4.07,-8.04,0.35,-0.09,-0.01,1721201032191
9.87,10.30,-10.70,0.05,-0.01,0.13,1721201032201
6.69,3.77,1.81,-0.44,0.40,-0.25,1721201032211
-3.82,-9.94,36.31,-0.44,0.60,-0.85,1721201032221
-4.13,-5.56,23.08,0.41,-0.12,-0.56,1721201032231
-6.84,2.05,3.51,0.09,0.01,0.11,1721201032241
-1.23,9.66,7.17,0.10,0.17,0.32,1721201032251
6.11,-0.32,7.34,-0.17,0.19,-0.10,1721201032261
2.13,-2.07,9.59,0.13,-0.20,-0.39,1721201032271
-0.20,-4.10,8.42,-0.22,0.35,-0.46,1721201032281
-3.76,2.27,18.54,0.09,-0.05,-0.29,1721201032291
-3.24,6.50,10.14,0.23,-0.01,-0.02,1721201032301
1.61,2.17,4.41,-0.06,0.14,0.08,1721201032311
2.48,-4.71,7.48,-0.19,0.00,-0.21,1721201032321
-0.34,-0.79,19.74,-0.19,0.23,-0.65,1721201032331
-3.59,1.89,9.13,0.31,-0.09,-0.41,1721201032341
-4.37,3.18,8.59,-0.04,0.22,0.05,1721201032351
0.25,-1.03,7.24,0.04,0.04,0.25,1721201032361
2.09,1.77,8.63,-0.07,0.08,-0.24,1721201032371
1.95,3.19,13.52,-0.00,0.11,-0.42,1721201032381
-1.76,-1.38,10.81,-0.13,0.04,-0.34,1721201032391
-4.91,2.37,12.47,0.17,-0.10,-0.08,1721201032401
0.84,-0.04,7.35,-0.04,0.30,0.10,1721201032411
3.42,-1.21,12.14,-0.03,0.03,-0.03,1721201032421
-0.51,5.78,12.43,0.06,-0.03,-0.36,1721201032431
-1.46,0.93,9.21,0.03,0.09,-0.34,1721201032441
-2.41,-0.60,9.73,0.04,0.07,-0.01,1721201032451
-0.61,-2.98,10.87,-0.06,0.10,0.07,1721201032461
0.88,2.35,10.41,0.07,0.00,-0.07,1721201032471
1.77,2.50,8.82,-0.02,0.07,-0.23,1721201032481
0.04,6.32,13.62,0.07,0.10,-0.31,1721201032491
-0.95,-2.35,10.54,0.06,0.06,-0.22,1721201032501
-2.89,-5.94,7.67,-0.05,-0.01,-0.06,1721201032511
-2.22,0.82,14.72,0.09,0.09,-0.03,1721201032521
0.59,5.45,6.60,0.22,0.05,0.06,1721201032531
2.03,2.42,6.71,-0.06,0.09,-0.02,1721201032541
1.27,0.75,11.08,-0.06,0.08,-0.36,1721201032551
-0.63,-1.95,11.31,-0.02,0.04,-0.35,1721201032561
-2.79,0.69,12.97,0.09,0.03,-0.03,1721201032571
-1.23,1.71,11.22,0.11,0.13,0.13,1721201032581
1.40,0.30,6.17,0.10,-0.04,-0.00,1721201032591
1.70,0.55,9.20,-0.05,0.10,-0.29,1721201032601
-0.65,-1.09,12.39,-0.10,0.10,-0.47,1721201032611
-5.20,4.13,13.07,0.16,-0.09,-0.10,1721201032621
-2.09,0.87,7.65,0.06,0.14,0.32,1721201032631
2.38,3.36,11.94,0.08,0.21,0.10,1721201032641
3.89,-1.67,6.46,-0.08,-0.10,-0.20,1721201032651
-0.96,0.89,11.75,-0.09,-0.06,-0.35,1721201032661
-3.29,5.34,13.44,0.08,0.12,-0.31,1721201032671
-1.20,0.39,9.00,0.10,0.05,0.07,1721201032681
0.24,-2.88,3.42,-0.07,-0.05,0.20,1721201032691
1.03,8.64,14.30,-0.05,0.29,-0.15,1721201032701
3.72,-5.78,6.77,-0.23,0.05,-0.43,1721201032711
-5.15,0.63,19.45,0.07,-0.20,-0.30,1721201032721
-2.90,-0.63,-0.58,0.10,0.13,0.18,1721201032731
1.69,2.91,10.45,-0.13,0.14,0.24,1721201032741
3.93,2.83,8.24,-0.08,0.03,-0.09,1721201032751
1.90,-0.69,15.08,-0.22,0.17,-0.44,1721201032761
-2.45,-0.07,15.70,0.06,-0.00,-0.37,1721201032771
-5.26,1.34,8.53,0.06,-0.01,0.04,1721201032781
0.22,3.67,12.62,0.01,0.23,0.34,1721201032791
5.69,-1.98,7.84,-0.01,0.05,-0.09,1721201032801
-0.17,2.28,9.10,0.03,-0.06,-0.44,1721201032811
-2.83,2.12,9.28,0.02,0.13,-0.30,1721201032821
-1.45,-1.25,11.02,0.01,0.08,0.02,1721201032831
-0.81,0.14,10.71,0.06,0.06,0.07,1721201032841
0.54,-1.08,10.57,-0.17,0.13,0.03,1721201032851
0.65,5.28,13.72,0.25,-0.03,-0.14,1721201032861
2.39,-1.90,3.73,-0.14,0.16,-0.25,1721201032871
-1.86,2.42,18.54,0.05,-0.03,-0.18,1721201032881
-2.22,1.72,9.92,0.14,0.08,-0.18,1721201032891
-1.64,-2.06,6.20,0.08,0.00,0.03,1721201032901
-0.42,5.37,6.93,0.10,0.12,0.16,1721201032911
4.30,5.65,14.44,-0.02,0.31,-0.07,1721201032921
1.27,-2.81,8.21,0.06,-0.22,-0.32,1721201032931
-5.19,-0.67,12.44,-0.04,0.07,-0.41,1721201032941
-3.49,4.81,14.29,0.28,0.21,-0.10,1721201032951
1.38,0.36,2.75,0.10,0.06,0.39,1721201032961
2.43,9.04,12.62,0.16,0.16,0.07,1721201032971
5.60,-2.24,4.58,-0.15,0.18,-0.46,1721201032981
-4.02,0.21,18.95,0.12,-0.25,-0.55,1721201032991
-5.65,0.77,3.01,0.17,0.10,-0.01,1721201033001
-0.93,3.75,7.58,-0.03,0.23,0.42,1721201033011
4.38,-0.31,2.96,-0.03,0.00,0.23,1721201033021
4.75,2.31,19.68,-0.09,0.33,-0.44,1721201033031
0.55,-2.11,7.68,0.18,-0.10,-0.56,1721201033041
-8.20,0.70,14.17,-0.23,0.01,-0.25,1721201033051
-4.84,-0.24,10.12,0.14,0.09,0.37,1721201033061
2.83,0.36,8.28,-0.04,0.19,0.39,1721201033071
4.98,-1.06,8.54,-0.15,0.03,-0.22,1721201033081
-0.48,3.64,13.45,0.10,-0.11,-0.35,1721201033091
-1.78,3.28,7.60,-0.08,0.20,-0.21,1721201033101
-1.55,-6.78,9.03,-0.15,-0.02,0.12,1721201033111
-1.69,-1.19,15.42,0.00,0.05,0.04,1721201033121
1.67,0.04,3.60,0.02,0.04,0.08,1721201033131
1.18,6.40,16.56,-0.01,0.10,-0.15,1721201033141
-0.17,-1.94,2.52,-0.18,-0.07,-0.25,1721201033151
-5.54,-0.05,17.09,-0.10,-0.06,-0.14,1721201033161
-2.14,0.38,10.36,0.04,0.21,0.07,1721201033171
0.92,0.11,10.62,-0.03,0.01,0.27,1721201033181
2.30,3.39,7.59,0.01,-0.03,0.16,1721201033191
3.68,0.94,12.84,-0.21,0.27,-0.35,1721201033201
-1.16,0.99,12.56,0.16,-0.19,-0.33,1721201033211
-3.22,1.87,12.89,-0.05,0.03,0.17,1721201033226
-2.00,2.05,10.97,-0.02,0.07,0.18,1721201033230
1.95,2.84,12.60,-0.04,0.10,0.19,1721201033240
2.50,-2.22,12.27,-0.08,0.00,-0.11,1721201033250
-0.44,-0.12,11.81,0.06,-0.05,-0.24,1721201033260
-0.95,9.63,9.62,0.31,0.10,-0.08,1721201033270
2.04,-2.82,1.58,-0.29,0.13,0.11,1721201033280
-4.07,6.11,18.03,0.14,-0.16,-0.13,1721201033290
0.50,-4.52,7.07,-0.03,0.24,-0.17,1721201033300
0.23,0.50,15.91,0.04,-0.07,0.09,1721201033310
0.80,-2.71,0.62,-0.05,-0.11,0.15,1721201033320
-0.72,5.68,18.19,-0.10,0.21,-0.16,1721201033330
0.88,-0.07,7.45,0.24,-0.06,-0.33,1721201033340
-2.09,0.66,11.87,-0.04,0.19,-0.20,1721201033350
-0.77,-2.84,11.50,0.02,0.08,0.26,1721201033360
-0.60,1.00,11.27,0.04,-0.07,0.21,1721201033370
1.81,7.56,13.73,0.18,0.12,-0.18,1721201033380
3.05,0.10,6.48,0.08,0.04,-0.27,1721201033390
-3.00,-6.52,3.42,-0.14,-0.23,-0.06,1721201033400
-4.48,1.20,17.39,-0.17,0.27,-0.06,1721201033410
0.47,7.31,13.81,0.36,0.05,0.04,1721201033420
2.04,1.83,3.96,0.06,-0.01,0.11,1721201033430
0.30,-2.42,8.33,-0.10,0.00,-0.09,1721201033440
-0.70,1.75,14.06,-0.00,0.14,-0.19,1721201033450
-0.18,0.91,9.55,0.06,0.04,-0.18,1721201033460
-2.66,0.06,8.68,0.01,-0.16,-0.03,1721201033470
-1.08,-5.19,12.42,-0.08,0.03,0.09,1721201033480
0.95,2.87,13.98,0.22,0.07,0.15,1721201033490
3.99,0.30,4.91,-0.20,0.09,-0.09,1721201033500
-1.72,5.01,11.48,0.20,-0.24,-0.26,1721201033510
-1.71,-5.28,1.18,-0.23,0.25,-0.26,1721201033520
-3.30,4.57,17.62,0.13,-0.14,0.19,1721201033530
1.48,4.32,14.25,0.08,0.17,0.28,1721201033540
3.46,1.42,7.02,-0.02,-0.06,0.01,1721201033550
1.21,2.01,10.74,-0.02,-0.00,-0.25,1721201033560
0.24,-3.33,8.27,0.02,0.05,-0.40,1721201033570
-3.61,-3.00,12.37,-0.02,0.00,-0.01,1721201033580
-4.00,6.84,9.45,0.23,0.01,0.18,1721201033590
2.40,2.27,11.02,-0.14,0.24,0.19,1721201033600
3.47,-2.76,11.57,0.06,-0.21,0.02,1721201033610
0.82,-0.94,12.45,-0.14,0.15,-0.33,1721201033620
-2.41,4.26,6.19,0.23,-0.14,-0.35,1721201033630
-2.34,0.99,10.29,-0.14,0.19,-0.02,1721201033640
-0.39,-0.33,10.68,0.11,-0.06,0.30,1721201033650
2.56,1.08,12.27,-0.08,0.13,-0.06,1721201033660
1.65,-0.67,5.60,0.11,-0.15,-0.23,1721201033670
-2.00,4.27,15.22,-0.00,0.21,-0.35,1721201033680
-1.11,-0.08,3.90,0.18,-0.05,0.12,1721201033690
-0.88,-0.82,10.40,-0.25,0.05,0.13,1721201033700
0.13,5.27,15.34,0.18,-0.04,-0.18,1721201033710
2.01,-1.79,7.12,-0.09,0.09,-0.22,1721201033720
-1.54,-5.63,12.19,-0.14,-0.15,-0.05,1721201033730
-3.29,1.28,12.39,0.17,-0.08,0.04,1721201033740
1.99,-1.21,12.02,-0.11,0.34,0.01,1721201033750
1.12,2.22,11.56,0.21,-0.31,0.03,1721201033760
-0.23,8.30,9.18,0.08,0.21,-0.30,1721201033770
1.08,-5.55,4.13,-0.18,0.09,-0.27,1721201033780
-4.97,0.69,11.89,0.06,-0.33,0.15,1721201033790
0.93,2.24,11.28,-0.01,0.45,-0.04,1721201033800
1.28,-3.80,9.00,-0.07,-0.11,-0.16,1721201033810
-2.45,4.48,10.28,0.19,-0.27,-0.05,1721201033820
2.76,-1.48,10.36,-0.24,0.52,-0.31,1721201033830
-1.41,1.46,17.44,0.26,-0.28,-0.06,1721201033840
-2.00,6.03,8.68,0.13,0.17,0.01,1721201033850
2.19,1.05,8.17,0.11,0.19,0.01,1721201033860
1.77,-6.86,6.33,-0.25,0.01,-0.10,1721201033870
-2.83,2.13,16.82,0.11,-0.08,-0.16,1721201033880
-0.44,8.36,6.72,0.17,0.21,-0.12,1721201033890
2.65,-3.60,8.80,-0.12,0.02,-0.07,1721201033900
-1.17,-0.84,11.86,0.06,-0.04,-0.13,1721201033910
-1.49,7.58,8.71,0.12,0.22,-0.08,1721201033920
0.97,1.60,7.84,-0.07,0.01,-0.05,1721201033930
0.55,-1.94,11.42,-0.01,-0.05,-0.06,1721201033940
1.06,3.37,8.39,0.13,0.19,-0.12,1721201033950
1.51,0.31,11.56,-0.15,0.15,-0.27,1721201033960
-2.58,1.16,13.41,0.12,-0.12,-0.26,1721201033970
-3.54,-4.23,7.32,-0.12,0.06,-0.22,1721201033980
-1.58,3.23,11.32,0.23,0.02,0.11,1721201033990
3.57,-0.55,7.46,-0.18,0.31,0.00,1721201034000
-1.07,5.75,8.70,0.15,-0.21,-0.09,1721201034010
-0.55,-4.51,8.48,-0.43,0.33,-0.31,1721201034020
-2.59,3.21,20.00,0.33,-0.16,-0.13,1721201034030
0.84,-1.94,5.08,-0.15,0.20,0.07,1721201034040
-0.79,3.43,17.17,0.10,-0.09,0.02,1721201034050
1.05,-1.68,1.70,-0.08,0.08,-0.15,1721201034060
-1.08,3.79,12.09,0.01,0.07,-0.21,1721201034070
-0.47,-2.40,5.26,-0.13,0.09,-0.08,1721201034080
-2.77,7.62,16.80,0.16,-0.08,0.00,1721201034090
2.02,-0.99,0.68,-0.09,0.13,0.04,1721201034100
-0.65,-0.81,16.55,-0.16,0.07,-0.15,1721201034110
-0.85,-2.35,12.26,0.02,0.02,-0.08,1721201034120
-0.66,5.15,11.05,0.20,0.02,-0.00,1721201034130
1.02,0.97,7.47,-0.12,0.18,-0.15,1721201034140
-1.97,0.45,11.65,0.05,-0.16,-0.04,1721201034150
0.68,1.41,12.78,-0.08,0.30,-0.02,1721201034160
1.02,4.92,12.85,0.25,0.07,-0.14,1721201034170
-1.12,-4.57,1.84,-0.16,-0.06,-0.08,1721201034180
-3.30,3.19,13.03,0.13,-0.02,0.11,1721201034190
3.44,0.33,7.62,-0.13,0.31,-0.03,1721201034200
0.37,-0.08,12.34,0.01,-0.26,-0.12,1721201034210
-2.17,5.33,18.20,0.08,0.27,-0.27,1721201034220
0.53,0.63,3.03,0.29,0.05,0.07,1721201034230
-1.33,-2.17,6.42,-0.32,0.11,0.07,1721201034240
-1.59,6.39,20.96,0.27,-0.07,-0.16,1721201034250
2.12,0.50,5.85,0.04,0.24,-0.11,1721201034260
-1.67,-1.66,5.82,0.01,-0.21,-0.07,1721201034270
-2.94,0.55,9.68,-0.10,0.19,-0.03,1721201034280
1.00,5.63,15.22,0.16,0.25,0.12,1721201034290
3.18,-5.67,4.12,-0.10,-0.04,-0.09,1721201034300
-2.42,2.90,10.79,0.12,-0.17,-0.15,1721201034310
0.23,5.32,9.64,0.02,0.39,-0.02,1721201034320
1.04,0.35,13.07,-0.03,0.07,0.03,1721201034330
-0.51,4.63,14.98,0.19,-0.03,-0.09,1721201034340
1.13,-5.55,2.76,-0.11,0.10,-0.19,1721201034350
-2.86,0.77,15.60,0.04,0.03,-0.15,1721201034360
-0.46,6.45,7.71,0.20,0.22,0.00,1721201034370
2.32,-0.70,5.06,-0.13,0.10,0.00,1721201034380
-0.75,-1.37,16.18,-0.07,-0.04,-0.17,1721201034390
-1.87,4.51,7.44,0.26,0.08,-0.21,1721201034400
-0.06,-1.31,6.53,-0.25,0.26,-0.13,1721201034410
-2.52,-0.64,16.35,-0.08,-0.14,-0.02,1721201034420
-1.57,-2.39,5.34,-0.04,-0.07,0.05,1721201034430
0.96,1.03,16.47,-0.05,0.34,-0.17,1721201034440
0.45,0.08,9.32,-0.01,-0.02,-0.15,1721201034450
-4.17,6.49,10.81,0.13,-0.10,-0.10,1721201034460
0.74,-2.45,6.01,-0.11,0.26,0.03,1721201034470
0.10,3.50,16.30,0.14,-0.03,-0.09,1721201034480
0.71,-2.36,1.78,-0.14,0.05,-0.17,1721201034490
-3.09,4.04,14.77,0.02,-0.07,-0.15,1721201034500
-0.36,-0.42,5.48,-0.02,0.18,0.11,1721201034510
0.43,-1.05,15.78,-0.16,0.09,-0.02,1721201034520
-0.53,-3.31,6.32,-0.01,-0.22,-0.14,1721201034530
-2.46,8.41,15.50,0.12,0.25,-0.15,1721201034540
2.24,-2.85,6.60,-0.12,0.13,0.02,1721201034550
-1.98,-1.13,10.44,-0.02,-0.22,0.08,1721201034560
0.50,3.45,9.39,0.03,0.40,-0.21,1721201034570
1.83,-4.41,6.69,-0.13,-0.04,-0.21,1721201034580
-4.22,2.41,17.06,0.07,-0.02,-0.02,1721201034590
0.89,2.27,5.38,0.10,0.25,0.20,1721201034600
1.59,3.41,11.96,-0.01,0.04,-0.11,1721201034610
0.29,0.31,13.13,0.08,0.13,-0.25,1721201034620
-0.57,-1.50,3.03,0.01,-0.06,-0.03,1721201034630
-2.22,6.42,15.55,0.17,0.08,0.01,1721201034640
2.73,-1.67,7.80,0.01,0.23,0.10,1721201034650
0.29,0.04,8.43,0.07,-0.11,-0.07,1721201034660
0.13,0.65,10.58,-0.05,0.29,-0.32,1721201034670
