AccX,AccY,AccZ,GyrX,GyrY,GyrZ,Time
-0.69,-0.73,9.08,-0.02,0.35,0.01,1721198808124
-1.82,-1.43,5.85,-0.08,0.14,-0.24,1721198808129
-5.60,-1.79,8.90,-0.09,0.19,-0.50,1721198808139
-7.28,-4.64,14.84,-0.01,0.27,-0.24,1721198808149
-5.26,-3.44,5.78,0.06,0.12,0.16,1721198808159
-3.74,-0.67,6.19,-0.09,0.17,-0.09,1721198808169
-5.48,-2.99,12.92,-0.08,0.05,-0.39,1721198808179
-8.01,-6.35,15.26,-0.11,-0.01,-0.23,1721198808189
-8.10,-3.78,10.41,0.06,-0.16,0.20,1721198808199
-5.60,0.19,8.50,-0.09,-0.02,0.18,1721198808209
-3.52,-3.61,9.56,-0.07,-0.21,-0.06,1721198808219
-4.37,-5.18,12.16,-0.08,-0.25,0.11,1721198808229
-3.14,-3.17,8.86,0.08,-0.26,0.27,1721198808239
-1.19,0.13,9.63,0.02,-0.19,0.10,1721198808249
0.97,-3.65,10.24,-0.09,-0.30,0.05,1721198808259
0.60,-2.39,11.28,0.05,-0.32,0.16,1721198808269
1.77,2.24,11.14,0.05,-0.14,-0.02,1721198808279
0.76,0.12,8.03,-0.08,-0.33,-0.30,1721198808289
-3.88,-3.24,11.97,-0.07,-0.36,-0.20,1721198808299
-3.14,-2.27,11.83,0.05,-0.25,0.11,1721198808309
-1.09,1.27,8.22,0.02,-0.34,0.10,1721198808319
-1.14,0.58,7.74,-0.09,-0.44,-0.02,1721198808329
-2.60,-2.73,10.39,-0.15,-0.44,0.04,1721198808339
-2.94,-4.07,11.67,-0.03,-0.42,0.25,1721198808349
-1.93,-0.83,11.58,0.06,-0.44,0.22,1721198808359
-0.69,-1.07,11.06,0.02,-0.41,0.14,1721198808369
0.15,-1.81,7.98,-0.02,-0.51,0.33,1721198808379
1.18,1.78,10.32,0.08,-0.36,0.34,1721198808389
4.41,0.68,7.47,0.02,-0.33,0.16,1721198808399
1.77,-3.73,7.36,-0.19,-0.50,-0.05,1721198808409
-1.94,-6.24,16.67,-0.02,-0.44,0.04,1721198808419
-0.94,-4.19,11.98,0.24,-0.50,0.33,1721198808429
1.95,0.88,4.14,0.13,-0.36,0.39,1721198808439
3.53,-0.65,3.48,-0.13,-0.38,0.15,1721198808449
0.99,-2.05,13.75,-0.03,-0.36,-0.10,1721198808459
-0.25,-5.53,10.79,-0.01,-0.35,0.09,1721198808469
-1.92,-1.05,13.31,0.16,-0.37,0.34,1721198808479
2.68,-1.99,5.22,0.09,-0.19,0.33,1721198808489
3.04,1.01,9.79,0.08,-0.37,0.21,1721198808499
3.73,-0.21,9.84,0.06,-0.16,0.20,1721198808509
2.29,0.03,17.25,0.18,-0.23,0.23,1721198808519
0.96,0.54,12.01,0.29,-0.35,0.26,1721198808529
2.58,4.34,8.58,0.19,-0.23,0.53,1721198808539
8.03,4.28,11.00,-0.05,-0.03,0.58,1721198808549
7.92,5.59,15.02,0.12,-0.21,0.08,1721198808559
4.17,3.13,9.28,0.07,-0.26,-0.27,1721198808569
-1.71,2.84,8.48,0.04,-0.31,0.05,1721198808579
-2.32,2.07,6.18,-0.11,-0.21,0.51,1721198808589
-0.15,1.78,10.86,-0.11,-0.30,0.52,1721198808599
2.21,-0.57,11.41,0.05,-0.39,0.31,1721198808609
1.25,0.16,4.53,0.02,-0.39,0.35,1721198808619
0.12,2.21,10.38,-0.02,-0.18,0.33,1721198808629
1.27,-0.85,9.76,-0.02,-0.26,0.30,1721198808639
0.76,-0.09,12.89,0.10,-0.21,0.43,1721198808649
3.62,-0.01,7.54,0.08,-0.02,0.51,1721198808659
3.62,0.62,12.82,-0.02,-0.12,0.24,1721198808669
0.72,0.22,15.54,0.24,-0.32,-0.00,1721198808679
-0.79,-0.43,8.69,0.08,-0.28,0.40,1721198808689
1.21,-0.31,10.28,0.04,-0.27,0.91,1721198808699
6.74,-2.49,7.83,-0.03,-0.26,0.63,1721198808709
5.34,-1.54,11.65,-0.02,-0.51,0.12,1721198808719
2.20,-1.38,11.91,0.13,-0.41,0.19,1721198808729
4.20,-0.11,9.15,0.07,-0.23,0.55,1721198808739
6.86,-1.99,11.12,-0.16,-0.28,0.32,1721198808749
4.71,0.13,14.43,0.11,-0.47,-0.01,1721198808759
5.89,-1.56,8.42,-0.07,-0.20,0.22,1721198808769
5.69,0.22,14.75,-0.03,-0.19,0.27,1721198808779
4.03,2.18,3.60,0.09,-0.34,-0.19,1721198808789
-0.43,2.84,12.02,-0.17,-0.12,-0.36,1721198808799
-0.83,-0.90,7.80,0.01,-0.31,0.17,1721198808809
1.64,3.43,11.25,-0.10,0.03,0.27,1721198808819
3.62,5.59,6.91,0.14,-0.24,-0.20,1721198808829
1.30,2.83,7.13,-0.20,-0.07,-0.48,1721198808839
-1.80,3.04,8.48,0.05,-0.21,-0.13,1721198808849
-0.53,6.22,8.92,-0.06,0.10,-0.04,1721198808859
1.25,8.83,8.55,0.10,-0.17,-0.30,1721198808869
1.32,4.89,4.06,-0.20,-0.15,-0.35,1721198808879
-0.72,6.95,14.65,0.05,-0.01,-0.23,1721198808889
1.47,4.25,9.67,-0.02,0.08,-0.35,1721198808899
-2.23,6.95,12.44,0.15,-0.23,-0.57,1721198808909
-2.25,4.23,5.34,0.06,-0.03,-0.31,1721198808919
0.47,0.60,15.62,-0.09,0.08,-0.04,1721198808929
3.84,0.18,12.21,0.11,-0.12,-0.10,1721198808939
3.08,3.28,7.99,-0.05,-0.22,-0.50,1721198808949
0.85,4.78,10.73,0.03,-0.14,-0.51,1721198808959
1.65,2.13,12.50,-0.04,-0.09,-0.30,1721198808969
5.19,2.32,9.98,0.05,-0.06,-0.41,1721198808979
3.88,0.44,10.80,-0.06,-0.07,-0.64,1721198808989
1.81,-0.19,11.50,0.03,-0.03,-0.46,1721198808999
2.43,-0.11,12.48,-0.05,0.12,-0.29,1721198809009
0.77,3.00,7.46,0.02,-0.15,-0.53,1721198809019
-2.04,2.86,6.19,-0.13,-0.10,-0.69,1721198809029
-2.53,0.58,13.59,0.01,0.04,-0.42,1721198809039
1.14,-1.74,8.50,-0.03,0.04,-0.21,1721198809049
1.20,2.05,10.79,-0.03,-0.08,-0.29,1721198809059
2.39,2.65,10.26,0.03,0.03,-0.38,1721198809069
4.01,-0.27,10.69,-0.13,0.08,-0.30,1721198809079
3.51,-0.83,9.45,0.01,-0.09,-0.34,1721198809089
4.22,-0.20,7.64,-0.09,0.19,-0.57,1721198809099
2.73,0.65,14.12,0.01,0.12,-0.61,1721198809109
2.09,-0.12,8.36,-0.07,0.15,-0.50,1721198809119
1.41,1.61,12.09,-0.02,0.14,-0.50,1721198809129
1.24,0.36,10.43,0.04,0.13,-0.61,1721198809139
-0.07,0.32,10.21,-0.05,0.18,-0.53,1721198809149
0.02,-0.51,9.81,-0.11,0.12,-0.37,1721198809159
0.90,1.10,11.32,-0.02,0.19,-0.43,1721198809169
1.24,1.64,11.01,-0.05,0.20,-0.54,1721198809179
0.61,-0.96,10.63,-0.00,0.12,-0.40,1721198809189
1.66,-1.79,6.72,-0.09,0.18,-0.28,1721198809199
2.96,2.59,15.28,0.01,0.33,-0.49,1721198809209
3.96,-1.01,6.41,-0.11,0.18,-0.66,1721198809219
-0.39,-0.20,10.42,-0.14,0.18,-0.58,1721198809229
0.65,-0.29,11.20,0.02,0.35,-0.44,1721198809239
1.98,0.57,10.30,-0.01,0.31,-0.51,1721198809249
0.45,0.29,6.16,-0.08,0.21,-0.66,1721198809259
-1.08,-0.95,14.55,-0.08,0.38,-0.57,1721198809269
-0.06,-0.18,8.18,0.10,0.25,-0.30,1721198809279
1.81,1.50,8.18,-0.18,0.39,-0.42,1721198809289
1.66,0.83,14.65,0.07,0.24,-0.58,1721198809299
1.03,-1.13,5.56,-0.05,0.24,-0.54,1721198809309
-1.23,1.20,13.97,-0.04,0.30,-0.56,1721198809319
-1.58,-1.97,7.30,-0.04,0.24,-0.64,1721198809329
-6.43,-0.15,11.19,-0.11,0.09,-0.62,1721198809339
-7.88,0.09,10.47,-0.02,0.15,-0.45,1721198809349
-7.24,-2.00,9.28,-0.12,0.14,-0.23,1721198809359
-6.77,-2.34,11.60,-0.03,-0.06,-0.13,1721198809369
-4.67,-0.47,12.16,0.03,0.04,-0.11,1721198809379
-1.02,0.03,7.76,0.02,0.03,-0.03,1721198809389
1.86,-0.76,11.39,-0.09,0.06,-0.14,1721198809399
3.28,0.70,10.31,0.06,-0.03,-0.43,1721198809409
3.17,1.03,9.53,-0.05,0.05,-0.55,1721198809419
1.44,-0.45,12.16,-0.05,0.01,-0.64,1721198809429
-0.11,-1.21,10.48,0.01,-0.04,-0.60,1721198809439
-0.87,0.71,9.09,0.03,0.05,-0.53,1721198809449
-0.27,-2.09,7.56,-0.14,0.05,-0.47,1721198809459
-1.11,-2.70,10.24,-0.08,-0.03,-0.41,1721198809469
-0.74,-3.70,10.38,-0.12,0.11,-0.33,1721198809479
0.89,-2.01,8.91,-0.07,0.05,-0.23,1721198809489
2.16,1.77,12.26,-0.16,0.08,-0.24,1721198809499
3.95,3.17,15.38,-0.01,0.20,-0.35,1721198809509
4.83,3.36,10.37,0.02,0.21,-0.46,1721198809519
3.83,4.30,9.91,-0.02,0.20,-0.56,1721198809529
2.46,2.11,4.80,-0.04,0.19,-0.55,1721198809539
1.47,0.67,12.32,-0.19,0.38,-0.56,1721198809549
0.96,-0.14,9.17,0.04,0.13,-0.42,1721198809559
1.41,-0.12,10.01,-0.16,0.38,-0.40,1721198809569
1.64,2.56,12.57,-0.02,0.27,-0.52,1721198809579
1.23,-0.39,7.83,-0.11,0.24,-0.56,1721198809589
0.78,0.92,11.82,-0.09,0.39,-0.55,1721198809599
1.33,1.04,10.23,-0.04,0.37,-0.56,1721198809609
0.36,2.72,11.35,-0.08,0.34,-0.62,1721198809619
-0.43,2.67,9.80,-0.06,0.29,-0.66,1721198809629
-1.17,3.80,12.11,-0.11,0.37,-0.59,1721198809639
-0.85,3.57,8.19,-0.08,0.32,-0.56,1721198809649
-0.78,2.95,10.99,-0.15,0.41,-0.61,1721198809659
-3.40,-4.82,4.60,-0.11,0.42,-0.95,1721198809669
-15.14,7.09,11.78,-0.20,-0.02,-0.93,1721198809679
-11.97,-2.09,12.97,-0.45,0.25,0.24,1721198809689
4.62,-6.26,11.45,-0.11,0.32,1.17,1721198809699
19.99,-0.12,0.90,-0.04,0.66,0.09,1721198809709
12.52,2.96,5.10,-0.18,0.02,-1.75,1721198809719
-3.40,-0.11,13.37,-0.20,-0.12,-2.43,1721198809729
-18.10,-4.68,15.35,-0.15,0.21,-1.30,1721198809739
-14.21,-0.58,10.75,-0.10,0.41,0.40,1721198809749
-1.04,-0.36,7.28,-0.23,0.36,0.55,1721198809759
7.45,-1.49,10.38,-0.22,0.31,-0.24,1721198809769
6.99,2.18,11.41,-0.07,0.23,-0.74,1721198809779
0.87,0.88,7.59,-0.10,0.18,-0.95,1721198809789
-5.18,-2.65,11.84,-0.21,0.19,-0.67,1721198809799
-4.49,-0.79,13.99,-0.16,0.24,-0.09,1721198809809
1.09,0.56,9.90,-0.02,0.20,0.18,1721198809819
4.56,2.29,8.46,-0.04,0.33,-0.17,1721198809829
2.99,0.62,10.85,0.01,0.22,-0.63,1721198809839
-2.70,-0.02,11.54,0.01,0.21,-0.71,1721198809849
-5.55,0.48,10.93,0.02,0.24,-0.31,1721198809859
-3.89,-0.34,11.28,0.05,0.26,0.22,1721198809869
2.38,0.34,11.91,0.13,0.40,0.21,1721198809879
5.73,-0.07,7.41,0.16,0.22,-0.15,1721198809889
4.25,0.85,10.44,0.05,0.37,-0.62,1721198809899
0.39,1.84,14.72,0.17,0.26,-0.75,1721198809909
-3.91,-1.02,9.08,0.18,0.22,-0.44,1721198809919
-3.88,-0.80,10.49,0.12,0.42,-0.10,1721198809929
-0.26,1.06,10.94,0.23,0.37,-0.06,1721198809939
0.14,-1.53,7.30,0.15,0.26,-0.29,1721198809949
-0.91,0.21,11.11,0.13,0.32,-0.46,1721198809959
-1.98,-0.15,10.10,0.18,0.27,-0.30,1721198809969
-2.52,-2.24,9.49,0.10,0.29,-0.08,1721198809979
-0.74,-1.79,10.16,0.17,0.31,-0.03,1721198809989
1.29,-1.01,10.13,0.07,0.34,-0.09,1721198809999
0.93,-0.96,9.05,0.07,0.20,-0.27,1721198810009
-0.65,0.42,11.60,0.09,0.35,-0.31,1721198810019
-1.87,-1.54,9.22,0.06,0.22,-0.17,1721198810029
-2.83,-0.30,9.76,0.04,0.28,-0.10,1721198810039
-0.22,1.45,12.01,0.08,0.30,-0.07,1721198810049
-0.30,0.57,8.33,0.04,0.22,-0.11,1721198810059
-0.96,-0.84,8.73,0.04,0.21,-0.06,1721198810069
-1.58,-3.00,9.25,-0.00,0.19,-0.08,1721198810079
0.47,2.12,13.99,-0.00,0.39,-0.08,1721198810089
0.62,0.63,9.82,-0.02,0.21,-0.25,1721198810099
-3.01,0.95,9.74,-0.04,0.18,-0.33,1721198810109
-3.70,0.15,9.28,0.01,0.27,-0.23,1721198810119
-3.79,1.45,10.19,0.08,0.24,-0.02,1721198810134
-3.89,1.21,9.54,0.05,0.22,0.01,1721198810138
-0.94,1.91,11.31,0.08,0.22,0.04,1721198810148
0.31,2.83,10.28,0.11,0.16,-0.01,1721198810158
1.00,2.29,10.04,0.03,0.21,-0.13,1721198810168
0.41,-0.14,9.27,0.05,0.06,-0.26,1721198810178
-1.08,-0.10,10.55,0.05,0.15,-0.23,1721198810188
-1.05,0.81,10.15,0.10,0.16,-0.20,1721198810198
-1.28,1.64,10.51,0.01,0.15,-0.18,1721198810208
-2.11,1.55,12.07,0.02,0.12,-0.20,1721198810218
-2.94,-0.19,7.39,0.03,0.03,-0.14,1721198810228
-2.67,0.37,11.39,-0.01,0.15,0.07,1721198810238
-0.74,0.07,8.14,0.09,0.08,0.16,1721198810248
-0.75,0.10,8.08,-0.02,0.05,0.11,1721198810258
-1.34,1.49,9.62,0.04,0.01,0.03,1721198810268
-1.91,-0.97,9.67,-0.05,0.04,0.05,1721198810278
-3.70,0.25,12.32,0.07,0.01,0.12,1721198810288
-3.16,-1.21,7.74,0.05,0.00,0.25,1721198810298
-1.14,0.31,12.41,0.06,0.07,0.32,1721198810308
0.09,0.34,9.94,0.09,-0.01,0.20,1721198810318
-0.72,0.12,9.90,0.04,-0.01,0.14,1721198810328
-1.87,-0.30,9.17,0.03,-0.04,0.16,1721198810338
-1.24,0.17,11.14,0.04,-0.04,0.24,1721198810348
0.06,0.00,10.26,0.08,-0.05,0.29,1721198810358
-0.19,1.36,10.89,0.10,-0.06,0.26,1721198810368
0.71,-0.87,8.37,-0.03,0.02,0.22,1721198810378
-0.20,-1.14,10.39,0.00,-0.11,0.22,1721198810388
-0.99,-1.56,8.99,0.06,-0.06,0.18,1721198810398
-0.89,-1.50,11.30,0.01,-0.02,0.21,1721198810408
-0.44,-0.98,12.84,0.09,-0.10,0.25,1721198810418
1.32,0.67,12.15,0.09,-0.02,0.20,1721198810428
1.13,2.50,10.78,0.12,-0.02,0.08,1721198810438
-0.11,1.10,9.01,0.09,-0.02,0.15,1721198810448
-1.38,0.86,8.52,0.11,-0.09,0.32,1721198810458
1.84,1.16,8.75,0.11,0.06,0.32,1721198810468
2.06,-2.62,9.09,0.03,-0.08,0.15,1721198810478
-0.76,2.84,12.86,0.21,-0.10,0.05,1721198810488
0.97,-0.66,7.71,0.09,0.08,0.14,1721198810498
-2.83,1.12,13.08,0.07,-0.13,0.16,1721198810508
-2.21,0.17,7.07,0.09,-0.08,0.18,1721198810518
-0.39,1.13,10.21,0.07,-0.04,0.15,1721198810528
1.34,0.75,9.17,0.07,-0.01,0.09,1721198810538
0.93,-1.86,9.86,0.05,-0.11,0.12,1721198810548
-0.97,0.25,9.14,0.09,-0.08,0.07,1721198810558
-0.88,0.08,9.02,-0.04,0.05,0.01,1721198810568
-0.36,-1.76,10.87,0.06,-0.13,0.12,1721198810578
1.21,-1.43,7.04,0.06,-0.06,0.13,1721198810588
0.24,0.73,10.89,0.05,-0.06,-0.03,1721198810598
0.04,-1.32,10.11,-0.02,-0.02,-0.12,1721198810608
-1.64,-0.73,11.52,0.01,-0.05,-0.09,1721198810618
-1.55,-3.59,10.63,0.07,-0.10,0.06,1721198810628
-1.08,-0.00,11.19,0.05,-0.01,0.05,1721198810638
1.18,-1.78,11.12,0.03,-0.02,-0.02,1721198810648
-0.72,-2.08,8.73,0.06,-0.15,-0.06,1721198810658
-2.17,-0.65,10.14,-0.00,-0.06,-0.00,1721198810668
-0.62,-1.01,9.05,-0.01,-0.04,0.11,1721198810678
-0.15,-2.03,9.35,-0.06,-0.07,0.06,1721198810688
0.01,-1.86,10.16,0.03,-0.09,0.02,1721198810698
0.69,0.91,10.21,0.03,-0.07,0.03,1721198810708
1.25,1.19,8.86,-0.02,-0.05,0.10,1721198810718
1.09,-0.63,10.52,-0.10,-0.07,0.02,1721198810728
-0.35,-3.83,9.67,-0.11,-0.11,-0.06,1721198810738
-2.82,-0.64,12.70,-0.04,-0.06,-0.08,1721198810748
-2.60,-1.53,8.60,-0.08,-0.09,0.05,1721198810758
-1.70,0.30,13.64,-0.06,-0.07,0.18,1721198810768
-0.02,-0.73,11.46,0.04,-0.12,0.13,1721198810778
-0.37,1.17,13.94,0.00,-0.05,0.01,1721198810788
0.58,0.98,9.17,0.09,-0.14,0.13,1721198810798
1.93,0.90,8.47,-0.10,0.00,0.11,1721198810808
2.38,1.94,9.26,-0.00,-0.09,-0.03,1721198810818
3.35,1.78,9.57,-0.11,0.03,-0.11,1721198810828
1.90,3.07,12.56,-0.03,-0.06,-0.29,1721198810838
0.23,1.87,10.48,-0.07,-0.01,-0.25,1721198810848
-0.27,0.65,10.92,-0.11,0.04,-0.04,1721198810858
1.26,0.11,7.30,-0.11,0.05,0.00,1721198810868
1.78,0.96,10.68,-0.13,0.08,-0.13,1721198810878
1.55,-0.71,7.49,-0.05,-0.03,-0.16,1721198810888
0.35,0.58,11.55,-0.08,0.06,-0.18,1721198810898
0.60,-0.17,9.31,-0.04,0.05,-0.11,1721198810908
0.83,-0.05,11.92,-0.12,0.13,-0.09,1721198810918
1.73,-0.18,9.13,0.08,0.01,-0.14,1721198810928
2.34,-1.11,9.99,-0.12,0.21,-0.23,1721198810938
0.60,2.35,13.16,0.13,0.08,-0.31,1721198810948
-0.76,1.21,7.46,-0.06,0.16,-0.40,1721198810958
-2.95,0.78,14.69,-0.02,0.13,-0.32,1721198810968
-2.08,0.26,5.80,0.03,0.03,-0.13,1721198810978
-0.06,1.57,9.84,-0.07,0.19,-0.18,1721198810988
0.74,-2.62,11.15,-0.04,0.08,-0.27,1721198810998
-0.92,-1.66,13.28,0.03,0.14,-0.31,1721198811008
-1.71,1.08,10.69,0.04,0.18,-0.17,1721198811018
-2.35,-0.69,11.99,-0.07,0.09,-0.06,1721198811028
-1.63,2.27,10.10,0.11,-0.09,0.03,1721198811038
1.78,-0.90,8.84,-0.09,0.25,-0.11,1721198811048
0.36,-1.37,12.80,0.05,-0.06,-0.20,1721198811058
-1.64,-2.30,8.81,-0.01,0.14,-0.20,1721198811068
-2.90,0.85,12.16,0.04,0.06,0.01,1721198811078
-0.84,0.66,8.54,0.08,0.05,0.08,1721198811088
0.28,0.82,11.76,0.02,0.13,0.09,1721198811098
0.58,-0.41,10.84,0.04,0.10,0.01,1721198811108
-0.82,-0.30,12.09,0.04,-0.01,-0.06,1721198811118
-1.91,-1.77,6.55,0.04,-0.08,-0.02,1721198811128
-1.82,-3.68,9.54,-0.10,0.10,0.08,1721198811138
-0.51,0.58,13.78,0.15,0.09,0.08,1721198811148
1.46,0.45,8.01,0.04,0.14,0.03,1721198811158
-0.45,2.18,11.98,0.06,-0.01,-0.09,1721198811168
-0.35,-2.48,9.69,-0.00,0.06,-0.07,1721198811178
-2.59,-1.42,13.49,0.08,0.00,0.02,1721198811188
-1.77,-4.28,6.95,-0.04,-0.04,0.11,1721198811198
-0.79,1.63,15.16,0.02,0.08,-0.01,1721198811208
2.39,-3.29,6.06,-0.02,0.02,-0.09,1721198811218
-0.17,-1.51,14.16,-0.03,0.02,-0.10,1721198811228
-0.74,-0.10,8.19,0.15,0.00,-0.11,1721198811238
-1.10,0.55,10.23,-0.05,0.19,-0.14,1721198811248
0.04,0.74,9.59,0.11,-0.04,-0.09,1721198811258
0.96,-0.20,9.61,-0.05,0.15,-0.09,1721198811268
0.27,-0.70,11.13,0.06,-0.04,-0.16,1721198811278
-0.33,0.33,7.78,0.05,-0.00,-0.21,1721198811288
-0.51,0.16,9.70,-0.05,0.15,-0.18,1721198811298
-0.76,-0.55,9.76,0.02,0.02,-0.16,1721198811308
-2.25,1.32,11.77,-0.06,0.15,-0.18,1721198811318
-1.88,2.17,10.86,0.08,0.04,-0.16,1721198811328
-1.61,3.13,9.62,0.03,0.05,-0.04,1721198811338
-0.33,2.68,10.12,-0.03,0.08,0.12,1721198811348
0.57,3.76,12.61,-0.06,0.08,0.04,1721198811358
1.50,0.11,8.84,-0.03,-0.06,-0.13,1721198811368
-0.47,1.49,14.64,-0.04,0.10,-0.24,1721198811378
-1.89,1.46,9.45,0.12,-0.04,-0.11,1721198811388
-2.00,3.07,6.89,-0.04,0.08,0.05,1721198811398
0.83,1.70,9.74,0.05,0.03,-0.00,1721198811408
0.41,-2.90,8.84,-0.05,-0.02,-0.09,1721198811418
-4.45,1.31,12.38,0.05,0.01,-0.17,1721198811428
-4.35,-1.31,6.49,0.00,-0.07,0.05,1721198811438
-3.47,-0.53,11.24,-0.03,-0.01,0.29,1721198811448
0.38,-1.50,7.13,0.04,-0.06,0.28,1721198811458
1.46,-0.63,12.74,-0.16,0.12,0.05,1721198811468
-0.60,1.64,10.43,0.12,-0.20,0.04,1721198811478
-0.59,0.22,10.20,-0.12,0.04,0.05,1721198811488
-0.05,0.23,12.73,0.15,-0.21,0.28,1721198811498
0.74,-0.54,8.45,-0.11,0.02,0.18,1721198811508
-0.91,0.70,12.54,0.02,-0.19,0.11,1721198811518
-0.32,-1.34,7.88,-0.06,-0.07,0.03,1721198811528
0.20,-1.24,12.73,0.09,-0.10,0.11,1721198811538
0.83,-1.29,9.96,-0.08,0.05,0.12,1721198811548
-0.11,2.65,11.70,0.09,-0.13,-0.01,1721198811558
1.74,-1.19,6.13,-0.03,-0.08,-0.15,1721198811568
1.50,1.31,15.25,0.05,0.04,-0.10,1721198811578
0.42,-3.81,6.93,-0.03,-0.04,-0.12,1721198811588
-2.04,-0.20,14.38,0.05,-0.05,-0.26,1721198811598
-0.34,-2.55,9.00,0.18,-0.07,-0.20,1721198811608
-0.65,-4.16,6.19,0.00,-0.05,-0.12,1721198811618
0.68,-0.59,12.86,0.06,0.14,-0.10,1721198811628
2.38,-3.57,8.02,0.03,-0.03,-0.16,1721198811638
-0.41,-0.13,12.58,0.04,0.09,-0.23,1721198811648
-1.18,-2.94,10.77,0.03,0.03,-0.19,1721198811658
-2.06,0.49,12.01,0.11,0.02,-0.09,1721198811668
1.66,-1.57,7.69,0.00,0.12,-0.04,1721198811678
1.02,0.43,11.08,0.07,0.05,-0.18,1721198811688
0.98,-2.49,9.66,-0.00,0.06,-0.27,1721198811698
-0.58,1.48,14.44,0.02,0.19,-0.22,1721198811708
-1.76,-0.66,6.45,0.04,-0.01,-0.08,1721198811718
-0.47,-1.97,10.47,-0.14,0.24,-0.03,1721198811728
1.64,-0.82,10.34,0.13,0.09,-0.05,1721198811738
0.54,1.55,11.58,0.09,0.13,-0.19,1721198811748
0.18,1.63,7.56,0.07,0.20,-0.16,1721198811758
-1.35,-1.16,8.89,-0.08,0.08,-0.17,1721198811768
-2.19,1.15,13.11,0.04,0.16,-0.09,1721198811778
-2.19,0.61,7.85,0.09,0.07,-0.12,1721198811788
-1.39,2.53,9.49,0.07,0.09,0.01,1721198811798
0.49,0.62,8.80,-0.06,0.20,0.03,1721198811808
-0.28,1.66,12.82,0.04,0.09,-0.15,1721198811818
-1.08,1.04,10.86,-0.01,0.17,-0.06,1721198811828
-0.21,3.18,8.02,0.04,0.13,0.08,1721198811838
2.72,1.86,8.19,-0.12,0.19,-0.04,1721198811848
2.49,0.60,10.18,-0.10,0.10,-0.22,1721198811858
-0.13,0.97,12.17,-0.09,0.15,-0.38,1721198811868
-2.32,-0.52,9.67,-0.02,0.09,-0.20,1721198811878
-2.51,2.26,8.18,-0.09,0.18,0.01,1721198811888
-0.49,1.14,9.88,-0.11,0.13,0.02,1721198811898
0.43,-1.08,7.98,-0.04,0.03,-0.07,1721198811908
0.65,-0.78,11.31,-0.14,0.18,-0.16,1721198811918
0.50,0.55,10.76,-0.06,0.09,-0.08,1721198811928
0.80,-1.91,10.81,-0.19,0.14,-0.03,1721198811938
0.33,1.69,10.50,-0.04,0.11,-0.14,1721198811948
2.83,-4.22,10.15,-0.19,0.16,-0.14,1721198811958
0.22,0.59,11.18,-0.01,0.08,-0.17,1721198811968
-0.06,2.45,6.78,-0.07,0.22,-0.27,1721198811978
-1.83,0.83,13.14,-0.14,0.10,-0.19,1721198811988
-2.73,-2.32,8.51,-0.17,0.12,-0.11,1721198811998
-2.35,1.07,10.53,-0.12,0.09,0.02,1721198812008
-0.10,1.53,10.75,-0.15,0.20,0.02,1721198812018
-1.46,0.74,9.19,-0.11,-0.02,-0.05,1721198812028
-0.72,-0.66,11.96,-0.06,0.16,-0.03,1721198812038
-1.00,2.07,10.69,0.03,0.08,0.00,1721198812048
-0.59,1.53,11.65,-0.07,0.15,0.04,1721198812058
-1.01,0.11,11.94,0.07,-0.02,0.07,1721198812068
-0.30,-3.10,9.32,0.01,0.15,-0.00,1721198812078
-0.28,-0.98,15.09,0.18,0.03,-0.06,1721198812088
-1.92,-1.68,7.57,0.18,0.05,-0.06,1721198812098
-2.00,1.22,11.32,0.05,0.17,-0.10,1721198812108
-1.77,0.45,12.18,0.16,0.00,0.02,1721198812118
-2.42,-1.09,8.84,0.06,0.05,0.05,1721198812128
-0.09,-0.25,10.48,0.13,0.05,0.06,1721198812143
-0.35,-4.09,8.17,0.05,0.03,0.06,1721198812147
-0.58,0.69,13.53,0.04,0.16,-0.10,1721198812157
-0.13,0.42,10.23,0.12,0.01,-0.11,1721198812167
-1.30,-0.71,11.30,0.03,-0.07,0.01,1721198812177
-1.19,-0.57,9.74,0.05,0.03,0.08,1721198812187
-0.19,0.93,10.31,0.04,0.08,0.09,1721198812197
-0.28,0.12,9.69,-0.05,0.01,-0.07,1721198812207
-1.47,0.84,10.88,0.09,-0.05,-0.07,1721198812217
-0.85,0.84,9.39,0.08,0.04,0.01,1721198812227
-0.57,3.16,10.81,0.18,0.00,0.06,1721198812237
-1.08,0.75,7.65,0.05,-0.02,-0.03,1721198812247
-2.24,4.05,9.38,0.16,-0.09,-0.02,1721198812257
0.74,1.47,8.17,0.07,0.09,0.05,1721198812267
1.65,1.31,12.48,0.04,-0.01,0.00,1721198812277
2.12,2.02,11.63,0.12,-0.04,-0.07,1721198812287
1.52,1.81,7.12,0.08,-0.01,-0.15,1721198812297
-0.47,2.57,8.79,-0.06,0.05,-0.24,1721198812307
-1.60,3.09,9.95,0.07,-0.02,-0.12,1721198812317
-0.73,-0.57,9.29,-0.13,0.10,-0.01,1721198812327
-1.76,0.59,11.34,0.06,-0.06,0.01,1721198812337
-0.10,1.01,9.49,-0.08,0.11,-0.04,1721198812347
-0.72,0.23,9.81,-0.01,-0.12,-0.03,1721198812357
-2.83,3.66,9.97,-0.02,0.07,-0.12,1721198812367
-1.89,-3.53,8.35,-0.07,-0.05,-0.01,1721198812377
-3.41,0.56,13.26,0.01,-0.01,0.14,1721198812387
-1.61,1.75,9.18,-0.07,0.10,0.09,1721198812397
-2.19,-1.23,11.09,-0.10,-0.21,0.02,1721198812407
-1.68,-0.67,10.23,-0.03,-0.00,0.08,1721198812417
0.62,-3.81,10.91,-0.14,0.01,0.19,1721198812427
-0.56,3.21,11.31,0.09,-0.17,0.15,1721198812437
1.27,-0.19,7.36,-0.16,0.11,-0.02,1721198812447
-1.52,0.03,14.49,-0.06,-0.11,-0.01,1721198812457
-1.76,-2.47,8.54,-0.10,-0.03,0.02,1721198812467
-0.67,-2.73,13.66,-0.18,-0.00,0.21,1721198812477
-1.10,-0.12,8.16,-0.04,-0.22,0.19,1721198812487
1.06,-1.86,11.30,-0.13,0.02,0.17,1721198812497
1.19,2.35,10.46,0.07,-0.12,0.02,1721198812507
1.23,-2.73,8.42,-0.09,-0.03,-0.01,1721198812517
-1.89,4.28,14.17,0.11,-0.05,0.02,1721198812527
0.21,-0.80,10.35,-0.01,-0.01,0.12,1721198812537
1.50,1.65,11.62,0.10,-0.05,0.22,1721198812547
4.33,-6.26,7.48,-0.06,0.05,0.03,1721198812557
-0.49,-2.11,10.79,0.12,-0.16,-0.06,1721198812567
-1.67,0.93,9.90,0.05,0.05,0.02,1721198812577
-0.59,0.72,11.19,0.09,-0.09,0.24,1721198812587
1.53,-1.12,8.49,0.09,0.03,0.16,1721198812597
3.45,0.19,11.45,-0.01,0.07,0.10,1721198812607
1.04,0.46,12.21,0.12,-0.06,0.06,1721198812617
-0.89,1.08,9.76,0.07,0.07,0.08,1721198812627
0.58,-1.05,9.31,0.09,0.00,0.08,1721198812637
1.14,-1.81,8.53,-0.04,0.05,0.11,1721198812647
0.22,1.84,15.00,0.09,0.02,0.12,1721198812657
-0.12,0.86,8.77,0.13,-0.01,0.06,1721198812667
-0.38,0.15,8.38,0.12,0.01,0.12,1721198812677
1.10,-0.76,9.43,0.03,0.12,0.11,1721198812687
-0.50,3.27,13.12,0.18,-0.04,-0.05,1721198812697
0.25,1.02,6.22,0.07,0.01,0.05,1721198812707
0.25,1.89,8.98,0.01,0.07,0.09,1721198812717
3.14,-1.48,9.58,-0.11,0.16,0.06,1721198812727
0.98,-0.31,8.94,0.02,-0.09,-0.10,1721198812737
0.06,0.01,8.30,-0.16,0.15,-0.20,1721198812747
-0.63,2.15,19.72,-0.02,0.11,-0.17,1721198812757
-0.03,0.87,9.37,0.13,-0.08,0.03,1721198812767
0.20,4.86,11.70,-0.07,0.13,0.00,1721198812777
1.94,3.75,6.40,-0.06,0.03,-0.10,1721198812787
1.91,-3.29,8.34,-0.35,0.11,-0.17,1721198812797
-0.30,0.27,8.79,-0.01,-0.02,-0.20,1721198812807
0.75,-1.56,8.54,-0.26,0.26,-0.20,1721198812817
-1.03,0.49,13.69,-0.10,-0.11,-0.16,1721198812827
-0.24,0.46,11.99,-0.16,0.17,-0.14,1721198812837
1.81,-0.17,11.44,-0.12,0.06,-0.14,1721198812847
1.74,-0.02,6.41,-0.16,0.00,-0.22,1721198812857
0.53,-0.36,9.48,-0.15,0.21,-0.43,1721198812867
-1.38,-2.37,10.76,-0.12,0.03,-0.38,1721198812877
-3.94,2.18,10.30,-0.07,0.11,-0.20,1721198812887
-2.58,3.92,10.47,-0.12,0.24,-0.09,1721198812897
-0.94,-0.34,10.86,-0.16,0.05,-0.05,1721198812907
0.09,0.05,12.73,-0.10,0.06,-0.15,1721198812917
-0.05,-0.62,9.07,-0.00,0.02,-0.23,1721198812927
-0.55,0.19,10.18,0.00,0.17,-0.23,1721198812937
-2.74,-0.72,8.41,0.06,0.01,-0.17,1721198812947
-3.59,2.09,10.88,0.17,0.09,-0.04,1721198812957
-2.71,-4.02,6.86,0.09,-0.01,0.07,1721198812967
-1.85,2.12,17.41,0.12,0.25,0.01,1721198812977
-1.17,-1.94,8.86,0.12,-0.12,-0.00,1721198812987
-2.67,0.97,11.20,0.05,0.07,-0.10,1721198812997
-0.28,-5.15,6.58,0.10,-0.03,0.04,1721198813007
-1.72,1.69,13.41,0.20,0.07,0.11,1721198813017
2.27,0.10,6.93,0.16,0.05,0.03,1721198813027
0.94,-1.57,12.92,0.03,-0.00,-0.05,1721198813037
0.44,-0.46,9.64,0.20,-0.00,-0.13,1721198813047
-0.40,0.98,13.89,0.02,0.19,-0.16,1721198813057
-3.49,3.45,8.73,0.22,-0.22,-0.12,1721198813067
-2.30,1.23,9.01,-0.00,0.18,-0.06,1721198813077
1.17,-0.29,11.54,0.03,0.05,0.11,1721198813087
-0.42,3.99,12.32,0.10,-0.05,-0.00,1721198813097
-0.46,3.24,7.78,0.10,-0.03,-0.21,1721198813107
-2.09,-4.57,3.71,-0.01,-0.12,-0.19,1721198813117
-1.89,-3.60,10.71,-0.01,0.12,0.07,1721198813127
2.07,3.81,13.71,0.27,0.12,0.15,1721198813137
2.91,11.99,10.87,0.25,0.01,-0.15,1721198813147
2.03,3.40,4.38,-0.07,-0.01,-0.48,1721198813157
-2.45,-1.30,7.82,-0.17,-0.01,-0.43,1721198813167
-4.90,-0.64,7.64,-0.11,0.09,-0.24,1721198813177
-4.06,-1.59,11.89,-0.17,0.05,0.11,1721198813187
-0.58,-1.64,14.19,-0.01,-0.08,0.27,1721198813197
4.42,6.14,13.48,0.26,0.13,0.12,1721198813207
4.84,5.21,3.27,-0.02,-0.07,-0.21,1721198813217
-1.87,-3.13,11.45,-0.44,0.01,-0.56,1721198813227
-7.50,-6.49,11.41,-0.03,-0.12,-0.39,1721198813237
-6.39,-5.47,7.45,0.08,0.01,0.20,1721198813247
-1.93,3.68,7.90,0.07,0.08,0.60,1721198813257
4.44,3.19,12.19,-0.16,0.19,0.25,1721198813267
1.81,-1.70,13.26,-0.18,-0.20,-0.40,1721198813277
-3.99,-4.01,14.38,-0.14,-0.02,-0.45,1721198813287
-5.88,-4.38,9.23,-0.12,-0.05,0.05,1721198813297
-2.12,-3.00,10.81,-0.13,-0.00,0.44,1721198813307
1.33,2.22,13.30,-0.04,-0.02,0.24,1721198813317
2.37,1.29,7.60,0.00,-0.15,-0.01,1721198813327
0.97,-1.02,8.16,-0.23,0.03,-0.09,1721198813337
-1.45,1.38,15.53,0.00,-0.08,0.05,1721198813347
-1.18,-2.72,11.32,-0.10,-0.00,0.34,1721198813357
-0.35,1.34,13.26,0.16,-0.11,0.43,1721198813367
2.96,2.06,8.80,0.12,0.02,0.23,1721198813377
2.18,2.51,12.87,0.18,-0.17,0.12,1721198813387
0.52,1.04,7.00,0.26,-0.03,-0.00,1721198813397
0.43,-0.61,11.60,0.16,0.05,0.01,1721198813407
0.36,-1.98,8.54,0.18,-0.09,0.15,1721198813417
-0.40,1.66,12.56,0.19,0.02,0.21,1721198813427
1.92,3.41,11.64,0.26,-0.00,0.07,1721198813437
2.53,2.89,-0.01,0.27,-0.14,0.11,1721198813447
3.91,3.05,6.24,-0.09,0.32,-0.10,1721198813457
1.94,-3.51,13.59,0.04,-0.08,-0.26,1721198813467
-2.34,-4.62,16.63,0.15,0.06,-0.16,1721198813477
-1.42,-0.64,7.58,0.19,0.05,0.08,1721198813487
0.40,3.15,11.89,0.07,0.11,0.21,1721198813497
2.33,1.63,9.67,0.14,0.10,-0.00,1721198813507
0.51,-3.00,3.75,0.04,-0.05,-0.18,1721198813517
-2.00,1.98,10.93,0.04,0.16,-0.28,1721198813527
-2.26,0.76,9.99,0.10,0.01,-0.04,1721198813537
-0.79,-1.47,8.85,0.01,0.06,0.27,1721198813547
3.03,0.97,8.37,-0.01,0.18,0.16,1721198813557
2.94,1.94,11.58,-0.04,0.04,-0.15,1721198813567
1.68,0.66,15.35,-0.03,0.15,-0.35,1721198813577
-1.39,0.42,9.89,0.12,-0.01,-0.13,1721198813587
-2.87,2.66,10.05,-0.12,0.22,-0.00,1721198813597
-1.82,-0.30,6.35,-0.05,-0.06,0.14,1721198813607
0.12,1.73,15.25,-0.18,0.33,-0.04,1721198813617
-0.15,1.31,7.58,0.11,-0.15,-0.12,1721198813627
-2.56,3.65,5.79,-0.21,0.11,-0.06,1721198813637
-1.11,3.27,12.02,-0.13,0.12,0.17,1721198813647
1.19,-1.56,9.32,-0.21,0.00,0.21,1721198813657
2.98,-1.15,12.29,-0.17,-0.06,0.09,1721198813667
4.54,0.57,11.01,-0.04,0.02,-0.18,1721198813677
1.75,2.35,9.84,-0.09,0.01,-0.38,1721198813687
-1.66,1.22,9.90,-0.16,0.01,-0.32,1721198813697
-2.61,-0.69,10.46,-0.13,0.10,-0.04,1721198813707
0.49,-2.89,10.91,-0.16,0.18,-0.02,1721198813717
1.21,-1.90,11.24,-0.14,0.09,-0.09,1721198813727
0.00,2.37,14.16,-0.02,0.09,-0.22,1721198813737
-0.67,1.10,8.58,-0.04,-0.05,-0.10,1721198813747
-1.03,-1.37,11.00,-0.14,0.02,-0.07,1721198813757
1.18,-4.61,11.19,-0.14,0.11,0.02,1721198813767
-1.01,0.60,8.67,0.05,-0.04,-0.20,1721198813777
-1.10,-1.41,9.65,-0.20,0.22,-0.29,1721198813787
-2.57,3.11,12.56,0.07,-0.03,-0.15,1721198813797
-1.69,-0.34,8.46,-0.09,0.13,0.07,1721198813807
0.13,-3.08,12.77,-0.07,-0.02,0.08,1721198813817
-0.32,0.09,7.18,-0.01,0.06,-0.09,1721198813827
0.82,1.94,10.70,-0.04,0.16,-0.24,1721198813837
-0.34,-1.51,10.79,0.02,-0.17,-0.09,1721198813847
-3.04,0.32,8.56,0.04,0.02,-0.05,1721198813857
0.69,1.04,12.79,-0.01,0.25,0.02,1721198813867
-0.50,1.77,12.76,-0.00,-0.15,-0.11,1721198813877
-2.59,3.26,11.08,0.02,-0.05,-0.26,1721198813887
-2.79,-2.47,8.57,0.05,-0.09,-0.09,1721198813897
-3.26,1.37,12.09,0.10,-0.02,0.07,1721198813907
-1.61,2.47,9.87,0.14,0.04,0.06,1721198813917
-1.12,2.61,10.73,0.17,-0.13,0.03,1721198813927
-1.48,1.57,6.93,0.20,-0.10,0.04,1721198813937
0.97,-0.96,11.30,0.01,0.05,0.08,1721198813947
0.31,1.92,11.18,0.30,-0.28,0.06,1721198813957
0.59,4.82,9.77,0.13,0.09,-0.04,1721198813967
0.74,2.55,11.59,0.11,-0.16,-0.12,1721198813977
-3.05,2.26,10.60,0.16,-0.26,-0.06,1721198813987
-0.77,4.45,8.34,0.25,0.12,0.10,1721198813997
1.79,-3.33,7.80,-0.10,-0.11,0.09,1721198814007
-1.46,2.56,12.56,0.22,-0.34,0.11,1721198814017
2.57,1.26,7.47,0.14,0.15,0.04,1721198814027
0.32,0.51,9.33,0.21,-0.33,0.04,1721198814037
-2.59,2.38,8.16,0.03,-0.00,-0.10,1721198814047
-2.46,-1.14,9.85,0.02,-0.13,-0.03,1721198814057
-3.07,-0.54,12.06,-0.00,-0.18,0.20,1721198814067
-1.59,-4.53,4.63,-0.00,-0.25,0.29,1721198814077
1.96,-0.76,13.49,-0.06,0.10,0.19,1721198814087
2.74,-1.09,11.92,0.12,-0.31,0.01,1721198814097
1.22,2.08,10.67,0.01,-0.08,-0.09,1721198814107
0.86,1.85,11.32,-0.08,-0.06,-0.15,1721198814117
-1.76,-1.47,9.79,-0.08,-0.21,-0.23,1721198814127
-2.65,-4.98,8.97,-0.13,-0.16,-0.10,1721198814137
-1.28,0.19,9.78,0.03,-0.18,0.11,1721198814152
0.52,1.36,8.73,-0.05,-0.16,0.06,1721198814156
0.68,1.26,10.27,-0.04,-0.12,-0.04,1721198814166
3.23,-0.77,9.13,-0.09,0.01,-0.19,1721198814176
1.23,-3.83,9.07,-0.18,-0.08,-0.25,1721198814186
-3.41,-0.82,10.52,-0.08,-0.18,-0.22,1721198814196
-1.93,2.46,9.00,-0.02,0.05,-0.13,1721198814206
1.13,-3.80,6.69,-0.10,-0.15,-0.02,1721198814216
0.73,0.83,9.91,-0.02,-0.05,-0.06,1721198814226
1.00,1.18,11.10,-0.08,0.09,-0.30,1721198814236
-2.55,0.50,11.34,-0.02,-0.20,-0.16,1721198814246
-1.55,-0.35,8.47,-0.01,-0.03,-0.10,1721198814256
1.83,-1.37,11.75,-0.02,0.07,-0.10,1721198814266
1.05,4.02,12.75,0.15,-0.05,-0.23,1721198814276
1.36,-1.30,5.14,0.04,-0.02,-0.18,1721198814286
-0.68,2.28,14.44,0.08,0.06,-0.29,1721198814296
0.79,-1.41,12.06,0.13,-0.01,-0.24,1721198814306
-1.06,3.78,11.77,0.24,-0.07,-0.24,1721198814316
0.08,2.17,10.96,0.17,0.13,-0.26,1721198814326
-1.58,1.02,11.46,0.24,-0.04,-0.21,1721198814336
-1.86,0.04,10.41,0.19,0.07,-0.17,1721198814346
-0.07,1.64,12.67,0.25,0.08,-0.01,1721198814356
3.01,3.49,9.73,0.28,0.07,0.03,1721198814366
4.70,1.77,8.39,0.10,0.13,-0.23,1721198814376
0.81,4.49,15.74,0.22,0.01,-0.60,1721198814386
-2.59,3.96,7.07,0.30,0.00,-0.47,1721198814396
-4.19,1.50,5.05,0.06,0.12,-0.17,1721198814406
-3.02,3.47,11.09,0.07,0.13,0.00,1721198814416
0.78,-0.92,9.15,-0.07,0.14,-0.07,1721198814426
0.30,-0.90,9.81,0.09,-0.11,-0.16,1721198814436
-0.09,1.35,7.93,-0.03,0.20,-0.26,1721198814446
0.35,0.51,9.06,-0.03,0.02,-0.16,1721198814456
1.15,-1.72,7.59,-0.11,0.01,-0.10,1721198814466
1.50,-3.24,8.02,-0.16,0.10,-0.28,1721198814476
1.41,-0.60,9.79,-0.12,0.13,-0.33,1721198814486
0.47,-2.58,11.03,-0.19,0.09,-0.35,1721198814496
-1.98,-3.38,10.14,-0.08,-0.06,-0.23,1721198814506
-1.87,0.20,10.83,-0.14,0.27,-0.17,1721198814516
-0.90,-0.33,7.28,-0.12,-0.03,-0.13,1721198814526
-1.41,0.01,10.10,-0.32,0.15,-0.20,1721198814536
-0.13,-2.13,9.55,-0.18,0.07,-0.18,1721198814546
0.20,-2.70,12.80,-0.25,0.19,-0.21,1721198814556
-1.43,1.91,14.18,-0.10,0.02,-0.19,1721198814566
-1.56,2.79,8.02,-0.09,0.04,-0.12,1721198814576
0.07,-2.09,9.00,-0.23,0.11,-0.02,1721198814586
-0.19,-4.48,11.63,-0.18,0.05,-0.13,1721198814596
-0.82,0.08,10.72,-0.12,0.09,-0.21,1721198814606
0.24,3.75,13.36,-0.02,0.16,-0.20,1721198814616
-2.11,-0.71,9.18,-0.03,-0.04,-0.18,1721198814626
-1.35,1.87,13.07,-0.03,0.22,-0.08,1721198814636
2.82,1.67,11.80,0.09,0.14,-0.06,1721198814646
1.42,3.19,10.04,0.10,-0.03,-0.19,1721198814656
-0.21,1.76,10.42,0.21,0.12,-0.28,1721198814666
-1.89,2.85,11.68,0.21,0.08,-0.26,1721198814676
-1.71,1.58,11.54,0.24,0.01,-0.11,1721198814686
-1.76,0.88,9.22,0.24,0.07,-0.10,1721198814696
-0.54,2.78,11.31,0.29,0.23,-0.16,1721198814706
-0.88,1.10,7.24,0.28,0.04,-0.16,1721198814716
-1.82,1.88,8.90,0.26,0.09,-0.13,1721198814726
0.56,1.04,11.59,0.20,0.22,-0.11,1721198814736
1.06,1.09,9.27,0.24,0.09,-0.16,1721198814746
-0.60,2.08,9.64,0.13,0.12,-0.39,1721198814756
-1.29,-1.24,9.08,0.13,0.01,-0.22,1721198814766
-2.44,1.51,10.39,0.09,0.11,-0.16,1721198814776
-2.18,2.55,11.14,0.19,0.11,-0.18,1721198814786
-2.77,3.06,6.01,0.10,-0.04,-0.03,1721198814796
-1.62,-0.16,7.84,-0.14,0.05,0.06,1721198814806
-0.10,-1.77,12.04,-0.06,0.01,-0.01,1721198814816
-0.11,-2.64,11.90,-0.03,-0.01,-0.13,1721198814826
-3.25,1.81,7.64,0.09,-0.14,-0.09,1721198814836
-1.87,-0.17,7.41,-0.15,0.12,0.09,1721198814846
-1.53,3.72,12.59,-0.02,-0.02,0.12,1721198814856
0.51,-0.17,6.99,-0.09,0.04,0.05,1721198814866
0.47,-5.47,11.17,-0.27,-0.03,-0.07,1721198814876
-1.11,-2.80,13.44,-0.09,-0.02,-0.05,1721198814886
-1.72,1.45,11.81,-0.11,0.11,-0.02,1721198814896
-0.67,0.79,8.15,0.02,-0.08,0.17,1721198814906
2.24,-1.44,8.43,-0.19,0.10,0.07,1721198814916
2.36,-1.45,12.15,-0.13,0.06,-0.15,1721198814926
-2.66,-1.56,11.52,-0.12,-0.17,-0.25,1721198814936
-2.84,0.71,10.26,-0.03,0.04,0.13,1721198814946
-0.10,1.11,10.18,-0.12,0.09,0.26,1721198814956
1.91,-1.18,7.68,-0.16,-0.05,0.14,1721198814966
0.69,0.14,13.52,-0.22,0.04,-0.24,1721198814976
-0.70,0.46,14.74,0.01,-0.05,-0.16,1721198814986
-2.19,0.01,10.74,-0.08,0.07,0.02,1721198814996
-1.01,0.52,7.93,0.06,-0.03,0.19,1721198815006
0.48,-0.77,9.05,0.01,-0.03,-0.01,1721198815016
0.86,4.03,12.61,0.20,0.02,-0.09,1721198815026
0.86,-1.58,9.40,-0.03,0.01,-0.02,1721198815036
-0.05,1.60,14.37,0.19,-0.02,0.17,1721198815046
2.55,-1.70,7.35,0.04,0.08,0.11,1721198815056
1.28,4.13,12.40,0.18,-0.04,-0.00,1721198815066
2.21,1.39,8.18,0.15,0.02,-0.14,1721198815076
0.22,2.07,11.39,0.14,0.07,-0.10,1721198815086
0.65,-2.17,6.61,0.13,0.03,-0.02,1721198815096
-0.17,4.02,13.90,0.18,0.12,-0.07,1721198815106
0.20,-0.48,7.86,0.16,0.02,-0.19,1721198815116
-1.69,0.82,9.78,0.09,0.08,-0.09,1721198815126
-0.11,-0.94,11.37,0.01,0.14,0.04,1721198815136
1.61,0.35,10.26,0.12,0.03,0.08,1721198815146
3.72,1.26,7.08,-0.01,0.17,-0.08,1721198815156
3.17,1.86,15.32,-0.03,0.21,-0.32,1721198815166
-0.22,3.56,13.46,0.27,0.05,-0.41,1721198815176
-2.71,1.45,1.14,0.00,0.10,-0.23,1721198815186
-4.25,3.23,11.71,-0.22,0.17,-0.05,1721198815196
-0.38,-2.25,9.50,-0.15,0.13,0.05,1721198815206
0.05,1.75,14.02,-0.01,0.10,-0.04,1721198815216
1.33,0.75,6.24,-0.07,0.13,-0.15,1721198815226
-1.49,2.55,10.00,-0.11,0.02,-0.20,1721198815236
-1.15,2.71,10.91,-0.11,0.16,-0.10,1721198815246
0.31,-1.02,10.43,-0.11,0.01,-0.03,1721198815256
1.33,-2.42,9.35,-0.13,0.09,-0.09,1721198815266
0.73,-2.23,10.62,-0.09,0.01,-0.28,1721198815276
-1.24,-3.03,12.90,-0.08,0.15,-0.44,1721198815286
-2.75,-1.77,12.23,0.10,0.03,-0.32,1721198815296
-2.65,0.13,11.88,0.09,0.19,-0.15,1721198815306
-3.73,0.13,9.35,0.10,-0.05,-0.01,1721198815316
-1.05,0.16,7.17,0.01,-0.02,0.05,1721198815326
2.04,-1.87,11.11,0.02,0.13,-0.04,1721198815336
1.28,-2.17,9.00,0.07,-0.04,-0.18,1721198815346
-1.67,-0.69,9.29,0.01,0.10,-0.21,1721198815356
-1.87,-0.37,11.08,0.05,0.07,-0.05,1721198815366
-0.03,-1.19,9.01,0.01,0.07,0.12,1721198815376
0.49,0.15,10.14,0.13,-0.05,-0.00,1721198815386
2.16,1.25,10.43,0.16,0.16,-0.20,1721198815396
0.67,0.87,12.46,0.10,0.06,-0.21,1721198815406
-4.10,-2.68,7.88,0.05,-0.19,-0.13,1721198815416
-3.41,2.84,15.84,0.18,0.19,-0.03,1721198815426
-0.37,-0.75,6.50,0.22,-0.04,0.06,1721198815436
-1.66,5.08,11.32,0.14,0.13,-0.02,1721198815446
-0.07,-0.15,8.18,0.25,-0.03,-0.01,1721198815456
-0.45,5.45,13.76,0.12,0.11,-0.08,1721198815466
0.01,-2.12,4.95,0.28,-0.13,0.02,1721198815476
-1.58,-0.43,7.38,0.09,-0.02,0.01,1721198815486
-0.97,4.58,9.96,0.20,0.01,-0.02,1721198815496
-0.15,5.23,12.62,0.16,0.06,-0.16,1721198815506
-0.68,-3.10,7.39,0.00,-0.13,-0.03,1721198815516
-2.52,2.09,13.62,0.06,-0.12,-0.00,1721198815526
-0.38,5.50,10.34,0.09,0.08,0.05,1721198815536
-1.05,1.65,9.12,-0.02,-0.11,-0.02,1721198815546
-1.82,-0.73,5.96,0.05,-0.20,-0.03,1721198815556
0.08,0.44,4.40,-0.04,-0.03,0.03,1721198815566
1.70,0.53,14.02,-0.18,0.01,0.06,1721198815576
0.56,1.91,13.48,0.01,-0.16,-0.05,1721198815586
-0.06,-0.23,11.20,-0.07,-0.09,-0.18,1721198815596
-1.32,-0.39,7.65,-0.02,-0.11,-0.11,1721198815606
-3.02,1.75,10.28,-0.13,-0.02,0.00,1721198815616
-1.08,1.55,10.34,-0.16,-0.02,0.04,1721198815626
-1.13,-4.24,7.18,-0.19,-0.25,0.04,1721198815636
-0.28,-4.13,13.51,-0.24,0.03,0.03,1721198815646
0.18,-4.67,9.17,-0.16,-0.16,0.01,1721198815656
-0.55,-2.45,11.01,-0.22,-0.12,0.05,1721198815666
0.17,-2.64,4.79,-0.22,-0.26,0.03,1721198815676
0.48,2.99,13.22,-0.25,0.10,-0.13,1721198815686
0.68,-1.09,8.91,-0.17,-0.14,-0.11,1721198815696
-3.45,-5.31,10.93,-0.37,-0.26,0.03,1721198815706
-1.13,-1.68,16.83,-0.31,0.02,0.07,1721198815716
1.78,2.61,16.52,-0.19,-0.09,0.10,1721198815726
1.22,0.99,7.16,-0.08,-0.33,0.00,1721198815736
-0.34,0.21,11.11,-0.22,0.08,-0.17,1721198815746
-1.41,-0.05,11.96,-0.11,-0.09,-0.22,1721198815756
-3.20,5.43,11.58,0.04,-0.14,0.01,1721198815766
-0.52,4.32,7.73,0.04,-0.04,0.15,1721198815776
3.32,-1.39,9.99,-0.03,-0.02,0.12,1721198815786
2.91,-1.55,15.05,-0.02,-0.04,-0.19,1721198815796
0.51,5.87,10.45,0.21,-0.10,-0.28,1721198815806
-0.44,2.20,11.09,0.05,0.03,-0.21,1721198815816
-0.10,1.96,12.98,0.27,-0.06,-0.02,1721198815826
1.21,0.45,5.39,0.23,0.00,-0.13,1721198815836
0.34,0.38,9.60,0.13,0.02,-0.20,1721198815846
-0.96,-0.58,8.36,0.11,-0.10,-0.13,1721198815856
-0.24,0.99,12.30,0.18,0.06,0.03,1721198815866
2.03,0.75,7.34,0.20,-0.04,0.01,1721198815876
2.26,1.13,11.95,0.04,0.03,-0.09,1721198815886
2.69,4.79,14.12,0.23,-0.02,-0.22,1721198815896
2.59,4.05,6.92,0.08,0.10,-0.30,1721198815906
-1.30,-0.95,10.69,-0.07,-0.02,-0.28,1721198815916
-1.70,0.17,6.35,0.05,0.09,-0.16,1721198815926
-0.53,0.75,5.15,-0.13,0.20,-0.21,1721198815936
-0.10,0.78,13.49,-0.19,0.13,-0.19,1721198815946
0.01,0.06,15.88,-0.05,0.08,-0.28,1721198815956
-1.17,4.64,10.14,0.19,0.05,-0.32,1721198815966
-0.36,0.19,3.24,-0.14,0.12,-0.19,1721198815976
-0.64,0.76,14.66,-0.14,0.08,-0.17,1721198815986
3.10,-0.34,14.65,0.02,0.13,-0.32,1721198815996
0.83,-2.00,7.96,0.02,-0.07,-0.37,1721198816006
-2.91,3.09,9.41,0.06,0.21,-0.51,1721198816016
-0.81,-1.34,11.82,-0.08,0.15,-0.28,1721198816026
-1.16,4.52,13.09,0.22,0.10,-0.18,1721198816036
1.40,-7.13,-1.84,0.09,0.02,-0.29,1721198816046
-1.25,-5.58,7.77,-0.10,0.34,-0.49,1721198816056
-1.79,11.71,15.01,0.30,-0.01,-0.40,1721198816066
-2.36,-1.32,3.44,-0.14,-0.03,-0.35,1721198816076
-4.48,-6.90,17.80,-0.18,0.13,-0.20,1721198816086
2.16,-6.60,17.60,-0.08,0.45,-0.12,1721198816096
-0.39,6.01,12.21,0.11,-0.09,-0.20,1721198816106
-0.46,9.69,5.07,0.12,0.17,-0.35,1721198816116
0.19,-6.02,6.27,0.04,0.04,-0.27,1721198816126
-1.50,-2.30,8.44,0.06,0.11,-0.07,1721198816136
1.33,-0.79,9.57,-0.00,0.31,-0.25,1721198816146
-0.40,4.43,8.59,0.15,0.21,-0.37,1721198816161
-1.51,2.77,8.38,0.08,0.23,-0.45,1721198816165
-4.63,1.84,12.43,0.19,0.08,-0.29,1721198816175
-2.22,-3.64,6.55,0.09,0.28,-0.01,1721198816185
0.67,0.97,14.69,0.10,0.19,0.06,1721198816195
-0.63,5.17,7.47,0.31,-0.09,-0.31,1721198816205
-1.43,-1.03,5.62,-0.03,0.16,-0.36,1721198816215
-2.49,5.83,18.52,0.42,0.22,-0.15,1721198816225
1.17,4.58,3.03,0.19,0.26,-0.06,1721198816235
-3.19,0.31,8.77,-0.18,-0.12,-0.26,1721198816245
-3.45,-0.15,22.54,0.17,0.32,-0.13,1721198816255
1.02,1.40,2.01,0.41,0.02,0.15,1721198816265
0.87,0.73,4.53,-0.25,0.16,0.04,1721198816275
-1.41,-0.21,19.11,0.03,-0.14,-0.18,1721198816285
0.44,0.44,5.32,0.16,-0.00,-0.24,1721198816295
-1.17,1.00,7.18,-0.05,0.16,-0.12,1721198816305
-2.10,4.12,12.12,0.04,0.11,0.07,1721198816315
-0.33,3.48,6.73,-0.07,0.03,-0.02,1721198816325
-2.69,0.60,12.50,-0.24,0.11,-0.17,1721198816335
-3.97,-6.04,10.16,-0.19,-0.01,0.03,1721198816345
-3.24,-4.59,13.69,-0.20,0.02,0.31,1721198816355
0.94,0.51,4.76,0.09,0.01,0.38,1721198816365
3.73,4.58,12.06,-0.18,0.23,-0.00,1721198816375
2.86,1.65,11.04,0.02,-0.23,-0.14,1721198816385
-1.27,-3.01,9.41,-0.26,0.12,-0.18,1721198816395
-1.17,-7.04,17.09,-0.23,0.16,-0.02,1721198816405
-4.00,-4.21,11.32,-0.08,-0.14,0.16,1721198816415
-0.97,4.87,10.89,0.02,0.11,0.26,1721198816425
4.27,0.28,2.52,-0.04,-0.09,0.23,1721198816435
2.62,0.44,8.43,-0.23,0.17,-0.18,1721198816445
-0.51,-11.02,8.37,-0.33,-0.17,-0.21,1721198816455
-6.96,6.60,24.33,-0.09,0.12,-0.08,1721198816465
-1.70,7.35,12.07,0.26,0.08,0.21,1721198816475
0.21,-3.39,-2.47,-0.18,-0.03,0.23,1721198816485
2.08,-1.51,17.09,-0.30,0.32,-0.15,1721198816495
1.50,-1.04,19.09,0.12,-0.13,-0.30,1721198816505
-3.02,3.37,10.87,0.18,-0.10,0.05,1721198816515
-0.35,4.13,5.95,0.25,0.14,0.27,1721198816525
4.22,2.91,2.28,0.22,0.05,0.14,1721198816535
3.36,0.45,5.79,0.04,0.06,-0.25,1721198816545
-0.79,-0.55,11.73,0.09,0.01,-0.34,1721198816555
-3.66,2.19,15.37,0.14,0.10,-0.12,1721198816565
-1.06,-0.42,10.94,0.18,0.03,0.26,1721198816575
1.74,1.95,9.88,0.19,0.04,0.17,1721198816585
4.05,2.07,8.61,0.11,0.11,-0.12,1721198816595
1.78,1.22,11.03,0.05,0.06,-0.17,1721198816605
1.05,2.64,11.29,0.12,0.14,-0.05,1721198816615
1.22,1.42,5.17,0.10,0.05,-0.06,1721198816625
1.72,-1.23,7.54,-0.21,0.26,-0.10,1721198816635
0.83,-3.06,18.35,-0.17,0.16,-0.22,1721198816645
-0.90,0.05,8.95,0.21,0.02,-0.13,1721198816655
-1.25,2.59,6.11,-0.03,0.33,-0.20,1721198816665
-1.53,7.13,14.18,0.08,0.14,-0.14,1721198816675
-1.81,9.17,14.66,0.02,0.17,-0.11,1721198816685
-0.90,3.23,7.11,-0.01,0.05,0.05,1721198816695
2.42,-6.11,5.85,-0.29,0.27,-0.03,1721198816705
2.80,-2.80,12.05,-0.13,0.10,-0.28,1721198816715
0.10,-2.34,8.46,-0.03,0.05,-0.50,1721198816725
-3.28,-0.64,11.26,-0.01,0.14,-0.39,1721198816735
-4.09,2.01,9.06,0.11,0.10,-0.15,1721198816745
-0.97,0.35,10.21,-0.10,0.27,-0.00,1721198816755
1.62,-2.19,13.23,-0.05,0.10,-0.08,1721198816765
1.57,-1.84,8.48,-0.02,0.18,-0.34,1721198816775
-1.44,-3.52,8.42,-0.03,0.10,-0.33,1721198816785
-5.07,-2.53,9.83,-0.10,0.03,-0.07,1721198816795
-2.65,-2.80,16.55,-0.07,0.21,0.08,1721198816805
1.36,-1.02,9.37,0.09,0.04,0.16,1721198816815
1.85,2.21,4.05,-0.03,0.17,-0.09,1721198816825
0.52,-0.83,5.40,-0.06,0.09,-0.17,1721198816835
-0.28,-1.28,10.31,-0.14,0.20,-0.14,1721198816845
-0.04,-3.10,15.65,-0.19,0.19,-0.07,1721198816855
-2.25,-0.85,19.71,-0.10,0.08,-0.05,1721198816865
-2.61,4.21,18.15,0.08,0.13,-0.08,1721198816875
-0.62,8.72,9.20,0.32,0.05,0.06,1721198816885
-0.09,0.76,1.84,0.13,0.11,0.11,1721198816895
-0.67,2.97,6.23,0.22,0.02,0.08,1721198816905
1.31,0.23,8.43,0.15,0.23,-0.05,1721198816915
-1.88,3.27,12.74,0.21,-0.06,-0.19,1721198816925
-3.84,1.10,9.67,0.16,0.05,-0.02,1721198816935
-2.13,1.36,12.23,0.21,0.11,0.21,1721198816945
0.98,1.27,8.72,0.21,0.04,0.14,1721198816955
1.66,1.50,11.30,0.12,0.09,-0.07,1721198816965
-0.67,4.63,12.00,0.27,0.02,-0.13,1721198816975
-1.31,3.26,5.86,0.20,0.08,0.00,1721198816985
-0.74,3.46,8.92,0.02,0.02,0.13,1721198816995
0.07,3.36,8.17,0.05,0.03,0.08,1721198817005
1.25,-1.39,4.00,-0.08,0.01,0.02,1721198817015
0.95,-4.73,13.16,-0.27,0.10,-0.07,1721198817025
-1.38,-0.38,16.78,0.03,0.02,-0.11,1721198817035
-2.36,1.09,8.72,0.09,-0.03,-0.03,1721198817045
-1.98,1.53,5.88,0.03,0.07,0.12,1721198817055
-0.82,0.73,13.10,-0.19,0.12,0.06,1721198817065
-0.45,0.29,14.70,0.07,-0.02,-0.06,1721198817075
-0.08,-4.34,5.81,-0.06,-0.04,0.05,1721198817085
-1.47,-2.60,8.12,-0.16,0.11,0.05,1721198817095
-0.01,-1.73,11.59,-0.14,0.09,0.10,1721198817105
1.94,-0.82,13.41,-0.11,0.03,0.04,1721198817115
1.74,-1.76,7.78,-0.04,-0.07,-0.05,1721198817125
-1.37,-2.42,8.24,-0.24,0.23,-0.25,1721198817135
-3.61,1.06,11.24,-0.17,0.04,-0.06,1721198817145
-2.53,-0.08,9.06,-0.17,0.04,0.12,1721198817155
0.13,-3.88,9.54,-0.22,0.16,0.18,1721198817165
-0.53,-4.69,13.30,-0.25,0.04,-0.08,1721198817175
-3.80,6.54,19.63,0.01,0.01,-0.17,1721198817185
-2.81,8.66,12.29,0.17,0.00,0.18,1721198817195
-0.40,4.07,7.22,0.09,0.05,0.32,1721198817205
2.94,-4.81,4.50,0.05,0.14,0.12,1721198817215
1.16,0.55,9.64,0.11,-0.00,-0.16,1721198817225
-1.79,5.54,8.71,0.20,-0.01,-0.11,1721198817235
-2.04,3.13,14.42,0.19,0.05,0.13,1721198817245
0.74,2.20,11.41,0.37,0.05,0.21,1721198817255
1.66,1.43,5.04,0.25,-0.00,0.01,1721198817265
-0.51,4.98,12.71,0.17,0.05,-0.07,1721198817275
-1.23,1.22,12.11,0.23,-0.06,0.17,1721198817285
0.53,-1.09,12.83,0.21,0.09,0.32,1721198817295
3.41,4.42,10.79,0.37,0.01,0.30,1721198817305
5.14,3.32,4.77,0.04,0.10,0.06,1721198817315
2.19,-0.32,16.73,-0.03,0.06,-0.23,1721198817325
-1.04,2.57,7.84,0.35,-0.03,-0.17,1721198817335
-1.47,1.52,-3.05,0.00,0.14,0.09,1721198817345
-1.74,0.96,8.56,-0.20,0.27,0.12,1721198817355
0.39,0.92,10.05,-0.03,0.06,0.06,1721198817365
-0.36,-0.04,13.44,-0.16,0.12,-0.03,1721198817375
-0.09,-1.02,15.22,-0.04,0.06,0.09,1721198817385
0.13,3.11,8.18,0.08,-0.07,0.08,1721198817395
3.24,2.20,6.25,-0.18,0.22,-0.01,1721198817405
1.73,-3.81,5.77,-0.23,-0.03,-0.13,1721198817415
-2.47,-4.37,6.65,-0.24,0.06,-0.29,1721198817425
-2.77,-1.68,8.62,-0.09,0.09,-0.21,1721198817435
-1.04,0.45,11.82,-0.13,0.11,0.01,1721198817445
0.74,-2.16,13.25,-0.18,0.10,-0.00,1721198817455
0.89,-4.56,19.09,-0.19,0.09,-0.08,1721198817465
-0.98,-0.64,12.13,-0.07,-0.04,-0.17,1721198817475
-1.09,3.01,11.50,-0.12,0.20,-0.20,1721198817485
-0.30,-1.29,9.38,-0.16,0.01,-0.01,1721198817495
-1.25,-3.41,7.46,-0.09,0.02,0.06,1721198817505
0.98,0.75,9.24,-0.04,0.16,0.08,1721198817515
3.03,-0.18,8.32,-0.11,0.15,-0.00,1721198817525
0.67,1.74,15.40,-0.08,0.02,-0.10,1721198817535
0.63,2.24,15.01,0.08,0.12,-0.12,1721198817545
-1.24,-0.41,12.14,0.05,0.03,-0.18,1721198817555
-2.80,3.46,11.30,0.20,-0.01,-0.05,1721198817565
-1.10,0.60,5.28,0.16,0.14,0.09,1721198817575
-1.15,3.41,9.74,0.16,0.04,0.13,1721198817585
0.29,2.81,7.49,0.24,0.09,0.12,1721198817595
-0.97,2.33,7.10,0.10,0.05,-0.00,1721198817605
-1.71,-0.74,9.87,0.04,0.05,0.01,1721198817615
-1.41,-1.00,12.10,0.10,0.09,0.17,1721198817625
-0.53,0.18,7.34,0.11,0.04,0.21,1721198817635
1.03,-0.16,13.98,0.06,0.09,0.03,1721198817645
1.08,4.06,15.28,0.34,-0.02,-0.05,1721198817655
0.15,2.96,11.01,0.23,0.07,-0.16,1721198817665
-2.24,5.43,12.81,0.31,-0.07,-0.07,1721198817675
-1.66,5.83,3.39,0.23,0.01,0.03,1721198817685
-0.28,1.32,7.41,-0.10,0.00,0.07,1721198817695
-1.30,-1.66,7.89,-0.09,-0.14,0.04,1721198817705
-0.72,0.58,6.67,-0.02,0.06,0.10,1721198817715
1.91,-0.66,9.52,-0.15,0.18,0.06,1721198817725
2.71,-0.42,19.55,-0.04,0.06,0.01,1721198817735
1.38,5.33,13.15,0.33,-0.01,-0.02,1721198817745
0.79,8.51,4.05,0.17,0.21,-0.24,1721198817755
-2.07,-0.72,6.49,-0.21,-0.05,-0.26,1721198817765
-5.83,-10.04,13.55,-0.22,-0.09,0.06,1721198817775
-4.29,-2.48,11.43,0.29,-0.07,0.37,1721198817785
1.23,3.05,5.31,0.22,0.15,0.20,1721198817795
0.65,6.20,8.45,0.09,-0.13,-0.01,1721198817805
-1.62,4.52,6.23,-0.12,-0.07,-0.11,1721198817815
-2.22,-3.36,8.11,-0.41,0.07,-0.00,1721198817825
-0.92,-7.83,13.46,-0.35,-0.07,0.20,1721198817835
0.94,-1.15,11.24,-0.12,-0.03,0.24,1721198817845
3.74,-0.38,10.22,-0.22,0.01,-0.09,1721198817855
2.04,-1.09,16.30,-0.13,-0.08,-0.24,1721198817865
-1.41,-4.71,13.63,-0.10,0.00,-0.27,1721198817875
-4.15,2.52,15.50,0.19,-0.01,-0.08,1721198817885
-1.72,6.16,4.65,0.15,0.03,0.09,1721198817895
-0.64,7.28,2.20,-0.03,-0.12,0.21,1721198817905
1.10,-1.72,4.73,-0.33,0.03,0.04,1721198817915
-0.39,-6.05,17.55,-0.23,-0.10,0.03,1721198817925
-0.63,0.28,15.06,0.22,-0.11,0.10,1721198817935
1.08,6.18,6.43,0.20,-0.01,0.16,1721198817945
1.75,7.80,3.83,0.12,-0.12,0.06,1721198817955
2.52,0.15,6.15,-0.16,0.02,-0.06,1721198817965
0.06,-3.17,17.61,-0.23,0.02,-0.22,1721198817975
-3.13,-1.26,23.40,0.07,-0.08,-0.10,1721198817985
-2.92,-0.73,18.22,0.20,0.07,0.04,1721198817995
-1.39,4.94,10.43,0.38,-0.11,0.15,1721198818005
-0.04,3.82,2.12,0.07,-0.14,0.10,1721198818015
-0.84,2.08,7.40,-0.03,-0.05,-0.08,1721198818025
-0.97,-0.94,14.19,-0.00,0.00,-0.08,1721198818035
-2.47,0.75,9.61,0.17,-0.22,0.10,1721198818045
-1.20,2.45,4.56,0.06,-0.08,0.21,1721198818055
2.59,1.67,6.26,-0.05,-0.04,0.23,1721198818065
2.82,-1.32,12.88,-0.11,-0.13,0.05,1721198818075
0.95,-0.28,16.89,0.11,-0.10,-0.18,1721198818085
-1.05,6.32,11.49,0.34,-0.10,-0.24,1721198818095
-2.96,7.52,-1.97,0.18,-0.16,-0.05,1721198818105
2.50,2.22,13.76,0.01,0.03,-0.19,1721198818646
2.14,-3.20,16.34,-0.31,0.06,-0.37,1721198818650
-3.99,6.13,27.85,0.45,-0.24,-0.28,1721198818660
-0.07,7.75,-10.53,0.51,0.13,-0.13,1721198818670
-2.16,-2.04,-0.62,-0.35,0.30,-0.14,1721198818680
-2.66,3.58,16.68,0.08,-0.34,-0.04,1721198818690
-0.28,2.39,8.03,0.12,0.38,0.03,1721198818700
-0.38,3.48,8.90,0.14,-0.03,0.08,1721198818710
2.26,-1.74,4.86,-0.14,0.09,0.00,1721198818720
2.00,1.59,18.04,0.01,0.01,-0.17,1721198818730
0.40,3.60,5.78,0.23,-0.10,-0.22,1721198818740
-1.46,2.47,6.57,-0.07,0.22,-0.22,1721198818750
-1.92,-1.52,12.16,-0.03,0.02,-0.02,1721198818760
-2.57,-1.14,5.78,0.07,-0.09,0.09,1721198818770
-0.17,-1.15,8.59,-0.12,0.14,-0.01,1721198818780
0.90,-0.01,12.15,0.06,-0.04,-0.05,1721198818790
0.61,0.94,9.80,0.10,0.11,-0.13,1721198818800
0.98,2.56,11.41,0.03,0.18,-0.13,1721198818810
-0.06,0.99,11.76,-0.12,0.05,-0.19,1721198818820
-2.37,0.39,12.54,0.06,-0.04,-0.12,1721198818830
-1.12,-2.72,3.80,-0.01,0.02,-0.06,1721198818840
-0.77,0.47,9.60,0.04,0.05,-0.01,1721198818850
2.19,0.56,10.74,0.00,0.19,-0.09,1721198818860
0.80,3.73,15.64,0.05,0.09,-0.17,1721198818870
-0.72,2.97,9.45,0.10,-0.03,-0.20,1721198818880
-2.49,1.88,7.71,-0.01,0.18,-0.16,1721198818890
0.47,-1.58,9.07,-0.05,0.10,-0.00,1721198818900
1.30,-1.64,13.46,-0.03,-0.05,0.03,1721198818910
-0.70,3.84,11.20,0.17,-0.01,-0.11,1721198818920
-0.09,2.14,7.50,0.10,0.09,-0.23,1721198818930
-1.92,-1.87,7.98,-0.06,0.00,-0.14,1721198818940
-2.64,3.57,13.52,0.10,0.12,-0.05,1721198818950
-0.28,2.43,8.29,0.02,0.16,-0.03,1721198818960
-0.18,1.26,11.40,0.03,0.02,-0.10,1721198818970
-0.20,1.24,10.34,0.06,0.13,-0.11,1721198818980
-0.40,1.64,9.15,0.08,0.01,-0.03,1721198818990
-1.27,4.13,8.22,0.10,0.03,-0.04,1721198819000
0.65,-0.62,9.13,-0.04,0.12,-0.04,1721198819010
-1.00,-1.35,11.36,0.07,-0.02,-0.04,1721198819020
0.21,-2.76,11.49,0.02,0.20,-0.03,1721198819030
-0.34,4.13,10.65,0.22,-0.01,-0.10,1721198819040
-0.47,6.45,8.62,0.12,0.11,-0.09,1721198819050
-0.82,2.27,14.69,0.01,0.06,-0.04,1721198819060
-0.91,-1.47,6.66,0.06,-0.02,0.02,1721198819070
-0.33,-2.68,9.75,-0.12,0.15,-0.11,1721198819080
-1.39,0.82,11.62,0.11,-0.06,-0.02,1721198819090
-1.05,2.44,5.63,0.14,0.04,0.05,1721198819100
0.59,0.73,4.06,0.06,0.00,0.07,1721198819110
0.71,1.92,12.71,-0.12,0.18,-0.06,1721198819120
1.68,1.23,16.75,0.02,0.11,-0.14,1721198819130
-0.22,-0.76,9.10,0.04,-0.05,-0.14,1721198819140
-2.81,0.54,7.87,0.02,0.00,0.01,1721198819150
-0.50,-1.24,9.32,0.04,0.11,0.09,1721198819160
0.02,3.38,12.55,0.08,0.10,0.01,1721198819170
1.71,2.64,7.97,0.09,0.00,0.01,1721198819180
-0.84,3.08,10.19,-0.07,0.05,-0.17,1721198819190
-0.88,-2.71,8.14,0.01,-0.05,-0.04,1721198819200
-1.81,3.08,8.71,0.04,0.17,0.03,1721198819210
0.09,0.24,1.57,-0.19,-0.05,-0.01,1721198819220
-1.73,-1.69,22.79,-0.35,0.11,-0.05,1721198819230
0.94,0.61,20.82,0.29,0.07,0.03,1721198819240
0.92,-0.73,1.31,0.05,-0.09,-0.04,1721198819250
-3.04,5.34,10.16,-0.02,-0.00,-0.15,1721198819260
0.62,-0.42,7.74,-0.04,0.20,-0.02,1721198819270
-0.81,0.97,10.34,0.02,-0.17,0.04,1721198819280
-0.75,1.42,6.18,-0.02,0.03,0.01,1721198819290
-0.35,0.70,14.86,-0.15,0.16,-0.07,1721198819300
-0.23,2.63,15.54,0.04,0.00,-0.01,1721198819310
-0.38,4.01,10.33,0.07,0.03,-0.03,1721198819320
-0.51,1.63,5.96,-0.03,-0.07,-0.10,1721198819330
-1.07,0.77,9.97,-0.05,0.02,-0.04,1721198819340
0.01,-1.37,5.86,-0.12,0.03,0.08,1721198819350
-0.88,1.55,13.44,-0.13,0.04,0.03,1721198819360
0.10,2.98,11.14,0.03,-0.02,-0.03,1721198819370
0.57,2.61,10.80,-0.04,0.06,-0.08,1721198819380
1.39,-2.12,12.97,-0.11,0.11,-0.12,1721198819390
-2.31,-0.84,9.32,0.02,-0.23,-0.12,1721198819400
-2.63,1.45,9.05,-0.03,0.09,-0.06,1721198819410
-0.35,-0.76,8.02,-0.04,0.02,0.00,1721198819420
-0.74,2.84,11.71,0.09,-0.04,0.05,1721198819430
2.28,0.45,6.40,-0.03,0.09,-0.06,1721198819440
-0.71,5.22,13.48,-0.07,0.03,-0.21,1721198819450
-1.58,3.16,10.64,0.00,0.09,-0.15,1721198819460
-1.39,-3.15,10.55,-0.22,0.08,0.01,1721198819470
-1.25,-1.59,15.80,0.03,-0.15,0.12,1721198819480
1.25,3.58,8.27,0.18,0.02,0.09,1721198819490
2.25,1.66,7.12,-0.10,0.02,-0.17,1721198819500
-0.55,-1.61,15.23,0.01,-0.09,-0.20,1721198819510
-2.34,-0.71,11.63,0.16,-0.00,-0.17,1721198819520
-2.15,5.64,8.93,0.19,0.06,-0.12,1721198819530
-1.49,3.17,7.86,-0.03,0.05,-0.02,1721198819540
-2.03,2.92,13.29,0.05,0.02,-0.03,1721198819550
0.51,-1.75,5.88,0.02,-0.02,-0.04,1721198819560
0.11,2.54,11.82,0.03,0.04,-0.03,1721198819570
1.67,2.27,11.81,0.05,0.04,-0.08,1721198819580
-0.72,3.89,10.20,0.13,-0.09,-0.13,1721198819590
-0.58,1.41,6.16,0.01,0.07,-0.15,1721198819600
-1.25,-0.52,5.61,-0.03,-0.07,-0.03,1721198819610
-1.43,-2.06,8.31,-0.18,0.07,-0.04,1721198819620
1.25,-0.96,24.18,-0.04,0.19,-0.11,1721198819630
0.81,0.41,12.47,0.34,-0.20,0.01,1721198819640
-0.94,6.23,1.66,0.20,0.04,-0.10,1721198819650
0.31,0.61,6.77,-0.12,0.12,-0.25,1721198819660
-1.94,-2.52,9.02,0.05,-0.27,-0.11,1721198819670
-2.47,0.13,10.26,0.05,0.22,-0.00,1721198819680
0.04,4.50,11.15,0.15,0.12,0.09,1721198819690
0.70,6.56,10.10,0.02,0.00,-0.04,1721198819700
1.99,-1.89,9.23,-0.16,0.00,-0.07,1721198819710
-0.04,-4.65,10.01,-0.09,-0.08,-0.16,1721198819720
-1.02,0.57,13.06,0.03,0.13,-0.21,1721198819730
-1.10,1.65,6.40,0.14,-0.04,-0.13,1721198819740
-1.74,2.61,11.10,-0.06,0.10,-0.00,1721198819750
1.02,1.19,14.08,0.05,0.10,-0.02,1721198819760
1.00,0.70,10.83,0.06,-0.01,-0.14,1721198819770
-1.29,2.55,10.76,0.09,0.05,-0.18,1721198819780
-1.75,0.79,10.79,0.05,0.05,-0.07,1721198819790
-2.15,0.02,5.38,0.11,-0.17,0.08,1721198819800
0.62,-1.48,8.96,-0.12,0.18,-0.01,1721198819810
0.25,1.95,11.31,0.12,-0.08,-0.05,1721198819820
0.51,2.43,7.28,-0.04,0.13,-0.15,1721198819830
0.24,3.26,12.26,0.04,0.08,-0.12,1721198819840
-0.59,2.66,7.20,0.05,0.02,-0.09,1721198819850
-1.29,-0.78,4.63,-0.14,-0.03,-0.06,1721198819860
-0.41,-2.45,12.61,-0.19,0.05,0.08,1721198819870
1.45,-1.62,23.55,-0.05,0.24,-0.03,1721198819880
1.07,1.60,13.28,0.44,-0.20,-0.09,1721198819890
-0.91,5.85,2.28,0.07,0.11,-0.26,1721198819900
-2.59,5.50,7.61,0.03,-0.02,-0.16,1721198819910
-2.57,-1.10,6.66,-0.16,0.06,-0.02,1721198819920
-1.60,-5.23,7.33,-0.15,-0.10,0.13,1721198819930
1.09,-0.39,15.74,-0.02,0.20,0.05,1721198819940
2.11,3.07,12.86,0.16,0.02,-0.07,1721198819950
0.10,5.85,10.17,0.07,-0.01,-0.21,1721198819960
-0.34,-0.30,5.87,-0.06,0.01,-0.11,1721198819970
-2.74,0.42,10.56,-0.07,-0.00,-0.12,1721198819980
-0.30,-1.47,9.62,-0.08,0.07,0.02,1721198819990
-0.31,2.77,16.43,0.06,0.04,-0.04,1721198820000
-0.02,0.15,6.22,0.01,0.01,-0.04,1721198820010
-1.29,1.65,11.21,-0.08,0.09,-0.13,1721198820020
-0.85,2.12,11.84,-0.00,0.10,-0.12,1721198820030
-0.02,3.41,11.99,0.11,-0.05,0.02,1721198820040
-0.45,1.70,5.33,-0.00,0.01,-0.06,1721198820050
-0.36,-0.81,10.41,-0.15,0.06,-0.16,1721198820060
-1.66,2.31,9.76,0.01,-0.04,-0.06,1721198820070
-0.64,0.68,8.62,-0.17,0.16,-0.05,1721198820080
-0.02,-0.53,15.20,-0.09,0.01,-0.01,1721198820090
0.30,-0.48,13.01,0.03,0.03,-0.05,1721198820100
-0.19,2.51,8.34,0.02,-0.01,-0.13,1721198820110
-0.49,2.06,10.80,-0.07,0.07,-0.16,1721198820120
-1.68,0.37,8.03,0.06,-0.12,-0.06,1721198820130
-0.74,-3.29,10.06,-0.17,0.07,-0.05,1721198820140
-1.10,2.56,11.47,0.10,-0.11,-0.02,1721198820150
0.32,1.63,8.74,-0.15,0.25,-0.15,1721198820160
-0.43,-1.51,11.22,-0.03,-0.09,-0.18,1721198820170
-2.91,0.74,11.46,-0.03,0.10,-0.05,1721198820180
1.24,3.89,10.02,0.12,0.13,0.08,1721198820190
2.39,-0.57,5.77,-0.11,-0.12,-0.05,1721198820200
-2.31,5.53,14.05,0.04,0.00,-0.24,1721198820210
-0.55,-0.26,7.17,-0.04,0.14,-0.22,1721198820220
-2.52,-1.99,12.56,-0.09,-0.16,0.04,1721198820230
-0.43,-0.95,10.26,-0.02,0.13,0.11,1721198820240
1.75,1.13,14.28,-0.01,0.14,-0.06,1721198820250
-0.08,3.95,8.61,0.18,-0.09,-0.18,1721198820260
-1.50,4.95,11.15,0.05,0.13,-0.23,1721198820270
-0.87,-0.10,7.59,0.11,-0.09,-0.01,1721198820280
-2.05,-2.55,9.08,-0.09,-0.04,0.04,1721198820290
-0.63,-0.46,8.84,0.11,-0.01,-0.01,1721198820300
1.03,0.68,10.76,-0.02,0.14,-0.17,1721198820310
-0.53,3.84,13.82,0.18,0.01,-0.16,1721198820320
-1.54,1.81,6.84,0.08,0.03,-0.09,1721198820330
-1.39,0.42,11.64,-0.04,0.12,-0.00,1721198820340
0.11,1.80,10.42,0.14,0.02,0.01,1721198820350
1.40,-0.10,10.91,0.02,0.10,-0.03,1721198820360
-0.43,0.28,5.57,0.18,-0.21,-0.09,1721198820370
-0.59,5.41,9.69,0.07,0.19,-0.12,1721198820380
0.77,1.59,12.24,-0.03,0.07,-0.15,1721198820390
-2.19,-2.88,11.23,-0.05,-0.11,-0.11,1721198820400
-2.51,-2.03,12.60,0.04,0.11,-0.01,1721198820410
0.36,2.28,11.65,0.09,0.15,0.03,1721198820420
0.53,4.14,7.75,0.14,-0.14,-0.02,1721198820430
0.59,-1.26,6.54,-0.09,0.06,-0.08,1721198820440
-0.54,-0.13,11.77,0.01,0.04,-0.19,1721198820450
-0.56,-0.24,9.14,-0.06,0.06,-0.13,1721198820460
-2.02,1.42,9.53,0.01,-0.06,-0.07,1721198820470
-1.45,1.77,8.72,-0.01,0.14,-0.01,1721198820480
1.42,-0.76,10.16,-0.07,0.26,-0.09,1721198820490
1.38,1.10,12.42,0.02,-0.04,-0.06,1721198820500
-1.49,8.77,13.31,0.06,-0.04,-0.09,1721198820510
0.15,2.28,7.63,-0.02,0.03,-0.08,1721198820520
-0.01,-6.06,6.33,-0.22,0.02,-0.12,1721198820530
-2.00,-3.95,10.18,-0.17,0.04,-0.14,1721198820540
-2.32,5.02,12.70,0.11,0.10,-0.11,1721198820550
0.45,-0.33,6.17,-0.14,0.08,0.06,1721198820560
-0.57,0.80,19.79,-0.13,0.04,0.03,1721198820570
2.25,3.50,14.34,0.21,0.10,-0.14,1721198820580
0.00,1.43,7.11,-0.04,-0.07,-0.30,1721198820590
-3.73,-1.83,7.61,-0.07,-0.09,-0.12,1721198820600
-2.02,-2.49,10.78,-0.05,0.18,0.05,1721198820610
-0.36,1.23,7.46,0.15,-0.10,0.17,1721198820620
1.02,3.90,9.34,-0.09,0.19,-0.03,1721198820630
1.30,3.72,12.37,0.05,-0.01,-0.18,1721198820640
-2.16,-0.08,9.23,-0.06,-0.01,-0.19,1721198820655
-1.88,-1.76,8.39,-0.07,-0.01,-0.01,1721198820659
-1.21,2.09,9.56,0.07,0.06,0.06,1721198820669
1.70,0.81,3.18,-0.08,0.03,0.04,1721198820679
0.92,-0.53,20.07,-0.30,0.12,-0.16,1721198820689
-0.97,6.16,26.50,0.33,-0.07,-0.24,1721198820699
-2.57,2.53,0.97,0.15,-0.08,-0.17,1721198820709
-3.61,-3.33,5.61,-0.28,0.08,0.01,1721198820719
-1.17,-1.88,10.09,-0.05,0.02,0.18,1721198820729
1.20,3.22,9.33,0.05,0.01,-0.01,1721198820739
1.91,2.76,8.82,0.04,0.05,-0.12,1721198820749
-0.54,-1.43,9.63,-0.12,-0.02,-0.12,1721198820759
-1.46,-0.44,16.26,-0.03,0.02,-0.05,1721198820769
-0.14,0.35,10.28,0.07,0.07,-0.03,1721198820779
-0.48,2.91,7.47,0.04,-0.04,-0.07,1721198820789
-1.29,0.74,7.99,-0.03,0.03,-0.09,1721198820799
-0.42,-2.43,9.90,-0.08,0.05,0.05,1721198820809
-0.11,0.33,12.71,-0.03,0.06,-0.03,1721198820819
1.19,1.49,8.77,0.06,0.03,-0.09,1721198820829
-0.52,2.08,7.06,0.02,-0.02,-0.12,1721198820839
-1.01,-0.57,9.35,0.01,0.05,-0.07,1721198820849
-0.19,0.03,9.88,0.07,0.02,-0.01,1721198820859
0.39,0.23,12.03,-0.02,0.08,-0.06,1721198820869
-0.49,3.86,21.11,0.04,0.08,-0.13,1721198820879
-1.21,3.03,13.15,0.25,-0.08,-0.15,1721198820889
-2.21,-0.03,3.78,0.10,-0.04,-0.10,1721198820899
-1.35,-1.21,8.51,-0.05,0.10,0.06,1721198820909
0.38,2.22,11.34,0.17,0.00,0.02,1721198820919
0.40,3.68,8.41,0.19,-0.05,-0.06,1721198820929
-1.00,3.44,9.56,0.09,0.06,-0.13,1721198820939
-0.15,1.58,10.79,0.12,-0.02,-0.05,1721198820949
-0.44,2.16,7.98,0.06,-0.05,-0.00,1721198820959
-0.46,0.65,10.41,-0.03,0.03,-0.04,1721198820969
-0.67,-0.38,11.65,0.03,0.03,-0.11,1721198820979
-0.54,-1.39,9.14,0.13,-0.03,-0.01,1721198820989
-0.70,2.77,8.83,0.09,0.06,0.01,1721198820999
0.16,4.92,7.37,0.08,-0.01,-0.06,1721198821009
0.41,3.13,9.60,-0.03,0.08,-0.11,1721198821019
-0.30,-2.10,4.55,-0.09,-0.07,-0.09,1721198821029
-2.20,-0.36,9.56,-0.09,0.05,-0.09,1721198821039
0.26,-0.27,8.75,-0.08,0.10,-0.01,1721198821049
0.50,0.73,12.60,-0.11,-0.02,0.02,1721198821059
0.81,-0.12,17.69,-0.09,0.08,-0.04,1721198821069
0.64,-0.26,14.67,0.17,0.01,-0.13,1721198821079
-0.39,0.58,4.62,0.06,-0.04,-0.21,1721198821089
-1.41,0.61,8.25,-0.12,0.09,-0.14,1721198821099
-1.46,0.37,9.85,0.04,-0.04,-0.04,1721198821109
-0.43,0.14,8.69,-0.04,0.08,-0.02,1721198821119
0.80,1.51,11.99,0.04,0.00,-0.07,1721198821129
0.29,2.04,8.99,-0.03,0.02,-0.09,1721198821139
-0.40,-0.62,15.22,-0.15,0.09,-0.19,1721198821149
-2.05,0.99,11.74,0.13,-0.14,-0.05,1721198821159
-1.89,5.83,7.54,0.10,0.13,-0.10,1721198821169
-0.17,-0.06,6.05,-0.10,0.00,-0.02,1721198821179
-1.06,0.02,13.82,-0.07,-0.04,-0.02,1721198821189
1.01,0.98,8.76,0.03,0.11,-0.05,1721198821199
0.14,3.52,12.35,0.01,0.05,-0.10,1721198821209
-0.90,3.53,10.13,0.08,-0.04,-0.12,1721198821219
-0.36,0.30,11.59,-0.01,0.06,-0.05,1721198821229
-0.58,-0.58,10.24,0.07,-0.05,0.01,1721198821239
-1.21,2.09,9.76,-0.01,0.01,-0.10,1721198821249
-0.89,1.16,11.19,0.10,-0.05,-0.09,1721198821259
-0.84,1.70,8.89,0.06,0.07,-0.07,1721198821269
-0.00,1.58,7.44,0.06,-0.02,0.02,1721198821279
-0.63,0.22,12.15,-0.07,0.03,-0.02,1721198821289
-1.28,0.80,11.95,0.07,-0.06,-0.04,1721198821299
0.06,1.62,9.04,0.04,0.04,-0.06,1721198821309
0.26,0.79,10.06,0.07,-0.07,-0.05,1721198821319
-1.43,0.95,5.06,0.04,-0.09,-0.04,1721198821329
-0.32,0.13,11.36,-0.13,0.14,-0.01,1721198821339
0.45,-2.03,12.75,-0.01,-0.09,0.05,1721198821349
0.25,0.19,13.30,0.10,-0.02,-0.05,1721198821359
0.96,0.69,8.02,0.17,-0.01,-0.05,1721198821369
-1.15,3.11,7.73,0.06,-0.04,-0.11,1721198821379
-0.86,2.67,9.45,0.05,-0.03,-0.01,1721198821389
-0.37,-0.62,8.60,-0.04,-0.03,0.02,1721198821399
-0.05,-0.74,11.31,-0.03,-0.00,-0.00,1721198821409
0.40,-0.62,10.66,0.00,-0.01,-0.09,1721198821419
-0.29,1.95,9.55,0.05,-0.06,-0.06,1721198821429
-0.41,4.87,12.53,0.07,0.06,-0.06,1721198821439
0.54,-0.12,8.46,0.02,-0.11,-0.02,1721198821449
-1.64,-1.02,8.30,-0.05,-0.14,-0.02,1721198821459
-0.59,-0.03,11.64,-0.06,0.13,-0.03,1721198821469
0.83,0.19,12.75,0.06,-0.05,-0.03,1721198821479
0.30,-0.14,9.12,-0.04,-0.11,-0.01,1721198821489
0.41,1.08,11.26,0.08,-0.04,-0.05,1721198821499
0.38,0.50,8.90,-0.06,0.09,-0.16,1721198821509
-1.42,0.99,12.53,0.00,-0.12,-0.13,1721198821519
-1.35,0.48,8.56,0.01,-0.03,-0.05,1721198821529
-0.51,2.31,9.92,-0.01,0.04,0.02,1721198821539
-0.14,2.60,7.12,-0.00,-0.08,-0.04,1721198821549
0.64,0.59,10.17,-0.11,0.03,-0.09,1721198821559
0.66,0.90,10.71,-0.09,-0.03,-0.16,1721198821569
-0.48,0.28,11.26,-0.05,-0.06,-0.12,1721198821579
-1.34,-0.35,10.44,-0.03,-0.01,-0.07,1721198821589
-0.57,-3.60,8.02,-0.05,-0.05,-0.07,1721198821599
-1.04,-1.69,9.89,0.05,-0.02,-0.14,1721198821609
-0.25,5.83,12.72,0.09,0.11,-0.15,1721198821619
-0.36,13.13,15.90,0.28,-0.05,-0.11,1721198821629
-0.90,1.07,2.59,-0.16,-0.10,-0.09,1721198821639
-1.62,-8.06,10.45,-0.38,-0.01,-0.08,1721198821649
-0.10,-1.33,15.32,-0.07,0.12,-0.17,1721198821659
-1.50,2.47,8.71,0.12,-0.19,-0.14,1721198821669
-1.61,1.81,4.63,-0.01,-0.01,0.06,1721198821679
2.63,0.84,11.25,-0.07,0.14,0.01,1721198821689
2.23,5.43,13.88,0.09,-0.10,-0.24,1721198821699
-0.57,3.33,8.24,-0.04,-0.08,-0.37,1721198821709
-3.06,-1.71,12.17,-0.13,-0.00,-0.19,1721198821719
-2.64,-3.81,9.18,0.01,-0.07,0.06,1721198821729
-0.30,-1.11,9.74,-0.03,0.04,0.07,1721198821739
1.59,2.29,9.01,0.04,-0.04,-0.04,1721198821749
1.07,3.80,12.06,-0.08,0.05,-0.24,1721198821759
-0.53,4.30,11.09,0.16,-0.09,-0.22,1721198821769
0.47,-1.39,6.63,-0.04,0.08,-0.18,1721198821779
-1.54,0.61,4.13,0.09,-0.23,-0.01,1721198821789
-0.99,3.49,3.10,-0.13,0.12,-0.13,1721198821799
-0.27,2.92,11.98,-0.21,-0.05,-0.10,1721198821809
-0.57,2.15,25.38,-0.12,0.14,-0.11,1721198821819
2.42,-6.69,19.17,-0.02,0.04,-0.09,1721198821829
-0.41,-1.44,11.94,0.12,-0.42,-0.08,1721198821839
-0.97,6.36,8.00,0.18,0.16,-0.18,1721198821849
0.15,3.06,1.22,0.14,-0.05,-0.32,1721198821859
-3.85,-0.53,4.32,0.02,-0.24,-0.20,1721198821869
-4.04,-0.55,7.85,-0.02,0.07,0.05,1721198821879
-0.30,2.12,14.88,-0.10,0.18,0.14,1721198821889
4.19,6.24,18.00,0.11,0.06,-0.01,1721198821899
3.61,0.18,8.29,0.04,-0.11,-0.26,1721198821909
-1.02,1.94,10.53,0.12,-0.04,-0.34,1721198821919
-1.30,-0.47,7.38,0.03,-0.03,-0.15,1721198821929
-3.03,3.08,10.07,0.07,-0.19,0.01,1721198821939
-0.27,0.07,6.18,-0.06,0.10,-0.09,1721198821949
-0.45,1.23,9.12,0.03,-0.02,-0.15,1721198821959
0.06,1.41,8.09,-0.07,0.10,-0.14,1721198821969
-0.50,1.46,10.97,-0.08,-0.08,-0.05,1721198821979
-1.21,1.76,8.36,-0.06,-0.14,-0.05,1721198821989
2.16,-5.16,20.92,-0.31,0.29,-0.14,1721198821999
0.01,-0.95,20.20,0.33,-0.33,-0.13,1721198822009
-0.63,6.88,2.72,0.28,0.08,-0.25,1721198822019
-0.27,2.80,4.27,-0.15,0.07,-0.28,1721198822029
-2.65,-0.27,11.80,-0.02,-0.23,-0.08,1721198822039
-1.82,-0.75,6.18,0.03,0.06,0.05,1721198822049
1.42,1.45,9.00,-0.10,0.08,-0.04,1721198822059
1.63,1.85,11.62,-0.07,-0.12,-0.16,1721198822069
0.45,2.13,9.54,-0.00,-0.03,-0.21,1721198822079
-0.82,1.07,7.76,-0.11,-0.04,-0.25,1721198822089
-1.31,-1.64,13.97,-0.17,0.01,-0.13,1721198822099
-0.56,-0.94,13.76,-0.04,0.04,-0.13,1721198822109
0.39,-0.42,10.29,-0.03,-0.02,-0.15,1721198822119
-0.60,3.37,9.17,0.03,-0.04,-0.18,1721198822129
0.09,1.34,8.26,-0.07,0.09,-0.22,1721198822139
-0.88,0.68,10.93,-0.01,-0.07,-0.20,1721198822149
-0.74,-2.25,10.18,-0.18,0.04,-0.12,1721198822159
-0.84,1.62,13.78,-0.01,0.02,-0.16,1721198822169
1.19,2.39,10.56,-0.10,0.13,-0.28,1721198822179
0.53,2.01,11.64,-0.00,-0.07,-0.25,1721198822189
-1.43,1.31,8.52,-0.02,-0.04,-0.24,1721198822199
-2.24,2.06,9.26,-0.07,0.08,-0.21,1721198822209
-0.59,-1.08,10.90,-0.15,0.03,-0.15,1721198822219
0.04,1.36,12.80,-0.02,0.00,-0.13,1721198822229
1.17,-0.53,9.09,-0.07,0.12,-0.24,1721198822239
-0.20,2.20,9.59,0.02,-0.01,-0.30,1721198822249
-0.63,3.16,9.46,-0.06,0.14,-0.31,1721198822259
-0.67,-0.50,9.17,-0.09,0.03,-0.24,1721198822269
-1.28,0.12,13.02,-0.09,0.08,-0.18,1721198822279
0.69,-1.19,13.04,-0.02,0.13,-0.21,1721198822289
-0.27,2.28,12.07,0.08,0.02,-0.32,1721198822299
-1.45,3.71,9.73,0.04,0.11,-0.31,1721198822309
-0.67,-0.28,10.42,-0.08,0.13,-0.22,1721198822319
-0.36,-1.66,10.64,0.02,0.04,-0.19,1721198822329
-0.18,2.28,9.01,0.01,0.18,-0.26,1721198822339
-0.11,2.00,9.38,-0.02,0.10,-0.31,1721198822349
-1.12,0.96,12.13,0.01,0.07,-0.28,1721198822359
-1.35,0.58,10.59,0.06,0.14,-0.26,1721198822369
-0.34,1.14,10.35,0.02,0.20,-0.22,1721198822379
0.38,0.10,11.02,0.04,0.07,-0.24,1721198822389
-0.54,0.99,9.43,0.11,0.10,-0.29,1721198822399
-1.20,1.86,7.99,0.03,0.21,-0.31,1721198822409
-1.22,-0.47,10.83,-0.01,0.15,-0.26,1721198822419
-0.98,0.90,10.91,0.14,0.10,-0.16,1721198822429
1.42,-0.32,6.37,-0.07,0.29,-0.20,1721198822439
-0.30,0.86,14.09,0.03,0.10,-0.33,1721198822449
-1.01,4.45,10.69,0.21,0.21,-0.34,1721198822459
-0.42,0.37,5.78,-0.02,0.21,-0.27,1721198822469
-2.25,-0.77,11.65,-0.01,0.06,-0.16,1721198822479
-0.65,-1.81,10.50,-0.03,0.30,-0.18,1721198822489
-0.28,2.40,15.13,0.15,0.22,-0.26,1721198822499
0.34,0.33,7.17,0.16,0.17,-0.25,1721198822509
-1.57,1.36,7.27,0.10,0.15,-0.23,1721198822519
-0.88,1.99,9.47,0.09,0.27,-0.22,1721198822529
-0.86,2.43,10.82,0.16,0.17,-0.21,1721198822539
-0.43,1.08,9.41,0.11,0.27,-0.16,1721198822549
-1.02,-0.01,9.35,0.11,0.20,-0.22,1721198822559
-1.44,-1.12,8.64,0.12,0.14,-0.17,1721198822569
-0.82,2.32,13.40,0.19,0.30,-0.21,1721198822579
-0.14,1.43,7.61,0.26,0.18,-0.17,1721198822589
-1.80,3.01,9.89,0.21,0.17,-0.14,1721198822599
-0.59,0.06,8.89,0.19,0.24,-0.09,1721198822609
-0.74,0.19,10.91,0.18,0.21,-0.09,1721198822619
-0.62,2.40,8.71,0.27,0.23,-0.10,1721198822629
-0.51,-0.48,5.82,0.17,0.18,-0.10,1721198822639
-1.65,0.68,10.27,0.26,0.16,-0.07,1721198822649
-0.88,3.30,11.82,0.33,0.22,-0.07,1721198822664
-0.79,3.89,10.81,0.37,0.13,-0.08,1721198822668
-0.17,1.63,8.49,0.25,0.25,-0.06,1721198822678
-1.29,0.24,8.86,0.26,0.15,-0.03,1721198822688
-1.79,1.49,10.25,0.29,0.24,-0.02,1721198822698
0.10,2.27,8.57,0.32,0.19,0.08,1721198822708
0.14,2.82,8.07,0.23,0.15,0.07,1721198822718
0.49,0.19,9.79,0.19,0.19,0.05,1721198822728
0.34,0.06,11.29,0.23,0.20,-0.03,1721198822738
-0.48,1.06,8.89,0.27,0.14,0.01,1721198822748
-0.90,2.92,9.20,0.27,0.21,0.02,1721198822758
-0.19,2.20,7.04,0.24,0.19,0.01,1721198822768
-0.18,1.40,9.08,0.14,0.21,0.04,1721198822778
-0.03,1.86,10.06,0.21,0.16,0.00,1721198822788
-0.26,1.93,7.52,0.19,0.15,0.04,1721198822798
-0.41,-0.28,7.55,0.09,0.18,0.06,1721198822808
0.03,0.89,11.24,0.14,0.21,0.06,1721198822818
0.28,2.73,7.95,0.22,0.15,0.03,1721198822828
-0.15,1.44,4.38,0.09,0.14,-0.01,1721198822838
-1.27,-0.43,8.50,-0.06,0.19,0.03,1721198822848
-0.95,0.46,11.09,0.10,0.13,0.07,1721198822858
-0.66,-0.06,6.30,0.05,0.13,0.05,1721198822868
-2.04,-0.31,9.15,-0.04,0.14,0.04,1721198822878
-2.32,2.00,15.96,0.03,0.18,0.12,1721198822888
-2.51,2.21,11.18,0.09,0.06,0.16,1721198822898
-1.32,-5.74,7.48,-0.13,0.10,0.16,1721198822908
-2.05,-4.76,12.65,-0.08,0.06,0.18,1721198822918
-0.84,0.23,9.18,0.07,-0.01,0.23,1721198822928
0.52,5.02,9.33,0.02,0.08,0.17,1721198822938
2.15,-0.09,7.25,-0.13,0.01,0.12,1721198822948
0.56,-4.03,11.64,-0.22,0.03,0.01,1721198822958
-0.16,-5.88,9.90,-0.21,0.04,-0.01,1721198822968
-0.82,-3.12,17.38,-0.11,0.06,0.06,1721198822978
-0.98,5.13,11.48,0.30,-0.04,0.13,1721198822988
0.67,8.64,4.92,0.11,0.10,0.11,1721198822998
0.91,1.45,4.79,-0.29,0.02,0.03,1721198823008
-0.84,-2.84,17.05,-0.29,0.02,0.02,1721198823018
-1.63,1.28,15.29,0.09,0.02,0.07,1721198823028
-0.67,3.49,4.46,-0.00,0.00,0.25,1721198823038
0.54,2.04,5.46,-0.19,-0.02,0.23,1721198823048
1.97,-0.44,11.61,-0.23,0.10,0.05,1721198823058
0.40,4.15,10.13,-0.02,-0.04,-0.06,1721198823068
-0.46,-1.37,11.90,-0.42,0.18,-0.07,1721198823078
-2.14,0.51,27.60,0.12,-0.02,0.09,1721198823088
-0.50,4.19,7.93,0.29,-0.05,0.16,1721198823098
0.16,4.20,4.56,-0.18,0.03,0.12,1721198823108
-0.78,-2.00,9.04,-0.23,-0.12,0.06,1721198823118
-1.02,-0.93,12.30,-0.06,0.02,0.02,1721198823128
0.98,0.68,8.66,0.04,-0.03,0.06,1721198823138
1.47,3.98,13.54,0.03,0.13,0.07,1721198823148
0.85,4.65,5.80,0.15,-0.15,0.01,1721198823158
-0.43,4.63,3.02,-0.13,0.09,-0.07,1721198823168
-0.13,-0.82,7.88,-0.19,-0.01,0.06,1721198823178
-0.08,-2.84,12.54,-0.12,0.04,0.11,1721198823188
0.50,-0.38,12.00,0.04,0.03,0.02,1721198823198
0.29,-1.76,9.82,-0.15,0.02,-0.06,1721198823208
-1.43,0.16,15.55,0.01,-0.03,-0.04,1721198823218
-0.01,-1.98,11.60,0.10,0.06,0.09,1721198823228
0.74,0.78,9.87,0.10,0.01,0.04,1721198823238
-0.12,6.51,5.79,0.09,-0.06,-0.11,1721198823248
0.23,4.29,10.52,-0.15,0.20,-0.21,1721198823258
-2.08,-0.59,12.86,-0.14,-0.04,-0.08,1721198823268
-2.47,-4.75,16.16,-0.12,0.06,0.06,1721198823278
0.26,-2.59,15.18,0.14,0.04,0.15,1721198823288
0.34,2.99,7.77,0.12,-0.07,-0.00,1721198823298
-0.02,8.17,8.84,0.12,0.02,-0.11,1721198823308
0.18,5.02,6.73,0.02,0.03,-0.13,1721198823318
-1.12,-2.97,7.72,-0.17,-0.05,-0.08,1721198823328
-1.98,-0.60,12.53,-0.08,0.07,-0.01,1721198823338
0.13,2.45,10.50,-0.04,0.13,0.03,1721198823348
0.25,1.91,10.85,-0.06,-0.03,0.07,1721198823358
0.02,1.80,12.07,-0.03,-0.01,0.01,1721198823368
0.56,3.29,9.27,0.01,0.07,-0.09,1721198823378
0.48,-0.35,10.84,-0.20,0.06,-0.08,1721198823388
-1.65,-0.44,10.68,-0.07,-0.05,-0.04,1721198823398
-0.82,0.21,4.17,-0.07,0.07,-0.01,1721198823408
-0.46,-2.17,2.92,-0.24,0.01,0.06,1721198823418
-0.07,-4.33,10.56,-0.22,0.05,0.03,1721198823428
1.59,-1.62,18.51,-0.01,0.19,-0.02,1721198823438
0.68,3.06,17.03,0.12,0.05,-0.19,1721198823448
-1.44,5.92,16.41,0.22,0.05,-0.20,1721198823458
-1.74,1.32,4.78,0.06,0.05,-0.16,1721198823468
-3.08,0.11,4.54,-0.12,-0.07,0.03,1721198823478
-1.37,-0.39,8.72,-0.16,0.12,0.13,1721198823488
0.52,-0.51,15.10,-0.06,0.06,0.04,1721198823498
1.25,-2.55,14.13,0.02,0.00,-0.00,1721198823508
0.50,3.20,11.12,0.16,0.03,-0.04,1721198823518
1.26,5.16,8.71,0.02,0.18,-0.16,1721198823528
-1.45,4.92,9.90,0.08,-0.09,-0.22,1721198823538
-2.32,1.05,6.07,0.02,0.02,-0.06,1721198823548
-0.89,-3.41,14.37,-0.12,0.20,0.03,1721198823558
-1.27,-0.82,15.26,0.14,-0.09,0.08,1721198823568
-1.66,3.40,8.13,0.14,-0.01,-0.01,1721198823578
0.03,3.83,12.16,0.18,0.12,-0.02,1721198823588
-0.26,3.00,3.93,0.25,-0.13,0.06,1721198823598
-0.67,4.61,6.39,0.07,0.16,0.09,1721198823608
0.30,1.74,5.96,-0.03,0.06,-0.04,1721198823618
-1.67,3.01,9.19,0.00,-0.06,0.01,1721198823628
-0.80,0.67,4.90,-0.03,0.01,0.13,1721198823638
0.30,-1.45,12.17,-0.20,0.10,0.13,1721198823648
1.43,-3.49,16.01,-0.08,-0.05,0.06,1721198823658
0.06,0.68,17.28,0.10,0.03,-0.05,1721198823668
-0.62,2.23,8.83,0.12,0.05,-0.08,1721198823678
-1.68,0.38,5.78,-0.01,-0.07,0.05,1721198823688
-0.91,-0.25,7.46,-0.01,0.01,0.12,1721198823698
0.72,1.58,10.97,-0.05,0.06,0.03,1721198823708
0.30,2.17,11.33,-0.02,-0.05,-0.05,1721198823718
-1.31,-1.65,12.32,-0.17,0.02,-0.00,1721198823728
-1.92,-3.10,14.20,-0.03,-0.03,0.09,1721198823738
0.02,0.22,11.11,0.07,0.03,0.07,1721198823748
0.91,6.49,5.76,0.08,-0.04,0.04,1721198823758
-0.53,6.27,3.11,-0.17,-0.03,-0.07,1721198823768
-1.22,-4.52,4.59,-0.39,-0.03,-0.04,1721198823778
-1.69,-6.69,14.72,-0.30,0.03,0.10,1721198823788
0.15,-1.83,15.23,-0.06,0.03,0.24,1721198823798
2.47,3.41,13.84,-0.01,0.00,0.09,1721198823808
3.07,2.36,9.81,-0.02,-0.04,-0.13,1721198823818
-0.25,-0.75,10.52,-0.09,-0.03,-0.19,1721198823828
-3.56,-1.25,11.80,-0.09,-0.03,-0.05,1721198823838
-3.01,-0.36,10.11,0.01,-0.06,0.18,1721198823848
0.09,5.02,9.88,0.09,-0.04,0.27,1721198823858
2.34,8.48,10.06,0.02,0.04,0.07,1721198823868
1.28,0.25,5.17,-0.21,-0.17,-0.13,1721198823878
-1.82,-4.76,13.28,-0.32,0.00,-0.17,1721198823888
-1.77,-3.11,17.85,-0.06,0.02,0.06,1721198823898
-0.11,2.89,11.59,0.16,-0.08,0.22,1721198823908
2.10,6.41,8.50,0.09,0.08,-0.07,1721198823918
1.35,2.53,3.79,-0.01,-0.20,-0.33,1721198823928
-3.19,-2.50,12.89,-0.28,0.06,-0.36,1721198823938
-4.37,-1.54,19.77,0.13,-0.01,0.06,1721198823948
-1.29,1.03,10.63,0.23,-0.02,0.29,1721198823958
2.12,4.24,4.38,0.21,-0.13,0.11,1721198823968
1.48,3.24,5.75,0.01,0.01,-0.19,1721198823978
-1.20,1.59,10.75,-0.02,-0.01,-0.23,1721198823988
-3.14,-1.46,11.29,-0.01,-0.07,-0.06,1721198823998
-2.30,0.62,10.06,0.14,-0.03,0.18,1721198824008
2.67,2.12,6.59,0.07,0.10,0.15,1721198824018
2.85,5.40,9.23,0.05,-0.01,-0.13,1721198824028
0.03,1.24,8.72,-0.16,-0.00,-0.41,1721198824038
-4.11,-3.81,17.81,-0.12,-0.13,-0.25,1721198824048
-2.95,-4.12,16.46,0.17,0.02,0.16,1721198824058
1.01,2.02,8.88,0.24,0.10,0.17,1721198824068
2.97,4.07,6.94,0.08,-0.01,-0.13,1721198824078
0.61,2.09,8.82,0.01,-0.05,-0.32,1721198824088
-3.74,1.57,9.77,0.06,-0.06,-0.23,1721198824098
-3.57,-0.56,9.70,-0.05,0.06,0.01,1721198824108
-0.50,-2.00,12.81,-0.03,0.03,0.19,1721198824118
1.76,1.67,10.41,0.10,-0.01,0.06,1721198824128
1.41,3.17,4.65,0.01,-0.02,-0.19,1721198824138
-1.92,1.92,7.38,-0.04,-0.09,-0.22,1721198824148
-2.19,-1.31,7.90,-0.11,0.03,-0.01,1721198824158
-0.49,-1.28,13.76,-0.15,0.04,0.14,1721198824168
1.03,1.33,12.08,0.04,-0.05,0.12,1721198824178
1.87,0.49,6.62,-0.04,0.00,-0.11,1721198824188
-0.87,-0.01,8.77,-0.06,-0.08,-0.21,1721198824198
-1.88,-0.52,10.14,-0.07,0.02,-0.03,1721198824208
-0.37,0.59,13.52,-0.02,0.03,0.10,1721198824218
1.01,0.52,10.99,0.00,-0.01,0.07,1721198824228
0.28,1.20,10.93,-0.01,-0.02,-0.06,1721198824238
0.16,0.53,11.93,0.03,0.02,-0.11,1721198824248
-0.92,1.47,10.48,0.06,-0.08,-0.01,1721198824258
-1.13,1.04,9.37,-0.03,-0.01,0.03,1721198824268
-0.06,-0.66,11.26,-0.02,-0.02,-0.01,1721198824278
-0.25,0.18,11.84,0.06,-0.04,-0.04,1721198824288
-0.89,2.49,10.84,0.14,-0.02,-0.08,1721198824298
-0.67,2.96,9.11,0.12,-0.01,0.03,1721198824308
-0.38,1.75,10.50,0.06,-0.03,0.00,1721198824318
-0.83,2.83,11.10,0.15,-0.07,-0.04,1721198824328
-1.03,2.59,6.85,0.12,-0.05,-0.03,1721198824338
-0.70,-0.91,9.23,0.01,-0.02,0.02,1721198824348
-0.84,0.69,10.92,0.17,-0.08,0.09,1721198824358
1.31,1.51,7.57,0.12,0.04,0.05,1721198824368
0.93,2.97,11.00,0.13,-0.05,-0.12,1721198824378
0.22,3.92,11.49,0.14,0.01,-0.14,1721198824388
-0.98,3.07,6.98,0.12,-0.10,-0.08,1721198824398
-1.59,-0.95,10.26,-0.10,0.03,-0.09,1721198824408
-1.74,-1.16,13.97,0.07,-0.05,0.02,1721198824418
-1.86,0.78,11.16,0.13,-0.05,0.09,1721198824428
-0.25,1.91,8.15,0.12,-0.04,0.13,1721198824438
1.36,1.51,7.58,-0.01,-0.03,0.07,1721198824448
1.81,0.53,9.39,0.02,-0.08,-0.02,1721198824458
0.94,-0.33,10.10,0.02,-0.04,-0.13,1721198824468
-1.03,1.33,10.94,0.04,-0.04,-0.06,1721198824478
-1.42,1.43,9.28,0.01,-0.05,0.01,1721198824488
-0.50,-0.92,7.67,-0.13,-0.06,0.12,1721198824498
0.32,-1.86,11.24,-0.15,-0.03,0.07,1721198824508
-0.35,-0.07,9.73,-0.04,-0.09,-0.05,1721198824518
-0.32,1.63,10.48,-0.07,-0.01,-0.03,1721198824528
-0.70,1.13,9.50,-0.06,-0.11,0.13,1721198824538
-0.41,0.91,8.16,-0.16,-0.10,0.11,1721198824548
1.17,-0.64,7.94,-0.19,-0.11,0.01,1721198824558
-0.08,-1.05,8.54,-0.26,-0.11,-0.04,1721198824568
-0.11,-0.90,15.98,-0.21,0.05,0.04,1721198824578
0.61,-1.09,14.45,0.00,-0.13,0.17,1721198824588
1.14,3.70,11.79,0.02,-0.13,0.06,1721198824598
1.55,3.16,7.80,-0.09,-0.05,-0.12,1721198824608
-0.97,-2.37,7.50,-0.21,-0.23,-0.14,1721198824618
-2.34,-1.11,12.01,-0.16,-0.07,0.04,1721198824628
0.75,2.04,11.16,-0.04,-0.04,0.09,1721198824638
2.19,2.35,10.79,-0.07,-0.12,-0.02,1721198824648
1.02,-0.59,11.03,-0.14,-0.13,-0.22,1721198824658
-1.58,0.32,11.39,-0.04,-0.16,-0.25,1721198824673
-1.37,1.44,11.40,-0.03,-0.07,-0.15,1721198824677
-1.88,2.46,9.93,-0.02,-0.12,-0.03,1721198824687
-0.06,1.70,10.38,-0.06,-0.05,-0.02,1721198824697
1.88,1.67,12.68,-0.04,-0.04,-0.17,1721198824707
-0.03,2.30,10.22,0.03,-0.11,-0.35,1721198824717
-2.28,0.84,10.68,-0.02,-0.06,-0.28,1721198824727
-2.56,1.29,11.79,0.10,-0.09,-0.11,1721198824737
-0.61,2.54,8.21,0.11,-0.08,-0.01,1721198824747
0.64,1.86,8.38,0.01,-0.07,-0.14,1721198824757
0.05,1.14,12.09,0.05,-0.09,-0.28,1721198824767
-1.83,1.25,8.20,0.11,-0.14,-0.24,1721198824777
-2.44,0.69,10.86,-0.03,-0.03,-0.13,1721198824787
-0.93,0.85,12.12,0.12,-0.16,0.04,1721198824797
0.96,1.65,10.53,0.05,-0.06,-0.04,1721198824807
1.31,1.71,7.86,0.09,-0.14,-0.10,1721198824817
1.17,0.29,7.79,0.00,-0.03,-0.18,1721198824827
0.97,-0.23,9.57,0.02,-0.10,-0.20,1721198824837
-0.46,1.18,9.39,0.07,-0.09,-0.31,1721198824847
-0.37,1.85,11.87,-0.01,0.01,-0.33,1721198824857
-1.49,2.20,10.20,0.02,-0.11,-0.35,1721198824867
-2.33,1.94,10.28,-0.08,0.00,-0.37,1721198824877
-2.56,0.98,11.91,-0.04,-0.02,-0.32,1721198824887
-2.77,0.10,7.88,0.01,-0.10,-0.22,1721198824897
-2.67,2.52,9.55,0.01,0.00,-0.22,1721198824907
-0.94,5.26,9.74,0.06,-0.05,-0.13,1721198824917
0.28,2.77,8.42,-0.09,-0.05,-0.16,1721198824927
0.18,-2.25,13.05,-0.14,-0.23,-0.08,1721198824937
7.09,-1.88,11.88,-0.00,0.15,0.08,1721198824947
7.77,2.94,7.62,-0.08,0.04,-0.55,1721198824957
0.64,1.59,11.77,-0.15,-0.02,-1.27,1721198824967
-7.15,-9.04,10.61,-0.07,-0.19,-0.66,1721198824977
-10.58,0.68,0.55,0.21,0.19,-0.32,1721198824987
-8.68,4.30,13.95,-0.16,0.32,-0.11,1721198824997
-3.03,-2.02,15.18,-0.04,0.01,0.23,1721198825007
1.37,0.74,7.09,0.20,-0.02,0.19,1721198825017
5.15,0.27,3.04,-0.09,0.18,-0.25,1721198825027
2.24,0.49,15.77,-0.18,0.04,-0.38,1721198825037
1.07,-3.10,15.25,-0.13,0.08,-0.41,1721198825047
-0.06,-0.59,12.35,0.03,0.06,-0.45,1721198825057
-1.92,-0.08,5.89,-0.03,0.09,-0.49,1721198825067
-1.65,-0.61,11.14,-0.09,0.25,-0.38,1721198825077
-2.56,-2.53,11.57,-0.03,0.11,-0.46,1721198825087
-3.57,0.44,12.73,0.06,0.21,-0.39,1721198825097
-1.87,-0.28,8.43,0.08,0.16,-0.12,1721198825107
-0.45,2.15,12.73,0.07,0.25,-0.08,1721198825117
1.50,1.41,10.98,0.09,0.17,-0.19,1721198825127
0.91,2.00,8.90,0.04,0.16,-0.37,1721198825137
0.02,-0.42,11.79,0.05,0.16,-0.44,1721198825147
-1.81,0.65,9.63,0.19,0.13,-0.23,1721198825157
-1.83,1.36,8.86,0.07,0.27,-0.21,1721198825167
-1.21,1.27,12.71,0.13,0.11,-0.20,1721198825177
-0.74,0.94,12.04,0.14,0.15,-0.20,1721198825187
-2.02,0.54,8.65,0.23,0.09,-0.13,1721198825197
-3.76,-0.74,8.00,0.09,0.17,-0.13,1721198825207
-1.61,-0.54,8.40,0.10,0.12,0.05,1721198825217
1.04,1.17,9.48,0.17,0.13,0.07,1721198825227
2.89,1.20,9.88,0.09,0.21,0.05,1721198825237
0.80,1.11,11.37,0.07,0.04,-0.13,1721198825247
-0.33,0.70,13.12,0.08,0.18,-0.18,1721198825257
0.23,-1.39,9.25,0.06,0.13,-0.07,1721198825267
-0.62,-1.01,4.86,0.10,0.12,0.05,1721198825277
0.41,0.83,9.30,-0.06,0.33,-0.05,1721198825287
0.34,-0.86,10.94,0.03,0.06,-0.16,1721198825297
-1.60,0.20,13.37,-0.02,0.16,-0.09,1721198825307
-1.13,-0.86,10.68,0.04,0.18,0.04,1721198825317
-0.90,0.19,9.83,-0.05,0.15,0.07,1721198825327
0.21,0.56,9.78,0.02,0.12,0.10,1721198825337
1.39,-0.61,9.74,-0.01,0.18,0.00,1721198825347
1.11,1.79,13.26,0.06,0.17,-0.00,1721198825357
0.83,0.55,7.67,0.03,0.13,0.03,1721198825367
-0.20,0.87,10.86,-0.03,0.14,-0.05,1721198825377
-0.10,-0.15,9.35,-0.06,0.19,-0.08,1721198825387
-0.54,1.60,11.73,-0.03,0.14,0.01,1721198825397
0.49,1.98,8.87,-0.12,0.21,0.10,1721198825407
1.29,1.51,10.70,-0.16,0.16,-0.10,1721198825417
0.75,-0.36,11.54,-0.18,0.18,-0.18,1721198825427
-1.08,0.60,11.10,-0.13,0.16,-0.08,1721198825437
-0.88,3.31,10.68,-0.13,0.22,0.07,1721198825447
0.83,1.93,10.63,-0.14,0.15,0.07,1721198825457
1.30,0.84,8.96,-0.10,0.14,-0.08,1721198825467
0.52,1.26,8.97,-0.20,0.19,-0.13,1721198825477
-0.48,-0.37,12.71,-0.20,0.14,-0.04,1721198825487
-0.11,2.36,10.62,-0.02,0.14,-0.06,1721198825497
1.24,0.92,8.88,-0.16,0.21,-0.08,1721198825507
-0.49,1.05,11.67,-0.15,0.12,-0.17,1721198825517
-1.18,1.28,9.49,-0.09,0.20,-0.14,1721198825527
-0.08,-1.23,9.45,-0.21,0.20,-0.09,1721198825537
-0.74,0.20,10.96,-0.03,0.12,-0.08,1721198825547
-0.27,1.05,11.80,-0.07,0.28,-0.13,1721198825557
-1.03,0.74,9.90,-0.08,0.11,-0.05,1721198825567
-0.83,-2.63,8.35,-0.15,0.14,-0.02,1721198825577
0.41,-0.58,10.49,-0.02,0.23,-0.03,1721198825587
-0.15,-0.91,8.48,-0.07,0.15,-0.05,1721198825597
-1.20,0.75,12.28,-0.06,0.15,-0.10,1721198825607
-1.19,4.06,11.09,0.06,0.10,-0.10,1721198825617
-0.45,-1.02,9.57,-0.11,0.12,0.03,1721198825627
-1.69,1.25,14.27,-0.04,0.16,-0.01,1721198825637
-0.32,-1.40,6.05,-0.06,0.16,-0.02,1721198825647
-1.98,0.84,9.78,-0.03,0.05,0.06,1721198825657
0.12,1.40,12.08,0.08,0.16,0.18,1721198825667
-0.58,2.21,13.08,0.02,0.09,0.06,1721198825677
-0.62,-1.36,10.22,-0.06,0.04,-0.01,1721198825687
-0.63,-0.21,10.43,-0.01,0.12,-0.01,1721198825697
-0.10,-1.40,10.67,-0.01,0.13,0.04,1721198825707
-1.86,-0.20,11.38,0.13,-0.05,0.12,1721198825717
-0.30,1.38,9.01,0.10,0.17,0.11,1721198825727
0.29,0.85,11.28,0.10,0.04,0.07,1721198825737
-1.47,-1.06,9.14,0.04,-0.01,0.07,1721198825747
-1.39,2.08,12.96,0.08,0.12,0.06,1721198825757
-0.64,-0.00,6.57,0.15,-0.10,0.12,1721198825767
-1.11,0.12,11.13,-0.00,0.12,0.15,1721198825777
0.34,-2.03,10.38,0.06,0.02,0.14,1721198825787
-0.55,-0.21,10.26,0.05,-0.02,0.08,1721198825797
0.00,1.14,9.92,0.09,0.09,0.10,1721198825807
-1.29,-0.56,9.14,0.02,-0.06,0.13,1721198825817
-0.39,0.64,10.24,0.12,-0.05,0.19,1721198825827
1.70,-0.84,8.33,0.02,0.09,0.13,1721198825837
0.23,0.40,13.75,0.02,-0.03,0.05,1721198825847
-0.76,0.96,9.62,0.11,-0.08,-0.06,1721198825857
-1.61,1.53,8.86,0.05,0.05,0.05,1721198825867
-0.60,0.26,10.33,0.08,-0.03,0.12,1721198825877
-0.46,-1.24,8.54,0.10,-0.13,0.12,1721198825887
-0.55,3.57,10.69,0.10,0.03,0.02,1721198825897
0.33,4.21,12.28,0.11,-0.02,0.05,1721198825907
-1.95,2.18,10.34,0.11,-0.18,-0.01,1721198825917
-0.91,1.53,8.98,0.10,0.00,0.06,1721198825927
0.51,0.75,8.51,0.08,-0.05,0.09,1721198825937
0.17,1.19,9.67,0.02,-0.10,0.08,1721198825947
0.95,0.64,12.69,0.08,-0.05,-0.01,1721198825957
1.23,1.36,7.10,0.17,-0.11,-0.03,1721198825967
0.16,3.40,8.70,0.01,-0.01,-0.13,1721198825977
-0.25,0.85,13.37,-0.04,-0.03,0.01,1721198825987
-0.98,2.93,11.73,0.13,-0.06,0.03,1721198825997
1.02,-1.14,5.50,-0.00,0.00,0.05,1721198826007
-0.05,-0.65,11.13,-0.07,-0.04,0.04,1721198826017
0.42,1.34,10.25,0.03,-0.01,0.04,1721198826027
0.83,3.14,12.17,-0.00,0.00,-0.02,1721198826037
0.48,0.67,7.72,0.01,-0.11,-0.04,1721198826047
-0.34,-2.38,7.57,-0.17,0.04,-0.17,1721198826057
-2.67,0.12,12.11,-0.11,0.01,-0.11,1721198826067
-2.78,-2.40,10.47,-0.14,-0.01,0.04,1721198826077
-2.37,-0.31,12.17,-0.05,0.02,0.13,1721198826087
0.50,0.45,10.06,-0.05,0.08,0.11,1721198826097
0.16,-2.08,7.58,-0.22,-0.11,-0.01,1721198826107
-0.55,-1.89,13.90,-0.24,0.08,-0.13,1721198826117
-1.38,1.75,13.18,-0.01,-0.08,-0.01,1721198826127
-0.66,1.09,4.16,-0.07,0.01,0.08,1721198826137
0.61,0.47,9.70,-0.29,0.10,0.03,1721198826147
0.52,-1.47,13.14,-0.22,-0.03,-0.20,1721198826157
-2.50,-3.35,8.09,-0.18,-0.12,-0.13,1721198826167
-2.46,0.32,9.57,-0.20,0.07,0.08,1721198826177
0.04,2.35,11.80,-0.09,-0.05,0.17,1721198826187
0.61,2.17,8.60,-0.13,-0.10,0.07,1721198826197
1.24,2.22,12.99,-0.19,0.06,-0.14,1721198826207
-0.51,-0.38,9.98,-0.08,-0.09,-0.10,1721198826217
-1.61,1.29,9.86,-0.02,-0.05,0.09,1721198826227
1.42,1.01,12.48,-0.06,0.06,0.10,1721198826237
1.76,1.89,9.16,0.12,-0.17,0.11,1721198826247
1.65,-3.52,7.68,-0.03,0.01,-0.17,1721198826257
-0.41,1.79,17.41,0.05,0.03,-0.19,1721198826267
-2.30,3.21,11.31,0.16,-0.14,0.07,1721198826277
-0.38,1.73,7.42,0.17,0.04,0.21,1721198826287
2.29,-3.57,6.45,0.09,0.05,0.07,1721198826297
1.21,-1.05,11.83,0.00,-0.05,-0.04,1721198826307
-2.03,0.88,9.91,0.15,-0.12,0.02,1721198826317
0.06,-0.19,15.40,0.04,0.10,0.13,1721198826327
2.10,1.21,13.48,0.23,-0.16,0.16,1721198826337
2.32,4.33,5.60,0.16,0.06,-0.00,1721198826347
0.02,0.53,10.01,-0.04,0.04,-0.30,1721198826357
-2.65,-5.00,6.78,0.04,-0.13,-0.16,1721198826367
-1.90,-1.73,13.31,0.04,0.11,0.27,1721198826377
2.28,3.67,12.73,0.16,0.04,0.30,1721198826387
4.55,4.06,10.51,0.15,-0.03,-0.07,1721198826397
2.45,-1.46,9.30,-0.06,0.07,-0.41,1721198826407
-4.54,-1.17,12.17,0.08,-0.05,-0.36,1721198826417
-4.87,-1.35,6.21,0.12,0.01,0.11,1721198826427
0.27,-3.09,7.79,-0.05,0.14,0.31,1721198826437
3.28,6.22,13.81,0.25,0.08,0.08,1721198826447
3.39,2.08,9.06,0.08,0.05,-0.29,1721198826457
-3.06,2.78,8.75,0.15,-0.19,-0.33,1721198826467
-3.50,-2.03,9.91,-0.03,0.19,-0.10,1721198826477
-2.00,-0.68,11.20,0.11,-0.06,0.32,1721198826487
2.08,2.26,9.53,0.08,0.05,0.22,1721198826497
4.25,1.39,10.55,-0.02,0.05,-0.15,1721198826507
0.38,-2.89,10.05,-0.04,-0.14,-0.28,1721198826517
-4.80,3.85,15.33,0.02,0.09,-0.30,1721198826527
-3.47,4.83,8.66,0.16,-0.05,0.12,1721198826537
-0.38,0.18,2.59,-0.02,-0.04,0.33,1721198826547
2.42,-2.43,13.18,-0.22,0.18,0.07,1721198826557
1.71,0.18,16.98,0.03,-0.13,-0.19,1721198826567
-0.51,2.28,6.16,0.10,-0.13,-0.14,1721198826577
-0.96,-0.68,11.20,-0.20,0.16,-0.09,1721198826587
-0.98,3.37,13.33,0.18,-0.14,0.06,1721198826597
2.07,-0.20,0.19,0.01,-0.02,-0.00,1721198826607
1.55,0.28,10.74,-0.14,0.08,-0.15,1721198826617
0.19,-0.49,14.18,-0.07,-0.01,-0.28,1721198826627
-2.93,1.93,12.26,0.04,-0.09,-0.21,1721198826637
-2.23,-2.94,5.36,-0.10,-0.04,0.03,1721198826647
0.39,-5.05,9.71,-0.23,0.04,0.21,1721198826657
4.11,-0.00,10.40,-0.04,0.04,-0.02,1721198826667
0.94,0.97,10.48,-0.02,0.03,-0.53,1721198826682
-1.61,2.52,9.72,0.03,-0.07,-0.53,1721198826686
-3.75,0.15,10.78,-0.09,0.06,-0.23,1721198826696
-2.23,1.04,13.94,-0.10,0.04,0.12,1721198826706
1.78,-2.20,7.44,-0.09,0.00,0.13,1721198826716
2.09,-1.03,9.70,-0.12,0.03,-0.26,1721198826726
0.41,0.11,8.58,0.02,-0.04,-0.39,1721198826736
-2.99,3.26,12.01,-0.01,0.08,-0.21,1721198826746
-2.83,4.67,9.55,0.08,-0.03,-0.02,1721198826756
1.51,-2.11,8.85,-0.10,0.14,0.10,1721198826766
2.03,0.28,12.43,-0.03,0.08,-0.05,1721198826776
0.62,0.07,10.99,-0.02,-0.04,-0.26,1721198826786
-2.11,2.09,12.33,0.05,-0.00,-0.26,1721198826796
-2.49,1.73,12.46,0.07,0.12,-0.16,1721198826806
-2.42,1.68,11.57,0.10,-0.04,-0.05,1721198826816
0.93,-1.82,7.60,0.03,0.04,0.03,1721198826826
1.94,-2.78,8.40,0.01,0.05,-0.11,1721198826836
-0.38,2.47,12.34,0.14,0.11,-0.38,1721198826846
-2.21,-0.30,10.51,0.07,0.04,-0.30,1721198826856
-5.27,0.31,13.68,0.07,-0.00,-0.08,1721198826866
-1.47,-0.95,8.92,0.13,0.09,0.12,1721198826876
2.95,1.15,13.02,0.03,0.22,-0.04,1721198826886
1.80,3.45,8.86,0.25,-0.10,-0.28,1721198826896
-2.49,-1.42,4.14,-0.02,0.04,-0.37,1721198826906
-2.79,-4.30,12.64,-0.02,0.12,-0.14,1721198826916
-1.72,-0.48,12.46,0.04,0.07,-0.00,1721198826926
-0.10,1.38,9.66,0.03,-0.02,0.02,1721198826936
0.83,3.32,9.60,0.05,0.09,-0.24,1721198826946
0.90,2.84,8.94,0.14,0.07,-0.26,1721198826956
-0.93,-2.57,11.12,-0.09,0.10,-0.13,1721198826966
-1.22,-3.16,16.30,-0.09,-0.01,-0.08,1721198826976
-1.61,4.68,14.52,0.13,0.00,-0.07,1721198826986
0.30,2.03,6.51,0.08,0.10,-0.07,1721198826996
-1.26,2.64,5.91,0.09,-0.06,-0.11,1721198827006
-0.94,-0.29,4.55,0.01,0.06,0.01,1721198827016
-0.15,-1.68,10.97,-0.10,0.03,-0.02,1721198827026
-0.04,3.40,14.85,0.10,0.02,-0.05,1721198827036
1.33,3.57,11.33,0.11,0.12,0.00,1721198827046
0.06,4.24,7.83,0.14,-0.08,-0.05,1721198827056
-0.25,-0.63,11.11,-0.09,0.08,-0.08,1721198827066
-1.24,-0.53,13.53,0.11,-0.07,-0.03,1721198827076
-1.67,-0.66,5.45,0.03,-0.02,0.01,1721198827086
-1.79,4.62,9.17,0.07,0.06,0.00,1721198827096
0.12,1.45,9.50,0.02,0.06,0.03,1721198827106
-1.76,-0.16,8.60,0.03,-0.11,-0.00,1721198827116
-1.86,-1.64,12.41,-0.05,0.10,-0.03,1721198827126
-2.44,0.48,14.04,0.08,-0.01,0.08,1721198827136
-1.08,-0.44,12.13,0.02,-0.04,0.28,1721198827146
-0.77,6.70,8.77,0.28,-0.13,0.20,1721198827156
2.28,1.24,7.73,0.06,0.14,-0.01,1721198827166
-0.12,-1.18,15.95,0.01,-0.11,-0.06,1721198827176
-1.75,0.35,9.39,0.11,-0.04,-0.00,1721198827186
-2.23,3.12,9.07,0.05,-0.03,0.07,1721198827196
0.24,2.13,9.30,0.11,-0.04,0.16,1721198827206
1.94,-0.65,8.70,0.03,-0.01,0.06,1721198827216
0.36,-0.25,10.96,-0.01,-0.07,-0.12,1721198827226
-1.40,0.33,9.87,-0.06,-0.11,-0.04,1721198827236
-0.92,1.86,10.30,0.07,-0.06,0.14,1721198827246
2.20,-1.12,4.78,-0.00,-0.03,0.24,1721198827256
1.79,1.08,11.20,-0.10,0.01,-0.07,1721198827266
0.72,-1.42,8.65,-0.04,-0.15,-0.16,1721198827276
-2.58,0.25,11.84,-0.14,-0.06,-0.09,1721198827286
-0.92,4.07,11.71,0.11,-0.04,0.08,1721198827296
2.93,-0.89,0.35,-0.04,-0.07,0.17,1721198827306
1.62,-3.23,4.52,-0.24,-0.06,-0.11,1721198827316
0.17,-2.79,17.00,-0.28,0.11,-0.31,1721198827326
-2.56,1.80,19.00,0.03,-0.14,-0.13,1721198827336
-2.77,3.98,6.03,0.04,-0.12,0.03,1721198827346
1.89,-0.92,5.10,-0.21,0.05,0.08,1721198827356
1.06,-3.82,13.25,-0.23,0.03,-0.20,1721198827366
-1.63,-0.42,13.20,0.00,-0.09,-0.33,1721198827376
-2.31,0.53,11.30,0.01,-0.04,-0.04,1721198827386
-0.31,-1.27,9.14,-0.06,-0.00,0.14,1721198827396
0.52,7.57,17.22,0.11,0.06,-0.13,1721198827406
1.51,1.66,9.19,0.11,-0.06,-0.36,1721198827416
-3.10,-5.03,9.59,-0.09,-0.14,-0.30,1721198827426
-2.93,-1.40,13.42,0.06,0.00,0.03,1721198827436
0.74,1.54,12.26,0.09,0.02,0.18,1721198827446
1.49,6.69,10.26,0.20,-0.05,0.05,1721198827456
2.06,1.47,6.86,0.04,-0.05,-0.32,1721198827466
-1.78,1.87,16.15,0.10,-0.11,-0.35,1721198827476
-2.11,1.13,8.04,0.21,-0.05,-0.05,1721198827486
-0.56,-5.01,8.08,-0.06,0.03,0.13,1721198827496
-0.14,4.45,7.84,0.29,-0.09,0.07,1721198827506
3.63,3.42,8.72,-0.04,0.24,-0.28,1721198827516
0.16,2.31,15.79,0.26,-0.24,-0.32,1721198827526
-1.44,1.49,7.87,0.18,0.07,-0.21,1721198827536
-1.98,-0.66,8.52,0.02,0.00,-0.10,1721198827546
-1.98,1.42,12.76,0.15,-0.07,0.00,1721198827556
1.44,0.79,6.60,0.16,0.02,0.00,1721198827566
2.65,-1.90,8.12,-0.02,0.06,-0.25,1721198827576
-0.88,-1.23,15.90,0.12,-0.06,-0.35,1721198827586
-3.60,2.65,6.54,0.28,-0.04,-0.17,1721198827596
-1.85,7.26,12.41,0.10,0.22,0.03,1721198827606
1.57,3.64,9.16,0.22,-0.11,0.16,1721198827616
2.58,-0.46,5.50,-0.06,0.07,-0.06,1721198827626
1.41,-2.34,13.39,-0.26,0.08,-0.37,1721198827636
-2.56,3.65,17.07,0.10,-0.17,-0.29,1721198827646
-2.04,1.67,7.70,-0.05,0.04,-0.03,1721198827656
0.15,-1.72,5.13,-0.13,-0.03,0.11,1721198827666
2.81,0.10,11.25,-0.21,0.17,-0.17,1721198827676
0.71,0.21,8.62,-0.13,-0.06,-0.36,1721198827686
-3.46,1.92,10.60,-0.14,-0.01,-0.28,1721198827696
-2.21,1.54,6.36,-0.05,0.06,0.00,1721198827706
1.37,-3.58,5.80,-0.31,0.07,0.09,1721198827716
1.86,-1.81,13.39,-0.23,0.02,-0.14,1721198827726
2.22,-2.47,11.05,-0.06,0.07,-0.39,1721198827736
-1.38,-1.53,10.44,-0.05,-0.01,-0.23,1721198827746
-1.73,2.54,9.83,0.10,0.12,-0.06,1721198827756
1.54,3.11,-0.03,0.03,0.05,-0.08,1721198827766
1.56,-2.33,7.89,-0.39,0.12,-0.22,1721198827776
-1.86,-6.14,26.95,-0.26,0.05,-0.45,1721198827786
-4.58,-3.33,19.80,0.39,-0.13,-0.28,1721198827796
-3.22,0.78,2.48,0.25,0.04,0.14,1721198827806
0.26,4.91,10.01,-0.02,0.18,0.20,1721198827816
4.53,1.25,19.54,0.00,0.13,-0.09,1721198827826
2.01,9.93,13.27,0.48,-0.04,-0.35,1721198827836
1.12,5.96,4.01,0.23,0.20,-0.39,1721198827846
-1.34,1.70,12.18,0.22,0.06,-0.09,1721198827856
-0.53,5.40,8.46,0.39,0.18,-0.09,1721198827866
1.73,-0.65,6.09,0.15,0.13,-0.16,1721198827876
-0.83,1.88,12.00,0.26,0.03,-0.31,1721198827886
-1.15,3.74,11.90,0.28,0.23,-0.31,1721198827896
-2.78,3.75,9.66,0.28,0.07,-0.16,1721198827906
-2.52,2.36,4.63,0.28,0.08,0.04,1721198827916
1.55,-1.03,3.47,0.06,0.20,0.02,1721198827926
1.21,-1.04,9.05,-0.01,0.06,-0.14,1721198827936
-2.13,0.17,9.98,0.15,0.02,-0.27,1721198827946
-2.43,2.23,9.61,0.13,0.10,-0.05,1721198827956
-0.75,1.54,3.07,0.01,0.05,0.17,1721198827966
1.65,-1.59,4.28,-0.27,0.16,0.05,1721198827976
2.25,0.17,10.51,-0.12,0.11,-0.24,1721198827986
0.76,1.41,6.52,-0.03,0.08,-0.32,1721198827996
-1.83,-0.62,6.51,-0.16,0.04,-0.18,1721198828006
-2.86,-5.71,16.75,-0.41,0.22,-0.13,1721198828016
-2.79,-4.58,24.74,0.01,-0.06,-0.06,1721198828026
-1.88,-0.28,14.63,0.14,0.04,0.07,1721198828036
0.13,2.46,5.97,0.09,0.06,0.16,1721198828046
2.45,1.77,4.89,-0.13,0.09,0.10,1721198828056
2.40,-1.36,9.53,-0.22,0.09,-0.14,1721198828066
-0.80,-4.32,13.97,-0.20,0.02,-0.24,1721198828076
-3.48,-1.42,12.92,0.02,-0.08,0.02,1721198828086
-0.93,0.17,7.48,-0.08,0.11,0.22,1721198828096
1.53,2.24,10.96,0.00,0.03,0.08,1721198828106
0.88,6.65,9.04,0.01,0.00,-0.12,1721198828116
-1.68,4.39,9.31,-0.17,-0.01,-0.07,1721198828126
-2.07,-1.74,15.09,-0.22,0.05,0.03,1721198828136
-0.57,-1.79,9.28,-0.08,-0.04,0.20,1721198828146
1.56,3.74,10.84,-0.03,0.07,0.14,1721198828156
0.65,3.94,9.84,-0.01,-0.03,-0.13,1721198828166
-0.76,1.24,13.83,0.02,-0.02,-0.15,1721198828176
-1.12,4.13,12.53,0.13,0.02,0.10,1721198828186
-0.41,5.56,13.91,0.03,0.09,0.07,1721198828196
-0.13,3.28,7.14,0.21,-0.22,0.07,1721198828206
2.75,2.72,10.00,0.02,0.25,-0.03,1721198828216
3.12,-1.78,8.93,0.05,-0.07,-0.12,1721198828226
-2.52,0.35,13.89,0.03,-0.07,-0.29,1721198828236
-2.99,3.10,14.77,0.27,-0.00,-0.11,1721198828246
-1.39,4.60,7.69,0.26,-0.03,0.15,1721198828256
2.30,2.97,4.95,0.10,0.11,0.21,1721198828266
3.24,1.14,5.70,0.07,-0.01,-0.09,1721198828276
1.12,-0.60,6.58,-0.02,-0.00,-0.33,1721198828286
-2.88,-2.21,15.42,0.02,-0.02,-0.34,1721198828296
-4.50,-0.68,16.49,0.29,-0.09,0.02,1721198828306
-0.93,1.59,7.58,0.26,-0.00,0.29,1721198828316
3.14,2.44,3.78,0.03,0.01,0.14,1721198828326
3.98,-0.16,11.78,-0.08,0.09,-0.24,1721198828336
-0.01,1.83,6.67,0.25,-0.12,-0.34,1721198828346
-1.86,-0.44,0.87,-0.09,0.08,-0.18,1721198828356
-2.18,-4.53,16.42,-0.26,0.08,-0.06,1721198828366
-2.50,-2.83,24.69,0.21,-0.10,-0.12,1721198828376
-1.53,2.50,9.29,0.40,-0.09,0.03,1721198828386
0.57,4.91,3.06,0.03,0.08,0.07,1721198828396
2.00,1.38,6.36,-0.08,0.05,-0.10,1721198828406
1.13,-5.56,9.45,-0.18,0.05,-0.32,1721198828416
-2.69,-0.59,12.98,0.09,-0.09,-0.22,1721198828426
-1.46,0.49,8.03,-0.05,0.06,-0.02,1721198828436
0.37,0.32,11.47,0.01,-0.04,0.03,1721198828446
1.73,3.29,11.26,0.05,0.11,-0.16,1721198828456
0.82,1.73,7.79,-0.02,-0.01,-0.30,1721198828466
-2.54,0.16,10.46,-0.09,-0.04,-0.21,1721198828476
-1.84,1.69,10.88,-0.01,0.12,-0.09,1721198828486
0.46,-2.46,10.99,-0.11,0.04,-0.08,1721198828496
-1.36,4.64,11.71,0.10,-0.08,0.02,1721198828506
0.59,5.52,7.66,-0.03,0.14,-0.12,1721198828516
1.28,-0.45,12.78,-0.17,0.02,-0.18,1721198828526
-0.13,-2.63,9.28,-0.03,-0.03,-0.13,1721198828536
-0.83,1.34,11.67,-0.12,0.21,-0.20,1721198828546
-0.58,0.32,7.17,0.05,-0.08,-0.08,1721198828556
-1.43,4.61,9.94,-0.07,0.14,-0.12,1721198828566
1.50,1.79,11.18,-0.04,0.06,-0.11,1721198828576
0.30,-2.43,8.94,-0.12,-0.01,-0.21,1721198828586
-1.77,1.87,15.39,-0.01,0.09,-0.19,1721198828596
-1.34,3.36,9.25,0.06,0.06,-0.09,1721198828606
-0.18,2.60,8.02,0.01,0.06,0.04,1721198828616
1.71,-0.61,9.63,-0.10,0.16,-0.07,1721198828626
