AccX,AccY,AccZ,GyrX,GyrY,GyrZ,Time
0.44,4.59,16.42,-0.14,-0.05,-0.41,1721201372146
0.57,0.39,13.16,-0.08,-0.24,-0.42,1721201372151
3.40,1.46,14.76,-0.05,0.18,-0.56,1721201372161
1.08,6.73,7.66,0.13,-0.35,-0.73,1721201372171
-4.19,8.50,3.77,-0.19,-0.01,-0.88,1721201372181
-5.10,6.74,15.24,-0.17,-0.11,-0.75,1721201372191
-5.14,4.87,10.83,-0.09,-0.13,-0.51,1721201372201
1.52,3.08,15.86,-0.14,-0.13,0.20,1721201372211
1.79,3.94,4.58,0.05,-0.05,-0.21,1721201372221
7.61,3.69,13.33,-0.40,0.22,-0.86,1721201372231
0.55,-0.31,6.24,0.11,-0.73,-1.33,1721201372241
-7.83,-0.76,4.52,0.03,0.28,-1.26,1721201372251
-16.82,3.17,11.02,-0.17,-0.26,-0.81,1721201372261
-14.48,4.55,20.42,0.04,-0.04,0.29,1721201372271
-3.29,-0.88,13.10,0.10,-0.07,1.01,1721201372281
9.08,-3.10,8.28,0.00,0.12,0.88,1721201372291
15.28,-1.32,6.02,0.03,0.21,0.07,1721201372301
13.33,-2.42,8.96,-0.24,-0.14,-0.97,1721201372311
1.16,1.54,11.35,-0.08,-0.26,-1.78,1721201372321
-2.70,-5.99,16.12,-0.12,-0.10,-1.86,1721201372331
-16.34,-2.09,12.64,0.05,-0.41,-0.94,1721201372341
-15.38,-7.11,1.39,0.11,0.02,0.20,1721201372351
-2.15,-4.48,9.81,-0.13,0.41,0.73,1721201372361
6.18,-1.80,14.90,-0.00,0.07,0.33,1721201372371
7.52,2.33,10.21,0.04,0.06,-0.36,1721201372381
4.99,-1.27,7.05,-0.20,-0.08,-0.93,1721201372391
-0.06,-4.58,10.23,-0.23,-0.06,-1.11,1721201372401
-5.22,-3.08,11.23,-0.02,-0.11,-0.86,1721201372411
-5.66,-2.74,10.43,-0.06,0.08,-0.42,1721201372421
-5.41,1.42,13.97,0.02,-0.16,-0.18,1721201372431
-0.22,-0.74,7.80,0.15,0.11,-0.13,1721201372441
0.70,-3.79,6.97,-0.15,0.04,-0.29,1721201372451
-1.45,1.27,17.05,0.03,0.10,-0.50,1721201372461
-2.25,-1.37,12.29,0.22,-0.23,-0.36,1721201372471
-2.26,4.98,8.32,0.27,0.09,-0.08,1721201372481
0.12,-3.20,10.15,0.03,-0.13,0.19,1721201372491
-0.52,6.19,16.05,0.24,-0.06,0.30,1721201372501
2.00,-6.76,3.77,0.04,-0.19,0.08,1721201372511
1.74,3.36,18.55,0.11,0.14,0.09,1721201372521
1.82,-1.54,6.09,0.24,-0.38,0.01,1721201372531
-0.36,1.98,12.16,0.06,0.16,-0.10,1721201372541
-0.06,-2.09,9.92,0.19,-0.34,0.26,1721201372551
1.07,0.63,12.73,0.10,0.14,0.34,1721201372561
3.96,2.15,10.90,0.25,-0.07,0.24,1721201372571
2.94,0.11,6.69,0.05,-0.07,0.09,1721201372581
2.59,-0.83,13.91,0.05,-0.02,-0.01,1721201372591
2.08,1.42,8.59,0.23,-0.02,0.00,1721201372601
2.62,-0.31,7.23,0.00,0.17,-0.01,1721201372611
2.43,-1.55,12.70,-0.11,0.10,-0.13,1721201372621
0.05,4.00,11.14,0.24,-0.07,-0.20,1721201372631
1.22,-1.82,-1.24,-0.03,0.07,-0.07,1721201372641
0.35,0.31,19.38,-0.31,0.33,-0.16,1721201372651
-0.69,3.92,10.30,0.22,-0.33,-0.26,1721201372661
-1.42,-6.99,2.12,-0.53,0.30,-0.27,1721201372671
-3.42,3.12,21.97,-0.17,-0.12,-0.18,1721201372681
-2.89,-2.17,4.86,-0.00,-0.10,0.08,1721201372691
-0.02,0.55,12.20,-0.41,0.28,0.09,1721201372701
1.19,1.27,9.37,-0.05,-0.31,-0.03,1721201372711
2.03,-2.40,9.59,-0.37,0.32,-0.31,1721201372721
0.25,0.66,11.90,-0.04,-0.22,-0.22,1721201372731
-1.01,-6.89,1.03,-0.29,0.05,-0.14,1721201372741
-0.65,-4.93,17.00,-0.23,0.17,-0.16,1721201372751
-0.35,-2.68,6.21,-0.03,-0.23,-0.06,1721201372761
-1.03,-2.59,11.37,-0.64,0.24,-0.09,1721201372771
-0.37,9.67,20.49,-0.13,-0.14,-0.18,1721201372781
-0.03,0.26,5.20,0.12,-0.02,-0.16,1721201372791
0.72,-6.45,7.55,-0.42,0.18,-0.16,1721201372801
0.72,2.22,15.85,-0.02,-0.10,-0.17,1721201372811
1.01,-4.96,5.98,0.12,-0.03,0.01,1721201372821
2.15,-0.82,10.51,-0.47,0.23,0.00,1721201372831
0.60,6.08,17.64,-0.09,-0.04,-0.32,1721201372841
1.82,4.64,10.20,0.27,0.01,-0.41,1721201372851
-1.45,-4.22,3.30,-0.05,-0.00,-0.54,1721201372861
-1.66,0.63,16.79,0.12,0.15,-0.45,1721201372871
-1.10,1.81,14.81,0.39,-0.02,-0.36,1721201372881
-2.14,-2.14,4.99,0.24,-0.03,-0.31,1721201372891
-2.00,-1.70,10.22,0.15,0.07,-0.24,1721201372901
0.19,-1.23,13.84,0.20,0.12,-0.38,1721201372911
-0.06,0.91,9.17,0.38,-0.05,-0.42,1721201372921
-1.51,-1.57,7.37,0.19,0.10,-0.51,1721201372931
-1.82,-1.71,14.85,0.12,0.05,-0.41,1721201372941
-1.99,-1.09,8.67,0.32,-0.06,-0.32,1721201372951
-1.40,-2.09,7.87,0.28,-0.02,-0.38,1721201372961
-2.40,-3.59,8.81,0.11,-0.04,-0.41,1721201372971
-3.86,-2.75,8.83,0.17,0.01,-0.40,1721201372981
-1.24,-0.90,11.18,0.09,0.12,-0.30,1721201372991
-1.41,0.16,9.76,0.15,-0.14,-0.36,1721201373001
-1.12,1.51,11.22,0.09,0.09,-0.44,1721201373011
-0.98,1.58,10.65,0.14,-0.12,-0.40,1721201373021
-1.70,-0.87,10.68,0.03,-0.03,-0.42,1721201373031
-2.96,2.47,10.75,0.24,-0.15,-0.37,1721201373041
-2.36,-2.95,6.56,0.00,-0.10,-0.34,1721201373051
-0.47,4.50,17.50,0.13,-0.06,-0.25,1721201373061
1.27,0.66,4.71,0.27,-0.24,-0.14,1721201373071
1.92,3.28,9.39,-0.09,0.13,-0.35,1721201373081
1.50,0.83,13.39,-0.00,-0.31,-0.65,1721201373091
-1.48,0.57,6.38,0.15,-0.16,-0.59,1721201373101
-1.82,2.09,7.81,-0.02,0.08,-0.43,1721201373111
-3.32,-0.88,8.68,-0.11,-0.27,-0.33,1721201373121
-2.35,3.49,11.98,0.05,0.02,-0.25,1721201373131
1.83,0.48,7.88,-0.03,-0.09,-0.22,1721201373141
-0.73,0.77,12.34,-0.24,-0.15,-0.31,1721201373151
-1.43,4.54,11.27,0.07,-0.06,-0.46,1721201373161
-1.34,-2.65,5.77,-0.24,-0.16,-0.44,1721201373171
-4.81,-4.09,9.43,-0.17,-0.23,-0.20,1721201373181
-1.23,-1.81,11.40,-0.05,0.01,-0.03,1721201373191
-1.53,-3.37,7.53,-0.08,-0.36,-0.07,1721201373201
0.32,-2.65,10.38,-0.12,0.08,-0.32,1721201373211
2.53,-6.16,10.96,-0.13,-0.22,-0.32,1721201373221
-2.25,-1.30,9.92,-0.09,-0.14,-0.37,1721201373231
-1.98,2.95,13.04,-0.13,0.13,-0.45,1721201373241
-2.42,-5.93,12.18,-0.20,-0.31,-0.31,1721201373251
-1.80,-1.80,12.22,0.01,0.00,-0.07,1721201373261
4.20,-1.43,12.27,-0.05,0.10,-0.08,1721201373271
-1.18,-2.31,9.55,-0.13,-0.46,-0.35,1721201373281
3.22,-1.47,13.89,0.01,0.30,-0.48,1721201373291
4.27,-4.64,10.58,-0.03,-0.18,-0.30,1721201373301
-2.02,-0.87,9.17,0.05,-0.11,-0.34,1721201373311
2.52,-2.28,13.55,0.11,0.28,-0.54,1721201373321
3.32,-7.63,7.32,0.06,-0.27,-0.29,1721201373331
0.03,-0.14,11.47,0.10,0.21,-0.41,1721201373341
0.48,-2.61,12.87,0.11,-0.04,-0.55,1721201373351
0.24,-1.15,10.38,0.09,0.14,-0.53,1721201373361
2.51,-5.90,9.17,0.05,0.15,-0.35,1721201373371
-1.07,-0.81,10.61,0.04,0.21,-0.57,1721201373381
-1.93,-1.25,8.12,0.17,-0.13,-0.48,1721201373391
-0.67,-3.74,11.17,0.03,0.21,-0.30,1721201373401
1.70,-0.51,16.81,0.17,0.35,-0.25,1721201373411
1.86,1.87,8.44,0.22,0.11,-0.23,1721201373421
-0.11,-1.82,7.28,-0.02,0.16,-0.25,1721201373431
1.38,1.33,12.86,0.19,0.31,-0.38,1721201373441
2.35,-0.02,10.69,0.11,0.24,-0.52,1721201373451
-1.85,1.74,9.82,0.19,-0.00,-0.42,1721201373461
-2.64,0.34,4.86,0.11,0.26,-0.46,1721201373471
-1.31,2.21,10.62,0.04,0.39,-0.41,1721201373481
-1.74,0.37,11.79,0.01,0.13,-0.31,1721201373491
-1.29,1.16,10.60,0.10,0.20,-0.19,1721201373501
1.09,1.85,8.68,0.04,0.37,-0.30,1721201373511
1.77,1.32,12.45,-0.07,0.26,-0.47,1721201373521
-0.17,2.75,9.18,0.08,0.18,-0.55,1721201373531
-1.37,-0.43,6.13,-0.15,0.26,-0.41,1721201373541
-1.05,0.30,13.92,-0.07,0.33,-0.36,1721201373551
-0.41,-2.99,7.30,-0.06,0.07,-0.21,1721201373561
1.70,2.23,14.85,-0.14,0.45,-0.25,1721201373571
2.47,1.08,7.85,0.03,0.12,-0.39,1721201373581
1.58,-4.52,5.96,-0.35,0.32,-0.52,1721201373591
-0.13,-0.85,15.15,-0.20,0.22,-0.62,1721201373601
-0.28,-2.66,5.19,-0.03,0.19,-0.39,1721201373611
-0.06,1.94,12.75,-0.29,0.59,-0.46,1721201373621
-0.41,1.44,13.62,0.02,0.10,-0.46,1721201373631
-0.65,-3.01,5.00,-0.23,0.42,-0.42,1721201373641
-2.56,-1.99,16.04,-0.23,0.30,-0.56,1721201373651
-1.84,0.93,11.18,0.18,0.27,-0.44,1721201373661
-0.98,2.08,3.39,-0.07,0.42,-0.46,1721201373671
-0.40,1.54,17.13,-0.14,0.42,-0.54,1721201373681
-4.18,-4.38,8.89,0.13,0.12,-0.53,1721201373691
-3.06,-5.98,7.07,-0.21,0.43,-0.41,1721201373701
-1.15,-2.42,14.80,-0.00,0.28,-0.35,1721201373711
-2.18,-0.06,8.69,0.08,0.24,-0.36,1721201373721
-3.49,-6.45,7.77,0.00,0.25,-0.45,1721201373731
-3.86,-4.75,13.55,0.09,0.31,-0.34,1721201373741
-4.39,-3.12,12.18,0.05,0.33,-0.24,1721201373751
-3.44,1.77,11.77,0.18,0.12,-0.17,1721201373761
-1.29,-0.90,10.26,0.05,0.24,-0.23,1721201373771
-2.26,1.82,12.43,0.25,0.05,-0.23,1721201373781
-1.88,-1.13,5.19,-0.00,0.17,-0.20,1721201373791
-3.10,3.45,15.31,0.13,0.15,-0.18,1721201373801
-2.38,1.32,6.49,0.29,-0.03,-0.13,1721201373811
-2.75,3.48,10.33,0.07,0.26,-0.11,1721201373821
-3.02,5.83,9.56,0.28,-0.09,-0.15,1721201373831
-2.07,-0.06,7.49,0.07,0.06,0.01,1721201373841
-0.85,1.41,13.91,0.23,0.02,0.18,1721201373851
-0.30,0.97,6.34,0.19,0.01,0.13,1721201373861
1.24,5.15,12.62,0.09,0.12,-0.07,1721201373871
1.48,1.40,8.70,0.16,-0.13,-0.13,1721201373881
-1.92,0.62,8.43,-0.01,0.09,-0.15,1721201373891
-3.78,-0.14,11.10,0.04,-0.08,-0.07,1721201373901
-4.30,0.70,7.15,0.07,-0.10,0.20,1721201373911
-1.21,0.47,8.90,-0.01,0.05,0.36,1721201373921
1.89,-0.34,11.62,-0.03,0.02,0.28,1721201373931
1.18,-0.57,11.86,-0.08,-0.08,0.16,1721201373941
1.03,1.20,9.54,-0.10,0.01,0.05,1721201373951
-0.84,-1.65,9.99,-0.11,-0.15,0.04,1721201373961
-2.57,-2.79,7.37,-0.16,-0.11,0.14,1721201373971
-1.86,-4.92,13.04,-0.26,0.12,0.22,1721201373981
-1.90,0.55,12.75,-0.04,-0.17,0.31,1721201373991
-0.11,-3.10,4.42,-0.06,-0.13,0.39,1721201374001
1.93,-4.66,10.42,-0.29,0.04,0.34,1721201374011
3.74,-1.94,14.97,-0.13,0.04,0.21,1721201374021
2.79,-5.05,6.42,-0.18,-0.11,0.04,1721201374031
0.23,-3.31,12.29,-0.27,0.05,0.02,1721201374041
-0.68,-2.79,8.30,-0.08,-0.19,0.09,1721201374051
1.44,-5.60,10.19,-0.32,0.26,0.04,1721201374061
1.29,-0.55,14.88,-0.07,-0.00,-0.01,1721201374071
1.52,-3.89,7.91,-0.17,-0.03,-0.06,1721201374081
0.17,0.64,13.92,-0.08,0.14,-0.05,1721201374091
-1.38,-1.28,9.12,-0.03,-0.05,-0.08,1721201374101
-0.52,2.40,11.99,-0.07,0.28,-0.08,1721201374111
1.57,1.36,12.45,0.09,-0.04,0.01,1721201374121
2.57,2.79,11.67,0.01,0.27,-0.04,1721201374131
1.06,4.56,8.95,0.27,-0.07,-0.17,1721201374141
0.99,2.61,13.29,0.17,0.17,-0.34,1721201374156
0.48,3.95,14.64,0.31,0.14,-0.39,1721201374160
-1.54,2.23,8.08,0.33,0.07,-0.29,1721201374170
-3.10,1.67,11.16,0.24,0.21,-0.16,1721201374180
-2.35,3.80,11.48,0.41,0.08,0.02,1721201374190
1.25,0.14,7.73,0.27,0.25,0.11,1721201374200
2.38,2.03,11.76,0.23,0.22,-0.01,1721201374210
3.22,2.97,8.81,0.27,0.20,-0.24,1721201374220
1.42,1.79,6.29,0.15,0.12,-0.37,1721201374230
-0.51,0.67,11.74,0.02,0.26,-0.39,1721201374240
-1.92,-0.03,10.35,0.18,0.16,-0.22,1721201374250
-1.52,-1.33,7.47,-0.06,0.26,-0.08,1721201374260
-0.66,1.67,13.35,0.05,0.23,-0.07,1721201374270
0.90,0.25,7.91,0.00,0.19,-0.05,1721201374280
1.83,-1.48,11.65,-0.17,0.27,-0.11,1721201374290
1.81,-3.57,11.65,-0.01,0.20,-0.22,1721201374300
1.12,-3.02,5.79,-0.04,0.25,-0.19,1721201374310
0.10,-2.77,10.66,-0.22,0.25,-0.35,1721201374320
-2.02,-3.16,10.01,-0.02,0.10,-0.33,1721201374330
-0.97,-3.53,10.27,-0.11,0.35,-0.28,1721201374340
-3.48,-1.25,12.48,-0.02,0.15,-0.31,1721201374350
-4.46,-3.44,7.54,-0.18,0.26,-0.20,1721201374360
-4.48,-5.50,9.11,-0.23,0.25,-0.05,1721201374370
-3.58,-3.61,11.58,-0.11,0.17,0.08,1721201374380
-2.97,-6.64,9.94,-0.14,0.04,0.20,1721201374390
-1.23,-3.91,9.62,0.02,0.29,0.21,1721201374400
0.76,-2.90,13.27,-0.06,0.11,0.11,1721201374410
-0.39,2.04,11.88,-0.09,0.08,0.04,1721201374420
-1.75,-2.10,10.98,-0.05,0.12,-0.03,1721201374430
-3.13,-3.75,8.43,-0.06,-0.09,0.08,1721201374440
-1.27,-4.05,9.48,-0.05,0.13,0.22,1721201374450
-1.11,6.05,11.21,0.11,0.09,0.26,1721201374460
-0.37,4.22,10.34,0.12,-0.05,0.10,1721201374470
-2.68,3.31,10.63,0.01,-0.09,0.05,1721201374480
-3.01,3.19,9.08,0.12,-0.03,0.16,1721201374490
0.82,1.36,10.30,0.08,0.12,0.49,1721201374500
2.66,2.98,9.27,0.26,-0.03,0.39,1721201374510
4.47,2.61,8.33,0.13,0.11,0.11,1721201374520
2.91,4.61,13.34,0.09,0.05,-0.17,1721201374530
-2.58,6.95,9.23,0.03,-0.01,-0.47,1721201374540
-7.96,0.10,10.53,-0.03,-0.21,-0.35,1721201374550
-9.86,4.66,10.12,0.28,-0.07,0.34,1721201374560
-2.73,-4.94,2.82,0.06,0.16,0.72,1721201374570
1.43,3.98,12.77,0.13,-0.15,0.73,1721201374580
8.99,-17.34,10.40,-0.14,-0.26,1.12,1721201374590
12.03,6.25,14.92,-0.01,0.69,0.13,1721201374600
5.73,0.30,10.78,-0.28,-0.72,-0.85,1721201374610
-6.48,-1.22,13.53,-0.17,-0.24,-1.39,1721201374620
-16.39,-8.47,5.13,0.14,-0.49,-0.66,1721201374630
-20.59,-4.76,6.24,-0.07,0.14,0.85,1721201374640
-11.60,3.67,12.57,-0.09,-0.09,2.04,1721201374650
7.59,-1.32,14.19,-0.12,0.32,2.10,1721201374660
17.04,-3.95,14.12,-0.17,0.37,1.31,1721201374670
18.08,-0.21,7.56,-0.05,-0.25,0.13,1721201374680
9.82,4.66,7.57,-0.26,-0.10,-1.06,1721201374690
0.42,2.76,13.03,-0.23,-0.95,-1.23,1721201374700
-9.04,-5.47,8.47,-0.12,0.05,-0.96,1721201374710
-13.37,-2.84,11.38,-0.16,-0.16,0.21,1721201374720
-8.58,-3.85,10.15,-0.20,0.06,0.99,1721201374730
0.89,1.17,13.81,-0.05,0.08,0.92,1721201374740
4.74,2.89,8.23,0.07,-0.07,0.65,1721201374750
8.00,2.67,9.81,-0.19,0.18,0.13,1721201374760
3.10,4.62,13.34,-0.04,-0.30,-0.19,1721201374770
2.77,-2.20,7.87,-0.03,-0.01,-0.26,1721201374780
0.32,-6.57,8.73,-0.15,-0.10,-0.05,1721201374790
-1.01,2.66,13.82,0.16,0.01,0.02,1721201374800
1.29,-0.99,9.04,0.16,-0.13,0.06,1721201374810
-0.17,1.93,10.47,0.06,0.01,0.10,1721201374820
2.47,2.15,9.55,0.11,0.02,0.04,1721201374830
0.90,0.40,11.93,-0.09,0.07,-0.16,1721201374840
-1.63,0.30,8.72,0.24,-0.13,-0.10,1721201374850
0.44,-5.45,5.29,-0.06,0.12,-0.12,1721201374860
-1.97,0.53,12.69,0.14,-0.03,-0.06,1721201374870
0.53,-2.57,8.77,0.06,0.04,-0.05,1721201374880
-0.15,3.29,12.11,0.12,-0.01,-0.01,1721201374890
1.37,3.25,9.71,0.14,0.12,-0.08,1721201374900
0.74,-2.58,9.90,-0.09,-0.01,-0.30,1721201374910
-2.27,-0.83,10.35,0.06,0.02,-0.28,1721201374920
-0.65,-0.87,11.43,-0.01,0.13,-0.13,1721201374930
-2.89,1.69,9.86,0.12,-0.16,0.01,1721201374940
-0.01,1.72,7.15,0.13,0.17,-0.03,1721201374950
1.38,-4.01,10.03,-0.06,-0.01,-0.15,1721201374960
-1.76,-0.40,11.24,0.05,0.02,-0.26,1721201374970
-0.41,3.71,11.60,0.14,0.21,-0.19,1721201374980
0.24,0.47,9.43,0.06,-0.05,-0.05,1721201374990
-0.68,-0.31,8.88,0.09,0.08,0.02,1721201375000
1.78,0.55,11.61,0.07,0.22,-0.21,1721201375010
-0.45,-0.50,10.55,0.03,-0.10,-0.28,1721201375020
-3.04,7.58,12.73,0.20,0.15,-0.19,1721201375030
-1.19,0.68,7.38,0.13,-0.01,0.01,1721201375040
-0.75,-3.07,10.12,0.01,0.15,0.04,1721201375050
0.11,-2.05,12.36,0.03,0.10,-0.03,1721201375060
0.15,3.68,13.90,0.06,0.04,-0.09,1721201375070
0.24,0.28,8.50,0.11,-0.03,-0.05,1721201375080
-0.41,5.82,7.09,0.29,0.14,-0.12,1721201375090
-0.06,-2.13,6.89,-0.10,0.08,-0.21,1721201375100
-3.39,2.37,11.63,0.04,-0.09,-0.01,1721201375110
-0.60,-0.56,9.39,-0.00,0.26,0.04,1721201375120
-0.29,0.94,11.11,0.07,-0.07,0.05,1721201375130
0.40,1.07,7.01,0.00,0.08,0.09,1721201375140
1.24,0.55,10.74,-0.11,0.02,-0.05,1721201375150
0.17,2.15,12.26,0.02,0.01,-0.20,1721201375160
-0.48,-6.46,8.94,-0.27,0.06,-0.14,1721201375170
-2.21,3.80,12.60,0.17,-0.02,-0.05,1721201375180
2.15,0.83,5.11,-0.07,0.17,0.04,1721201375190
-0.75,3.66,11.01,-0.13,-0.07,-0.04,1721201375200
0.53,-5.07,7.03,-0.11,0.04,-0.12,1721201375210
-0.18,-2.23,13.88,-0.25,0.15,-0.20,1721201375220
-1.85,2.02,10.80,0.10,-0.17,-0.12,1721201375230
0.02,1.97,7.31,-0.16,0.31,-0.02,1721201375240
-1.33,-5.00,10.69,-0.11,-0.11,-0.04,1721201375250
-1.81,-2.58,10.50,-0.13,0.26,-0.16,1721201375260
-0.56,-1.02,13.47,-0.17,0.04,-0.07,1721201375270
-1.06,6.71,12.81,-0.03,0.11,-0.06,1721201375280
0.80,-4.10,1.96,-0.01,-0.03,-0.06,1721201375290
0.87,-6.61,13.63,-0.28,0.32,-0.10,1721201375300
-0.74,5.85,15.46,0.03,-0.04,-0.13,1721201375310
-2.77,4.27,8.39,-0.00,0.12,-0.10,1721201375320
-1.86,-2.01,11.28,-0.05,-0.02,-0.00,1721201375330
-0.19,-0.13,8.29,0.07,0.06,0.02,1721201375340
-0.53,-1.50,8.61,-0.10,0.15,-0.03,1721201375350
0.05,-0.91,12.19,0.01,-0.08,-0.07,1721201375360
-1.57,2.25,12.11,0.04,-0.01,-0.10,1721201375370
-1.28,1.01,11.15,-0.01,0.01,0.04,1721201375380
0.23,6.80,13.21,0.15,0.10,0.03,1721201375390
0.36,-5.65,3.22,0.02,-0.14,-0.01,1721201375400
0.10,-2.37,11.88,-0.16,0.26,-0.06,1721201375410
-0.67,2.75,16.09,0.05,-0.14,-0.07,1721201375420
-3.22,-1.02,7.73,0.16,-0.14,0.06,1721201375430
-0.37,0.73,11.68,-0.07,0.13,0.18,1721201375440
0.33,0.89,10.34,0.18,-0.09,0.21,1721201375450
0.59,-1.91,5.82,0.05,0.02,0.01,1721201375460
1.48,5.67,16.59,0.14,0.15,-0.06,1721201375470
2.72,2.10,8.51,0.19,-0.18,0.09,1721201375480
0.64,-0.98,10.08,-0.04,0.13,0.03,1721201375490
-0.36,3.04,11.83,0.23,-0.12,-0.09,1721201375500
-1.02,-3.39,5.09,-0.05,0.01,-0.08,1721201375510
-1.78,4.73,16.54,0.03,0.11,-0.06,1721201375520
-0.32,0.57,5.71,0.30,-0.22,0.16,1721201375530
2.21,-4.83,9.82,-0.30,0.29,0.08,1721201375540
1.40,2.84,17.82,0.17,-0.16,-0.08,1721201375550
-0.79,-0.45,2.52,0.15,-0.06,-0.14,1721201375560
-1.70,2.44,11.74,0.06,0.09,-0.02,1721201375570
-0.93,-3.61,9.53,0.12,-0.15,0.09,1721201375580
-1.18,2.49,8.29,0.24,0.04,0.08,1721201375590
1.31,-0.58,8.27,-0.03,0.08,-0.03,1721201375600
0.11,0.71,16.98,-0.04,-0.00,-0.18,1721201375610
-2.08,1.88,6.80,0.27,-0.21,-0.23,1721201375620
-0.95,-1.89,10.98,-0.07,0.23,-0.12,1721201375630
-2.50,0.05,10.13,0.18,-0.26,0.07,1721201375640
0.11,2.28,13.15,0.03,0.27,0.02,1721201375650
-0.14,4.05,11.36,0.21,-0.29,-0.04,1721201375660
-0.59,-2.72,4.43,0.05,0.03,-0.03,1721201375670
0.15,3.14,14.68,0.09,0.11,-0.08,1721201375680
-0.00,-2.22,7.64,0.08,-0.25,-0.09,1721201375690
-0.76,3.29,11.68,0.16,0.16,-0.10,1721201375700
1.78,0.20,8.17,0.07,-0.00,-0.06,1721201375710
-0.48,-2.26,9.48,-0.09,-0.05,-0.11,1721201375720
-0.34,-0.89,14.24,0.05,0.12,-0.15,1721201375730
-0.91,2.04,8.54,0.15,-0.08,-0.13,1721201375740
-0.57,0.01,7.73,-0.07,0.11,-0.09,1721201375750
0.04,1.53,13.26,0.14,0.03,0.02,1721201375760
1.14,-1.14,9.44,-0.04,0.11,-0.02,1721201375770
-2.77,4.74,8.52,0.11,-0.21,-0.09,1721201375780
-0.42,-1.33,10.70,-0.22,0.23,-0.10,1721201375790
-1.78,-0.25,10.75,0.05,-0.33,0.07,1721201375800
0.40,-2.57,7.56,-0.23,0.27,0.11,1721201375810
0.40,2.12,13.75,0.00,-0.15,0.04,1721201375820
1.39,-1.75,7.83,-0.10,0.12,-0.05,1721201375830
-0.19,3.89,12.63,-0.05,0.05,-0.11,1721201375840
-0.82,-0.88,9.75,-0.15,0.03,-0.12,1721201375850
-3.85,1.55,10.97,-0.20,-0.06,-0.16,1721201375860
-0.71,-2.29,8.97,-0.16,0.02,0.07,1721201375870
-0.33,-1.12,10.84,-0.19,0.07,0.18,1721201375880
0.27,0.33,9.48,-0.08,-0.05,0.07,1721201375890
1.34,-2.67,9.79,-0.25,0.09,-0.06,1721201375900
0.02,1.96,11.26,-0.13,-0.08,-0.10,1721201375910
-0.50,-1.85,9.38,-0.15,-0.02,-0.13,1721201375920
-1.98,0.61,7.47,-0.09,-0.04,-0.08,1721201375930
-1.35,-2.69,9.90,-0.21,0.02,0.11,1721201375940
-0.53,1.64,13.28,-0.13,0.02,0.03,1721201375950
0.75,-1.00,10.18,-0.07,-0.14,-0.04,1721201375960
-0.59,-1.81,6.20,-0.15,0.00,-0.03,1721201375970
-0.09,2.22,14.55,-0.15,0.16,-0.06,1721201375980
-0.56,-0.72,12.15,-0.04,-0.17,0.05,1721201375990
-0.37,-1.22,7.52,-0.13,0.15,-0.12,1721201376000
0.39,-0.05,14.94,-0.02,0.02,-0.08,1721201376010
-1.42,3.55,11.09,0.14,-0.15,-0.06,1721201376020
0.68,-1.11,6.82,0.04,0.16,0.06,1721201376030
0.65,3.32,12.66,0.05,0.05,0.01,1721201376040
-1.17,-0.44,8.84,0.16,-0.24,-0.07,1721201376050
0.47,1.24,12.28,0.04,0.24,-0.20,1721201376060
0.96,0.65,10.29,0.16,-0.17,-0.09,1721201376070
-0.13,-3.94,8.68,-0.00,0.05,-0.17,1721201376080
-2.31,1.49,11.30,0.23,-0.11,-0.22,1721201376090
-0.17,0.98,9.82,0.13,0.20,-0.14,1721201376100
-1.76,-0.55,9.91,0.07,-0.16,0.00,1721201376110
-1.03,1.19,9.36,0.12,0.13,-0.09,1721201376120
1.80,-5.05,9.46,0.05,-0.05,-0.07,1721201376130
0.01,0.42,11.81,0.10,0.11,-0.14,1721201376140
0.41,-0.96,10.75,0.10,-0.03,-0.22,1721201376150
-0.42,-1.31,8.09,0.05,-0.11,-0.04,1721201376165
1.39,-3.18,9.90,0.01,0.23,-0.05,1721201376170
-0.32,1.67,11.92,0.01,-0.09,-0.10,1721201376180
-0.87,-1.59,6.93,0.12,-0.02,-0.13,1721201376190
0.79,-0.46,12.47,-0.02,0.25,-0.16,1721201376200
-0.34,2.04,10.65,0.21,-0.10,-0.16,1721201376210
1.09,-0.19,10.38,-0.01,0.28,-0.12,1721201376220
-2.98,2.92,8.16,0.20,-0.15,-0.02,1721201376230
2.69,5.72,11.39,0.12,0.54,-0.20,1721201376240
2.26,-0.23,10.04,0.06,-0.30,-0.23,1721201376250
-2.15,-3.01,3.45,0.08,0.17,-0.27,1721201376260
-0.29,0.81,15.47,-0.04,0.42,-0.38,1721201376270
-3.85,2.15,14.20,0.21,-0.25,-0.16,1721201376280
-4.00,-0.73,5.69,0.08,0.23,0.03,1721201376290
0.07,4.54,12.82,0.10,0.21,-0.04,1721201376300
0.04,-0.93,7.34,0.03,-0.09,-0.20,1721201376310
-1.74,0.54,13.59,-0.01,0.27,-0.22,1721201376320
-1.76,4.39,7.79,0.29,-0.04,-0.03,1721201376330
-1.35,-2.27,2.61,-0.13,0.15,0.04,1721201376340
0.47,-2.15,11.11,-0.11,0.15,-0.04,1721201376350
1.37,1.88,14.81,0.03,0.13,-0.30,1721201376360
-2.44,2.75,8.71,0.07,-0.22,-0.34,1721201376370
-4.54,3.24,6.03,0.09,0.06,-0.09,1721201376380
-0.84,-2.67,6.06,-0.06,0.13,0.17,1721201376390
0.53,-4.78,16.81,-0.26,0.12,0.02,1721201376400
0.46,5.97,14.27,0.32,-0.14,-0.02,1721201376410
1.85,-1.19,0.68,-0.10,0.10,-0.05,1721201376420
-0.47,2.86,12.12,-0.16,0.07,-0.09,1721201376430
0.05,-2.99,12.19,-0.19,-0.03,-0.11,1721201376440
-1.76,-1.73,13.11,-0.17,0.03,0.01,1721201376450
-0.09,2.09,10.33,-0.02,0.04,0.03,1721201376460
-0.49,-1.68,6.29,-0.24,-0.05,-0.01,1721201376470
-0.59,-0.23,9.95,-0.14,0.04,0.05,1721201376480
1.10,-0.62,9.01,-0.15,0.09,0.03,1721201376490
0.33,0.52,11.59,-0.09,-0.02,-0.03,1721201376500
0.03,-2.46,12.57,-0.26,0.07,0.04,1721201376510
-0.33,2.46,11.20,-0.04,-0.05,0.14,1721201376520
0.73,0.68,10.51,-0.12,0.08,0.07,1721201376530
0.11,1.18,10.03,-0.01,-0.10,-0.07,1721201376540
1.65,3.01,11.56,0.00,0.15,-0.03,1721201376550
1.15,3.07,12.24,-0.02,0.05,-0.11,1721201376560
-0.44,-2.55,6.59,0.03,-0.01,-0.17,1721201376570
-1.10,-1.95,9.44,-0.01,0.16,-0.10,1721201376580
-1.23,3.95,12.66,0.18,-0.01,-0.02,1721201376590
-0.55,0.10,9.41,0.09,0.03,0.08,1721201376600
0.28,4.38,12.48,0.18,0.12,-0.02,1721201376610
1.21,0.07,7.68,0.11,-0.01,-0.15,1721201376620
0.08,-1.59,11.65,0.02,0.15,-0.22,1721201376630
-1.20,-2.90,10.91,0.17,-0.03,-0.16,1721201376640
-3.05,0.17,9.87,0.18,0.15,-0.12,1721201376650
-1.07,0.67,10.61,0.21,0.13,-0.00,1721201376660
1.07,0.50,10.02,0.24,0.11,0.07,1721201376670
1.57,-2.55,9.06,0.05,0.10,-0.06,1721201376680
1.50,7.97,15.23,0.32,0.14,-0.30,1721201376690
-0.86,-3.73,5.34,0.02,-0.12,-0.34,1721201376700
-4.89,-3.07,8.82,-0.09,0.11,-0.28,1721201376710
-3.69,-1.83,15.77,0.12,0.09,-0.04,1721201376720
-2.96,1.93,6.21,0.28,-0.09,0.12,1721201376730
1.66,3.41,11.35,0.04,0.34,0.00,1721201376740
1.38,-3.39,8.06,0.10,-0.12,-0.04,1721201376750
0.18,3.54,12.08,0.10,0.30,-0.28,1721201376760
-0.82,-0.57,9.68,0.02,-0.16,-0.33,1721201376770
-4.57,1.51,6.64,0.13,0.05,-0.17,1721201376780
-2.31,-1.28,8.20,-0.03,0.16,0.01,1721201376790
-0.01,2.00,10.26,0.17,0.05,0.08,1721201376800
2.10,-1.07,6.52,0.03,0.06,0.07,1721201376810
0.70,-1.61,9.36,-0.20,0.07,-0.22,1721201376820
-1.33,2.43,13.90,-0.01,0.04,-0.36,1721201376830
-2.16,-0.94,13.90,-0.01,0.11,-0.19,1721201376840
-4.56,-1.13,5.36,0.13,-0.23,0.17,1721201376850
1.17,1.59,8.58,-0.10,0.38,0.27,1721201376860
2.19,-3.20,18.25,-0.15,0.01,-0.10,1721201376870
-0.29,5.18,9.07,0.29,-0.15,-0.22,1721201376880
-0.23,-0.43,3.66,-0.17,0.14,-0.26,1721201376890
-3.62,-0.37,13.15,-0.11,-0.10,-0.19,1721201376900
-2.78,-0.19,10.54,0.04,0.09,0.08,1721201376910
-1.71,-0.25,9.79,-0.05,-0.08,0.27,1721201376920
1.38,2.19,9.45,-0.02,0.09,0.15,1721201376930
3.06,-0.78,12.99,-0.17,0.02,-0.06,1721201376940
-1.14,3.04,10.31,0.00,-0.13,-0.23,1721201376950
-1.28,-0.75,8.96,-0.17,0.16,-0.22,1721201376960
-4.02,0.53,14.43,-0.05,-0.10,-0.03,1721201376970
-3.32,2.49,7.65,0.02,-0.03,0.17,1721201376980
-0.11,2.47,9.46,-0.08,0.04,0.29,1721201376990
2.56,-2.64,12.79,-0.18,0.01,0.16,1721201377000
1.01,-1.08,10.42,-0.09,-0.05,-0.08,1721201377010
-1.12,2.63,9.84,-0.09,0.04,-0.21,1721201377020
-1.27,2.56,12.28,-0.05,-0.02,-0.02,1721201377030
-1.96,0.45,8.01,-0.04,-0.10,0.21,1721201377040
1.48,-0.51,10.24,-0.19,0.26,0.10,1721201377050
0.25,-2.33,10.38,-0.14,-0.20,-0.08,1721201377060
-2.41,-1.72,7.84,-0.19,0.01,-0.15,1721201377070
-2.42,0.65,11.32,-0.05,-0.06,0.01,1721201377080
-1.19,-0.96,6.13,0.06,-0.07,0.33,1721201377090
2.16,-0.98,7.39,-0.09,0.14,0.21,1721201377100
2.30,0.03,13.95,-0.18,-0.04,-0.08,1721201377110
-0.08,2.80,13.54,-0.06,-0.11,-0.22,1721201377120
-2.02,-1.68,8.17,-0.14,-0.09,-0.10,1721201377130
-2.08,0.05,10.40,-0.13,0.08,0.04,1721201377140
-1.26,-3.96,9.35,-0.12,-0.13,0.12,1721201377150
-1.58,-0.11,10.26,-0.03,-0.04,0.09,1721201377160
3.72,0.46,10.70,-0.02,0.14,0.10,1721201377170
0.66,0.45,12.13,-0.22,-0.10,0.03,1721201377180
-1.06,3.56,14.18,-0.03,0.00,-0.21,1721201377190
0.17,-4.12,7.68,0.05,-0.15,-0.17,1721201377200
-0.59,-0.69,9.57,-0.04,0.11,0.00,1721201377210
0.48,1.02,12.07,0.08,-0.09,0.08,1721201377220
-0.24,1.35,8.33,0.23,-0.03,0.03,1721201377230
1.84,-3.95,8.10,-0.05,0.12,-0.05,1721201377240
0.62,2.97,17.92,0.06,0.10,-0.20,1721201377250
0.04,4.21,13.44,0.31,-0.22,-0.18,1721201377260
-2.21,-2.90,3.04,0.19,-0.12,-0.02,1721201377270
0.01,0.94,10.52,0.15,0.33,-0.00,1721201377280
0.62,1.41,11.52,0.12,-0.20,-0.10,1721201377290
-1.07,-1.08,11.92,0.13,0.06,-0.16,1721201377300
1.04,0.02,11.61,0.18,0.13,-0.15,1721201377310
-0.29,0.37,8.40,0.16,-0.09,-0.00,1721201377320
-0.34,-0.55,9.57,0.10,0.10,-0.03,1721201377330
0.30,2.31,11.58,0.29,0.07,-0.10,1721201377340
0.81,-2.77,8.96,0.08,0.08,-0.06,1721201377350
-1.74,2.82,12.14,0.10,-0.07,-0.14,1721201377360
0.20,-0.61,9.73,0.15,0.07,-0.16,1721201377370
-0.04,-1.24,11.53,0.08,0.11,-0.08,1721201377380
-1.66,-0.87,9.15,0.15,-0.09,0.00,1721201377390
-0.29,0.22,7.72,0.20,0.22,-0.07,1721201377400
0.73,2.62,12.12,0.15,0.06,-0.21,1721201377410
-2.69,0.39,8.87,0.07,-0.19,-0.16,1721201377420
-2.44,-2.75,10.83,0.02,0.19,0.07,1721201377430
-0.55,-0.12,12.67,0.14,0.04,0.18,1721201377440
1.79,2.39,5.77,0.16,0.01,0.15,1721201377450
2.44,0.71,8.52,-0.06,0.10,-0.10,1721201377460
-0.83,-2.93,10.54,-0.16,0.00,-0.31,1721201377470
-3.08,3.18,13.99,0.09,0.05,-0.15,1721201377480
-0.83,-1.75,9.84,-0.13,0.01,0.15,1721201377490
-1.59,-0.29,9.40,-0.13,-0.11,0.22,1721201377500
1.97,2.77,9.17,0.05,0.20,0.10,1721201377510
3.95,2.04,10.72,-0.09,0.04,-0.11,1721201377520
-0.64,-1.36,5.28,-0.08,-0.27,-0.19,1721201377530
-0.21,0.80,13.65,-0.14,0.35,-0.18,1721201377540
-0.45,-1.13,14.61,-0.13,-0.20,0.06,1721201377550
-0.86,1.29,8.85,-0.08,0.05,0.06,1721201377560
3.83,1.05,11.81,-0.12,0.18,-0.08,1721201377570
1.54,-3.32,7.53,-0.21,-0.09,-0.21,1721201377580
-0.61,1.41,13.29,-0.17,0.19,-0.35,1721201377590
-1.65,0.27,8.48,-0.03,-0.07,-0.17,1721201377600
-0.41,-0.04,12.44,-0.19,0.28,-0.02,1721201377610
-0.31,0.23,9.47,0.07,-0.13,0.04,1721201377620
0.69,-1.83,7.81,-0.13,0.31,-0.03,1721201377630
0.12,-1.07,12.44,-0.15,0.05,-0.25,1721201377640
-0.76,1.76,9.66,0.05,0.04,-0.26,1721201377650
0.27,-0.79,7.66,-0.07,0.17,-0.14,1721201377660
-0.79,0.18,12.89,-0.07,0.15,-0.17,1721201377670
-0.83,1.12,10.24,0.08,0.06,-0.12,1721201377680
-0.34,-1.94,5.72,-0.09,0.12,-0.14,1721201377690
-0.65,2.32,13.33,0.01,0.18,-0.24,1721201377700
-1.47,1.72,11.21,0.04,0.02,-0.30,1721201377710
-1.77,0.52,11.21,-0.01,0.11,-0.20,1721201377720
-1.42,-0.74,10.57,-0.04,0.13,-0.02,1721201377730
-2.27,-0.08,6.47,0.14,0.00,-0.06,1721201377740
-0.40,-0.97,8.26,0.01,0.27,-0.13,1721201377750
-0.92,-2.57,8.80,0.08,0.03,-0.13,1721201377760
-0.67,2.72,12.53,-0.03,0.23,-0.19,1721201377770
-0.90,-2.05,12.39,0.05,0.01,-0.20,1721201377780
-0.82,0.28,13.63,-0.01,0.20,-0.06,1721201377790
-1.30,0.80,8.96,0.04,0.01,-0.03,1721201377800
-1.28,-4.51,7.64,0.06,0.12,-0.11,1721201377810
-0.50,0.96,11.39,0.07,0.19,-0.15,1721201377820
-1.08,1.39,11.64,0.05,0.09,-0.13,1721201377830
-1.88,2.21,12.11,0.08,0.03,-0.02,1721201377840
-0.06,4.23,12.22,0.09,0.17,-0.01,1721201377850
0.90,-1.83,9.11,0.11,0.04,0.09,1721201377860
0.35,0.65,10.73,0.04,0.20,-0.03,1721201377870
-0.45,-0.57,9.48,0.13,-0.08,-0.21,1721201377880
-1.55,1.53,8.65,0.08,0.13,-0.17,1721201377890
-2.46,-0.97,9.58,0.03,0.02,0.00,1721201377900
-1.59,-0.01,12.62,0.09,0.11,0.08,1721201377910
-0.82,1.37,8.87,0.16,-0.04,0.04,1721201377920
0.06,0.47,8.43,0.13,0.06,0.07,1721201377930
0.24,2.38,11.26,0.14,0.04,-0.03,1721201377940
-0.23,-0.50,9.76,0.12,-0.08,-0.09,1721201377950
-0.79,3.12,11.24,0.18,0.10,-0.02,1721201377960
-0.90,-2.32,10.17,0.05,0.01,0.02,1721201377970
-0.54,1.23,12.71,0.10,0.03,0.00,1721201377980
0.88,1.78,10.65,0.20,-0.03,0.02,1721201377990
0.70,-0.32,8.16,0.12,0.03,0.04,1721201378000
1.15,4.66,11.25,0.17,0.06,-0.15,1721201378010
0.18,0.72,8.43,0.12,-0.09,-0.14,1721201378020
-1.51,-0.61,7.04,0.03,0.05,-0.13,1721201378030
-2.47,-1.06,9.93,-0.06,0.02,-0.09,1721201378040
-3.03,0.91,11.73,0.03,-0.10,0.02,1721201378050
-1.29,1.78,9.42,0.09,0.01,0.20,1721201378060
-0.74,0.83,10.91,-0.06,0.01,0.11,1721201378070
-0.36,3.15,14.48,-0.02,-0.02,-0.02,1721201378080
-1.57,0.92,5.49,0.10,-0.24,0.01,1721201378090
-2.98,-1.72,5.56,-0.21,0.10,0.07,1721201378100
-1.88,-2.61,13.35,-0.12,-0.08,0.19,1721201378110
-0.39,-1.94,9.90,0.02,-0.10,0.31,1721201378120
1.88,1.05,14.11,-0.12,0.07,0.30,1721201378130
0.79,2.22,9.35,-0.02,-0.28,0.12,1721201378140
1.59,0.68,9.11,-0.17,0.16,-0.09,1721201378150
0.56,-3.55,11.03,-0.19,-0.23,-0.08,1721201378160
-1.63,-4.71,5.64,-0.09,-0.31,0.08,1721201378175
0.01,-1.80,9.11,-0.11,0.11,0.13,1721201378179
-1.36,1.75,10.27,-0.05,-0.24,0.23,1721201378189
1.52,1.06,11.92,-0.13,0.13,0.07,1721201378199
0.51,-1.61,13.40,-0.21,-0.24,-0.09,1721201378209
-1.52,-0.30,8.70,-0.10,0.01,-0.14,1721201378219
-1.22,-1.24,9.59,-0.21,-0.02,-0.03,1721201378229
-2.29,1.68,9.00,0.02,-0.22,0.24,1721201378239
2.26,1.06,9.23,-0.06,0.18,0.18,1721201378249
2.24,0.45,12.64,-0.24,-0.07,-0.03,1721201378259
0.78,3.97,13.42,-0.10,-0.03,-0.21,1721201378269
-0.70,-2.44,8.60,-0.06,-0.16,-0.20,1721201378279
-1.54,0.20,11.06,-0.10,0.06,-0.08,1721201378289
-0.20,2.46,12.10,0.10,-0.08,0.09,1721201378299
0.11,-0.87,7.81,0.01,-0.08,0.05,1721201378309
1.47,0.03,10.38,-0.02,0.06,-0.09,1721201378319
1.06,-0.64,10.25,0.04,-0.07,-0.18,1721201378329
-1.83,0.82,8.77,0.07,-0.12,-0.15,1721201378339
-1.28,-1.08,11.31,0.15,-0.07,0.05,1721201378349
1.27,0.53,9.52,0.16,0.07,0.17,1721201378359
0.96,0.70,10.56,0.05,-0.01,0.01,1721201378369
0.50,2.11,12.65,0.09,-0.01,-0.16,1721201378379
1.26,-1.04,12.04,0.03,0.02,-0.22,1721201378389
-1.26,-3.45,8.45,0.13,-0.17,-0.04,1721201378399
-1.49,-1.36,7.79,0.12,0.10,0.06,1721201378409
0.24,1.08,14.19,0.06,0.05,0.01,1721201378419
1.50,4.75,11.18,0.27,-0.09,0.03,1721201378429
1.89,-1.77,5.25,0.04,0.08,-0.13,1721201378439
0.05,-2.64,12.94,-0.06,0.09,-0.26,1721201378449
-2.75,-1.02,11.17,0.17,-0.14,-0.10,1721201378459
-1.23,1.65,10.29,0.13,0.17,0.15,1721201378469
0.32,-0.26,10.72,0.14,-0.10,0.18,1721201378479
2.35,2.91,9.45,0.23,0.12,-0.03,1721201378489
2.09,-0.35,8.03,0.09,-0.01,-0.17,1721201378499
-2.03,-0.90,11.81,-0.02,0.01,-0.24,1721201378509
-3.00,-0.65,13.08,0.16,-0.01,-0.08,1721201378519
-1.50,1.10,9.71,0.20,0.02,0.21,1721201378529
1.18,3.27,7.01,0.11,0.07,0.21,1721201378539
2.44,0.71,9.18,-0.08,0.07,-0.13,1721201378549
0.49,0.05,11.51,-0.02,-0.05,-0.39,1721201378559
-2.86,1.36,9.13,0.04,-0.03,-0.32,1721201378569
-2.91,0.43,8.89,-0.05,0.01,0.04,1721201378579
-1.07,-0.35,10.54,-0.02,-0.05,0.22,1721201378589
2.27,0.78,10.36,-0.03,0.09,0.07,1721201378599
2.85,0.76,9.04,-0.04,-0.04,-0.18,1721201378609
0.89,0.27,8.10,-0.09,-0.03,-0.27,1721201378619
-0.71,-0.49,11.65,-0.19,0.05,-0.28,1721201378629
-0.89,-0.26,12.61,-0.03,0.01,-0.11,1721201378639
0.66,1.40,8.20,-0.09,0.04,0.06,1721201378649
1.78,-0.05,11.82,-0.16,0.10,-0.03,1721201378659
1.69,-1.29,8.05,-0.14,-0.02,-0.30,1721201378669
-0.11,-0.59,11.18,-0.16,0.04,-0.38,1721201378679
-1.91,-1.56,12.35,-0.14,0.02,-0.28,1721201378689
-2.73,1.21,10.90,-0.06,0.04,-0.04,1721201378699
-0.80,-2.24,8.43,-0.22,0.12,0.10,1721201378709
1.23,1.24,11.97,-0.08,0.17,-0.04,1721201378719
2.56,-0.05,6.97,-0.05,-0.08,-0.12,1721201378729
0.64,-2.66,9.37,-0.21,0.16,-0.28,1721201378739
-1.50,0.07,13.00,-0.06,0.05,-0.38,1721201378749
-2.08,1.66,10.67,-0.05,0.07,-0.24,1721201378759
-1.20,3.15,12.69,-0.03,0.16,-0.11,1721201378769
-0.18,1.81,11.29,0.03,0.10,-0.10,1721201378779
-0.79,-2.26,8.37,-0.02,0.08,-0.17,1721201378789
-0.08,-2.41,9.02,-0.01,0.24,-0.26,1721201378799
-1.06,1.97,11.89,0.01,0.10,-0.31,1721201378809
-1.80,1.73,10.90,0.06,0.08,-0.29,1721201378819
-2.93,0.79,9.35,0.11,0.08,-0.20,1721201378829
-2.01,-0.17,11.79,-0.00,0.18,-0.06,1721201378839
-0.71,-0.28,11.05,0.16,0.09,-0.06,1721201378849
0.17,-1.57,7.06,0.05,0.09,-0.10,1721201378859
-0.91,0.17,10.93,0.05,0.12,-0.31,1721201378869
-1.67,0.71,12.33,0.20,0.02,-0.23,1721201378879
-2.37,1.54,7.62,0.16,0.08,-0.09,1721201378889
-0.51,-0.12,9.70,0.07,0.11,-0.01,1721201378899
0.11,-3.73,10.31,-0.04,0.02,-0.05,1721201378909
-0.82,2.43,13.63,0.09,0.11,-0.21,1721201378919
-1.70,2.60,9.41,0.13,-0.03,-0.17,1721201378929
-2.77,-1.98,7.92,0.00,0.00,-0.01,1721201378939
-1.01,0.65,11.97,0.11,0.06,0.03,1721201378949
-0.11,-2.19,6.35,0.02,-0.04,-0.02,1721201378959
-0.34,4.09,11.79,0.07,0.14,-0.12,1721201378969
-1.20,-0.92,9.31,0.05,-0.07,-0.09,1721201378979
-1.44,1.43,13.68,0.09,0.09,0.00,1721201378989
0.16,2.86,13.40,0.15,-0.03,0.03,1721201378999
-1.01,1.64,5.52,0.17,-0.10,-0.06,1721201379009
0.18,-1.29,8.62,-0.02,0.09,-0.08,1721201379019
-0.85,0.80,12.79,0.19,-0.15,-0.01,1721201379029
-0.27,1.11,10.56,0.24,0.08,0.02,1721201379039
0.92,3.15,11.21,0.18,-0.02,0.01,1721201379049
0.66,-0.23,6.83,0.05,-0.08,-0.03,1721201379059
0.20,1.80,13.44,-0.01,0.13,-0.19,1721201379069
-0.55,1.57,12.35,0.23,-0.09,-0.15,1721201379079
-2.36,1.23,4.98,0.17,-0.04,-0.01,1721201379089
-0.91,-1.45,9.34,-0.07,0.08,0.05,1721201379099
-0.49,-1.35,13.44,0.01,-0.07,0.01,1721201379109
0.13,2.13,9.57,0.12,0.08,0.01,1721201379119
-0.09,-0.32,7.14,-0.07,-0.11,-0.01,1721201379129
-0.81,0.91,8.71,0.00,-0.11,0.05,1721201379139
0.31,-0.44,7.69,-0.05,0.02,0.04,1721201379149
-0.18,1.28,13.35,-0.11,0.04,-0.10,1721201379159
-0.33,-0.85,9.53,-0.12,-0.05,-0.08,1721201379169
-2.46,0.53,11.89,-0.15,-0.01,-0.04,1721201379179
-0.89,-1.93,11.23,-0.16,0.02,0.09,1721201379189
-0.30,-2.34,9.84,-0.09,-0.10,0.14,1721201379199
0.52,-1.08,8.49,-0.12,0.08,0.05,1721201379209
1.23,1.52,9.69,-0.14,0.02,-0.05,1721201379219
-0.12,-1.19,7.97,-0.26,-0.09,-0.12,1721201379229
-1.03,-3.04,11.70,-0.20,0.02,-0.16,1721201379239
-1.49,-0.26,11.08,-0.15,-0.04,-0.12,1721201379249
-1.78,-1.04,10.97,-0.24,-0.01,-0.07,1721201379259
-1.34,0.54,11.08,-0.06,-0.07,0.13,1721201379269
0.74,-1.39,6.10,-0.15,0.05,0.13,1721201379279
0.52,0.11,11.45,-0.25,0.07,-0.11,1721201379289
-0.07,2.36,12.93,-0.07,-0.07,-0.20,1721201379299
0.24,0.31,11.09,-0.12,0.01,-0.12,1721201379309
-0.50,3.24,11.20,-0.01,-0.02,0.04,1721201379319
0.90,1.14,7.34,-0.05,0.06,0.04,1721201379329
1.13,-0.61,12.11,-0.12,0.07,-0.14,1721201379339
1.58,0.85,10.79,0.05,-0.02,-0.26,1721201379349
-0.23,-1.13,8.99,0.03,-0.04,-0.18,1721201379359
-0.58,-1.87,10.00,0.03,0.11,-0.06,1721201379369
0.60,4.70,16.35,0.13,0.20,-0.17,1721201379379
0.25,0.47,8.19,0.19,-0.14,-0.21,1721201379389
0.19,-2.73,8.15,0.04,0.21,-0.23,1721201379399
-0.72,1.10,13.34,0.17,0.07,-0.20,1721201379409
-1.22,2.14,9.21,0.24,0.08,-0.08,1721201379419
0.26,-1.97,10.81,0.09,0.23,0.01,1721201379429
1.52,1.15,11.24,0.19,0.11,-0.14,1721201379439
1.06,0.45,9.71,0.14,0.08,-0.33,1721201379449
-2.53,1.03,10.78,0.19,0.01,-0.29,1721201379459
-0.61,2.26,11.63,0.24,0.35,-0.14,1721201379469
-0.55,-2.05,9.47,0.16,-0.03,0.03,1721201379479
-1.75,-1.67,4.71,0.07,0.19,-0.10,1721201379489
1.22,-1.76,13.60,-0.00,0.33,-0.16,1721201379499
0.19,1.05,13.76,0.15,0.10,-0.13,1721201379509
-0.06,0.03,8.88,0.19,0.08,-0.07,1721201379519
-0.85,-2.00,6.11,0.14,0.11,-0.03,1721201379529
-0.11,7.97,14.46,0.23,0.37,-0.14,1721201379539
0.63,2.01,10.55,0.11,0.01,-0.25,1721201379549
-4.71,-2.89,6.60,-0.00,-0.11,-0.14,1721201379559
-2.23,-2.26,7.75,0.05,0.34,0.09,1721201379569
0.74,-2.27,11.98,-0.07,0.17,0.05,1721201379579
-0.48,2.47,12.66,0.13,0.10,-0.15,1721201379589
-0.18,3.30,6.90,0.16,0.10,-0.12,1721201379599
-0.79,0.01,11.35,-0.16,0.25,0.04,1721201379609
-0.53,1.77,13.49,0.06,0.10,-0.01,1721201379619
0.17,-0.84,7.44,-0.07,0.09,-0.06,1721201379629
-0.68,0.69,10.41,-0.08,-0.00,-0.01,1721201379639
0.87,-4.52,7.20,-0.01,0.10,0.08,1721201379649
0.64,0.86,10.16,-0.09,0.14,-0.03,1721201379659
1.02,1.09,11.10,-0.05,0.11,-0.09,1721201379669
1.41,-1.66,14.58,-0.24,0.22,-0.10,1721201379679
-0.29,0.34,10.09,0.06,-0.06,-0.05,1721201379689
0.32,2.22,5.47,-0.03,0.24,0.02,1721201379699
0.32,3.79,10.87,-0.09,0.15,-0.05,1721201379709
-0.09,-4.23,7.02,-0.14,0.05,-0.14,1721201379719
-0.78,-3.64,13.15,-0.33,0.29,-0.18,1721201379729
-1.37,-0.11,13.12,-0.11,0.02,-0.07,1721201379739
-1.28,-1.11,7.96,-0.13,0.19,0.10,1721201379749
0.04,4.63,14.49,0.05,0.16,0.16,1721201379759
0.65,-0.46,7.06,0.01,0.03,0.03,1721201379769
2.35,0.04,6.92,-0.17,0.22,-0.07,1721201379779
-0.69,-2.41,9.89,-0.23,0.00,-0.22,1721201379789
-2.23,1.34,13.30,-0.03,0.09,-0.26,1721201379799
-1.78,3.96,13.06,-0.05,0.16,-0.03,1721201379809
-2.95,-1.47,9.73,0.04,0.06,0.16,1721201379819
0.27,-4.65,7.20,0.10,0.21,0.22,1721201379829
3.90,4.55,13.57,-0.06,0.38,0.03,1721201379839
0.12,3.50,12.48,0.04,-0.05,-0.31,1721201379849
-4.56,-1.52,10.13,0.03,0.01,-0.29,1721201379859
-5.17,-2.82,6.02,0.04,0.02,0.10,1721201379869
-0.53,-5.39,7.40,-0.11,0.22,0.39,1721201379879
1.84,2.30,17.22,-0.08,0.17,0.13,1721201379889
0.67,1.76,14.84,0.11,-0.06,-0.21,1721201379899
-1.79,0.80,8.61,0.08,0.06,-0.15,1721201379909
-1.56,-0.39,9.73,0.09,0.12,0.04,1721201379919
-1.44,-1.69,7.77,0.03,0.06,0.19,1721201379929
-1.02,3.34,10.69,0.05,0.13,0.03,1721201379939
-0.40,-1.01,15.00,-0.01,0.04,-0.02,1721201379949
-1.54,-0.45,12.48,0.10,-0.04,0.04,1721201379959
-1.48,3.65,4.51,0.21,0.05,0.06,1721201379969
0.04,4.66,11.40,-0.01,0.11,0.10,1721201379979
0.19,4.35,13.29,0.27,-0.26,0.10,1721201379989
-0.73,-1.12,5.13,0.20,-0.04,0.10,1721201379999
-0.21,1.22,9.11,0.07,0.09,0.01,1721201380009
-0.21,3.92,14.93,0.14,-0.00,0.02,1721201380019
-1.72,-0.02,5.23,0.23,-0.21,0.09,1721201380029
-0.23,2.24,10.84,0.10,0.11,0.18,1721201380039
1.98,-0.02,13.79,0.20,-0.17,0.20,1721201380049
2.00,2.07,8.64,0.33,-0.02,0.01,1721201380059
2.25,2.57,7.65,0.17,0.06,-0.10,1721201380069
-1.57,3.70,10.59,0.10,-0.07,-0.17,1721201380079
-3.11,-2.74,8.94,0.07,-0.09,-0.06,1721201380089
-1.95,1.20,10.86,0.19,0.04,0.13,1721201380099
1.19,0.41,8.76,0.07,-0.05,0.20,1721201380109
0.38,0.36,9.17,-0.07,-0.14,0.11,1721201380119
-0.65,-0.56,10.52,-0.05,0.01,-0.02,1721201380129
-0.98,0.54,7.61,0.11,-0.00,-0.02,1721201380139
-0.07,-0.36,11.36,-0.16,0.16,-0.00,1721201380149
-2.08,2.47,9.48,0.05,-0.33,0.13,1721201380159
-1.42,0.38,8.16,-0.25,0.06,0.18,1721201380169
-0.23,1.22,12.67,0.12,-0.18,0.06,1721201380184
-0.48,-2.22,5.80,0.09,-0.18,0.10,1721201380188
-0.21,-1.61,7.02,-0.27,0.04,0.12,1721201380198
-0.11,2.61,13.46,-0.13,-0.02,-0.06,1721201380208
-0.34,0.98,11.50,-0.16,-0.05,0.01,1721201380218
-1.42,-0.92,10.24,-0.16,-0.18,0.18,1721201380228
-1.24,-3.42,3.45,-0.06,-0.23,0.28,1721201380238
1.77,-0.82,8.46,-0.19,0.09,0.11,1721201380248
0.86,0.02,11.88,-0.20,-0.19,0.01,1721201380258
-0.97,-0.45,9.24,-0.15,-0.08,-0.05,1721201380268
-0.96,-2.10,12.27,-0.18,0.08,-0.02,1721201380278
-0.73,-0.68,11.40,-0.15,-0.17,0.05,1721201380288
0.29,-4.99,11.11,-0.24,-0.06,0.14,1721201380298
0.30,7.24,14.21,-0.01,0.08,0.12,1721201380308
1.41,5.92,10.42,0.01,-0.17,-0.03,1721201380318
-0.51,-2.34,5.76,-0.04,-0.18,-0.10,1721201380328
2.04,-4.53,11.49,-0.17,0.22,-0.17,1721201380338
-1.40,1.21,12.21,0.08,-0.24,-0.05,1721201380348
-0.32,7.07,10.51,0.21,0.12,0.03,1721201380358
1.43,-3.84,5.80,-0.02,-0.23,0.17,1721201380368
0.15,0.10,12.60,-0.03,0.13,-0.15,1721201380378
3.05,0.26,17.87,0.09,0.07,-0.33,1721201380388
-2.25,-2.38,6.84,0.10,-0.32,-0.11,1721201380398
-1.79,0.14,7.51,0.13,0.30,0.01,1721201380408
1.69,-0.08,10.78,0.14,-0.02,0.03,1721201380418
1.07,3.98,13.02,0.18,0.03,-0.12,1721201380428
2.14,-0.51,9.76,0.13,-0.04,-0.18,1721201380438
-2.87,-2.71,8.87,-0.04,-0.05,-0.29,1721201380448
-2.98,1.56,14.50,0.10,0.23,-0.22,1721201380458
-2.05,2.15,8.95,0.21,-0.13,0.17,1721201380468
1.29,-3.21,4.02,0.06,0.12,0.30,1721201380478
6.28,-1.19,13.96,-0.03,0.27,-0.05,1721201380488
2.57,2.95,15.83,0.13,-0.15,-0.34,1721201380498
-3.04,4.82,5.70,0.19,-0.14,-0.32,1721201380508
-1.25,-4.06,8.54,-0.03,0.30,-0.15,1721201380518
-0.89,-0.77,13.74,0.09,0.11,-0.14,1721201380528
-3.97,0.35,7.32,0.13,-0.12,-0.01,1721201380538
-2.18,1.38,10.13,0.03,0.27,0.07,1721201380548
2.77,0.31,14.24,0.07,0.13,0.05,1721201380558
0.68,2.91,9.11,0.19,-0.09,-0.08,1721201380568
2.13,0.82,9.78,0.02,0.31,-0.24,1721201380578
-0.92,0.29,9.60,-0.06,-0.17,-0.27,1721201380588
-3.00,2.06,9.03,0.04,0.20,-0.14,1721201380598
0.38,0.24,11.04,0.01,0.18,0.01,1721201380608
-0.08,0.12,8.61,-0.01,-0.11,0.00,1721201380618
0.29,4.29,10.92,0.02,0.25,-0.11,1721201380628
1.26,0.94,9.74,-0.13,-0.04,-0.20,1721201380638
-2.21,-1.54,8.74,-0.08,0.00,-0.15,1721201380648
1.13,-4.63,8.65,-0.15,0.29,-0.02,1721201380658
0.41,1.53,13.02,-0.08,0.07,-0.13,1721201380668
0.10,2.35,9.09,0.02,0.09,-0.24,1721201380678
0.96,-2.19,12.09,-0.22,0.26,-0.17,1721201380688
-0.69,-0.79,14.30,-0.08,0.02,-0.09,1721201380698
-1.15,-3.23,5.94,-0.07,0.07,-0.07,1721201380708
-1.81,-0.23,6.36,-0.12,0.20,-0.26,1721201380718
-0.81,1.13,10.45,-0.10,0.18,-0.23,1721201380728
-1.41,-2.41,10.16,-0.16,0.07,-0.02,1721201380738
-1.00,-2.57,11.56,-0.18,0.19,0.13,1721201380748
0.36,0.69,14.66,-0.14,0.28,0.01,1721201380758
0.79,1.44,8.89,-0.02,-0.02,-0.11,1721201380768
1.24,0.27,7.88,-0.15,0.15,-0.24,1721201380778
-0.44,0.26,12.31,-0.05,-0.01,-0.19,1721201380788
-1.45,2.32,9.96,0.04,0.16,-0.11,1721201380798
-1.52,-2.09,8.21,-0.19,0.12,-0.05,1721201380808
-3.31,2.43,12.98,-0.06,0.07,-0.14,1721201380818
-0.76,2.56,10.69,0.06,0.10,-0.01,1721201380828
-0.06,-0.53,10.09,-0.04,0.19,0.08,1721201380838
-0.83,0.48,11.48,0.06,0.03,0.00,1721201380848
-0.26,-2.43,11.34,-0.05,0.09,-0.04,1721201380858
-0.55,-0.61,11.11,0.11,0.02,0.09,1721201380868
-0.85,1.38,11.03,-0.01,0.14,0.01,1721201380878
-2.32,1.12,9.53,0.17,-0.07,-0.02,1721201380888
-0.67,-1.84,7.64,-0.02,0.12,0.04,1721201380898
-0.25,5.12,14.26,0.19,0.05,0.09,1721201380908
0.40,-2.60,9.03,-0.01,-0.03,-0.02,1721201380918
-2.65,4.92,11.65,0.18,0.02,-0.03,1721201380928
-0.50,0.11,6.69,0.17,-0.06,0.02,1721201380938
-1.08,2.65,10.33,0.08,0.05,0.08,1721201380948
-0.80,-2.17,11.40,0.09,-0.10,0.05,1721201380958
-1.32,0.20,10.23,0.07,0.01,0.04,1721201380968
-1.06,1.40,9.70,0.13,-0.08,-0.07,1721201380978
-0.45,0.86,9.64,0.08,0.04,0.03,1721201380988
-1.08,1.68,11.40,0.25,-0.09,0.11,1721201380998
-0.64,-3.84,6.97,0.01,-0.08,0.04,1721201381008
-0.97,4.10,13.51,0.12,-0.06,0.05,1721201381018
0.29,1.05,10.60,0.19,-0.17,0.16,1721201381028
-0.53,-0.53,7.29,0.17,-0.09,0.11,1721201381038
1.08,0.33,8.62,0.10,-0.03,0.07,1721201381048
1.66,1.83,14.23,0.12,-0.01,0.00,1721201381058
0.94,-0.22,9.21,0.05,-0.16,-0.11,1721201381068
-0.83,-0.21,8.41,0.03,-0.09,-0.15,1721201381078
-0.24,-0.09,12.91,0.01,0.05,0.08,1721201381088
-1.16,3.30,11.89,0.19,-0.20,0.16,1721201381098
-0.81,3.14,2.41,0.09,-0.20,0.19,1721201381108
1.74,-3.06,9.73,-0.35,0.09,0.06,1721201381118
1.07,3.37,17.63,0.09,-0.17,-0.06,1721201381128
-0.80,-2.82,2.55,-0.15,-0.19,-0.01,1721201381138
-4.01,0.86,12.62,-0.24,-0.02,0.12,1721201381148
-0.09,-1.13,13.30,-0.03,-0.08,0.21,1721201381158
1.04,1.61,11.22,-0.14,-0.06,0.16,1721201381168
1.09,0.68,8.24,-0.01,-0.23,0.13,1721201381178
0.79,-0.94,6.32,-0.31,-0.00,-0.00,1721201381188
-1.19,1.40,11.09,-0.14,-0.14,-0.12,1721201381198
0.69,-0.18,10.41,-0.09,0.05,-0.14,1721201381208
-1.30,-4.39,10.27,-0.22,-0.36,-0.02,1721201381218
-2.98,-0.59,11.08,-0.13,-0.06,0.09,1721201381228
1.25,-1.70,11.93,-0.18,-0.00,0.10,1721201381238
-1.06,3.34,9.22,-0.00,-0.26,0.04,1721201381248
2.15,2.03,8.79,-0.05,0.08,0.00,1721201381258
1.78,-1.98,10.10,-0.15,-0.15,0.03,1721201381268
-0.76,-0.01,11.14,-0.14,-0.01,-0.15,1721201381278
-1.13,4.05,12.82,-0.08,-0.12,-0.20,1721201381288
-0.27,-1.12,10.12,-0.03,-0.17,-0.06,1721201381298
1.23,1.10,9.50,0.02,0.02,0.02,1721201381308
1.78,0.71,8.83,0.00,-0.01,-0.05,1721201381318
2.32,-1.09,11.89,-0.14,0.10,-0.34,1721201381328
-0.48,-0.39,13.65,0.04,-0.16,-0.32,1721201381338
-0.77,2.56,9.17,0.25,0.14,-0.12,1721201381348
1.32,0.30,8.20,0.11,-0.02,-0.02,1721201381358
-0.54,-5.03,7.48,0.05,-0.08,-0.11,1721201381368
2.12,1.51,15.65,0.10,0.39,-0.31,1721201381378
1.88,0.03,11.08,0.19,-0.19,-0.20,1721201381388
-1.18,-5.20,4.58,-0.04,0.15,-0.20,1721201381398
-0.12,4.19,16.28,0.13,0.36,-0.29,1721201381408
-0.08,1.54,9.98,0.13,-0.14,-0.23,1721201381418
-1.07,-4.50,5.32,-0.06,0.21,-0.11,1721201381428
-0.26,0.89,10.71,-0.05,0.28,-0.29,1721201381438
-1.88,-0.93,9.62,-0.10,-0.15,-0.15,1721201381448
-2.18,3.11,9.67,0.01,0.24,-0.08,1721201381458
1.78,2.59,10.07,0.08,0.13,0.03,1721201381468
1.15,-6.95,6.06,-0.24,0.08,-0.09,1721201381478
-1.64,2.01,13.59,-0.15,0.20,-0.32,1721201381488
-2.44,2.94,7.70,-0.00,-0.05,-0.12,1721201381498
-0.50,-2.34,8.95,-0.18,0.25,0.17,1721201381508
0.22,0.30,14.17,-0.01,0.03,0.11,1721201381518
-0.59,3.90,9.00,0.02,-0.03,0.07,1721201381528
-1.38,6.88,7.79,-0.03,0.13,-0.16,1721201381538
-1.39,-4.90,9.70,-0.25,-0.02,-0.18,1721201381548
-2.90,-1.45,11.54,-0.07,0.02,0.13,1721201381558
1.38,2.05,9.35,0.04,0.14,0.34,1721201381568
3.69,0.85,11.90,-0.13,0.20,0.02,1721201381578
3.38,-0.23,11.26,-0.09,0.01,-0.22,1721201381588
1.35,3.36,13.18,-0.03,0.20,-0.38,1721201381598
-2.71,3.29,11.40,0.05,-0.15,-0.23,1721201381608
-4.45,-2.23,6.72,-0.02,0.04,-0.05,1721201381618
-2.11,-4.69,10.34,-0.10,0.08,0.16,1721201381628
1.08,0.46,14.10,0.01,0.16,0.19,1721201381638
2.62,1.16,10.48,0.05,0.10,-0.02,1721201381648
1.35,2.72,14.26,-0.07,0.09,-0.19,1721201381658
-0.83,1.20,12.68,0.03,-0.12,-0.19,1721201381668
-1.56,-3.14,5.53,0.05,0.03,-0.04,1721201381678
0.46,1.08,12.51,-0.04,0.27,0.00,1721201381688
-1.12,0.84,9.84,0.20,-0.17,0.00,1721201381698
-1.66,-0.72,8.38,0.07,0.16,-0.11,1721201381708
-0.99,7.42,13.95,0.19,-0.05,-0.00,1721201381718
1.89,-0.00,6.57,0.31,0.09,0.18,1721201381728
0.78,-11.66,4.35,0.02,0.13,0.02,1721201381738
2.10,-3.53,16.57,0.07,0.31,-0.24,1721201381748
1.37,0.28,8.54,0.28,-0.13,-0.26,1721201381758
-0.49,-1.10,6.69,0.03,0.20,-0.30,1721201381768
-1.93,3.44,15.63,0.08,0.06,-0.46,1721201381778
-2.95,5.15,12.65,0.14,0.06,-0.36,1721201381788
-3.64,-3.21,4.67,-0.04,0.07,-0.14,1721201381798
-0.23,-1.78,6.02,-0.02,0.26,-0.05,1721201381808
-0.43,-0.58,11.59,-0.01,0.18,-0.13,1721201381818
-1.32,0.70,7.77,0.31,-0.06,-0.24,1721201381828
1.22,-1.70,11.64,-0.18,0.29,-0.37,1721201381838
-1.11,0.57,19.52,-0.10,0.04,-0.24,1721201381848
-3.72,1.44,4.49,0.24,0.02,-0.19,1721201381858
-3.00,-6.12,4.91,-0.20,0.11,-0.03,1721201381868
-1.95,3.17,13.89,0.07,0.17,-0.15,1721201381878
0.34,4.19,8.60,0.35,0.03,-0.22,1721201381888
-2.45,-0.12,3.48,0.04,0.07,-0.19,1721201381898
-2.39,1.90,14.71,-0.14,0.21,-0.16,1721201381908
-3.39,4.64,14.76,0.03,-0.02,-0.16,1721201381918
-3.18,1.96,5.95,0.19,0.02,0.16,1721201381928
-1.58,-5.98,6.13,-0.10,0.12,0.25,1721201381938
-0.17,-7.07,9.38,-0.09,-0.06,0.17,1721201381948
1.00,7.03,19.66,-0.00,0.28,-0.02,1721201381958
-1.56,1.20,8.41,0.11,-0.36,-0.03,1721201381968
-2.56,0.35,5.56,0.09,0.15,0.10,1721201381978
0.49,2.26,14.09,-0.10,-0.05,0.32,1721201381988
-0.22,2.99,6.71,0.11,-0.24,0.21,1721201381998
2.47,0.39,12.38,-0.24,0.22,0.06,1721201382008
-1.18,2.81,9.49,0.01,-0.40,-0.06,1721201382018
2.27,-2.11,5.54,0.01,0.17,0.06,1721201382028
1.64,-2.03,15.38,-0.30,0.03,0.00,1721201382038
-0.26,3.04,15.69,0.05,-0.07,-0.04,1721201382048
-0.69,8.39,6.64,0.11,-0.04,-0.09,1721201382058
-0.92,-1.85,3.72,-0.03,-0.20,0.00,1721201382068
0.02,-0.72,14.62,-0.16,0.16,0.07,1721201382078
-0.05,0.38,11.29,0.09,-0.30,0.15,1721201382088
-1.04,-2.05,4.07,-0.08,0.10,0.08,1721201382098
0.24,0.16,17.12,-0.15,0.07,0.14,1721201382108
0.67,3.67,10.55,0.17,-0.22,0.19,1721201382118
1.24,-1.44,8.05,-0.16,0.12,0.12,1721201382128
-0.58,-1.13,4.79,0.17,-0.21,-0.06,1721201382676
-0.63,-5.36,1.76,-0.14,0.00,-0.14,1721201382680
-0.86,-1.47,15.72,-0.14,0.19,-0.20,1721201382690
1.02,5.15,14.45,0.15,-0.14,-0.15,1721201382700
1.17,-0.92,8.73,-0.17,-0.01,-0.16,1721201382710
-1.07,0.36,9.20,-0.02,-0.15,-0.25,1721201382720
0.31,-0.01,9.22,-0.14,0.19,-0.42,1721201382730
-0.11,2.45,13.82,0.03,-0.12,-0.31,1721201382740
-2.67,-1.70,6.65,0.09,-0.10,-0.25,1721201382750
-2.77,2.09,9.88,0.13,0.02,-0.12,1721201382760
0.33,-2.37,10.76,-0.08,0.05,-0.09,1721201382770
-0.33,3.76,12.46,0.12,-0.08,-0.14,1721201382780
0.21,0.53,9.20,0.00,0.02,-0.39,1721201382790
-1.36,-1.47,13.15,-0.07,-0.13,-0.37,1721201382800
-1.41,-3.76,9.53,0.10,-0.03,-0.18,1721201382810
-1.19,-2.03,11.07,-0.05,0.23,-0.18,1721201382820
-1.33,4.57,9.27,0.20,-0.19,-0.25,1721201382830
1.38,2.01,10.07,0.11,0.16,-0.23,1721201382840
0.31,1.16,14.55,0.12,0.01,-0.33,1721201382850
-1.67,3.24,11.44,0.21,-0.06,-0.44,1721201382860
-3.34,-1.82,4.48,-0.08,-0.11,-0.39,1721201382870
-3.34,-1.90,12.36,-0.06,0.09,-0.20,1721201382880
-1.98,-3.69,9.72,0.08,-0.09,-0.01,1721201382890
-0.06,4.29,10.13,0.18,0.11,-0.03,1721201382900
1.91,3.25,9.41,0.12,-0.05,-0.20,1721201382910
-0.08,-2.64,5.10,0.01,-0.06,-0.27,1721201382920
-0.54,2.88,13.35,0.04,0.21,-0.27,1721201382930
-2.77,-4.00,7.02,0.04,-0.26,-0.24,1721201382940
-4.37,2.26,9.65,0.03,-0.04,-0.12,1721201382950
-0.49,4.59,9.58,0.15,0.10,-0.09,1721201382960
1.80,-4.06,5.70,-0.21,0.03,-0.13,1721201382970
0.64,1.34,14.39,-0.11,0.11,-0.40,1721201382980
-1.27,6.28,7.53,0.13,-0.15,-0.37,1721201382990
0.05,-0.10,5.80,-0.16,0.32,-0.16,1721201383000
0.00,-0.68,16.90,-0.07,0.10,-0.23,1721201383010
1.63,1.57,14.61,0.03,0.10,-0.25,1721201383020
-1.54,1.88,6.15,-0.25,-0.08,-0.36,1721201383030
-2.79,5.37,16.59,-0.09,0.12,-0.39,1721201383040
-1.78,-1.80,9.62,0.02,-0.01,-0.09,1721201383050
-2.20,-2.55,9.36,-0.15,0.19,-0.03,1721201383060
-0.22,2.38,11.13,0.01,0.01,-0.07,1721201383070
1.21,-0.69,8.53,-0.16,0.12,-0.14,1721201383080
-0.56,1.36,13.18,-0.05,0.06,-0.28,1721201383090
-0.05,4.55,9.67,0.19,0.10,-0.12,1721201383100
0.08,-4.05,5.77,-0.05,0.01,-0.08,1721201383110
-1.18,0.62,8.93,0.04,0.17,-0.23,1721201383120
-0.86,0.25,14.25,-0.15,0.16,-0.29,1721201383130
-3.79,-0.82,11.75,0.05,-0.13,-0.20,1721201383140
-0.98,1.13,4.59,0.19,0.13,0.07,1721201383150
1.58,-1.42,5.98,-0.06,0.14,0.03,1721201383160
0.74,-0.19,16.18,-0.14,0.10,-0.27,1721201383170
-2.39,4.21,8.88,0.14,-0.07,-0.39,1721201383180
-1.33,1.17,6.62,0.00,0.11,-0.16,1721201383190
0.18,-2.97,11.70,-0.15,0.00,0.06,1721201383200
-0.65,3.58,13.35,-0.05,0.16,-0.07,1721201383210
-0.08,1.00,11.72,-0.04,0.06,-0.35,1721201383220
-1.25,-6.50,8.18,-0.15,0.09,-0.29,1721201383230
-0.77,-1.47,14.13,-0.04,0.20,-0.18,1721201383240
0.88,5.42,11.16,0.25,0.10,0.08,1721201383250
2.57,0.61,9.81,0.12,0.24,-0.08,1721201383260
1.82,-3.25,9.57,0.11,-0.09,-0.18,1721201383270
-0.67,-4.17,5.78,-0.01,0.18,-0.27,1721201383280
-2.25,1.97,13.05,0.02,0.15,-0.30,1721201383290
-3.83,-4.44,8.17,-0.01,-0.18,0.10,1721201383300
0.02,1.05,10.14,0.12,0.54,0.18,1721201383310
1.90,2.98,6.26,0.22,0.05,-0.05,1721201383320
0.03,-2.15,9.17,-0.24,0.17,-0.12,1721201383330
-1.19,5.34,15.25,0.06,0.07,-0.09,1721201383340
1.32,0.27,8.71,0.04,0.11,0.02,1721201383350
-1.64,-2.59,7.64,-0.12,-0.13,0.16,1721201383360
-0.26,-0.71,12.77,-0.09,0.14,0.03,1721201383370
0.57,1.87,12.62,-0.09,0.06,-0.10,1721201383380
-2.03,2.52,8.49,-0.00,0.10,-0.17,1721201383390
1.29,-0.85,11.69,0.02,0.38,0.00,1721201383400
-0.13,0.91,11.12,0.15,-0.04,0.06,1721201383410
0.96,-0.28,6.93,0.13,0.24,-0.11,1721201383420
0.10,14.37,16.60,0.23,0.13,-0.06,1721201383430
-0.93,10.11,15.78,0.17,0.06,0.05,1721201383440
-0.91,-14.01,4.65,0.14,0.11,-0.10,1721201383450
-1.43,0.46,10.60,-0.19,0.20,-0.28,1721201383460
-1.18,5.82,9.23,0.02,-0.13,-0.25,1721201383470
-1.08,-0.40,5.07,0.18,0.29,-0.02,1721201383480
-1.06,1.69,13.18,0.08,0.15,0.18,1721201383490
1.58,2.80,10.19,0.13,0.12,0.12,1721201383500
1.57,-2.10,8.59,-0.22,0.09,-0.14,1721201383510
-0.59,1.37,14.84,-0.15,0.09,-0.27,1721201383520
-1.46,-2.47,6.61,0.02,-0.05,-0.09,1721201383530
-1.38,-1.19,2.19,0.04,0.11,0.12,1721201383540
3.06,-1.92,6.32,-0.09,0.35,0.03,1721201383550
2.99,4.38,15.15,-0.08,0.21,-0.25,1721201383560
-0.05,2.46,10.45,-0.14,-0.11,-0.42,1721201383570
-2.46,-4.88,4.83,-0.29,0.07,-0.19,1721201383580
-0.14,3.68,9.15,0.13,0.41,0.02,1721201383590
1.74,-9.27,-1.46,-0.44,0.09,0.01,1721201383600
-2.26,-16.18,33.20,-0.96,0.47,-0.54,1721201383610
0.57,30.82,34.02,0.24,-0.25,-0.69,1721201383620
-7.93,-1.93,-0.16,0.54,-0.44,-0.16,1721201383630
-3.99,-7.68,-0.32,-0.26,0.70,0.39,1721201383640
4.13,-3.63,25.52,0.11,0.27,0.41,1721201383650
0.63,11.28,0.23,0.27,-0.26,0.05,1721201383660
8.24,-1.64,1.88,0.23,0.28,-0.58,1721201383670
-0.14,0.36,15.18,0.11,-0.08,-0.57,1721201383680
-4.80,5.53,13.35,0.50,-0.01,-0.46,1721201383690
-5.33,-9.14,1.74,0.48,0.06,-0.05,1721201383700
-3.26,1.71,11.04,0.36,0.28,0.17,1721201383710
1.11,14.03,10.34,0.52,0.17,0.11,1721201383720
2.56,0.35,10.03,0.36,0.23,0.02,1721201383730
2.91,-13.06,4.09,0.05,0.10,-0.09,1721201383740
-1.11,-0.34,10.62,0.02,0.31,-0.25,1721201383750
-2.44,3.25,10.86,0.14,-0.11,-0.19,1721201383760
-2.64,-1.07,5.73,0.08,0.06,-0.00,1721201383770
-0.17,-0.90,7.83,0.11,0.12,0.26,1721201383780
2.61,-0.84,9.42,-0.06,0.30,0.15,1721201383790
2.84,-1.43,13.78,-0.27,0.10,-0.21,1721201383800
-2.14,3.75,14.51,0.00,0.01,-0.47,1721201383810
-4.08,0.04,5.03,0.01,0.04,-0.26,1721201383820
-3.30,-2.15,7.56,-0.13,0.14,0.08,1721201383830
-0.24,-1.03,11.56,-0.09,0.11,0.17,1721201383840
0.57,5.66,10.17,0.03,0.07,-0.04,1721201383850
-0.64,2.48,6.34,-0.08,0.05,-0.24,1721201383860
-1.89,-0.84,4.79,-0.09,0.09,-0.17,1721201383870
-2.26,0.93,0.80,0.05,-0.02,0.10,1721201383880
1.29,-12.25,10.23,-0.68,0.36,0.06,1721201383890
3.14,1.77,38.78,-0.25,0.21,-0.14,1721201383900
-0.18,12.32,10.25,0.57,-0.32,-0.17,1721201383910
-0.54,-1.65,-6.05,-0.32,0.11,-0.16,1721201383920
8.20,3.69,20.52,-0.49,0.56,-0.22,1721201383930
0.62,2.09,12.43,0.25,0.03,-0.19,1721201383940
-4.73,-0.96,-0.80,-0.15,-0.09,-0.20,1721201383950
-4.31,1.75,13.60,-0.08,0.18,-0.12,1721201383960
-2.17,3.93,14.55,0.23,-0.04,0.27,1721201383970
-0.68,6.38,4.91,0.21,0.03,0.32,1721201383980
3.06,0.95,11.06,-0.08,0.21,-0.06,1721201383990
0.35,-3.22,12.28,-0.08,-0.08,-0.33,1721201384000
-3.71,0.41,10.16,-0.09,0.09,-0.32,1721201384010
-6.43,3.21,8.41,0.11,-0.03,0.07,1721201384020
-2.13,-2.83,7.64,-0.05,0.13,0.51,1721201384030
1.51,-1.44,11.00,0.03,0.09,0.41,1721201384040
4.61,2.23,11.23,0.08,0.12,0.07,1721201384050
2.41,3.00,12.08,-0.02,-0.07,-0.24,1721201384060
-3.59,1.60,5.98,0.00,-0.21,-0.13,1721201384070
-1.85,-0.14,10.36,-0.11,0.38,0.12,1721201384080
-1.09,-2.46,12.53,-0.13,-0.07,0.03,1721201384090
-3.81,-1.85,7.92,-0.02,-0.22,0.06,1721201384100
-1.63,-5.05,5.94,-0.18,0.09,0.20,1721201384110
0.83,0.30,14.61,-0.07,0.21,0.24,1721201384120
1.51,5.04,10.35,0.13,-0.12,0.18,1721201384130
1.93,0.15,4.38,-0.00,0.02,0.04,1721201384140
1.46,-1.59,11.83,-0.24,0.14,-0.14,1721201384150
-2.15,2.44,14.24,-0.01,-0.21,-0.12,1721201384160
-0.68,-1.04,7.85,0.06,0.01,0.15,1721201384170
1.13,-1.91,7.82,-0.05,0.04,0.24,1721201384180
1.29,-4.83,11.01,-0.17,0.10,-0.04,1721201384190
2.18,0.11,13.40,0.02,0.14,-0.22,1721201384200
2.19,1.34,11.85,0.07,0.13,-0.18,1721201384210
-3.80,-1.51,5.64,0.09,-0.23,-0.00,1721201384220
-0.96,-1.84,11.27,-0.01,0.37,0.04,1721201384230
0.53,5.94,13.90,0.27,-0.07,0.22,1721201384240
1.90,-7.70,8.17,-0.09,0.08,0.09,1721201384250
-1.54,1.19,16.49,0.12,0.02,-0.05,1721201384260
0.18,6.64,11.10,0.33,0.10,-0.06,1721201384270
2.05,-1.53,4.29,0.17,0.11,0.04,1721201384280
-0.05,2.16,14.40,0.11,0.22,-0.03,1721201384290
-1.42,0.74,8.63,0.21,-0.19,-0.14,1721201384300
0.07,-4.18,8.68,0.04,0.27,-0.04,1721201384310
1.70,3.55,14.24,0.25,0.14,0.07,1721201384320
-0.22,2.58,4.58,0.16,-0.02,-0.04,1721201384330
0.73,-2.83,9.00,0.08,0.27,-0.17,1721201384340
-0.03,-0.50,13.64,0.15,0.13,-0.14,1721201384350
-1.60,2.51,13.50,0.09,0.14,-0.06,1721201384360
-2.63,7.22,8.68,0.28,-0.03,0.08,1721201384370
0.98,-2.76,3.09,0.13,0.19,0.21,1721201384380
3.28,2.95,11.45,0.10,0.24,0.02,1721201384390
0.28,1.01,3.41,-0.01,-0.23,-0.17,1721201384400
-2.65,1.26,12.91,-0.04,0.38,-0.37,1721201384410
-2.23,-2.11,14.31,0.06,0.05,-0.07,1721201384420
-3.21,5.74,7.13,0.19,0.09,0.19,1721201384430
1.47,-0.73,7.54,-0.07,0.22,0.18,1721201384440
0.07,-2.91,11.44,-0.19,-0.05,-0.04,1721201384450
-1.92,-1.34,10.81,0.04,0.16,-0.13,1721201384460
-0.66,1.36,10.86,-0.05,0.25,-0.01,1721201384470
-0.15,1.60,14.14,0.12,-0.00,0.07,1721201384480
-0.78,-0.33,9.70,-0.00,0.12,-0.04,1721201384490
-2.74,-1.12,7.58,-0.09,-0.04,0.02,1721201384500
-1.68,1.92,9.37,0.00,0.23,0.07,1721201384510
3.31,-4.29,9.05,-0.14,0.22,0.12,1721201384520
1.87,5.47,14.51,0.08,0.07,-0.13,1721201384530
1.10,-0.51,5.78,-0.02,-0.00,-0.28,1721201384540
-4.09,-0.21,15.60,-0.25,0.14,-0.33,1721201384550
-3.28,3.79,11.01,0.21,-0.04,-0.03,1721201384560
-1.58,-2.25,7.06,-0.09,0.22,0.20,1721201384570
-0.81,-0.17,14.99,-0.13,-0.07,0.22,1721201384580
-0.06,0.32,8.78,0.09,-0.01,-0.00,1721201384590
0.16,-2.37,5.12,-0.13,0.10,0.03,1721201384600
1.05,0.35,16.03,-0.05,0.21,0.00,1721201384610
0.68,1.86,10.35,0.16,-0.10,-0.10,1721201384620
-2.83,-0.56,1.85,-0.05,-0.08,-0.10,1721201384630
-3.63,2.32,12.94,-0.06,0.20,-0.10,1721201384640
-1.55,-0.33,8.67,0.06,-0.10,-0.01,1721201384650
-0.51,-6.50,8.19,-0.26,0.14,0.18,1721201384660
-1.39,5.12,15.95,0.06,-0.00,0.05,1721201384670
-1.53,0.59,6.25,-0.11,0.16,0.02,1721201384685
-1.64,-2.84,7.22,-0.22,0.05,0.09,1721201384689
0.35,-0.72,17.65,0.03,0.17,0.08,1721201384699
0.32,2.46,8.67,0.07,-0.13,0.09,1721201384709
-1.78,3.57,5.95,0.00,-0.06,-0.07,1721201384719
-1.93,-0.83,7.42,-0.08,-0.01,-0.06,1721201384729
-1.17,3.22,15.94,0.12,0.15,0.02,1721201384739
1.64,-0.30,8.70,0.09,-0.01,0.12,1721201384749
0.49,0.57,10.83,-0.07,0.07,-0.02,1721201384759
0.14,2.77,13.60,0.14,-0.10,-0.13,1721201384769
-1.81,0.53,9.03,0.09,-0.02,-0.14,1721201384779
-2.96,1.64,8.77,0.16,-0.04,0.05,1721201384789
-1.89,0.55,9.39,0.14,-0.02,0.23,1721201384799
0.27,1.80,8.77,0.21,-0.05,0.23,1721201384809
2.32,-0.08,13.64,-0.06,0.05,-0.01,1721201384819
0.53,4.49,13.90,0.33,-0.29,-0.01,1721201384829
-0.28,-2.05,1.12,0.02,0.02,-0.10,1721201384839
-2.03,-0.78,16.26,-0.10,0.08,-0.11,1721201384849
-2.27,-0.01,13.54,0.20,-0.28,0.09,1721201384859
-1.76,2.19,3.19,0.07,-0.02,0.16,1721201384869
-0.25,1.30,10.20,-0.06,-0.00,0.11,1721201384879
0.62,-2.80,8.65,-0.08,-0.11,0.13,1721201384889
0.36,2.11,11.25,-0.07,-0.00,0.05,1721201384899
-0.17,2.38,11.34,-0.06,-0.09,0.02,1721201384909
-2.62,1.54,9.84,-0.21,-0.27,0.11,1721201384919
-0.79,-0.86,12.34,-0.11,-0.02,0.20,1721201384929
0.36,0.28,4.47,-0.08,-0.23,0.07,1721201384939
-0.01,-0.90,10.31,-0.31,0.03,0.08,1721201384949
-0.51,1.72,15.39,0.01,-0.20,0.22,1721201384959
2.61,0.45,6.28,-0.07,-0.07,0.28,1721201384969
3.13,4.48,12.24,-0.05,0.11,0.15,1721201384979
3.10,1.92,11.27,-0.20,-0.17,-0.20,1721201384989
-2.51,2.69,12.28,-0.16,-0.11,-0.34,1721201384999
-4.41,-3.43,6.28,-0.09,-0.22,-0.14,1721201385009
-2.89,-1.71,9.96,-0.19,0.03,0.20,1721201385019
-0.17,3.16,8.21,0.08,-0.21,0.37,1721201385029
3.25,-0.37,7.23,-0.25,0.06,0.15,1721201385039
1.11,4.30,16.65,-0.25,-0.03,-0.20,1721201385049
-1.20,2.11,9.71,0.02,-0.23,-0.32,1721201385059
-2.39,-5.76,4.18,-0.26,-0.07,-0.17,1721201385069
-2.81,-0.78,10.23,-0.04,-0.03,0.17,1721201385079
0.21,0.78,10.05,-0.03,-0.04,0.19,1721201385089
2.84,2.34,12.23,-0.07,0.05,0.01,1721201385099
1.77,-2.43,9.00,-0.05,-0.17,-0.22,1721201385109
0.96,5.14,13.46,0.01,0.26,-0.37,1721201385119
0.11,1.95,13.80,0.05,-0.18,-0.26,1721201385129
-4.07,-6.04,5.56,-0.04,-0.14,-0.10,1721201385139
-1.90,3.08,15.26,0.13,0.28,-0.06,1721201385149
1.80,1.65,9.33,0.13,-0.28,0.09,1721201385159
-0.46,-0.67,9.38,-0.05,-0.06,0.13,1721201385169
1.58,3.27,12.69,0.20,0.14,-0.02,1721201385179
2.08,-1.51,8.87,0.12,-0.05,-0.36,1721201385189
-2.04,0.87,9.06,0.16,-0.02,-0.33,1721201385199
-2.54,-1.99,9.30,0.15,0.04,-0.09,1721201385209
-2.31,5.71,18.24,0.19,0.15,0.10,1721201385219
0.42,0.43,9.56,0.21,-0.29,0.32,1721201385229
1.66,-1.53,3.22,0.14,0.06,0.07,1721201385239
4.44,0.69,12.91,0.02,0.18,-0.24,1721201385249
-0.62,3.89,11.93,0.29,-0.32,-0.39,1721201385259
-2.43,-3.36,5.13,0.09,0.12,-0.22,1721201385269
-3.36,0.94,15.90,0.11,0.18,0.01,1721201385279
0.45,-0.10,12.23,0.24,0.11,0.03,1721201385289
-0.03,1.66,6.36,0.16,-0.08,0.09,1721201385299
0.50,2.75,11.68,0.12,0.06,-0.07,1721201385309
0.12,0.59,8.25,0.23,-0.18,-0.12,1721201385319
-1.06,1.42,4.61,0.13,0.11,-0.03,1721201385329
1.88,1.15,12.02,0.06,0.22,-0.09,1721201385339
0.01,0.09,12.00,-0.03,-0.07,-0.11,1721201385349
-2.57,2.63,10.40,0.06,-0.10,-0.17,1721201385359
-0.14,0.36,7.12,0.07,0.14,0.01,1721201385369
-0.29,-1.32,8.48,-0.12,-0.06,0.03,1721201385379
-0.22,3.83,16.21,0.10,0.10,-0.15,1721201385389
0.37,0.32,7.15,0.05,-0.11,-0.11,1721201385399
-0.78,3.60,7.64,-0.04,0.18,-0.07,1721201385409
0.49,-2.36,5.94,-0.06,-0.03,-0.05,1721201385419
0.71,-4.05,13.01,-0.15,0.14,-0.17,1721201385429
-0.48,2.15,6.50,0.13,-0.16,-0.17,1721201385439
-0.46,-2.07,6.54,-0.31,0.25,-0.17,1721201385449
0.08,1.91,19.47,-0.00,0.06,-0.11,1721201385459
1.55,0.27,9.51,0.03,0.12,-0.04,1721201385469
0.10,2.24,9.82,0.02,0.08,-0.13,1721201385479
-0.89,-5.22,6.53,-0.26,0.08,-0.30,1721201385489
-1.98,2.35,17.16,0.03,0.05,-0.04,1721201385499
0.40,-1.61,6.25,0.23,0.03,-0.10,1721201385509
-3.09,-8.35,0.99,-0.25,-0.02,-0.09,1721201385519
-1.56,21.43,24.20,0.30,0.20,-0.08,1721201385529
2.16,6.87,11.50,0.18,-0.18,0.04,1721201385539
-3.97,-34.51,0.54,-0.68,0.13,-0.18,1721201385549
-1.33,13.25,21.24,0.11,0.32,-0.38,1721201385559
4.88,-3.43,-3.92,0.11,-0.14,-0.36,1721201385569
-6.30,0.82,29.68,0.05,-0.21,-0.25,1721201385579
-5.78,3.97,10.24,0.56,-0.31,0.03,1721201385589
-1.73,-11.30,-1.71,-0.16,0.36,0.13,1721201385599
2.51,-4.04,14.49,-0.28,0.25,0.04,1721201385609
1.40,9.49,16.54,0.23,-0.10,-0.36,1721201385619
-1.70,-1.39,1.60,0.07,-0.16,-0.30,1721201385629
-4.37,-3.04,9.11,-0.01,0.02,0.15,1721201385639
-0.52,-4.72,10.05,-0.06,0.06,0.28,1721201385649
2.81,5.25,10.58,0.09,0.05,0.11,1721201385659
2.88,1.61,9.51,-0.02,-0.03,-0.11,1721201385669
-3.70,11.78,7.02,0.45,-0.25,-0.27,1721201385679
-2.41,5.93,-11.99,0.36,0.00,0.05,1721201385689
3.86,-38.23,25.95,-1.69,0.64,0.03,1721201385699
6.71,21.50,42.36,0.38,-0.14,-0.32,1721201385709
-0.00,15.08,-18.08,1.31,-0.51,-0.28,1721201385719
-2.71,8.29,-22.92,-0.55,0.59,0.36,1721201385729
1.34,8.88,45.31,0.30,-0.08,0.62,1721201385739
30.62,-17.36,18.53,0.96,0.14,0.22,1721201385749
2.05,-14.26,-4.30,-0.21,0.47,-0.29,1721201385759
-6.56,5.76,17.47,-0.18,-0.16,-0.66,1721201385769
-7.20,-4.19,15.46,-0.14,0.31,-0.20,1721201385779
-7.14,-0.04,20.11,-0.12,-0.08,0.28,1721201385789
-1.17,4.69,8.85,0.40,-0.25,0.57,1721201385799
4.62,4.11,5.83,-0.17,0.23,0.16,1721201385809
4.94,5.77,12.58,-0.06,-0.27,-0.13,1721201385819
-0.11,0.18,-2.22,0.01,-0.18,-0.31,1721201385829
-1.60,-2.18,7.23,-0.37,0.21,-0.32,1721201385839
-5.65,-9.56,15.02,-0.27,-0.36,-0.09,1721201385849
-4.05,-1.35,24.14,-0.40,0.19,0.01,1721201385859
-1.68,8.37,24.15,0.17,-0.34,0.25,1721201385869
1.18,6.14,-0.46,0.25,-0.08,0.43,1721201385879
4.75,-4.95,3.36,-0.35,0.14,0.17,1721201385889
3.62,-0.68,25.50,0.02,-0.07,-0.47,1721201385899
-2.27,1.20,8.65,0.08,-0.41,-0.72,1721201385909
-9.44,-3.07,0.95,-0.30,-0.21,-0.20,1721201385919
-3.36,3.20,20.10,0.09,0.32,0.33,1721201385929
4.60,-6.22,10.63,0.10,-0.13,0.41,1721201385939
1.71,-0.61,5.83,-0.12,0.02,-0.14,1721201385949
1.39,2.59,13.45,-0.11,0.13,-0.78,1721201385959
-3.64,-0.83,13.63,-0.10,-0.21,-0.50,1721201385969
-5.85,-1.67,5.97,0.03,-0.02,0.09,1721201385979
0.64,-3.19,11.03,-0.12,0.29,0.28,1721201385989
3.29,3.64,13.82,0.02,-0.04,-0.04,1721201385999
1.82,-1.98,7.52,-0.06,-0.12,-0.37,1721201386009
-0.68,1.63,11.07,0.05,0.21,-0.47,1721201386019
-0.32,-1.01,12.48,-0.02,0.09,-0.34,1721201386029
-5.72,-2.26,8.32,-0.04,-0.15,-0.21,1721201386039
-2.63,0.86,10.69,0.04,0.37,-0.18,1721201386049
-0.24,-5.95,8.28,-0.07,-0.12,0.06,1721201386059
0.17,5.60,11.21,0.19,0.26,0.00,1721201386069
4.48,-2.90,12.44,-0.03,0.08,-0.16,1721201386079
-3.82,-1.41,9.10,-0.12,-0.28,-0.38,1721201386089
-2.43,3.73,13.37,0.14,0.32,-0.33,1721201386099
-1.27,-4.62,6.68,-0.04,-0.13,0.11,1721201386109
-3.37,2.85,8.72,0.15,0.09,0.27,1721201386119
4.03,-1.65,12.14,0.04,0.27,0.12,1721201386129
2.00,2.03,12.13,0.06,-0.09,-0.15,1721201386139
0.33,2.41,6.81,0.14,0.07,-0.28,1721201386149
-1.02,2.99,14.05,-0.05,0.14,-0.16,1721201386159
-4.22,11.23,16.37,0.19,-0.17,-0.02,1721201386169
-1.28,1.54,4.44,0.14,0.01,0.15,1721201386179
1.86,-14.47,4.74,-0.32,0.19,0.02,1721201386189
1.52,7.65,20.02,0.02,0.25,-0.27,1721201386199
0.20,5.54,12.26,0.24,-0.18,-0.06,1721201386209
-2.81,-7.67,-0.18,-0.18,-0.03,0.14,1721201386219
2.22,-3.43,12.87,-0.06,0.34,0.17,1721201386229
3.79,4.06,11.25,-0.04,-0.11,-0.05,1721201386239
-1.86,6.04,5.01,-0.04,-0.18,-0.18,1721201386249
-2.12,-5.20,2.32,-0.11,0.12,-0.11,1721201386259
0.87,-8.55,13.28,-0.26,0.23,-0.02,1721201386269
-0.56,0.95,13.70,0.11,-0.16,0.01,1721201386279
-0.11,1.75,6.68,0.17,0.10,-0.06,1721201386289
1.21,4.47,13.78,0.11,0.18,0.07,1721201386299
1.26,2.64,9.22,0.31,-0.18,0.06,1721201386309
1.13,-6.33,2.19,0.01,0.06,0.06,1721201386319
2.24,-2.66,16.03,-0.02,0.33,-0.19,1721201386329
0.92,-0.67,17.23,0.19,-0.13,-0.32,1721201386339
-1.70,-8.71,21.55,-0.11,0.02,-0.24,1721201386349
-0.64,17.24,21.76,0.50,0.03,-0.17,1721201386359
-1.48,18.06,7.82,0.43,0.05,0.11,1721201386369
2.76,-5.58,15.01,-0.33,0.45,0.06,1721201386379
1.54,-4.80,13.81,0.23,-0.17,-0.09,1721201386389
0.74,11.18,-8.43,0.92,0.06,-0.16,1721201386399
-0.06,-12.67,-5.48,0.08,0.00,-0.22,1721201386409
-2.43,4.22,26.67,0.29,0.25,-0.37,1721201386419
-0.53,24.09,9.48,0.61,-0.14,-0.20,1721201386429
-3.64,-2.84,-13.80,0.53,0.48,0.09,1721201386439
2.46,-4.27,5.38,-0.09,0.10,0.32,1721201386449
3.71,-1.76,3.00,0.06,0.10,0.08,1721201386459
-1.88,-0.13,2.35,0.06,0.14,-0.52,1721201386469
2.45,-6.11,5.88,-0.02,0.26,-0.71,1721201386479
-3.54,-0.29,14.12,-0.22,0.09,-0.35,1721201386489
-5.44,2.65,13.63,-0.14,0.03,-0.07,1721201386499
-3.07,-0.96,0.51,-0.10,-0.01,0.22,1721201386509
0.26,-8.46,-2.15,-0.37,0.23,0.06,1721201386519
1.06,-6.50,9.24,-0.46,0.07,-0.20,1721201386529
-0.83,-19.97,35.13,-1.29,0.29,-0.65,1721201386539
-3.21,6.86,54.82,0.21,-0.20,-0.72,1721201386549
-10.64,6.65,-2.96,0.91,-0.43,-0.30,1721201386559
-9.85,9.00,-21.11,-0.63,0.68,0.51,1721201386569
3.05,-15.16,27.57,-0.68,0.14,0.77,1721201386579
12.06,-10.94,8.01,0.15,-0.22,0.28,1721201386589
10.39,9.45,-0.48,-0.15,0.06,-0.33,1721201386599
1.61,8.61,7.45,-0.59,0.40,-0.68,1721201386609
-2.52,2.71,19.61,-0.32,-0.23,-0.47,1721201386619
-6.31,5.40,15.05,0.08,0.01,-0.16,1721201386629
-4.89,2.25,7.63,0.16,-0.05,0.14,1721201386639
-2.35,2.35,11.30,0.04,0.16,0.09,1721201386649
-0.07,6.43,17.06,0.21,0.01,0.02,1721201386659
0.31,4.47,10.18,0.29,-0.04,-0.10,1721201386669
-1.39,0.87,8.08,0.38,-0.09,-0.13,1721201386679
-2.00,0.63,12.06,0.22,0.07,-0.01,1721201386694
-2.01,4.04,14.89,0.29,0.06,0.04,1721201386698
0.06,4.75,9.97,0.51,-0.15,0.23,1721201386708
0.67,0.36,5.21,0.29,0.01,0.15,1721201386718
1.09,0.97,10.49,0.15,-0.05,-0.07,1721201386728
-0.33,0.29,9.73,0.21,-0.10,-0.07,1721201386738
-1.68,-1.33,5.44,0.10,-0.08,0.05,1721201386748
-1.53,-3.68,9.80,-0.08,-0.05,0.20,1721201386758
-0.67,2.82,15.35,0.23,-0.04,0.26,1721201386768
2.61,4.39,7.17,0.18,-0.05,0.24,1721201386778
0.86,-3.71,3.10,-0.16,-0.24,0.05,1721201386788
-0.47,-4.95,10.55,-0.26,0.03,-0.07,1721201386798
-1.66,-3.24,12.25,-0.08,-0.15,-0.01,1721201386808
-2.39,-1.51,8.74,-0.03,-0.02,0.15,1721201386818
0.35,-2.98,8.89,-0.24,-0.01,0.26,1721201386828
1.19,1.95,15.02,-0.12,0.01,0.10,1721201386838
1.76,0.83,8.26,-0.09,-0.11,-0.08,1721201386848
-0.64,-1.77,6.32,-0.32,0.01,-0.11,1721201386858
-1.23,-3.69,10.98,-0.24,-0.06,-0.04,1721201386868
-2.04,-5.02,12.64,-0.29,0.02,0.01,1721201386878
-1.21,2.38,11.71,-0.15,-0.09,0.12,1721201386888
2.27,1.59,8.72,-0.17,0.03,0.18,1721201386898
4.09,1.48,12.16,-0.18,0.08,0.08,1721201386908
2.30,-0.20,10.26,-0.11,-0.06,-0.08,1721201386918
-0.04,-0.28,9.70,-0.22,0.08,-0.42,1721201386928
-1.86,2.44,12.83,-0.08,-0.09,-0.38,1721201386938
-1.98,1.82,10.05,0.01,-0.03,-0.07,1721201386948
-0.60,2.57,11.98,0.08,0.05,0.06,1721201386958
0.45,-1.52,9.59,0.09,-0.09,0.06,1721201386968
2.08,1.71,9.67,0.08,0.22,-0.21,1721201386978
1.33,4.88,15.15,0.14,0.07,-0.45,1721201386988
-3.79,-0.69,6.83,0.11,-0.30,-0.23,1721201386998
-3.15,-1.25,11.19,0.11,0.31,-0.05,1721201387008
2.29,-1.14,14.15,0.18,0.15,0.02,1721201387018
-0.92,1.68,5.99,0.18,-0.13,-0.15,1721201387028
0.68,-0.10,11.66,0.13,0.30,-0.20,1721201387038
0.93,3.26,11.12,0.35,0.05,-0.17,1721201387048
-0.02,0.49,7.21,0.18,0.09,-0.16,1721201387058
0.04,-1.68,14.77,0.07,0.19,-0.27,1721201387068
-1.58,1.81,7.82,0.30,-0.09,-0.17,1721201387078
-1.98,-1.58,5.94,0.03,0.19,-0.07,1721201387088
-1.60,-0.73,13.11,0.12,0.12,-0.08,1721201387098
0.85,1.03,10.64,0.29,0.13,-0.10,1721201387108
0.85,-0.38,5.95,0.16,0.08,0.01,1721201387118
-0.94,2.77,7.45,0.09,0.19,-0.11,1721201387128
0.45,-0.39,10.64,0.02,0.19,-0.18,1721201387138
0.34,-2.19,12.66,-0.04,0.09,-0.04,1721201387148
-0.68,2.21,8.17,0.15,0.04,-0.10,1721201387158
0.52,0.12,10.42,-0.16,0.23,-0.11,1721201387168
-1.66,2.29,13.17,0.01,-0.01,-0.13,1721201387178
-1.36,1.36,7.70,0.02,0.20,-0.12,1721201387188
-1.00,2.84,10.63,-0.09,0.18,-0.02,1721201387198
-0.81,0.21,10.92,-0.14,0.01,0.06,1721201387208
0.07,0.30,11.67,-0.11,0.14,-0.06,1721201387218
0.74,-0.48,9.07,-0.02,0.08,-0.01,1721201387228
0.45,2.74,8.79,-0.09,0.17,-0.09,1721201387238
-0.43,3.23,11.81,-0.06,0.04,-0.11,1721201387248
-0.66,-1.07,10.34,-0.05,0.09,-0.11,1721201387258
-0.07,0.23,14.69,-0.08,0.23,-0.19,1721201387268
-2.00,-0.19,7.73,0.07,-0.17,0.03,1721201387278
-0.31,-0.85,7.11,-0.15,0.30,-0.01,1721201387288
0.09,2.72,14.44,0.11,-0.01,-0.07,1721201387298
-0.91,-3.83,4.20,-0.09,0.01,-0.13,1721201387308
-0.81,-5.34,16.60,-0.21,0.25,-0.03,1721201387318
-1.05,0.61,15.99,0.17,-0.01,0.04,1721201387328
-1.16,3.52,6.75,0.11,0.00,0.10,1721201387338
1.14,2.89,8.56,0.01,0.08,0.01,1721201387348
-0.35,-2.56,9.22,0.04,-0.08,-0.04,1721201387358
-1.73,-5.88,10.13,-0.07,0.04,-0.04,1721201387368
-0.74,1.11,15.40,0.12,0.12,-0.03,1721201387378
-3.23,2.49,6.24,0.21,-0.19,0.03,1721201387388
-3.08,0.68,6.32,-0.02,0.08,0.06,1721201387398
0.47,-0.35,16.90,-0.00,0.08,0.14,1721201387408
-0.60,-2.74,7.63,0.06,-0.25,0.12,1721201387418
-0.87,-1.90,9.01,-0.16,0.06,-0.02,1721201387428
-0.39,-0.41,15.35,0.03,-0.10,-0.02,1721201387438
-2.72,2.55,6.46,0.19,-0.19,0.12,1721201387448
-0.70,-0.40,10.24,-0.16,0.15,0.21,1721201387458
1.13,0.95,14.21,0.08,-0.24,0.36,1721201387468
1.69,-0.18,5.64,0.08,-0.05,0.23,1721201387478
2.21,-1.91,9.00,-0.12,-0.06,-0.02,1721201387488
-0.02,3.12,10.61,0.12,-0.19,-0.05,1721201387498
-0.24,2.08,14.49,-0.05,0.03,-0.03,1721201387508
-2.02,1.09,8.80,0.14,-0.39,0.14,1721201387518
-1.55,0.90,7.92,-0.07,0.08,0.18,1721201387528
0.78,2.74,12.28,0.10,-0.23,0.10,1721201387538
0.99,0.16,8.39,0.08,-0.14,-0.01,1721201387548
-0.06,0.40,11.43,0.04,-0.17,-0.03,1721201387558
-0.76,-1.42,8.53,0.05,-0.22,0.01,1721201387568
-0.74,4.03,12.90,0.06,0.03,-0.09,1721201387578
0.46,3.14,11.19,0.12,-0.17,-0.12,1721201387588
0.40,-0.61,7.50,-0.07,-0.14,-0.10,1721201387598
-0.39,0.88,9.33,-0.02,-0.11,-0.21,1721201387608
-0.61,1.10,10.05,-0.09,-0.07,-0.17,1721201387618
-1.80,5.12,13.41,-0.02,-0.20,-0.05,1721201387628
-1.16,1.09,6.02,0.05,-0.24,0.10,1721201387638
0.74,-1.55,9.66,-0.16,-0.01,0.13,1721201387648
1.61,2.87,15.13,-0.07,-0.12,-0.01,1721201387658
0.76,3.95,8.14,0.01,-0.24,-0.14,1721201387668
0.24,0.98,10.48,-0.16,0.02,-0.16,1721201387678
0.77,0.25,14.12,0.02,-0.09,-0.06,1721201387688
0.33,-0.19,5.13,-0.08,-0.16,-0.15,1721201387698
-0.97,-0.88,11.32,-0.18,0.04,-0.32,1721201387708
-3.11,1.78,10.80,0.08,-0.15,-0.37,1721201387718
-3.68,-0.88,5.91,-0.02,-0.11,-0.08,1721201387728
-2.77,0.32,10.90,-0.03,-0.06,0.01,1721201387738
-0.75,0.23,9.97,-0.00,-0.15,-0.02,1721201387748
0.73,-2.02,11.28,-0.16,-0.04,-0.13,1721201387758
-0.70,-0.85,14.28,-0.08,-0.13,-0.26,1721201387768
-2.13,-0.26,11.40,0.02,-0.25,-0.16,1721201387778
-1.74,-0.23,7.46,0.04,-0.10,0.03,1721201387788
1.04,-1.37,10.87,-0.08,0.03,0.00,1721201387798
1.44,0.74,11.61,0.00,-0.22,-0.09,1721201387808
1.29,-2.36,7.56,-0.07,-0.11,-0.14,1721201387818
-0.20,0.77,10.78,-0.03,-0.09,-0.21,1721201387828
1.54,0.15,10.97,0.02,0.01,-0.08,1721201387838
0.24,1.58,11.67,-0.03,-0.09,-0.15,1721201387848
0.56,-1.61,7.39,-0.01,-0.05,-0.27,1721201387858
0.02,-0.81,12.16,-0.10,0.07,-0.31,1721201387868
-0.28,2.24,12.24,0.05,-0.07,-0.29,1721201387878
-1.47,0.21,10.18,-0.03,0.00,-0.27,1721201387888
-0.58,-0.77,7.98,0.02,-0.02,-0.24,1721201387898
0.05,-2.43,10.26,-0.08,0.18,-0.30,1721201387908
-1.76,2.83,13.40,0.06,-0.04,-0.35,1721201387918
-1.10,1.62,9.96,0.09,0.04,-0.12,1721201387928
-0.37,0.03,8.44,0.02,0.03,-0.11,1721201387938
0.30,-2.06,10.73,0.05,0.08,-0.14,1721201387948
0.50,2.44,12.14,0.04,0.13,-0.25,1721201387958
-0.06,1.49,12.70,0.06,-0.01,-0.18,1721201387968
-0.21,3.12,10.51,0.16,0.09,-0.13,1721201387978
1.85,-2.42,8.07,-0.02,0.15,-0.12,1721201387988
0.57,0.49,14.67,0.03,0.10,-0.28,1721201387998
1.19,3.20,12.34,0.14,0.10,-0.22,1721201388008
-0.81,6.06,11.21,0.18,0.02,-0.19,1721201388018
1.14,0.04,6.11,0.20,0.16,-0.16,1721201388028
1.48,-3.77,6.45,-0.00,0.18,-0.16,1721201388038
-0.38,2.61,13.52,0.06,0.17,-0.43,1721201388048
-1.03,1.21,9.03,0.16,0.05,-0.32,1721201388058
-1.16,-1.34,10.18,0.06,0.29,-0.18,1721201388068
-0.67,2.74,11.21,0.21,0.09,-0.18,1721201388078
0.19,-0.24,6.60,-0.03,0.20,-0.21,1721201388088
0.39,-0.23,14.26,0.00,0.28,-0.31,1721201388098
-0.59,0.40,10.65,0.11,0.16,-0.35,1721201388108
-2.13,0.40,7.13,0.03,0.15,-0.07,1721201388118
-0.39,0.54,8.91,0.02,0.30,-0.13,1721201388128
0.40,2.66,11.04,0.03,0.20,-0.25,1721201388138
0.78,1.64,10.58,-0.04,0.22,-0.27,1721201388148
-0.33,-1.04,9.27,-0.10,0.15,-0.24,1721201388158
-1.17,0.19,9.01,-0.10,0.25,-0.28,1721201388168
-0.59,0.56,11.35,-0.08,0.29,-0.30,1721201388178
-1.71,2.23,12.11,-0.04,0.20,-0.30,1721201388188
-2.66,-0.09,9.04,-0.05,0.17,-0.26,1721201388198
-3.09,1.53,10.75,-0.08,0.17,-0.07,1721201388208
-1.62,3.68,13.34,-0.02,0.26,-0.04,1721201388218
0.93,1.41,8.40,0.05,0.09,-0.03,1721201388228
-0.59,-1.56,5.97,-0.10,0.17,-0.13,1721201388238
-1.52,-0.25,12.99,-0.01,0.21,-0.17,1721201388248
-0.90,1.00,10.54,0.02,0.17,-0.09,1721201388258
-2.20,4.85,11.95,0.12,0.15,-0.03,1721201388268
-0.58,-1.77,5.11,0.05,0.03,0.07,1721201388278
0.29,1.04,9.32,0.01,0.22,0.10,1721201388288
1.47,-0.38,6.97,-0.02,0.06,-0.07,1721201388298
0.31,-0.69,13.21,-0.15,0.26,-0.25,1721201388308
-2.28,2.69,15.64,0.05,0.08,-0.23,1721201388318
-2.53,-3.69,11.08,-0.07,0.17,0.03,1721201388328
-2.73,0.47,14.63,0.02,0.00,0.25,1721201388338
0.12,1.84,9.86,0.12,0.15,0.19,1721201388348
2.69,-2.86,6.50,0.04,0.06,0.09,1721201388358
1.81,-2.45,4.88,-0.01,0.04,-0.02,1721201388368
-0.32,1.35,14.46,-0.07,0.25,-0.18,1721201388378
-1.90,2.41,11.60,0.16,-0.04,-0.01,1721201388388
-2.20,-4.44,2.40,-0.03,0.07,0.18,1721201388398
-0.32,3.39,18.06,-0.02,0.29,0.08,1721201388408
1.85,3.96,6.53,0.29,-0.20,0.10,1721201388418
1.19,-3.58,3.66,-0.21,0.14,-0.04,1721201388428
0.38,-0.73,18.21,-0.04,0.03,-0.25,1721201388438
-2.78,-0.66,8.75,0.13,0.05,-0.31,1721201388448
-3.13,2.26,11.37,-0.06,0.13,0.01,1721201388458
-2.74,-0.66,8.37,0.10,-0.08,0.26,1721201388468
0.56,-0.58,10.76,0.03,0.25,0.27,1721201388478
3.15,-1.75,9.93,0.00,-0.02,0.08,1721201388488
1.84,-0.59,14.59,-0.12,0.07,-0.22,1721201388498
-0.38,2.78,18.36,0.20,-0.04,-0.28,1721201388508
-4.36,2.70,0.54,0.29,-0.20,-0.07,1721201388518
-2.87,0.71,7.36,-0.11,0.22,0.07,1721201388528
1.12,1.64,13.86,0.19,-0.15,0.13,1721201388538
0.71,-0.05,6.90,0.09,0.11,-0.08,1721201388548
-0.14,1.32,12.96,-0.02,-0.01,-0.26,1721201388558
-2.40,1.57,12.15,0.10,-0.12,-0.11,1721201388568
-2.67,0.20,10.26,0.08,-0.02,-0.01,1721201388578
-0.25,1.10,8.27,0.22,-0.07,0.12,1721201388588
0.91,0.02,8.05,-0.01,0.07,0.10,1721201388598
0.86,3.55,14.04,0.09,-0.09,-0.09,1721201388608
0.93,1.24,5.17,0.12,-0.09,-0.07,1721201388618
-0.16,-2.79,8.01,-0.19,0.06,-0.15,1721201388628
-2.39,-0.42,12.71,-0.03,-0.19,-0.04,1721201388638
-0.25,6.08,7.87,0.15,0.13,0.11,1721201388648
2.26,-2.79,11.68,-0.21,0.13,0.05,1721201388658
-0.87,1.43,12.56,0.06,-0.25,-0.14,1721201388668
-1.22,3.06,3.84,-0.05,0.09,-0.12,1721201388678
-2.45,0.42,11.19,-0.29,0.00,-0.01,1721201388688
-0.74,-1.68,9.96,-0.01,-0.08,0.10,1721201388703
-0.62,-1.17,5.89,-0.00,-0.08,0.07,1721201388707
-0.52,-1.82,8.99,-0.20,0.06,-0.04,1721201388717
-1.32,1.70,11.24,-0.11,-0.14,0.02,1721201388727
-1.48,0.65,10.36,-0.03,-0.07,0.06,1721201388737
1.84,1.83,6.56,0.15,0.07,0.10,1721201388747
3.01,-6.74,4.15,-0.33,0.03,0.01,1721201388757
-1.35,-0.74,15.64,-0.21,-0.05,-0.27,1721201388767
-1.70,3.82,14.97,0.06,0.02,-0.30,1721201388777
-3.29,-4.15,4.56,-0.07,-0.23,0.06,1721201388787
-2.51,-2.65,7.81,-0.02,0.13,0.26,1721201388797
2.94,-0.41,14.00,-0.19,0.14,0.12,1721201388807
-0.02,2.30,14.67,-0.20,-0.10,-0.10,1721201388817
0.23,0.61,4.45,0.06,-0.05,-0.10,1721201388827
0.55,-10.49,1.88,-0.44,0.07,-0.01,1721201388837
-1.46,-3.96,20.13,-0.31,0.35,-0.08,1721201388847
0.22,7.11,15.72,0.07,-0.14,-0.24,1721201388857
-0.54,-1.64,2.88,-0.10,-0.06,-0.07,1721201388867
-1.65,0.19,10.57,-0.23,0.28,-0.15,1721201388877
0.07,1.86,16.71,-0.27,-0.07,-0.30,1721201388887
-1.69,3.68,12.77,-0.04,0.04,-0.12,1721201388897
-2.24,2.20,6.50,0.05,0.10,-0.06,1721201388907
-3.16,2.05,8.87,-0.08,-0.04,-0.06,1721201388917
-1.36,2.45,11.52,0.03,0.09,0.02,1721201388927
0.91,3.74,12.08,0.07,0.06,0.08,1721201388937
0.87,1.81,8.71,0.13,-0.05,0.15,1721201388947
1.61,2.10,8.09,0.10,0.10,0.05,1721201388957
1.30,-0.33,10.81,0.01,0.01,-0.19,1721201388967
-0.94,1.08,12.71,0.09,-0.04,-0.26,1721201388977
-0.57,5.83,14.57,0.20,0.02,-0.10,1721201388987
-0.68,2.01,9.68,0.31,-0.08,0.07,1721201388997
1.02,0.83,8.40,0.26,0.15,0.20,1721201389007
2.15,3.24,13.35,0.21,0.09,0.02,1721201389017
0.74,3.58,8.78,0.35,-0.13,-0.11,1721201389027
0.77,1.34,5.49,0.37,0.08,-0.06,1721201389037
0.87,-3.55,7.23,0.22,0.06,-0.10,1721201389047
-1.64,-1.55,11.11,0.21,0.02,-0.19,1721201389057
-2.12,0.81,11.39,0.31,0.02,-0.08,1721201389067
-2.77,2.38,9.85,0.29,0.03,-0.02,1721201389077
-2.50,-0.28,7.53,0.20,-0.07,0.06,1721201389087
-1.64,-7.11,9.64,-0.04,0.03,0.18,1721201389097
-1.40,-1.83,16.84,-0.01,-0.01,-0.06,1721201389107
-0.78,2.43,12.16,0.28,-0.14,0.02,1721201389117
1.56,-0.65,4.27,0.04,0.13,0.25,1721201389127
2.10,-0.67,8.13,-0.08,-0.02,0.11,1721201389137
1.93,-3.74,6.65,-0.19,0.00,-0.16,1721201389147
1.78,-4.14,12.98,-0.15,0.18,-0.39,1721201389157
-0.96,0.15,15.78,-0.13,-0.02,-0.28,1721201389167
-2.44,2.44,12.99,0.05,-0.14,0.02,1721201389177
-1.11,-1.95,-0.49,-0.14,-0.09,0.19,1721201389187
2.93,-2.97,15.18,-0.39,0.39,-0.03,1721201389197
2.67,-0.87,16.59,-0.02,-0.19,-0.27,1721201389207
-0.83,2.47,8.16,-0.11,0.01,-0.32,1721201389217
-1.53,-2.78,7.17,-0.29,-0.01,-0.07,1721201389227
1.01,-8.01,17.89,-0.42,0.31,-0.00,1721201389237
1.17,3.29,17.12,-0.01,-0.00,-0.01,1721201389247
0.72,2.13,1.36,0.02,-0.02,-0.17,1721201389257
0.01,1.40,6.45,-0.29,0.14,-0.11,1721201389267
0.50,-1.35,12.67,-0.15,0.07,-0.13,1721201389277
0.46,-4.68,16.76,-0.38,0.18,-0.21,1721201389287
0.34,12.21,15.33,0.12,0.07,-0.12,1721201389297
2.67,-2.02,-1.53,-0.04,0.03,-0.12,1721201389307
-1.48,1.16,16.45,-0.25,0.51,-0.37,1721201389317
-0.05,6.99,16.81,0.11,-0.05,-0.41,1721201389327
-3.43,-4.65,3.30,-0.05,-0.05,-0.23,1721201389337
-3.09,3.10,13.21,-0.02,0.24,-0.08,1721201389347
-1.10,6.23,9.31,0.27,0.03,-0.02,1721201389357
-1.09,-2.26,6.26,-0.08,0.17,0.01,1721201389367
1.63,1.51,18.46,0.03,0.21,-0.16,1721201389377
-0.02,-1.41,7.76,0.28,-0.06,-0.20,1721201389387
-0.98,-2.31,5.65,0.05,0.24,-0.17,1721201389397
-0.32,9.00,16.25,0.39,0.19,-0.18,1721201389407
-0.88,2.93,2.40,0.50,-0.17,-0.21,1721201389417
-2.21,-4.27,7.90,-0.06,0.31,-0.21,1721201389427
-1.32,-1.73,19.21,0.13,0.04,-0.15,1721201389437
-2.42,-1.30,4.70,0.32,-0.04,0.03,1721201389447
-2.47,1.25,7.10,0.07,0.22,-0.07,1721201389457
-2.55,3.62,11.44,0.25,-0.07,0.03,1721201389467
0.53,-2.50,6.95,0.10,0.13,0.18,1721201389477
1.55,-4.77,13.13,-0.09,0.12,0.18,1721201389487
2.47,2.14,16.08,0.14,0.09,0.01,1721201389497
0.28,1.41,6.17,0.29,-0.14,-0.24,1721201389507
-2.24,-2.93,4.97,0.04,0.07,-0.16,1721201389517
-2.75,1.87,12.19,0.15,0.13,0.06,1721201389527
0.92,-0.20,12.81,0.06,0.07,0.15,1721201389537
0.44,2.27,15.21,0.12,-0.04,-0.02,1721201389547
-1.59,2.17,1.69,0.26,-0.22,-0.10,1721201389557
-2.28,-4.62,6.71,-0.15,0.19,-0.15,1721201389567
-2.45,0.45,18.98,0.08,-0.08,-0.01,1721201389577
-2.83,8.24,8.81,0.24,-0.05,0.17,1721201389587
0.21,0.84,6.81,-0.11,0.10,0.07,1721201389597
0.83,-7.75,11.55,-0.19,-0.11,0.03,1721201389607
0.62,2.94,8.26,0.09,-0.06,-0.00,1721201389617
0.58,0.68,6.14,-0.19,-0.04,-0.07,1721201389627
-1.87,-1.35,13.13,-0.14,-0.21,0.04,1721201389637
0.42,2.86,11.90,0.16,0.04,0.11,1721201389647
2.24,5.19,7.77,0.01,-0.01,0.04,1721201389657
0.28,-0.54,8.69,-0.22,-0.04,-0.08,1721201389667
-0.23,2.01,15.85,-0.14,0.03,-0.10,1721201389677
-0.35,0.40,9.31,0.05,-0.20,0.07,1721201389687
0.18,1.19,6.81,-0.11,0.14,-0.00,1721201389697
1.37,2.23,10.73,-0.01,-0.01,-0.08,1721201389707
0.45,0.08,4.77,-0.11,-0.07,-0.07,1721201389717
-1.05,-2.38,8.74,-0.20,0.06,-0.13,1721201389727
-1.09,1.39,10.22,0.07,0.00,-0.03,1721201389737
0.38,-2.38,12.90,-0.23,0.09,0.06,1721201389747
-1.06,4.36,23.43,-0.15,-0.01,-0.04,1721201389757
-1.31,4.49,10.41,0.13,-0.16,-0.14,1721201389767
-1.82,-0.50,0.10,-0.17,0.08,-0.10,1721201389777
-1.90,-2.72,9.51,-0.16,0.12,0.01,1721201389787
-1.38,0.37,9.48,0.15,-0.09,0.17,1721201389797
0.16,-1.44,3.62,-0.02,0.00,0.18,1721201389807
1.73,-0.68,14.97,-0.28,0.15,-0.05,1721201389817
-0.81,5.47,16.58,-0.22,-0.20,-0.19,1721201389827
-0.86,1.47,11.42,-0.12,-0.00,-0.19,1721201389837
-1.07,-4.86,3.85,-0.03,-0.07,-0.06,1721201389847
-1.80,-4.32,8.68,-0.11,0.08,0.07,1721201389857
0.40,0.99,16.02,-0.07,0.06,-0.01,1721201389867
0.36,7.57,12.34,0.15,-0.11,-0.05,1721201389877
2.77,3.21,5.57,0.04,0.07,0.05,1721201389887
0.67,0.49,8.38,-0.08,0.01,-0.13,1721201389897
-1.22,-3.41,11.06,0.01,-0.12,-0.31,1721201389907
-1.91,-2.77,7.98,0.05,0.01,-0.15,1721201389917
-1.55,1.30,12.54,0.01,0.05,0.09,1721201389927
1.16,2.04,14.71,0.16,-0.02,0.20,1721201389937
1.68,1.87,6.16,0.20,0.01,0.01,1721201389947
2.35,-1.35,8.41,0.02,0.07,-0.15,1721201389957
1.48,2.24,17.84,0.06,0.15,-0.44,1721201389967
-2.86,0.39,10.52,0.18,-0.28,-0.29,1721201389977
-3.05,-0.59,8.70,0.15,0.23,-0.01,1721201389987
-0.77,-1.10,12.56,0.16,-0.01,0.21,1721201389997
0.54,2.35,11.29,0.22,0.04,0.06,1721201390007
2.28,3.64,8.41,0.29,0.05,-0.12,1721201390017
1.92,-0.31,9.21,0.09,0.13,-0.14,1721201390027
-1.19,0.18,14.32,0.22,0.02,-0.29,1721201390037
-1.35,-1.58,4.41,0.31,-0.07,-0.04,1721201390047
0.17,-0.72,12.11,0.06,0.30,0.05,1721201390057
1.59,5.52,12.32,0.45,-0.13,0.09,1721201390067
3.30,0.70,1.75,0.29,0.20,-0.02,1721201390077
2.86,2.00,14.79,0.04,0.25,-0.33,1721201390087
-1.71,1.40,11.15,0.35,-0.22,-0.53,1721201390097
-3.49,-3.50,1.47,0.14,0.21,-0.26,1721201390107
-3.18,-0.21,13.10,-0.01,0.33,-0.02,1721201390117
-1.25,2.67,11.11,0.34,-0.00,-0.01,1721201390127
2.02,-1.31,6.62,0.06,0.29,0.01,1721201390137
2.02,1.90,13.11,0.01,0.13,-0.21,1721201390147
0.92,-1.10,10.54,-0.06,0.09,-0.31,1721201390157
-3.04,2.14,10.83,0.04,0.11,-0.30,1721201390167
-1.34,2.20,3.83,0.06,0.25,-0.13,1721201390177
1.05,-3.60,10.93,-0.27,0.26,-0.02,1721201390187
-0.08,1.45,15.63,-0.02,0.10,-0.18,1721201390197
-1.37,2.18,8.05,0.03,0.15,-0.25,1721201390207
-1.98,2.56,9.28,-0.11,0.25,-0.14,1721201390217
-0.10,-1.74,9.37,-0.07,0.13,-0.01,1721201390227
0.24,-1.81,9.21,-0.05,0.20,0.00,1721201390237
0.09,1.80,6.64,-0.02,0.12,-0.15,1721201390247
-1.06,2.24,9.29,-0.14,0.21,-0.34,1721201390257
-1.53,2.29,10.45,0.02,0.16,-0.19,1721201390267
-1.34,-0.63,10.20,-0.17,0.22,-0.05,1721201390277
-1.78,2.38,12.81,-0.09,0.07,-0.07,1721201390287
1.37,-0.84,10.74,-0.26,0.27,-0.04,1721201390297
0.18,0.59,12.39,-0.15,0.07,-0.22,1721201390307
-1.07,-2.61,7.16,-0.08,0.14,-0.23,1721201390317
-2.41,-0.30,14.23,-0.25,0.28,-0.16,1721201390327
-2.11,4.87,15.80,0.03,0.01,0.03,1721201390337
-1.25,-0.75,5.37,-0.13,0.08,0.14,1721201390347
-0.92,-2.53,8.10,-0.23,0.09,-0.06,1721201390357
0.28,-3.33,7.28,-0.16,0.11,0.06,1721201390367
0.59,-2.32,8.12,-0.26,0.15,0.10,1721201390377
-0.69,1.38,10.71,-0.02,0.01,0.04,1721201390387
-0.06,-1.30,4.40,-0.05,0.17,0.08,1721201390397
0.21,3.42,13.20,-0.11,0.16,0.07,1721201390407
-0.35,1.10,14.97,-0.14,0.01,-0.12,1721201390417
-2.15,-5.03,7.71,-0.06,-0.07,-0.07,1721201390427
-3.09,-7.01,9.58,-0.32,0.24,-0.01,1721201390437
-1.90,6.00,20.48,-0.09,0.08,0.07,1721201390447
-1.33,11.26,16.43,0.14,-0.11,0.15,1721201390457
2.22,-1.60,6.01,-0.15,0.05,0.07,1721201390467
0.93,-7.92,9.55,-0.35,0.14,0.06,1721201390477
-0.79,4.48,16.71,-0.11,0.00,-0.03,1721201390487
-1.40,3.56,13.78,0.04,-0.06,-0.07,1721201390497
-1.22,1.81,12.53,0.17,0.14,0.02,1721201390507
-1.79,0.23,7.23,0.21,-0.12,0.24,1721201390517
1.03,3.93,10.92,0.16,0.16,0.20,1721201390527
2.28,6.20,10.76,0.27,-0.07,0.00,1721201390537
-0.69,2.47,2.47,0.25,-0.12,-0.17,1721201390547
-2.63,-3.09,4.17,0.07,0.03,-0.16,1721201390557
-4.01,-0.37,11.84,0.07,0.03,0.06,1721201390567
-2.60,5.00,9.30,0.25,-0.04,0.25,1721201390577
1.04,3.09,6.70,0.05,0.05,0.34,1721201390587
1.98,0.82,5.65,0.15,-0.15,0.34,1721201390597
2.83,-7.72,4.07,-0.21,0.03,0.10,1721201390607
3.30,-4.54,31.94,-0.33,0.21,-0.24,1721201390617
-3.03,11.36,23.65,0.57,-0.56,-0.45,1721201390627
-5.04,-0.13,-6.53,0.00,-0.08,-0.14,1721201390637
-6.91,-1.17,13.57,-0.25,0.08,0.24,1721201390647
-2.87,-0.72,14.20,0.09,-0.26,0.44,1721201390657
1.48,1.19,5.91,-0.04,0.05,0.27,1721201390667
3.73,5.65,13.51,0.01,-0.04,0.11,1721201390677
3.19,-2.01,8.31,-0.06,-0.26,0.01,1721201390687
0.45,-1.00,8.72,-0.17,-0.05,-0.27,1721201390697
-2.76,2.71,9.11,0.02,-0.05,-0.05,1721201390712
-4.05,1.82,7.66,-0.06,-0.12,0.02,1721201390716
-0.97,0.88,14.73,-0.09,0.06,0.22,1721201390726
0.63,1.81,14.65,0.07,-0.13,0.29,1721201390736
1.73,2.38,3.95,0.03,-0.08,0.09,1721201390746
0.52,-1.24,6.49,-0.13,-0.11,-0.07,1721201390756
0.34,0.45,12.75,-0.03,0.10,-0.07,1721201390766
-1.20,-1.15,10.09,0.05,-0.24,0.09,1721201390776
-0.61,-1.23,11.66,-0.06,0.03,0.13,1721201390786
1.48,4.61,13.27,0.01,-0.05,-0.06,1721201390796
0.28,1.34,8.51,-0.07,-0.20,-0.14,1721201390806
-1.02,-1.79,6.25,-0.02,0.01,-0.08,1721201390816
-1.87,-3.85,8.60,-0.09,0.01,-0.10,1721201390826
-2.51,2.49,12.38,0.04,-0.07,-0.10,1721201390836
-1.27,0.44,10.73,-0.05,-0.09,-0.04,1721201390846
-1.57,-1.30,7.70,-0.07,-0.16,0.14,1721201390856
0.17,-0.47,8.49,-0.02,0.08,0.06,1721201390866
2.53,-0.46,13.60,-0.05,0.02,-0.01,1721201390876
1.44,-0.06,10.07,0.01,-0.12,-0.17,1721201390886
-0.07,1.67,8.09,0.11,-0.05,-0.19,1721201390896
-0.11,-0.29,9.56,-0.00,0.04,-0.04,1721201390906
0.64,2.58,13.42,0.07,0.02,-0.02,1721201390916
-0.04,-1.37,6.18,0.06,-0.18,-0.05,1721201390926
-0.53,-4.18,9.97,-0.11,0.11,-0.24,1721201390936
-0.86,3.85,13.71,0.15,-0.06,-0.21,1721201390946
-0.70,-0.94,9.82,-0.02,-0.04,-0.00,1721201390956
-2.37,-1.83,12.05,0.02,-0.04,0.05,1721201390966
2.04,0.28,12.33,0.19,0.23,-0.09,1721201390976
0.57,0.64,7.83,0.04,-0.15,-0.04,1721201390986
-1.21,3.17,15.82,0.01,0.13,-0.06,1721201390996
-0.88,4.70,9.93,0.39,-0.20,-0.03,1721201391006
2.29,-6.81,3.91,0.03,0.17,0.09,1721201391016
1.29,3.45,12.96,0.21,0.06,-0.11,1721201391026
1.04,0.40,7.05,0.21,-0.17,-0.24,1721201391036
-1.68,3.96,12.79,0.18,0.18,-0.08,1721201391046
1.26,3.99,16.01,0.31,0.14,-0.10,1721201391056
-0.04,-0.40,7.20,0.19,-0.11,-0.07,1721201391066
0.28,-5.69,6.29,0.05,0.18,-0.27,1721201391076
-1.31,4.33,12.15,0.22,0.04,-0.31,1721201391086
-0.88,0.43,7.30,0.19,0.03,-0.02,1721201391096
-1.53,-1.44,8.94,0.19,0.07,0.08,1721201391106
0.95,-1.78,9.42,0.13,0.10,-0.13,1721201391116
1.26,6.69,16.31,0.11,0.13,-0.21,1721201391126
-1.41,2.33,4.77,0.17,-0.20,-0.15,1721201391136
-1.80,-5.59,4.22,-0.12,0.28,-0.14,1721201391146
-2.43,1.79,12.89,0.09,0.06,0.00,1721201391156
1.11,0.79,6.27,-0.06,0.10,-0.05,1721201391166
-0.81,1.32,10.83,-0.16,0.01,-0.21,1721201391176
-1.84,0.45,8.06,-0.05,0.02,-0.22,1721201391186
-1.40,0.88,8.81,-0.20,0.19,-0.06,1721201391196
1.26,0.98,13.05,-0.14,0.12,0.01,1721201391206
1.66,-3.50,14.52,-0.35,0.14,-0.24,1721201391216
-2.10,2.46,19.55,-0.03,-0.09,-0.24,1721201391226
-2.77,2.65,3.11,0.07,-0.03,-0.06,1721201391236
-1.39,1.13,4.56,-0.13,0.23,0.13,1721201391246
1.83,-2.76,14.82,-0.14,0.13,0.02,1721201391256
0.06,3.46,10.58,0.08,-0.11,-0.19,1721201391266
-0.44,0.91,3.51,-0.07,0.10,-0.17,1721201391276
0.12,-2.37,17.15,-0.31,0.28,-0.10,1721201391286
-1.26,2.99,19.89,0.10,-0.12,-0.05,1721201391296
-1.19,1.46,-1.79,0.22,-0.08,0.07,1721201391306
-0.08,-3.68,9.21,-0.37,0.26,0.00,1721201391316
-1.97,7.90,24.52,0.12,-0.09,-0.10,1721201391326
-1.46,-3.19,2.31,0.17,-0.17,-0.10,1721201391336
-3.80,-3.00,8.80,-0.15,0.20,-0.03,1721201391346
-2.26,3.55,11.48,0.10,-0.09,0.05,1721201391356
1.05,-4.74,8.79,-0.07,-0.05,0.19,1721201391366
0.80,6.23,16.14,0.12,0.09,0.01,1721201391376
1.61,4.56,6.70,0.22,-0.20,-0.15,1721201391386
-3.48,-1.16,3.06,0.00,-0.12,-0.13,1721201391396
-3.61,-4.87,9.66,-0.06,0.07,-0.05,1721201391406
-0.54,3.70,12.86,0.13,0.03,0.10,1721201391416
1.83,2.86,8.25,-0.04,-0.14,0.06,1721201391426
0.20,-0.42,9.27,-0.10,-0.09,-0.07,1721201391436
-0.27,-0.70,14.75,-0.03,-0.00,-0.12,1721201391446
-0.56,-0.35,7.27,0.06,-0.13,0.03,1721201391456
-1.04,-1.06,8.23,-0.13,0.13,-0.02,1721201391466
-0.32,1.60,14.78,0.02,-0.09,-0.10,1721201391476
-0.17,2.65,11.09,0.08,-0.10,-0.07,1721201391486
1.05,2.04,6.94,0.04,-0.02,0.03,1721201391496
0.56,-2.60,10.31,-0.17,0.03,-0.19,1721201391506
-0.02,5.45,19.08,0.09,-0.02,-0.26,1721201391516
-1.96,2.04,5.99,0.16,-0.19,-0.13,1721201391526
-0.59,-2.73,4.63,-0.08,0.07,-0.05,1721201391536
0.17,0.18,15.06,-0.02,0.09,-0.10,1721201391546
-0.02,3.24,12.97,0.05,-0.06,-0.19,1721201391556
-1.18,5.10,8.26,0.14,-0.07,-0.23,1721201391566
-0.73,-0.97,9.25,-0.00,0.02,-0.21,1721201391576
-1.70,0.28,10.37,0.07,-0.07,-0.14,1721201391586
0.11,0.19,10.77,0.02,0.15,-0.19,1721201391596
-0.43,0.12,9.65,0.02,-0.07,-0.22,1721201391606
-0.93,2.55,11.27,0.03,0.10,-0.24,1721201391616
-0.29,0.76,10.76,0.08,0.04,-0.22,1721201391626
0.25,0.53,9.25,0.03,0.09,-0.16,1721201391636
-0.32,1.32,9.51,-0.01,0.06,-0.22,1721201391646
-1.05,-1.95,10.97,-0.11,0.02,-0.24,1721201391656
-1.68,2.20,13.90,0.05,0.12,-0.16,1721201391666
-1.44,-0.64,4.35,0.02,-0.01,-0.10,1721201391676
-1.01,1.00,12.03,-0.06,0.19,-0.04,1721201391686
0.09,3.75,15.39,0.09,0.04,-0.04,1721201391696
-1.40,1.83,8.18,-0.01,-0.09,-0.13,1721201391706
-2.42,2.14,8.39,0.01,0.08,-0.15,1721201391716
-1.12,-2.19,5.80,-0.12,0.05,0.11,1721201391726
-1.06,-1.83,14.64,-0.20,0.09,0.08,1721201391736
-1.58,3.27,10.64,0.08,-0.22,0.09,1721201391746
1.03,-0.95,6.17,-0.09,0.12,0.11,1721201391756
2.55,0.16,11.83,-0.11,0.05,-0.02,1721201391766
0.34,1.89,11.27,-0.08,-0.09,-0.17,1721201391776
-1.59,-1.50,11.36,-0.16,0.05,-0.18,1721201391786
-3.07,-0.41,12.57,-0.01,-0.11,0.12,1721201391796
-2.46,0.33,7.01,0.01,0.02,0.16,1721201391806
1.86,-1.02,11.34,-0.10,0.17,0.01,1721201391816
2.35,1.58,12.77,-0.04,-0.03,-0.23,1721201391826
-1.53,-1.26,9.07,-0.16,-0.17,-0.20,1721201391836
-4.73,2.93,10.69,0.01,-0.02,-0.10,1721201391846
-1.30,-1.78,8.93,-0.02,0.17,0.03,1721201391856
0.45,-4.43,10.31,-0.19,-0.01,0.11,1721201391866
-0.17,4.40,15.51,0.04,-0.07,0.10,1721201391876
2.48,-1.37,6.75,-0.01,-0.03,0.07,1721201391886
1.22,-2.45,12.87,-0.21,0.11,-0.19,1721201391896
-1.25,-1.49,10.33,-0.04,-0.30,-0.14,1721201391906
-1.56,1.35,6.02,-0.06,0.20,-0.20,1721201391916
0.19,-0.28,20.44,-0.07,0.16,0.01,1721201391926
-1.81,3.96,9.30,0.13,-0.37,0.25,1721201391936
-0.18,-4.37,5.56,-0.10,0.19,0.09,1721201391946
3.26,-1.41,15.35,-0.08,0.13,-0.20,1721201391956
0.42,3.00,15.49,0.03,-0.19,-0.13,1721201391966
-1.80,2.33,4.99,0.08,-0.14,-0.07,1721201391976
-0.72,0.25,11.15,-0.01,0.18,0.07,1721201391986
1.61,4.47,1.35,0.36,-0.01,0.07,1721201391996
2.95,-13.23,9.11,-0.63,0.19,-0.15,1721201392006
-3.54,16.16,27.30,0.38,-0.09,-0.23,1721201392016
-0.16,2.27,4.81,0.50,-0.10,-0.01,1721201392026
-1.75,-9.13,10.39,-0.33,0.13,-0.10,1721201392036
-2.66,5.21,10.32,0.31,-0.15,-0.05,1721201392046
2.33,-2.73,1.65,0.08,0.32,-0.20,1721201392056
0.03,5.60,15.22,0.16,-0.01,-0.19,1721201392066
-2.38,-6.10,-5.31,-0.09,-0.35,-0.03,1721201392076
-2.50,0.35,24.58,-0.29,0.72,-0.24,1721201392086
1.05,6.76,18.72,0.41,-0.43,-0.16,1721201392096
-3.21,-3.97,-6.57,-0.16,-0.05,0.03,1721201392106
-7.52,3.73,16.60,0.01,0.52,0.14,1721201392116
4.90,-0.87,8.90,0.18,-0.27,0.02,1721201392126
1.59,-2.07,5.72,-0.10,0.07,-0.21,1721201392136
-0.50,-0.56,9.28,-0.01,0.10,-0.38,1721201392146
-1.90,2.80,16.42,-0.07,0.15,-0.26,1721201392156
-1.56,3.59,16.12,0.10,0.02,0.03,1721201392166
0.43,-3.13,4.22,0.04,0.00,0.19,1721201392176
2.17,-0.23,9.91,-0.06,0.25,-0.05,1721201392186
2.01,4.01,12.84,0.01,-0.03,-0.26,1721201392196
-0.41,3.25,9.11,0.11,0.04,-0.28,1721201392206
-0.98,-1.30,7.89,0.04,0.17,-0.19,1721201392216
-1.38,-1.56,10.78,0.01,0.13,-0.10,1721201392226
-0.40,4.40,14.20,0.08,0.20,-0.05,1721201392236
1.60,0.59,12.21,0.09,-0.01,0.06,1721201392246
0.97,1.64,7.47,0.14,0.09,-0.14,1721201392256
0.25,1.62,7.12,0.09,0.10,-0.32,1721201392266
-2.13,-0.63,9.54,0.13,0.13,-0.31,1721201392276
-2.46,0.46,10.33,0.13,0.24,-0.21,1721201392286
-1.91,-1.21,7.90,0.07,0.03,0.07,1721201392296
-0.97,-0.12,10.47,0.05,0.18,0.05,1721201392306
0.85,1.61,10.13,0.20,0.04,-0.05,1721201392316
1.25,-2.98,3.57,-0.03,0.09,-0.15,1721201392326
0.32,-3.61,13.44,-0.16,0.17,-0.13,1721201392336
-1.22,5.70,14.60,0.23,0.02,-0.23,1721201392346
-1.03,0.46,3.66,0.03,0.11,-0.13,1721201392356
-1.54,-3.17,7.98,-0.09,0.15,-0.07,1721201392366
-0.60,-2.23,16.04,-0.06,0.23,-0.15,1721201392376
-1.62,-2.63,7.44,0.10,-0.16,-0.06,1721201392386
-2.68,0.53,8.63,-0.18,0.25,-0.14,1721201392396
-0.58,1.28,17.94,0.08,-0.08,0.04,1721201392406
-1.52,-2.44,4.32,0.04,-0.09,0.06,1721201392416
-2.28,-1.98,9.92,-0.22,0.23,-0.09,1721201392426
-0.85,4.91,13.02,0.05,-0.08,-0.06,1721201392436
1.04,2.66,11.89,-0.07,0.10,0.03,1721201392446
-0.56,-2.85,7.72,0.06,-0.25,0.04,1721201392456
-0.01,-2.88,7.09,-0.05,0.24,0.02,1721201392466
2.89,2.36,17.88,-0.15,0.14,-0.10,1721201392476
-0.27,5.21,10.40,0.08,-0.27,-0.17,1721201392486
-1.76,-0.66,7.64,-0.11,0.08,-0.07,1721201392496
-1.33,-2.22,10.71,-0.04,-0.01,-0.01,1721201392506
-0.50,-0.83,10.19,-0.11,0.06,0.08,1721201392516
-0.45,6.31,14.83,0.01,-0.04,-0.00,1721201392526
0.97,2.95,9.86,0.09,0.01,-0.10,1721201392536
-1.06,-3.20,7.24,-0.02,-0.05,-0.08,1721201392546
-1.32,2.76,12.53,0.03,0.05,-0.17,1721201392556
0.08,-0.76,10.43,0.00,-0.04,-0.03,1721201392566
-0.11,3.42,15.44,-0.00,0.11,-0.02,1721201392576
-0.08,3.85,8.86,0.19,-0.10,-0.21,1721201392586
-0.65,-7.86,3.83,-0.13,-0.12,-0.19,1721201392596
-2.04,3.68,13.17,0.06,0.11,-0.07,1721201392606
1.35,3.58,6.27,0.21,-0.00,0.06,1721201392616
2.81,-1.61,9.04,-0.07,0.17,-0.02,1721201392626
2.21,0.08,17.35,0.06,0.05,-0.15,1721201392636
0.54,1.12,9.40,0.08,-0.01,-0.21,1721201392646
-0.32,3.31,14.15,-0.03,0.13,-0.05,1721201392656
-1.85,1.33,7.48,0.10,-0.16,-0.08,1721201393207
0.12,-3.54,6.82,-0.09,0.10,-0.03,1721201393212
0.67,1.84,17.59,-0.10,0.19,-0.04,1721201393222
1.02,6.64,11.55,0.25,-0.05,-0.18,1721201393232
0.91,-2.28,2.43,-0.02,0.14,-0.28,1721201393242
-0.24,0.36,13.50,0.01,0.24,-0.40,1721201393252
-1.23,4.44,7.15,0.21,-0.12,-0.16,1721201393262
-1.74,-1.74,5.36,-0.18,0.20,-0.08,1721201393272
-1.51,2.94,15.70,0.07,0.05,-0.16,1721201393282
1.25,-4.22,7.75,0.00,0.09,-0.05,1721201393292
-0.40,-2.63,8.04,-0.09,0.06,-0.06,1721201393302
-1.09,0.28,10.35,-0.02,0.14,-0.25,1721201393312
-0.61,3.51,15.29,0.02,0.19,-0.30,1721201393322
-2.25,3.05,4.05,0.14,-0.18,-0.08,1721201393332
-1.47,-1.23,7.84,-0.12,0.34,-0.05,1721201393342
0.44,-2.07,11.00,-0.02,-0.00,0.05,1721201393352
2.20,-2.22,9.76,-0.16,0.20,-0.07,1721201393362
0.61,2.07,15.22,-0.08,-0.03,-0.26,1721201393372
-3.13,1.81,5.15,0.06,-0.12,-0.30,1721201393382
-4.64,-0.87,9.17,-0.23,0.26,-0.20,1721201393392
-3.28,-3.26,10.85,-0.08,-0.04,0.08,1721201393402
-0.45,1.17,9.75,-0.05,0.22,0.25,1721201393412
1.75,-0.32,9.52,-0.06,0.03,0.01,1721201393422
1.36,-1.76,11.95,-0.17,0.11,-0.21,1721201393432
0.32,2.58,15.16,-0.04,0.07,-0.22,1721201393442
-1.98,1.56,8.46,0.01,-0.02,-0.17,1721201393452
-1.72,2.88,10.50,-0.03,0.16,-0.09,1721201393462
-1.82,-2.34,8.66,-0.05,-0.04,-0.02,1721201393472
-0.73,-4.36,10.81,-0.17,0.13,-0.01,1721201393482
0.22,3.30,11.37,0.11,0.06,-0.01,1721201393492
3.20,1.57,11.21,-0.12,0.31,-0.11,1721201393502
-0.13,5.85,17.45,0.07,-0.11,-0.21,1721201393512
-2.95,1.41,5.42,0.21,-0.11,-0.16,1721201393522
-1.93,-1.73,7.97,0.08,0.17,0.02,1721201393532
-0.05,-1.10,12.62,0.10,0.05,0.10,1721201393542
0.54,5.28,8.99,0.23,0.01,-0.07,1721201393552
0.83,0.16,8.29,0.09,0.11,-0.19,1721201393562
-1.15,0.35,9.46,0.15,0.06,-0.24,1721201393572
-2.08,3.50,10.33,0.17,0.11,-0.10,1721201393582
-1.36,0.88,11.28,0.08,-0.03,0.08,1721201393592
0.24,1.59,9.90,0.16,0.07,0.04,1721201393602
1.02,-1.74,6.08,0.03,0.03,-0.03,1721201393612
0.89,-1.23,12.68,-0.03,0.17,-0.10,1721201393622
0.16,-1.69,12.16,0.07,-0.01,-0.14,1721201393632
-0.43,2.36,9.60,0.04,0.16,-0.13,1721201393642
-0.76,6.09,8.57,0.14,0.06,-0.13,1721201393652
-1.19,0.21,8.08,-0.10,0.14,-0.13,1721201393662
-1.97,-2.42,11.96,-0.05,0.01,-0.07,1721201393672
-1.19,-2.71,7.61,-0.08,0.11,-0.03,1721201393682
-0.94,3.89,13.44,-0.13,0.11,-0.00,1721201393692
0.55,4.60,11.92,0.08,0.02,0.06,1721201393702
0.92,-0.31,4.50,-0.07,0.07,-0.06,1721201393712
-1.10,-0.49,7.07,-0.15,0.11,-0.20,1721201393722
-0.32,-6.54,18.10,-0.40,0.33,-0.22,1721201393732
-4.27,6.35,22.63,0.12,-0.13,-0.01,1721201393742
-2.89,4.72,-1.92,0.16,-0.15,0.32,1721201393752
3.14,-0.22,8.88,-0.23,0.48,0.17,1721201393762
4.65,1.62,13.04,0.11,-0.16,-0.22,1721201393772
-0.86,0.55,5.36,-0.17,0.09,-0.54,1721201393782
-5.36,3.40,12.54,0.06,-0.07,-0.38,1721201393792
-5.04,-2.90,7.14,-0.00,0.16,0.20,1721201393802
-2.53,-1.86,12.76,-0.11,0.12,0.26,1721201393812
1.81,-0.57,10.08,0.01,-0.03,0.20,1721201393822
3.84,2.02,11.51,-0.12,0.26,-0.13,1721201393832
0.64,2.90,13.10,0.01,-0.16,-0.35,1721201393842
-2.91,0.04,7.08,0.10,0.05,-0.14,1721201393852
-1.99,-1.92,8.37,-0.08,0.12,0.14,1721201393862
-0.27,0.45,17.81,-0.03,0.17,0.08,1721201393872
1.15,3.51,6.07,0.22,-0.16,0.17,1721201393882
1.85,-0.88,7.20,-0.20,0.23,-0.01,1721201393892
-1.71,-2.08,11.36,-0.01,-0.19,-0.17,1721201393902
-0.89,2.29,5.45,0.15,0.23,-0.04,1721201393912
1.88,1.55,16.48,-0.15,0.06,0.03,1721201393922
-2.04,0.52,6.22,0.12,-0.36,0.24,1721201393932
0.09,0.12,6.69,-0.10,0.47,0.10,1721201393942
1.90,0.30,18.65,-0.06,-0.01,-0.05,1721201393952
-1.83,0.68,4.39,0.02,-0.24,-0.03,1721201393962
-1.70,1.15,9.35,-0.04,0.28,-0.06,1721201393972
-0.19,3.04,11.43,0.09,-0.09,0.16,1721201393982
-0.60,0.00,5.42,-0.02,0.01,0.18,1721201393992
1.80,-2.15,13.08,-0.06,0.18,0.01,1721201394002
0.67,-0.25,10.70,-0.00,-0.10,-0.11,1721201394012
-1.11,1.42,11.94,-0.15,0.08,-0.13,1721201394022
-2.77,5.31,12.72,0.15,-0.10,0.07,1721201394032
0.36,0.12,6.78,0.17,0.15,0.20,1721201394042
0.43,0.45,12.07,-0.01,0.02,0.09,1721201394052
-0.26,3.78,11.18,0.16,-0.05,-0.04,1721201394062
1.83,0.13,12.55,0.06,0.21,-0.13,1721201394072
-2.27,4.13,9.82,0.19,-0.39,0.05,1721201394082
-1.62,0.04,3.59,0.16,0.09,0.14,1721201394092
1.55,-0.15,12.92,0.08,0.09,0.01,1721201394102
-0.64,1.06,9.19,0.05,-0.20,-0.08,1721201394112
-2.00,3.82,8.46,0.19,0.07,-0.02,1721201394122
1.48,-1.42,9.91,0.10,0.13,0.12,1721201394132
-0.35,-2.31,10.61,-0.06,-0.14,0.06,1721201394142
-0.27,5.13,8.49,0.20,0.01,-0.12,1721201394152
2.51,-1.79,11.28,-0.07,0.16,0.00,1721201394162
-2.03,0.21,12.15,0.07,-0.27,-0.08,1721201394172
-2.27,3.75,2.82,0.18,0.05,-0.02,1721201394182
1.21,-2.77,11.39,-0.19,0.22,0.06,1721201394192
0.32,-0.56,17.75,0.06,-0.17,-0.03,1721201394202
-0.45,1.78,2.09,0.12,-0.08,-0.01,1721201394212
0.60,0.56,10.85,-0.14,0.28,-0.13,1721201394222
-0.11,-3.44,8.51,-0.00,-0.13,-0.09,1721201394232
-1.59,-8.64,12.98,-0.42,0.30,-0.20,1721201394242
-1.82,11.19,23.65,0.32,-0.04,-0.11,1721201394252
1.62,0.76,-1.85,0.14,-0.09,0.20,1721201394262
1.08,-4.93,11.52,-0.33,0.28,0.00,1721201394272
2.91,4.08,13.73,0.22,-0.19,-0.15,1721201394282
-0.34,5.02,0.90,0.09,0.10,-0.18,1721201394292
-1.94,2.85,9.21,0.08,0.08,-0.09,1721201394302
-0.93,-3.24,6.63,0.10,-0.02,0.03,1721201394312
0.82,1.45,13.43,0.06,0.27,-0.07,1721201394322
0.94,1.61,11.72,0.06,-0.12,-0.09,1721201394332
-1.78,0.68,6.87,-0.04,0.04,-0.09,1721201394342
-0.18,3.20,16.64,0.07,0.22,-0.22,1721201394352
-1.87,0.41,4.70,0.15,-0.33,-0.08,1721201394362
-2.32,-2.14,6.40,-0.03,0.33,-0.05,1721201394372
-0.19,0.93,15.21,0.09,0.08,-0.01,1721201394382
-1.23,-1.07,10.22,-0.00,-0.01,0.00,1721201394392
-0.52,2.88,10.63,0.09,0.15,-0.01,1721201394402
1.10,3.68,6.86,0.13,0.07,0.02,1721201394412
0.62,0.83,9.27,-0.04,0.03,-0.03,1721201394422
-2.82,-0.75,9.47,-0.01,-0.26,-0.09,1721201394432
-4.05,-0.30,6.25,-0.03,0.02,-0.02,1721201394442
-1.44,3.73,13.61,0.02,0.17,0.02,1721201394452
1.09,-3.85,15.47,-0.12,0.03,0.23,1721201394462
0.15,2.38,11.58,0.06,-0.20,0.15,1721201394472
0.74,2.42,1.61,0.10,0.07,-0.02,1721201394482
1.60,0.58,11.96,-0.09,0.16,-0.05,1721201394492
0.12,2.13,17.49,-0.01,-0.19,-0.08,1721201394502
-1.95,-1.04,5.81,0.01,-0.27,0.13,1721201394512
-1.20,-1.24,5.34,-0.13,0.10,0.07,1721201394522
1.17,1.87,14.89,-0.06,0.12,0.00,1721201394532
1.14,3.77,11.25,0.15,-0.11,0.02,1721201394542
-0.18,1.51,7.00,0.01,-0.03,-0.06,1721201394552
-1.22,0.79,10.33,0.05,-0.05,-0.11,1721201394562
-0.39,-1.28,9.88,-0.03,0.03,0.03,1721201394572
-0.70,1.70,13.06,-0.04,-0.04,-0.00,1721201394582
-1.03,1.62,6.21,0.11,-0.14,0.06,1721201394592
1.01,-2.96,7.32,-0.12,0.10,0.01,1721201394602
0.69,-0.43,16.54,-0.07,0.03,-0.18,1721201394612
-1.53,0.90,9.71,-0.03,-0.18,-0.15,1721201394622
-2.60,2.61,9.97,0.04,0.05,0.02,1721201394632
0.04,1.11,9.10,0.03,-0.01,0.14,1721201394642
0.00,2.95,10.40,0.08,-0.11,0.11,1721201394652
2.02,-0.64,9.25,-0.02,0.07,-0.00,1721201394662
0.10,-2.81,13.06,-0.18,-0.13,-0.25,1721201394672
-2.56,1.55,7.49,0.03,-0.13,-0.17,1721201394682
-0.69,-0.10,8.85,-0.13,0.19,0.02,1721201394692
-0.09,3.37,15.51,0.04,-0.05,-0.01,1721201394702
-0.16,0.97,5.64,0.03,-0.20,0.08,1721201394712
-1.32,-3.22,9.34,-0.22,0.05,-0.14,1721201394722
-0.53,-1.18,15.87,-0.08,0.02,-0.18,1721201394732
-0.06,2.78,10.23,0.01,-0.04,-0.03,1721201394742
0.65,2.58,10.27,-0.00,-0.03,0.01,1721201394752
-0.15,-0.08,8.23,0.02,-0.13,-0.04,1721201394762
-0.70,-1.17,9.96,-0.08,0.04,-0.12,1721201394772
-1.00,6.27,14.50,0.11,-0.01,-0.13,1721201394782
-0.85,-1.21,4.97,-0.11,-0.19,0.00,1721201394792
-0.82,0.16,10.54,0.02,0.04,-0.01,1721201394802
3.96,-2.61,11.25,-0.07,0.18,-0.07,1721201394812
-1.11,0.18,14.35,-0.21,-0.26,-0.24,1721201394822
-3.14,7.74,11.35,0.16,-0.01,-0.11,1721201394832
0.80,0.34,8.43,-0.06,0.10,0.12,1721201394842
-0.67,0.35,9.91,-0.04,-0.25,0.08,1721201394852
2.19,-0.62,9.33,0.03,0.11,-0.10,1721201394862
1.56,1.43,9.35,-0.05,-0.02,-0.24,1721201394872
-1.68,2.32,13.59,-0.03,-0.08,-0.23,1721201394882
-1.84,-1.41,7.40,0.11,-0.05,-0.05,1721201394892
-0.32,1.58,8.11,-0.02,0.11,-0.04,1721201394902
1.16,0.96,16.37,-0.08,0.02,-0.12,1721201394912
-2.12,3.57,8.31,0.12,-0.27,-0.13,1721201394922
-1.68,-0.32,6.33,-0.02,0.15,-0.09,1721201394932
-0.87,-4.07,12.53,-0.11,-0.03,-0.05,1721201394942
-1.47,0.39,10.46,0.06,-0.05,-0.05,1721201394952
2.09,1.56,11.38,0.02,0.24,-0.05,1721201394962
0.40,0.91,11.91,0.00,-0.14,-0.10,1721201394972
-0.76,5.69,9.60,0.21,-0.01,-0.12,1721201394982
1.34,-1.08,8.39,-0.00,0.14,-0.14,1721201394992
-1.33,-0.27,14.12,-0.02,-0.13,-0.19,1721201395002
-1.52,-0.59,10.68,-0.01,0.00,-0.09,1721201395012
-1.70,5.29,8.19,0.18,-0.08,-0.01,1721201395022
1.46,-0.17,6.18,0.02,0.17,0.01,1721201395032
0.74,-1.76,12.90,-0.09,-0.04,-0.15,1721201395042
-1.01,3.85,10.97,0.12,-0.04,-0.24,1721201395052
-0.15,-1.03,8.27,-0.05,0.08,-0.10,1721201395062
-1.56,1.63,11.49,0.01,-0.13,0.02,1721201395072
0.30,-1.87,6.51,0.02,-0.02,-0.02,1721201395082
1.20,1.31,12.31,0.02,0.15,-0.18,1721201395092
0.63,0.63,12.10,-0.02,-0.05,-0.29,1721201395102
-3.84,2.84,8.97,0.03,-0.16,-0.16,1721201395112
-1.36,-0.65,9.72,0.00,0.15,0.01,1721201395122
0.75,-0.82,11.54,0.02,-0.01,-0.02,1721201395132
0.20,0.68,7.51,-0.00,-0.06,-0.16,1721201395142
-1.01,1.21,10.52,-0.06,0.13,-0.32,1721201395152
-1.49,-1.28,11.73,-0.02,-0.01,-0.22,1721201395162
-2.51,4.09,10.60,0.12,0.06,-0.03,1721201395172
0.36,-1.92,7.89,-0.01,0.06,0.03,1721201395182
-0.19,0.86,14.89,-0.03,0.04,-0.19,1721201395192
0.56,5.54,10.74,0.23,-0.02,-0.21,1721201395202
-0.26,-1.45,11.68,-0.09,0.30,-0.21,1721201395217
-2.58,2.15,14.07,0.01,0.14,-0.22,1721201395221
-1.78,-0.78,5.60,0.14,-0.14,-0.10,1721201395231
0.39,-2.47,10.12,-0.09,0.30,-0.07,1721201395241
0.68,4.78,15.42,0.15,-0.02,-0.10,1721201395251
-0.01,2.51,3.74,0.11,-0.09,-0.11,1721201395261
-0.86,-3.12,10.16,-0.14,0.13,-0.21,1721201395271
-1.12,-4.38,16.11,-0.05,-0.01,-0.16,1721201395281
-1.81,3.51,8.72,0.09,0.01,-0.05,1721201395291
0.23,1.30,6.13,-0.02,0.06,-0.03,1721201395301
0.24,-1.03,9.37,-0.08,0.01,-0.13,1721201395311
0.22,3.87,13.04,0.16,0.18,-0.23,1721201395321
0.85,-3.87,6.72,-0.06,-0.01,-0.15,1721201395331
-3.42,-0.85,12.92,-0.15,0.04,-0.18,1721201395341
-1.38,-0.14,10.79,0.11,0.10,0.02,1721201395351
1.54,3.49,9.50,0.03,0.22,-0.10,1721201395361
-0.68,2.34,9.20,0.02,-0.18,-0.15,1721201395371
-2.74,-0.63,9.27,0.04,0.09,-0.20,1721201395381
0.56,0.35,13.57,-0.04,0.28,-0.07,1721201395391
0.42,3.82,14.19,0.13,-0.05,0.02,1721201395401
0.16,-0.99,8.05,0.01,-0.03,0.08,1721201395411
-0.93,-1.03,10.85,-0.03,-0.01,-0.09,1721201395421
-1.21,5.13,10.70,0.18,0.06,-0.26,1721201395431
-0.74,0.24,8.72,-0.00,0.07,-0.10,1721201395441
-3.22,2.54,11.30,0.07,-0.05,0.01,1721201395451
-0.50,3.78,7.25,0.23,0.04,0.13,1721201395461
3.14,-5.65,8.38,-0.12,0.21,0.07,1721201395471
2.15,3.10,16.61,0.10,0.05,-0.24,1721201395481
-0.26,1.02,8.80,0.06,-0.07,-0.23,1721201395491
-3.09,0.13,9.03,-0.03,0.02,-0.12,1721201395501
-1.82,3.27,9.54,0.19,0.05,0.09,1721201395511
0.97,-1.22,6.30,0.01,0.13,0.16,1721201395521
0.77,-3.18,11.49,-0.16,0.04,-0.15,1721201395531
-0.25,4.34,13.31,0.11,-0.00,-0.22,1721201395541
-0.05,-0.30,6.79,-0.03,0.07,-0.17,1721201395551
-1.86,-0.32,12.30,-0.02,0.04,-0.08,1721201395561
-0.44,1.03,10.39,0.08,0.10,-0.02,1721201395571
-0.77,0.91,8.90,-0.04,-0.02,-0.03,1721201395581
-1.02,1.56,9.83,0.04,0.03,-0.03,1721201395591
0.72,1.66,5.83,0.06,0.03,0.02,1721201395601
0.51,0.46,12.16,-0.08,0.10,-0.13,1721201395611
-1.24,1.33,12.01,0.02,-0.09,-0.11,1721201395621
-1.98,-1.21,11.09,-0.10,0.09,-0.08,1721201395631
-2.23,0.87,12.02,0.06,-0.06,0.05,1721201395641
0.19,-0.47,5.49,0.02,0.08,0.13,1721201395651
1.39,1.62,13.37,0.04,0.11,0.00,1721201395661
0.34,2.49,9.36,0.06,-0.15,-0.11,1721201395671
-0.65,4.17,10.48,0.08,0.10,-0.13,1721201395681
1.19,-0.30,14.43,0.04,0.17,-0.04,1721201395691
-1.93,-0.01,9.33,0.07,-0.29,0.03,1721201395701
-2.60,-0.20,5.31,0.04,-0.05,0.09,1721201395711
0.62,0.95,9.07,0.01,0.22,-0.02,1721201395721
1.15,-0.22,12.92,0.07,0.04,-0.12,1721201395731
-0.40,0.65,9.93,-0.04,-0.10,-0.03,1721201395741
-2.06,0.21,10.46,-0.05,-0.09,-0.01,1721201395751
-0.11,2.82,10.21,0.18,0.11,-0.02,1721201395761
2.08,-1.74,8.64,-0.04,0.05,0.03,1721201395771
-1.08,0.34,10.80,-0.01,-0.18,-0.05,1721201395781
-0.49,-3.28,10.53,-0.10,0.09,-0.09,1721201395791
-1.40,2.12,12.09,0.08,-0.08,0.01,1721201395801
-0.23,2.13,8.74,0.02,0.06,0.11,1721201395811
0.71,1.36,11.31,0.03,-0.13,0.10,1721201395821
1.57,-0.23,8.35,0.00,-0.12,0.02,1721201395831
1.37,-0.34,11.86,-0.09,-0.08,-0.06,1721201395841
-1.00,0.57,8.76,-0.02,-0.17,-0.09,1721201395851
-1.52,2.76,9.43,0.02,0.06,-0.07,1721201395861
0.40,-1.46,13.46,-0.07,-0.01,0.14,1721201395871
-1.39,1.47,8.98,0.01,-0.21,0.00,1721201395881
0.41,3.09,10.41,0.00,0.16,-0.07,1721201395891
1.02,-0.37,7.86,-0.03,-0.19,0.02,1721201395901
-0.51,2.66,12.56,0.04,0.04,-0.09,1721201395911
1.23,0.43,9.14,0.04,-0.11,-0.13,1721201395921
-2.19,-2.71,6.66,-0.22,-0.27,0.00,1721201395931
-2.65,5.98,15.49,0.10,0.00,-0.13,1721201395941
0.98,2.26,4.64,0.13,-0.14,-0.10,1721201395951
-0.26,-2.98,11.17,-0.16,0.04,-0.10,1721201395961
-1.20,0.71,15.40,0.13,-0.10,-0.04,1721201395971
-0.92,-0.41,8.66,-0.04,-0.10,0.05,1721201395981
-1.15,0.53,8.89,-0.01,-0.14,-0.04,1721201395991
2.46,0.65,11.27,0.01,0.09,0.03,1721201396001
1.63,1.92,9.57,0.02,-0.23,0.01,1721201396011
-0.51,4.43,10.84,0.06,-0.08,-0.18,1721201396021
-1.04,-2.78,8.54,-0.05,-0.20,-0.23,1721201396031
-3.24,-2.45,10.78,-0.15,-0.14,-0.04,1721201396041
-0.29,0.77,11.91,0.07,0.04,-0.01,1721201396051
1.68,2.44,8.62,0.00,0.00,-0.04,1721201396061
-0.47,2.26,12.10,-0.03,-0.19,-0.10,1721201396071
-0.09,1.14,10.20,0.11,-0.07,-0.03,1721201396081
1.03,-0.94,10.24,-0.02,0.02,-0.09,1721201396091
-0.89,0.22,7.86,-0.06,-0.31,-0.06,1721201396101
-1.14,4.64,9.32,0.10,-0.05,-0.10,1721201396111
2.22,-3.10,9.07,-0.05,0.06,-0.11,1721201396121
-1.08,2.65,12.52,-0.02,-0.21,-0.19,1721201396131
-1.95,-1.07,6.48,-0.01,-0.16,-0.18,1721201396141
-0.45,2.44,15.27,-0.03,0.14,-0.09,1721201396151
0.56,3.55,12.55,0.11,-0.18,-0.06,1721201396161
-0.20,-0.67,5.76,-0.08,-0.14,-0.13,1721201396171
-1.29,1.01,10.26,0.05,-0.13,-0.18,1721201396181
1.24,-2.01,11.51,-0.08,0.10,-0.22,1721201396191
-1.81,2.93,11.38,-0.02,-0.23,-0.20,1721201396201
-1.58,-0.98,8.30,0.04,-0.05,-0.05,1721201396211
1.41,1.74,10.56,0.02,0.09,0.04,1721201396221
0.49,-2.48,6.27,-0.19,-0.28,-0.21,1721201396231
-1.33,-0.39,14.67,-0.07,0.05,-0.35,1721201396241
1.37,8.29,13.13,0.26,0.04,-0.23,1721201396251
-0.88,-3.67,4.31,-0.27,-0.14,-0.16,1721201396261
-3.71,1.05,17.38,0.09,-0.06,-0.13,1721201396271
3.55,-0.63,8.60,0.08,0.19,-0.20,1721201396281
-0.10,3.96,11.41,-0.10,-0.39,-0.17,1721201396291
-0.58,3.99,5.46,0.16,-0.20,-0.01,1721201396301
3.24,-6.21,8.88,-0.22,0.26,-0.25,1721201396311
-2.34,2.77,16.55,0.00,-0.28,-0.32,1721201396321
-1.82,2.96,6.33,0.08,-0.01,-0.16,1721201396331
0.54,0.19,9.18,-0.03,0.07,0.03,1721201396341
1.77,-4.24,11.11,-0.18,-0.01,-0.07,1721201396351
0.05,2.94,12.93,0.03,-0.09,-0.30,1721201396361
0.94,3.88,9.47,0.03,-0.01,-0.36,1721201396371
-2.27,3.89,9.73,-0.03,-0.22,-0.17,1721201396381
-2.60,0.14,6.38,0.05,-0.02,-0.02,1721201396391
1.31,-1.17,11.49,-0.03,0.23,-0.23,1721201396401
0.16,0.73,7.51,-0.09,-0.29,-0.24,1721201396411
-1.05,0.77,12.27,-0.09,0.02,-0.12,1721201396421
2.23,1.68,16.25,0.01,0.05,-0.25,1721201396431
-0.32,1.55,13.06,-0.02,-0.36,-0.28,1721201396441
-3.55,1.92,2.58,0.08,-0.21,-0.06,1721201396451
-1.37,-5.40,5.94,-0.17,0.13,-0.15,1721201396461
-0.52,7.15,19.56,0.22,0.08,-0.32,1721201396471
1.10,-0.40,2.26,0.16,-0.27,-0.05,1721201396481
-1.61,0.08,9.62,-0.04,0.07,-0.19,1721201396491
1.39,-0.51,13.65,0.16,-0.05,-0.34,1721201396501
0.94,0.57,11.96,-0.06,0.02,-0.19,1721201396511
-2.55,6.22,10.30,0.14,-0.25,-0.26,1721201396521
0.10,0.44,5.91,0.18,0.05,-0.13,1721201396531
0.85,-5.48,5.94,0.03,-0.03,-0.19,1721201396541
-0.48,2.30,11.51,0.01,0.08,-0.29,1721201396551
-0.68,1.54,14.17,-0.01,-0.07,-0.42,1721201396561
-2.99,-3.79,6.87,0.00,-0.29,-0.14,1721201396571
-0.79,2.35,12.38,0.08,0.36,-0.16,1721201396581
2.12,3.55,13.15,0.17,-0.03,-0.32,1721201396591
-0.91,-8.63,1.98,-0.15,-0.13,-0.31,1721201396601
-2.40,7.01,17.14,0.16,0.36,-0.42,1721201396611
0.77,0.50,10.16,0.15,-0.13,-0.20,1721201396621
-1.64,-4.43,5.47,-0.07,-0.06,-0.09,1721201396631
0.55,1.32,9.01,0.04,0.14,-0.18,1721201396641
2.07,1.94,6.79,-0.05,0.01,-0.41,1721201396651
-1.56,-0.42,12.53,-0.10,0.03,-0.55,1721201396661
-3.41,-3.64,9.77,-0.05,-0.08,-0.32,1721201396671
-2.65,0.90,12.11,0.01,0.13,-0.09,1721201396681
1.46,-0.78,9.73,-0.01,0.12,-0.08,1721201396691
-0.70,-0.98,3.42,-0.08,-0.17,-0.27,1721201396701
0.90,0.36,13.97,-0.03,0.40,-0.39,1721201396711
0.85,2.72,10.60,0.14,-0.08,-0.33,1721201396721
-2.76,0.29,8.47,-0.14,0.09,-0.31,1721201396731
-2.09,-0.05,16.24,-0.03,0.08,-0.21,1721201396741
0.57,0.17,7.64,0.06,0.11,-0.19,1721201396751
1.39,2.34,12.64,-0.07,0.28,-0.29,1721201396761
-0.27,3.23,14.41,0.19,-0.18,-0.31,1721201396771
-1.59,2.47,-4.05,0.13,-0.04,-0.02,1721201396781
-1.26,-2.00,18.91,-0.33,0.57,-0.36,1721201396791
-0.98,6.84,21.98,0.27,-0.45,-0.26,1721201396801
-1.01,-1.76,-5.24,-0.04,0.10,-0.16,1721201396811
1.02,1.34,17.75,-0.08,0.53,-0.42,1721201396821
-1.97,1.83,14.46,0.16,-0.28,-0.24,1721201396831
-1.64,-0.43,4.09,-0.01,0.20,-0.07,1721201396841
0.22,2.92,13.15,0.02,0.11,-0.21,1721201396851
0.01,1.18,10.03,0.01,-0.06,-0.17,1721201396861
-0.21,5.09,12.68,0.15,0.20,-0.26,1721201396871
0.29,-0.32,4.90,0.01,-0.03,-0.27,1721201396881
-2.25,-3.42,10.74,-0.13,0.04,-0.14,1721201396891
-0.24,-2.84,11.86,0.07,0.14,-0.13,1721201396901
-0.60,-1.82,8.00,-0.16,0.04,-0.21,1721201396911
-1.30,3.83,14.51,0.04,-0.02,-0.19,1721201396921
1.76,0.61,9.26,0.16,0.14,-0.13,1721201396931
0.25,0.40,8.01,-0.07,0.06,-0.17,1721201396941
-2.57,-0.50,11.31,-0.08,-0.08,-0.29,1721201396951
-1.48,2.62,9.95,0.11,0.13,-0.16,1721201396961
1.30,-1.32,10.77,-0.04,0.26,-0.11,1721201396971
-1.00,0.49,8.76,-0.02,-0.19,-0.14,1721201396981
-0.71,-0.00,10.10,-0.10,0.17,-0.31,1721201396991
-1.20,1.31,11.17,0.09,0.09,-0.25,1721201397001
0.07,3.06,9.08,0.07,0.09,-0.16,1721201397011
0.16,1.67,10.04,0.06,-0.03,-0.02,1721201397021
-0.22,-5.49,8.70,-0.11,0.11,-0.17,1721201397031
-1.42,3.53,14.72,0.08,0.15,-0.30,1721201397041
0.39,1.83,8.37,0.04,0.01,-0.21,1721201397051
-1.88,-0.27,9.63,0.03,0.02,-0.07,1721201397061
1.06,-0.33,10.24,0.02,0.28,-0.17,1721201397071
0.53,4.57,11.96,0.15,-0.05,-0.22,1721201397081
0.13,2.88,6.87,-0.08,0.12,-0.28,1721201397091
-0.69,-2.02,14.63,-0.07,0.03,-0.27,1721201397101
-1.57,-1.55,6.46,0.09,0.10,-0.21,1721201397111
-0.60,-0.75,9.21,-0.19,0.24,-0.21,1721201397121
-2.35,1.49,13.58,-0.08,-0.11,-0.25,1721201397131
0.12,1.47,11.57,-0.05,0.23,-0.20,1721201397141
-0.34,4.99,12.96,0.10,0.04,-0.03,1721201397151
0.68,-2.37,7.89,-0.20,0.12,-0.15,1721201397161
-0.36,-6.05,9.50,-0.23,-0.03,-0.33,1721201397171
-0.91,1.82,8.64,-0.01,0.21,-0.30,1721201397181
-1.26,0.71,5.54,-0.10,0.08,-0.14,1721201397191
-2.81,5.58,13.82,-0.02,0.09,-0.23,1721201397201
-0.75,-1.82,8.85,0.08,-0.02,-0.13,1721201397211
0.98,2.57,13.71,-0.29,0.19,-0.10,1721201397226
0.57,-1.00,17.01,-0.28,0.14,-0.23,1721201397230
-0.53,3.19,12.94,0.05,0.02,-0.31,1721201397240
-0.97,-3.70,4.51,-0.12,0.08,-0.11,1721201397250
-1.38,0.47,12.60,-0.14,0.11,-0.11,1721201397260
-0.57,0.70,13.15,-0.04,-0.03,-0.19,1721201397270
-0.20,3.61,11.80,-0.02,0.08,-0.15,1721201397280
-0.56,4.63,13.94,0.03,0.05,-0.12,1721201397290
-1.16,2.44,7.24,0.09,-0.06,-0.07,1721201397300
-0.19,-5.46,6.95,-0.23,0.20,-0.15,1721201397310
0.38,2.80,18.64,-0.00,0.24,-0.11,1721201397320
1.61,4.11,21.43,0.13,0.12,-0.11,1721201397330
-2.50,4.49,9.68,0.26,-0.34,-0.01,1721201397340
0.16,3.17,-4.89,0.31,0.21,0.03,1721201397350
3.06,0.89,4.89,-0.16,0.27,-0.17,1721201397360
-3.58,-0.59,9.02,0.17,-0.25,-0.32,1721201397370
2.06,1.21,13.39,0.30,0.40,-0.30,1721201397380
-0.92,0.87,10.77,0.03,-0.17,-0.30,1721201397390
-4.74,2.38,13.52,-0.01,0.07,-0.20,1721201397400
-0.69,-1.80,16.51,0.06,0.20,-0.07,1721201397410
-1.19,-1.59,5.72,0.18,-0.25,0.19,1721201397420
0.88,2.18,3.62,0.22,0.23,0.05,1721201397430
4.26,0.43,8.36,0.16,0.07,-0.20,1721201397440
2.31,2.05,8.01,0.09,0.14,-0.45,1721201397450
0.31,-3.34,15.27,-0.28,0.26,-0.45,1721201397460
-4.98,-0.33,18.84,0.10,-0.10,-0.33,1721201397470
-2.87,2.13,6.00,0.30,0.15,0.03,1721201397480
0.00,0.44,5.87,-0.04,0.12,0.07,1721201397490
1.30,2.86,9.82,0.08,-0.01,-0.08,1721201397500
2.94,-0.68,13.67,-0.15,0.31,-0.42,1721201397510
-3.34,2.25,15.57,0.21,-0.30,-0.37,1721201397520
-3.29,1.73,3.63,0.19,0.22,-0.15,1721201397530
0.24,0.54,7.83,-0.04,0.23,0.01,1721201397540
-0.83,5.41,9.16,0.15,-0.06,-0.09,1721201397550
1.60,0.63,5.43,0.12,0.11,-0.10,1721201397560
2.32,1.37,13.17,-0.05,0.29,-0.34,1721201397570
-1.75,-2.06,7.28,0.11,-0.18,-0.37,1721201397580
-3.42,-0.56,11.82,-0.07,0.35,-0.29,1721201397590
-3.65,5.50,12.76,0.33,-0.15,-0.03,1721201397600
-0.55,1.31,5.88,-0.01,0.25,0.15,1721201397610
2.67,-2.28,13.47,-0.13,0.13,0.04,1721201397620
2.12,-3.43,11.48,-0.02,0.08,-0.34,1721201397630
-0.80,0.71,13.72,0.20,0.04,-0.51,1721201397640
-2.66,5.76,5.60,0.30,0.04,-0.22,1721201397650
-1.92,-0.96,5.32,-0.18,0.20,0.05,1721201397660
0.01,-0.84,17.60,-0.01,0.18,-0.03,1721201397670
1.43,-6.89,8.74,0.01,-0.06,-0.05,1721201397680
-1.95,8.23,12.71,0.32,0.25,-0.20,1721201397690
1.61,2.57,1.96,0.18,-0.01,-0.23,1721201397700
-2.01,2.12,11.20,-0.17,0.14,-0.21,1721201397710
-0.00,1.17,13.55,0.11,0.11,-0.10,1721201397720
-0.04,-5.82,5.35,-0.17,0.05,-0.10,1721201397730
-1.20,1.13,19.84,0.05,0.21,-0.16,1721201397740
-1.23,3.24,6.31,0.42,-0.18,-0.03,1721201397750
-0.74,3.51,3.75,-0.13,0.36,-0.12,1721201397760
-0.47,-0.49,11.54,-0.12,-0.07,-0.20,1721201397770
-0.90,-2.56,13.09,-0.15,0.28,-0.09,1721201397780
-0.62,-0.54,11.83,0.14,-0.08,0.10,1721201397790
-0.01,-0.88,3.73,0.06,0.13,0.04,1721201397800
3.32,4.24,8.99,0.07,0.24,-0.06,1721201397810
3.50,-3.57,14.49,-0.36,0.08,-0.34,1721201397820
-3.69,0.49,23.20,0.07,-0.19,-0.36,1721201397830
-4.37,4.94,6.17,0.42,0.10,-0.08,1721201397840
-1.82,-1.21,0.20,-0.17,0.01,0.20,1721201397850
-0.47,-1.12,10.11,-0.11,0.22,0.11,1721201397860
3.02,-2.07,12.51,-0.07,0.14,-0.17,1721201397870
-1.46,0.45,14.43,0.06,-0.07,-0.33,1721201397880
-2.26,0.09,9.71,0.07,0.09,-0.24,1721201397890
-3.03,0.11,11.55,-0.02,0.01,0.08,1721201397900
0.55,2.57,10.89,0.13,0.18,0.18,1721201397910
3.28,1.23,10.24,-0.09,0.01,0.09,1721201397920
-0.69,1.89,8.66,0.05,-0.22,-0.22,1721201397930
-0.10,0.35,6.84,0.05,0.21,-0.36,1721201397940
-1.32,-0.16,13.84,-0.20,0.08,-0.22,1721201397950
-4.78,0.09,13.27,0.06,-0.23,-0.06,1721201397960
-2.34,-2.58,12.17,-0.04,0.16,0.15,1721201397970
0.33,5.32,11.91,0.23,-0.01,0.11,1721201397980
2.49,-2.78,5.62,-0.17,0.08,-0.02,1721201397990
-0.06,3.86,11.17,0.11,0.01,-0.17,1721201398000
2.51,1.60,7.26,0.00,0.11,-0.21,1721201398010
-1.14,0.21,14.58,-0.14,-0.05,-0.17,1721201398020
-1.80,0.79,16.22,0.06,0.06,-0.15,1721201398030
-2.83,1.81,9.40,0.20,-0.13,-0.04,1721201398040
-0.62,1.17,5.18,-0.02,0.07,0.10,1721201398050
1.09,1.34,6.10,0.04,-0.02,0.05,1721201398060
2.50,0.64,8.19,-0.02,0.16,-0.22,1721201398070
0.11,-1.51,12.71,-0.12,-0.09,-0.36,1721201398080
-2.10,4.83,14.49,0.19,0.06,-0.27,1721201398090
-0.85,0.10,3.91,-0.05,-0.04,-0.02,1721201398100
-2.02,-0.82,12.92,-0.33,0.09,0.01,1721201398110
-0.38,2.66,19.96,0.30,-0.04,-0.01,1721201398120
1.58,-4.00,4.28,0.05,-0.08,-0.00,1721201398130
-0.77,4.14,9.98,-0.03,0.02,-0.11,1721201398140
0.33,1.40,5.53,0.10,-0.02,-0.17,1721201398150
-0.00,-0.66,7.17,-0.08,0.11,-0.07,1721201398160
0.88,0.16,11.14,-0.06,0.04,-0.01,1721201398170
-0.16,0.16,12.10,-0.08,-0.09,-0.15,1721201398180
-1.06,6.28,18.03,0.18,0.07,-0.27,1721201398190
-0.01,1.91,6.33,0.00,-0.08,-0.10,1721201398200
-3.08,-1.85,4.48,-0.22,-0.10,0.03,1721201398210
-0.27,-0.35,12.13,-0.05,0.16,-0.10,1721201398220
0.08,-2.19,13.07,0.05,-0.11,-0.09,1721201398230
-0.61,2.73,13.05,0.00,0.11,-0.10,1721201398240
0.07,5.60,11.26,0.10,-0.09,-0.11,1721201398250
-0.65,4.34,6.15,-0.13,-0.06,0.05,1721201398260
0.49,-2.44,10.52,-0.28,0.00,0.07,1721201398270
0.70,-7.15,11.75,-0.19,-0.05,-0.14,1721201398280
0.12,1.62,15.63,0.19,0.10,-0.30,1721201398290
-1.22,7.14,4.67,0.32,-0.18,-0.17,1721201398300
-1.87,4.08,5.19,-0.19,0.02,0.03,1721201398310
-0.97,-2.08,8.17,-0.19,-0.03,0.14,1721201398320
2.25,-5.00,15.94,-0.22,0.20,-0.09,1721201398330
1.52,0.51,14.60,0.14,-0.18,-0.24,1721201398340
-1.34,5.80,6.55,0.09,-0.11,-0.20,1721201398350
-3.01,0.34,5.89,-0.20,-0.07,-0.09,1721201398360
-1.95,-2.66,16.94,-0.29,0.17,-0.12,1721201398370
-1.06,-3.26,13.92,0.06,-0.18,-0.03,1721201398380
-0.37,1.55,7.93,0.04,0.00,0.05,1721201398390
-0.22,4.60,4.93,0.13,-0.13,-0.01,1721201398400
3.09,1.43,10.49,-0.17,0.21,-0.15,1721201398410
0.52,-1.13,16.00,-0.12,-0.22,-0.28,1721201398420
-3.73,1.00,10.24,0.05,-0.13,-0.26,1721201398430
-2.48,2.29,8.93,-0.00,0.04,-0.07,1721201398440
0.82,2.32,11.30,-0.06,-0.06,0.07,1721201398450
2.31,-0.02,10.18,0.02,-0.05,-0.06,1721201398460
0.93,0.28,6.57,0.01,-0.07,-0.30,1721201398470
-0.90,0.17,10.69,-0.16,0.08,-0.35,1721201398480
-2.87,2.61,18.56,-0.09,-0.08,-0.26,1721201398490
-3.94,2.15,10.06,0.16,-0.26,0.01,1721201398500
0.13,-0.81,5.77,-0.08,0.17,0.21,1721201398510
3.27,2.09,9.64,-0.01,-0.04,0.04,1721201398520
1.74,-0.96,5.39,-0.09,-0.20,-0.24,1721201398530
-0.58,1.25,14.28,0.03,0.11,-0.37,1721201398540
1.19,-0.06,13.13,0.07,0.03,-0.27,1721201398550
-1.52,3.86,10.81,0.08,-0.12,-0.05,1721201398560
-0.74,1.05,7.25,-0.15,-0.05,-0.14,1721201398570
-0.16,2.40,13.54,0.09,0.02,-0.18,1721201398580
2.21,-0.18,4.86,0.10,0.08,-0.20,1721201398590
-1.01,-2.06,7.96,-0.25,-0.12,-0.27,1721201398600
-2.39,3.84,16.61,0.18,-0.07,-0.24,1721201398610
0.51,-3.80,7.98,-0.06,0.08,-0.10,1721201398620
