AccX,AccY,AccZ,GyrX,GyrY,GyrZ,Time
1.86,-1.47,3.19,0.15,0.12,-0.01,1721200780143
2.02,0.94,4.39,0.01,0.18,-0.04,1721200780147
2.52,-0.50,13.27,0.01,0.00,-0.24,1721200780157
0.21,0.96,14.84,0.21,0.05,-0.47,1721200780167
-1.72,1.40,6.86,0.25,0.03,-0.40,1721200780177
-2.15,-0.23,5.43,-0.03,0.17,-0.28,1721200780187
-2.04,1.22,15.46,0.03,0.10,-0.25,1721200780197
-0.10,2.45,11.58,0.17,0.16,-0.35,1721200780207
0.93,0.44,6.92,0.05,0.13,-0.33,1721200780217
0.04,-2.38,8.23,-0.14,-0.01,-0.35,1721200780227
-2.00,1.02,13.01,0.09,-0.01,-0.52,1721200780237
-2.33,-1.14,8.83,-0.04,0.18,-0.62,1721200780247
-4.82,-0.28,8.38,0.02,-0.15,-0.31,1721200780257
-4.15,-1.25,8.59,-0.24,0.12,-0.20,1721200780267
-0.73,-1.20,12.12,-0.06,0.02,-0.23,1721200780277
0.47,0.64,8.58,-0.10,0.07,-0.37,1721200780287
-0.69,-1.74,10.65,-0.24,-0.05,-0.33,1721200780297
-1.10,0.73,10.79,-0.05,-0.09,-0.20,1721200780307
1.46,-2.06,4.78,-0.22,0.02,-0.26,1721200780317
-0.68,-2.09,17.41,-0.29,0.02,-0.45,1721200780327
-1.02,-2.18,9.63,-0.06,-0.08,-0.46,1721200780337
-1.28,1.29,7.35,-0.16,0.06,-0.27,1721200780347
0.98,-1.23,10.51,-0.30,0.10,-0.25,1721200780357
0.45,-0.31,11.66,-0.25,-0.06,-0.34,1721200780367
0.10,1.50,11.91,-0.17,0.04,-0.46,1721200780377
-2.14,0.70,7.22,-0.20,-0.08,-0.46,1721200780387
-4.78,-5.93,8.73,-0.34,-0.10,-0.22,1721200780397
-2.79,-1.04,11.56,-0.16,0.00,0.04,1721200780407
1.68,1.30,12.67,-0.15,0.05,-0.06,1721200780417
0.48,3.80,10.32,-0.10,-0.32,-0.22,1721200780427
-1.17,-3.54,8.46,-0.21,-0.09,-0.22,1721200780437
-0.04,-0.91,12.56,-0.17,0.03,-0.09,1721200780447
-1.07,-1.95,9.98,-0.09,-0.19,-0.06,1721200780457
-1.32,1.44,12.94,-0.09,-0.08,-0.11,1721200780467
-0.70,-1.75,7.81,0.07,-0.31,-0.04,1721200780477
0.34,0.46,10.18,-0.09,0.07,-0.01,1721200780487
1.52,-2.21,12.64,0.04,-0.20,-0.05,1721200780497
-0.80,-0.01,11.44,0.03,-0.05,-0.19,1721200780507
-0.58,0.50,10.21,0.16,-0.17,-0.17,1721200780517
-3.28,-0.21,11.34,0.14,-0.13,-0.04,1721200780527
-1.51,-2.84,8.49,0.19,-0.27,0.15,1721200780537
2.73,-3.03,11.80,0.04,0.10,0.05,1721200780547
2.73,0.15,13.59,0.30,-0.25,-0.17,1721200780557
0.23,-1.70,4.43,0.21,-0.11,-0.25,1721200780567
-2.49,-1.47,9.88,0.11,-0.07,-0.24,1721200780577
0.21,0.63,18.20,0.14,0.07,-0.05,1721200780587
0.83,0.64,11.33,0.24,-0.21,0.04,1721200780597
1.49,-1.12,6.05,0.13,-0.05,-0.10,1721200780607
1.31,-2.05,10.50,0.03,-0.05,-0.31,1721200780617
-0.20,1.06,12.74,0.16,-0.15,-0.35,1721200780627
-0.28,-2.18,9.96,0.09,-0.02,-0.25,1721200780637
-0.89,-0.45,8.94,0.12,-0.12,-0.16,1721200780647
-0.47,2.60,9.65,0.10,-0.05,-0.22,1721200780657
0.28,1.02,9.22,0.09,-0.11,-0.29,1721200780667
-0.33,0.01,9.94,0.11,-0.06,-0.33,1721200780677
-0.28,0.57,8.58,0.14,-0.03,-0.33,1721200780687
-0.54,1.07,10.44,0.07,-0.03,-0.28,1721200780697
0.99,3.38,13.95,0.21,-0.06,-0.27,1721200780707
1.88,0.79,7.29,0.17,-0.09,-0.38,1721200780717
0.54,3.09,11.23,0.12,-0.03,-0.61,1721200780727
-0.84,2.06,10.93,0.14,-0.06,-0.73,1721200780737
-2.61,2.41,11.29,0.13,-0.10,-0.58,1721200780747
-2.94,1.64,10.25,0.10,-0.10,-0.42,1721200780757
-1.91,3.37,10.03,0.15,-0.16,-0.43,1721200780767
0.01,2.00,7.18,0.00,-0.02,-0.49,1721200780777
0.77,1.82,12.47,-0.08,-0.01,-0.65,1721200780787
-0.98,2.43,13.66,-0.01,-0.09,-0.68,1721200780797
-3.49,1.95,8.64,0.02,-0.17,-0.63,1721200780807
-3.17,0.96,7.66,-0.09,-0.06,-0.49,1721200780817
-0.10,0.41,11.21,-0.10,-0.00,-0.40,1721200780827
0.21,-1.73,9.75,-0.17,-0.11,-0.49,1721200780837
-0.69,-0.66,9.05,-0.11,-0.07,-0.60,1721200780847
-0.33,-2.55,9.61,-0.23,0.01,-0.62,1721200780857
-1.07,-2.04,11.74,-0.18,-0.22,-0.38,1721200780867
-0.05,-3.83,9.88,-0.25,-0.02,-0.28,1721200780877
2.07,-1.58,10.02,-0.20,-0.10,-0.40,1721200780887
2.81,-3.80,7.00,-0.32,0.00,-0.70,1721200780897
-1.29,-1.84,12.10,-0.32,-0.11,-0.87,1721200780907
-3.86,-1.22,10.69,-0.28,-0.02,-0.79,1721200780917
-4.54,-4.06,8.39,-0.35,-0.03,-0.44,1721200780927
-3.11,-3.15,11.31,-0.40,-0.03,-0.27,1721200780937
0.12,0.89,13.20,-0.35,-0.01,-0.36,1721200780947
0.49,-0.98,9.33,-0.23,-0.17,-0.52,1721200780957
-0.44,-1.64,8.58,-0.32,0.10,-0.61,1721200780967
-1.51,-1.14,13.17,-0.30,-0.17,-0.44,1721200780977
-3.21,2.25,12.64,-0.13,-0.02,-0.38,1721200780987
-0.66,-4.74,7.84,-0.13,-0.12,-0.21,1721200780997
1.05,1.44,13.38,-0.11,0.11,-0.17,1721200781007
2.82,1.88,14.78,0.05,-0.11,-0.14,1721200781017
1.56,-0.48,7.77,0.08,-0.11,-0.21,1721200781027
3.13,-0.11,10.46,0.07,0.10,-0.42,1721200781037
0.59,1.47,15.17,0.20,-0.27,-0.34,1721200781047
1.53,0.55,8.01,0.30,0.07,-0.15,1721200781057
0.73,-3.67,7.61,0.18,-0.05,-0.19,1721200781067
0.30,0.01,11.43,0.25,0.04,-0.24,1721200781077
2.63,-2.56,11.77,0.20,0.00,-0.24,1721200781087
2.60,-0.54,10.81,0.29,0.08,-0.26,1721200781097
2.85,-2.16,7.67,0.24,0.10,-0.31,1721200781107
1.07,1.13,10.70,0.21,0.16,-0.45,1721200781117
0.21,-2.38,11.54,0.14,0.08,-0.56,1721200781127
-1.52,-0.22,10.64,0.20,0.06,-0.44,1721200781137
0.35,-1.94,7.24,0.13,0.19,-0.30,1721200781147
1.13,-2.79,10.58,0.03,0.17,-0.31,1721200781157
1.16,1.47,14.58,0.08,0.23,-0.49,1721200781167
0.28,1.55,8.55,0.15,0.10,-0.61,1721200781177
0.53,3.42,10.68,0.12,0.30,-0.46,1721200781187
1.18,2.36,10.01,0.13,0.20,-0.44,1721200781197
1.45,1.49,8.46,0.15,0.26,-0.49,1721200781207
1.39,-1.96,8.25,0.11,0.21,-0.62,1721200781217
-0.34,1.22,11.18,0.16,0.30,-0.63,1721200781227
-1.17,4.63,13.46,0.20,0.32,-0.58,1721200781237
-0.93,4.28,8.48,0.19,0.22,-0.48,1721200781247
0.05,1.02,10.64,-0.01,0.38,-0.53,1721200781257
1.20,3.21,12.72,0.16,0.32,-0.61,1721200781267
0.29,-1.24,4.62,0.06,0.19,-0.72,1721200781277
-1.16,1.95,13.68,-0.03,0.42,-0.78,1721200781287
-1.42,4.19,8.83,0.31,0.16,-0.74,1721200781297
-2.03,-1.82,5.66,-0.16,0.38,-0.74,1721200781307
-2.50,1.40,17.75,0.06,0.29,-0.75,1721200781317
-0.31,-0.66,6.13,0.08,0.23,-0.59,1721200781327
-1.47,0.96,10.34,-0.02,0.33,-0.65,1721200781337
0.34,-1.89,9.42,-0.04,0.28,-0.68,1721200781347
-1.54,-1.64,9.77,-0.04,0.12,-0.65,1721200781357
-0.22,-4.38,9.81,-0.16,0.41,-0.69,1721200781367
-0.06,0.60,11.53,0.03,0.27,-0.64,1721200781377
0.99,-3.39,7.85,-0.20,0.47,-0.78,1721200781387
-0.35,-5.27,9.97,-0.12,0.25,-0.79,1721200781397
-0.91,-3.58,10.99,-0.12,0.49,-0.62,1721200781407
-1.19,-2.94,13.40,-0.09,0.34,-0.49,1721200781417
-1.21,2.72,12.83,-0.01,0.41,-0.48,1721200781427
0.89,-3.38,6.31,-0.12,0.27,-0.51,1721200781437
-2.39,-0.30,13.04,-0.05,0.36,-0.67,1721200781447
-3.27,-4.01,6.55,-0.07,0.37,-0.74,1721200781457
-5.29,-0.25,15.03,-0.08,0.35,-0.48,1721200781467
-4.68,-3.34,5.00,0.04,0.23,-0.10,1721200781477
-1.73,-0.28,14.46,-0.05,0.67,-0.11,1721200781487
-0.32,4.47,13.70,0.15,0.24,-0.21,1721200781497
-0.91,-1.03,5.27,-0.04,0.25,-0.52,1721200781507
-1.70,-1.26,13.29,0.06,0.25,-0.41,1721200781517
-3.91,-3.31,5.97,0.16,0.09,-0.07,1721200781527
-3.52,-1.44,11.91,0.02,0.42,0.04,1721200781537
-1.73,-1.42,10.75,0.22,0.10,-0.12,1721200781547
-1.70,-5.89,5.43,-0.01,0.24,-0.25,1721200781557
-1.89,-1.13,15.63,0.13,0.22,-0.16,1721200781567
-1.58,1.20,8.97,0.19,0.19,0.01,1721200781577
-3.55,-3.99,7.41,-0.11,0.08,-0.01,1721200781587
-2.52,-1.03,14.01,0.07,0.16,-0.03,1721200781597
0.85,2.52,9.09,0.23,0.09,0.01,1721200781607
0.21,-4.22,7.06,0.04,-0.08,0.04,1721200781617
-4.72,1.36,11.65,0.10,0.20,-0.05,1721200781627
-2.30,3.92,11.31,0.15,0.20,0.02,1721200781637
-0.36,-1.46,9.70,-0.03,-0.01,0.10,1721200781647
-0.61,3.88,11.78,0.26,0.05,0.10,1721200781657
0.87,-1.19,7.13,0.08,0.16,0.17,1721200781667
-1.57,3.28,16.38,0.06,0.03,0.18,1721200781677
-1.31,6.31,8.44,0.31,-0.08,0.10,1721200781687
0.53,1.81,10.06,0.02,0.10,0.04,1721200781697
-1.13,2.69,9.50,0.28,-0.17,0.11,1721200781707
-1.41,3.26,8.57,0.07,0.22,0.10,1721200781717
-1.42,2.46,8.98,0.16,-0.12,0.21,1721200781727
-0.92,-1.00,8.70,-0.07,0.07,0.30,1721200781737
1.54,5.72,15.05,0.25,0.04,0.28,1721200781747
3.03,1.66,3.28,0.09,-0.02,0.10,1721200781757
0.14,3.10,17.93,-0.09,0.15,-0.17,1721200781767
-2.94,0.81,7.12,0.30,-0.19,-0.04,1721200781777
-3.00,-3.07,6.80,-0.15,0.13,0.14,1721200781787
-2.61,1.37,12.02,0.10,-0.10,0.42,1721200781797
0.49,1.33,9.55,-0.02,0.06,0.26,1721200781807
2.71,-0.80,11.76,-0.01,-0.06,0.02,1721200781817
0.12,-5.15,9.53,-0.10,-0.10,0.03,1721200781827
-3.17,0.90,14.22,0.03,-0.02,0.18,1721200781837
-2.24,-2.98,4.60,-0.07,-0.16,0.21,1721200781847
-2.47,-2.94,12.67,-0.20,0.00,0.17,1721200781857
1.65,-8.02,8.56,-0.03,-0.20,0.29,1721200781867
0.97,-1.61,10.87,-0.03,0.03,0.35,1721200781877
0.91,1.28,13.92,-0.13,0.18,0.12,1721200781887
-0.37,-5.71,10.69,-0.14,-0.25,0.21,1721200781897
2.72,-4.16,6.69,-0.16,0.16,0.41,1721200781907
3.29,0.10,9.42,-0.23,0.15,0.07,1721200781917
0.27,-2.42,11.83,-0.11,-0.25,0.05,1721200781927
1.02,-4.66,4.95,-0.20,-0.04,0.36,1721200781937
1.13,1.74,13.52,-0.20,0.26,0.21,1721200781947
1.56,-3.30,5.30,-0.15,-0.25,0.14,1721200781957
0.16,-5.48,7.68,-0.35,-0.02,0.10,1721200781967
-0.65,0.46,18.75,-0.01,0.06,-0.01,1721200781977
1.06,-2.61,6.52,-0.07,-0.01,0.18,1721200781987
-1.07,-3.34,15.37,-0.21,-0.03,0.28,1721200781997
0.92,0.84,10.85,-0.02,0.04,0.28,1721200782007
2.26,0.81,8.61,-0.12,0.07,0.14,1721200782017
1.30,5.04,13.26,0.11,-0.03,0.11,1721200782027
6.40,-0.97,8.20,0.06,0.15,0.19,1721200782037
4.00,3.61,12.99,0.18,0.14,0.05,1721200782047
1.06,3.63,9.26,0.24,0.01,-0.12,1721200782057
2.02,0.07,11.31,0.18,0.26,-0.01,1721200782067
0.11,3.31,10.45,0.39,0.07,0.01,1721200782077
-0.17,-0.20,7.09,0.17,0.17,-0.06,1721200782087
-1.43,6.70,17.79,0.36,0.12,-0.22,1721200782097
0.57,2.49,3.37,0.33,0.13,-0.01,1721200782107
0.73,1.79,14.94,-0.01,0.33,0.00,1721200782117
1.13,3.12,7.26,0.42,0.08,-0.13,1721200782127
1.38,-1.55,8.36,-0.05,0.40,-0.34,1721200782137
-0.73,0.41,7.75,0.27,0.13,-0.23,1721200782152
0.25,3.67,6.00,0.20,0.26,-0.19,1721200782157
0.45,0.31,10.19,-0.07,0.16,-0.25,1721200782167
-1.88,-1.15,6.87,0.15,-0.03,-0.23,1721200782177
-2.30,-3.43,3.95,-0.12,0.37,-0.21,1721200782187
-1.65,0.78,19.95,-0.06,0.30,-0.27,1721200782197
-0.48,-3.33,6.39,0.16,-0.11,-0.05,1721200782207
0.83,-1.17,10.62,-0.24,0.45,-0.15,1721200782217
1.61,2.38,10.56,0.20,0.02,-0.24,1721200782227
1.92,-1.98,9.69,-0.42,0.47,-0.49,1721200782237
-2.45,-0.82,15.12,0.04,-0.18,-0.45,1721200782247
-4.46,-3.72,4.19,-0.17,0.32,-0.31,1721200782257
-6.49,0.83,13.48,-0.04,0.11,-0.27,1721200782267
-2.07,-4.34,7.46,-0.12,0.11,0.07,1721200782277
-2.40,0.20,12.81,-0.00,0.10,0.05,1721200782287
2.55,-2.78,11.12,-0.13,0.30,-0.02,1721200782297
-2.68,0.47,11.98,-0.05,-0.07,-0.22,1721200782307
-4.07,-5.10,4.94,-0.06,-0.08,-0.05,1721200782317
-4.26,-3.33,12.26,-0.11,0.26,0.11,1721200782327
0.06,-4.13,12.20,-0.08,-0.02,0.32,1721200782337
-1.93,-4.22,6.38,-0.08,-0.08,0.13,1721200782347
0.51,-8.72,9.46,-0.12,0.14,0.02,1721200782357
-0.35,-3.09,15.64,-0.09,0.12,0.05,1721200782367
-1.68,-2.18,11.49,-0.03,0.04,0.05,1721200782377
-3.58,0.05,10.22,-0.08,-0.02,0.08,1721200782387
0.62,-2.26,11.82,-0.12,0.07,0.17,1721200782397
0.54,3.58,13.50,0.09,-0.06,0.11,1721200782407
1.13,-0.25,7.49,-0.13,0.08,-0.09,1721200782417
-3.39,5.01,12.31,0.10,-0.30,-0.15,1721200782427
-2.58,0.62,3.86,0.10,-0.03,0.05,1721200782437
-2.53,3.93,10.83,0.04,0.01,0.16,1721200782447
-0.33,4.37,10.48,0.16,-0.04,0.20,1721200782457
0.62,6.15,10.73,0.17,-0.01,0.15,1721200782467
1.12,2.72,10.33,0.00,-0.10,-0.13,1721200782477
-2.64,4.96,11.40,0.14,-0.25,-0.24,1721200782487
-2.96,-0.97,8.73,-0.02,0.03,-0.02,1721200782497
-4.24,3.86,12.96,0.17,-0.27,0.29,1721200782507
0.86,4.58,5.94,0.17,0.05,0.32,1721200782517
3.39,3.71,6.58,0.05,-0.03,0.03,1721200782527
1.01,5.78,13.88,-0.01,-0.04,-0.29,1721200782537
-1.32,5.22,9.96,0.18,-0.23,-0.25,1721200782547
-3.92,-1.88,8.43,-0.16,-0.07,-0.00,1721200782557
-3.92,-2.66,9.74,0.06,-0.28,0.18,1721200782567
-1.87,-2.56,9.39,-0.03,-0.03,0.10,1721200782577
0.38,0.46,14.09,0.23,-0.20,0.25,1721200782587
-1.90,-3.69,4.68,-0.08,-0.16,0.28,1721200782597
-1.01,-0.69,17.70,0.05,-0.05,0.33,1721200782607
0.81,-5.79,7.01,0.03,-0.17,0.38,1721200782617
0.25,-5.09,10.83,-0.20,-0.24,0.57,1721200782627
-0.89,-4.64,7.16,-0.06,-0.43,0.54,1721200782637
2.93,-2.36,9.14,-0.16,0.05,0.37,1721200782647
4.02,-7.75,11.85,-0.28,-0.13,0.18,1721200782657
-0.51,-0.22,12.56,-0.10,-0.35,0.23,1721200782667
-0.23,-5.48,9.36,-0.15,-0.16,0.55,1721200782677
2.20,1.88,13.56,-0.03,0.01,0.60,1721200782687
4.49,-0.96,6.09,-0.16,-0.19,0.25,1721200782697
-0.28,-3.49,12.54,-0.22,-0.23,0.01,1721200782707
-1.81,-2.27,12.49,-0.09,-0.22,0.20,1721200782717
-1.12,-1.18,8.04,-0.00,-0.23,0.62,1721200782727
3.84,-4.48,10.57,-0.20,-0.02,0.78,1721200782737
6.56,5.05,17.53,0.11,-0.04,0.47,1721200782747
6.59,3.49,6.82,0.20,-0.19,0.01,1721200782757
2.02,5.72,14.52,0.09,-0.12,-0.04,1721200782767
0.17,2.22,7.62,0.31,-0.15,0.13,1721200782777
2.15,0.62,6.90,0.12,0.07,0.20,1721200782787
2.15,4.29,14.29,0.29,-0.09,-0.08,1721200782797
1.73,3.40,4.97,0.38,-0.00,-0.18,1721200782807
-1.86,-1.87,8.89,0.06,-0.05,-0.04,1721200782817
-2.25,4.42,15.37,0.28,0.06,0.00,1721200782827
3.12,1.76,5.26,0.18,-0.06,0.07,1721200782837
3.12,2.76,12.06,0.01,-0.03,-0.15,1721200782847
1.73,-2.56,5.63,-0.03,-0.13,-0.30,1721200782857
-2.18,3.03,12.08,0.05,0.07,-0.40,1721200782867
-0.80,-0.83,6.18,0.03,-0.01,-0.31,1721200782877
-0.99,-1.88,11.56,-0.13,0.08,-0.20,1721200782887
1.40,-0.85,10.61,-0.04,0.13,-0.18,1721200782897
0.51,0.85,19.16,-0.21,0.17,-0.44,1721200782907
0.86,1.45,6.59,0.19,-0.32,-0.27,1721200782917
3.18,-5.95,6.09,-0.35,0.31,-0.32,1721200782927
-0.02,0.02,17.32,0.10,-0.16,-0.45,1721200782937
0.43,-3.77,0.68,-0.24,0.03,-0.57,1721200782947
-4.90,-0.84,15.57,-0.09,-0.05,-0.59,1721200782957
-3.96,-5.68,5.91,-0.19,0.05,-0.41,1721200782967
-3.83,-3.30,12.02,-0.18,0.03,-0.26,1721200782977
-0.29,-4.68,6.02,-0.05,0.07,-0.27,1721200782987
0.06,-5.31,8.55,-0.21,0.11,-0.45,1721200782997
-0.63,-3.80,15.99,-0.15,0.35,-0.68,1721200783007
-2.60,-4.64,13.74,-0.13,-0.03,-0.64,1721200783017
-5.55,2.03,13.10,-0.01,-0.06,-0.33,1721200783027
-2.07,-2.27,9.67,-0.02,0.15,-0.15,1721200783037
-2.03,-4.63,7.75,-0.11,-0.13,-0.27,1721200783047
-2.72,-0.31,8.13,0.08,-0.02,-0.36,1721200783057
-1.29,-0.41,11.00,0.05,0.09,-0.40,1721200783067
-4.58,1.45,6.60,0.15,-0.26,-0.23,1721200783077
-2.51,0.29,11.32,-0.04,0.30,-0.07,1721200783087
-0.66,4.18,17.34,0.15,0.13,-0.08,1721200783097
-0.40,0.84,5.15,0.13,-0.14,-0.13,1721200783107
-0.23,2.65,12.55,0.15,0.16,-0.11,1721200783117
1.39,6.19,12.05,0.37,0.02,-0.06,1721200783127
4.14,6.75,2.70,0.07,0.10,-0.15,1721200783137
0.15,7.52,8.92,0.05,-0.08,-0.49,1721200783147
-1.11,2.19,16.71,0.12,0.03,-0.26,1721200783157
-1.09,-4.81,7.95,0.14,-0.06,0.18,1721200783167
2.88,0.81,13.27,0.08,0.29,-0.02,1721200783177
5.30,3.00,5.99,0.28,-0.19,-0.32,1721200783187
1.30,0.58,8.98,-0.10,0.09,-0.70,1721200783197
-6.25,3.30,8.93,0.14,-0.09,-0.80,1721200783207
-9.73,-1.79,9.63,-0.26,0.13,-0.58,1721200783217
-9.80,-5.26,12.27,0.04,-0.06,0.06,1721200783227
-5.65,-1.95,5.50,-0.11,0.01,0.29,1721200783237
0.53,1.83,13.58,0.00,0.01,0.25,1721200783247
11.46,-2.56,12.14,0.05,0.19,0.40,1721200783257
6.91,1.46,2.01,-0.21,-0.32,-0.51,1721200783267
0.54,0.53,12.42,-0.20,-0.03,-0.89,1721200783277
-6.38,-4.91,11.59,0.03,0.07,-0.59,1721200783287
-10.05,2.76,11.06,0.13,-0.06,0.26,1721200783297
0.43,-0.05,8.50,-0.20,0.12,0.74,1721200783307
6.31,1.21,15.39,-0.10,0.00,0.38,1721200783317
7.53,-4.01,11.30,-0.13,-0.04,-0.41,1721200783327
0.60,1.86,14.59,0.05,-0.05,-0.67,1721200783337
-3.00,-4.74,4.52,-0.11,-0.06,-0.42,1721200783347
-5.93,7.60,16.05,0.14,-0.04,-0.12,1721200783357
1.74,-8.46,4.56,-0.10,-0.05,0.13,1721200783367
-2.78,3.71,16.51,0.05,0.06,-0.09,1721200783377
0.25,-3.47,5.20,-0.02,0.15,-0.22,1721200783387
-3.88,1.73,16.35,-0.03,-0.02,-0.20,1721200783397
-0.81,-2.78,6.07,0.11,-0.05,0.07,1721200783407
0.64,4.17,16.14,0.11,0.21,0.12,1721200783417
3.92,0.27,2.04,0.16,-0.08,-0.02,1721200783427
1.03,-0.28,12.95,-0.14,0.12,-0.30,1721200783437
1.19,-9.94,9.13,0.08,-0.15,-0.27,1721200783447
-3.37,2.16,15.27,0.20,0.22,-0.27,1721200783457
-1.97,2.60,4.50,0.42,-0.08,-0.10,1721200783467
-0.95,3.43,7.56,-0.02,0.24,-0.01,1721200783477
2.76,-0.77,14.93,0.04,0.13,-0.05,1721200783487
1.12,-2.61,14.63,0.06,0.07,-0.10,1721200783497
-1.45,4.10,13.85,0.21,-0.01,-0.17,1721200783507
0.51,1.63,0.93,0.18,0.02,0.01,1721200783517
3.01,-2.17,6.32,-0.16,0.35,-0.24,1721200783527
-0.24,-0.78,14.35,0.16,0.03,-0.32,1721200783537
-2.18,1.99,11.03,0.11,0.17,-0.15,1721200783547
1.18,1.10,12.83,0.08,0.16,0.08,1721200783557
2.15,-1.87,5.49,0.11,-0.02,-0.09,1721200783567
0.12,-3.12,11.19,-0.12,0.25,-0.39,1721200783577
-3.69,1.30,12.09,0.24,-0.01,-0.31,1721200783587
-2.42,3.12,8.26,0.17,0.17,0.07,1721200783597
0.97,3.74,8.25,0.09,0.20,0.08,1721200783607
2.10,-1.09,8.97,-0.07,0.20,-0.15,1721200783617
-0.16,-0.89,12.80,-0.01,0.10,-0.27,1721200783627
-1.35,1.00,11.63,0.16,0.16,-0.10,1721200783637
1.83,3.94,7.98,0.12,0.26,0.05,1721200783647
2.99,1.93,10.81,-0.05,0.17,-0.21,1721200783657
-0.89,1.44,9.12,0.05,-0.02,-0.39,1721200783667
-2.08,-0.44,13.16,-0.10,0.33,-0.33,1721200783677
-1.95,3.78,5.84,0.28,0.10,-0.01,1721200783687
0.72,1.11,5.70,-0.29,0.39,-0.07,1721200783697
-0.16,1.04,13.48,0.00,-0.07,-0.18,1721200783707
0.13,-0.40,14.57,-0.01,0.36,-0.26,1721200783717
0.23,-3.49,9.04,-0.14,0.05,-0.02,1721200783727
-3.08,4.40,10.78,-0.06,0.01,-0.14,1721200783737
-0.21,-0.99,4.70,-0.06,0.15,-0.21,1721200783747
0.14,-6.02,8.87,-0.21,0.16,-0.10,1721200783757
-0.20,-0.62,8.60,-0.03,0.16,-0.14,1721200783767
-0.03,1.61,16.87,-0.26,0.39,-0.32,1721200783777
-1.82,2.61,9.18,0.11,-0.11,-0.16,1721200783787
0.23,-1.59,6.72,-0.29,0.46,-0.11,1721200783797
-2.01,0.33,12.19,-0.13,-0.14,-0.05,1721200783807
-1.43,1.75,12.29,-0.07,0.26,0.01,1721200783817
0.59,0.48,6.04,-0.07,0.04,-0.05,1721200783827
0.08,1.32,19.11,-0.28,0.35,-0.19,1721200783837
-1.65,0.25,2.71,0.17,-0.19,-0.03,1721200783847
0.58,-4.09,13.96,-0.56,0.72,-0.15,1721200783857
-0.01,20.37,17.35,0.57,-0.25,-0.05,1721200783867
1.12,-8.90,-1.14,-0.40,0.31,-0.12,1721200783877
-5.67,6.22,13.32,0.47,-0.51,-0.12,1721200783887
-1.76,-10.17,-0.60,0.03,0.31,-0.09,1721200783897
-1.79,-2.13,16.89,0.04,0.11,-0.03,1721200783907
-1.51,-5.26,2.39,0.20,-0.11,-0.14,1721200783917
-1.99,5.93,16.45,0.06,0.63,-0.22,1721200783927
-1.31,-1.60,12.33,0.25,-0.12,0.02,1721200783937
-2.05,0.90,5.98,0.06,0.14,0.25,1721200783947
3.53,5.06,13.61,0.26,0.30,0.02,1721200783957
2.37,-4.92,10.02,-0.06,-0.22,-0.14,1721200783967
-5.03,1.60,13.30,0.15,-0.04,-0.25,1721200783977
-2.84,-0.86,9.29,0.18,0.38,-0.21,1721200783987
-3.89,1.74,7.75,0.19,-0.18,0.12,1721200783997
1.23,-4.03,7.51,-0.00,0.38,0.22,1721200784007
4.02,-2.29,15.36,0.05,0.10,0.16,1721200784017
0.53,8.79,16.35,0.18,0.16,-0.25,1721200784027
-1.12,-1.41,5.94,-0.02,-0.18,-0.29,1721200784037
-5.19,4.20,10.89,0.18,-0.03,0.01,1721200784047
1.05,-7.60,6.63,-0.20,0.21,0.22,1721200784057
-1.42,5.75,16.26,0.23,-0.05,0.08,1721200784067
0.91,-0.18,2.81,0.00,0.05,-0.20,1721200784077
-2.87,0.03,10.29,0.01,-0.19,-0.15,1721200784087
-0.82,-3.11,13.67,-0.02,0.43,0.05,1721200784097
0.77,1.98,10.41,0.14,-0.03,0.02,1721200784107
-1.78,2.85,12.49,-0.05,0.00,-0.11,1721200784117
-0.57,2.25,8.96,0.16,0.00,0.11,1721200784127
0.91,1.15,10.09,-0.03,0.08,0.01,1721200784137
-0.00,2.12,11.65,0.11,-0.16,-0.11,1721200784147
0.06,-1.01,13.89,-0.02,0.17,-0.04,1721200784162
-1.32,3.48,11.74,0.22,0.04,-0.03,1721200784167
1.58,-1.51,3.99,0.01,0.08,0.14,1721200784177
0.00,5.08,13.63,0.10,-0.00,-0.05,1721200784187
2.57,3.79,6.59,0.14,0.24,-0.21,1721200784197
0.09,-2.20,8.68,-0.24,0.03,-0.25,1721200784207
-3.33,-0.19,13.83,-0.04,-0.05,-0.07,1721200784217
-0.59,1.91,8.99,0.06,0.20,0.03,1721200784227
0.34,3.44,7.39,-0.01,0.11,-0.02,1721200784237
-0.92,0.95,6.96,-0.05,0.01,-0.13,1721200784247
-3.36,-0.74,11.99,-0.14,0.14,-0.14,1721200784257
-4.10,2.74,8.24,0.10,-0.10,0.01,1721200784267
-1.08,-0.50,12.42,-0.28,0.36,0.13,1721200784277
-1.36,4.32,15.90,0.09,-0.07,0.01,1721200784287
-2.08,-4.75,1.95,-0.32,-0.06,-0.10,1721200784297
-4.29,4.04,17.53,-0.03,0.03,0.19,1721200784307
2.03,-3.53,0.37,-0.09,-0.05,0.29,1721200784317
0.43,-2.23,15.58,-0.24,0.17,-0.08,1721200784327
0.64,3.16,10.28,0.21,-0.01,-0.09,1721200784337
-2.08,0.20,14.35,-0.28,0.14,-0.05,1721200784347
-5.28,5.43,9.37,0.13,-0.31,0.31,1721200784357
1.06,-9.32,6.18,-0.42,0.34,0.41,1721200784367
-1.51,7.10,18.47,0.27,-0.24,0.26,1721200784377
1.80,-6.74,-0.41,-0.12,-0.03,0.13,1721200784387
-2.26,3.33,13.38,0.03,-0.26,0.24,1721200784397
1.09,0.11,6.56,0.03,0.05,0.32,1721200784407
0.52,-5.38,11.89,-0.08,-0.19,0.21,1721200784417
2.31,-2.32,19.25,0.01,0.09,0.16,1721200784427
1.16,4.38,9.49,0.19,-0.19,0.14,1721200784437
0.10,-1.68,0.91,-0.17,0.05,0.02,1721200784447
-0.73,-0.91,18.11,-0.01,0.10,-0.03,1721200784457
-0.58,-4.67,9.84,0.09,-0.18,0.28,1721200784467
-1.98,4.34,12.23,0.04,-0.01,0.32,1721200784477
2.81,1.66,11.48,0.03,0.05,0.17,1721200784487
0.52,-7.01,4.37,-0.13,-0.28,0.03,1721200784497
-2.07,0.47,13.69,0.23,-0.08,-0.03,1721200784507
2.48,4.49,9.22,0.33,0.12,0.27,1721200784517
0.38,-3.40,0.49,-0.08,-0.16,0.24,1721200784527
-0.29,0.87,19.26,0.09,0.11,-0.15,1721200784537
0.52,-8.08,7.13,0.05,-0.16,-0.07,1721200784547
-6.43,9.81,16.09,0.17,-0.13,0.25,1721200784557
2.01,-1.99,-0.27,0.17,-0.06,0.47,1721200784567
3.20,-3.27,10.56,-0.14,0.16,0.12,1721200784577
1.47,-4.21,7.78,0.08,-0.15,-0.23,1721200784587
-4.18,3.29,18.78,0.02,0.02,-0.15,1721200784597
-2.66,5.72,4.40,0.31,-0.10,0.36,1721200784607
4.90,-2.40,6.81,-0.20,0.24,0.44,1721200784617
4.39,-3.73,9.25,0.01,-0.14,-0.03,1721200784627
0.38,-3.99,14.34,-0.11,0.05,-0.49,1721200784637
-4.39,4.29,15.38,0.37,-0.23,-0.00,1721200784647
-2.28,2.19,5.02,0.02,0.13,0.57,1721200784657
3.03,-1.42,9.99,0.06,0.03,0.52,1721200784667
4.47,-4.78,6.97,-0.15,0.07,-0.01,1721200784677
0.41,7.84,22.65,0.25,0.04,-0.14,1721200784687
0.20,-4.03,-4.90,0.06,-0.24,0.16,1721200784697
3.62,9.94,14.04,0.04,0.37,0.10,1721200784707
6.60,-4.60,2.86,0.02,-0.00,0.14,1721200784717
-0.64,1.42,18.64,-0.16,-0.06,-0.16,1721200784727
-0.73,-1.64,4.73,0.06,-0.04,-0.34,1721200784737
-3.74,-2.70,15.08,-0.30,0.19,-0.22,1721200784747
-2.97,5.82,15.83,0.35,0.01,-0.11,1721200784757
-0.52,-1.43,1.23,-0.24,0.03,-0.08,1721200784767
-3.51,2.35,7.18,-0.05,-0.30,0.09,1721200784777
3.20,-5.46,9.97,-0.47,0.56,-0.17,1721200784787
-1.00,6.96,24.26,0.20,-0.32,-0.17,1721200784797
-0.14,-1.75,-7.11,-0.05,-0.15,-0.03,1721200784807
0.43,0.79,14.47,-0.35,0.41,-0.10,1721200784817
1.13,-0.18,21.58,-0.04,-0.12,-0.20,1721200784827
0.91,2.34,9.77,-0.16,-0.06,-0.32,1721200784837
-2.11,2.44,6.92,-0.02,-0.02,-0.38,1721200784847
-1.24,-4.60,7.60,-0.35,0.30,-0.33,1721200784857
-4.52,1.09,14.64,-0.08,-0.11,-0.08,1721200784867
-2.12,1.08,10.21,-0.08,0.14,-0.02,1721200784877
-1.26,5.26,10.88,0.08,-0.07,-0.12,1721200784887
0.12,-3.35,4.74,-0.21,0.06,-0.20,1721200784897
-1.55,0.77,19.47,-0.11,0.26,-0.26,1721200784907
-3.41,-3.70,5.11,-0.01,-0.28,-0.24,1721200784917
-4.95,2.44,15.67,0.03,0.32,-0.15,1721200784927
-0.85,-3.83,5.21,0.07,-0.12,0.06,1721200784937
-1.68,6.82,13.42,0.00,0.32,0.10,1721200784947
3.90,-1.20,9.04,0.03,0.01,-0.05,1721200784957
-1.15,-3.52,9.43,-0.10,-0.09,-0.23,1721200784967
-0.32,2.15,13.49,0.18,0.14,-0.18,1721200784977
-1.82,-0.33,7.39,0.05,-0.03,-0.05,1721200784987
-3.56,2.92,13.09,0.11,-0.04,0.05,1721200784997
-0.61,-2.39,9.16,0.09,0.12,0.16,1721200785007
1.27,-1.96,15.95,-0.16,0.20,-0.04,1721200785017
-0.54,5.38,18.22,0.35,-0.17,-0.11,1721200785027
-1.28,-1.32,-3.11,0.04,-0.09,-0.05,1721200785037
-2.55,0.17,13.67,0.09,0.15,-0.02,1721200785047
2.69,-6.10,8.38,-0.02,0.00,0.04,1721200785057
-1.66,3.46,15.15,0.10,-0.05,-0.09,1721200785067
-0.78,-0.28,4.98,0.17,0.01,-0.17,1721200785077
-2.57,-8.37,11.18,-0.36,0.17,-0.10,1721200785087
-3.56,2.46,14.60,0.30,-0.26,0.13,1721200785097
4.02,-0.18,7.52,-0.04,0.42,0.15,1721200785107
1.71,1.96,10.50,0.13,-0.35,-0.01,1721200785117
-0.24,-1.45,6.84,-0.15,0.21,-0.29,1721200785127
-1.71,2.97,13.94,0.16,-0.21,-0.13,1721200785137
-1.27,0.33,8.08,-0.07,0.16,-0.05,1721200785147
-1.41,-0.52,11.15,-0.01,-0.19,0.09,1721200785157
-1.41,1.19,9.71,0.04,0.03,0.00,1721200785167
0.40,1.01,10.25,0.03,0.09,-0.13,1721200785177
-0.98,1.82,10.76,0.09,-0.05,-0.20,1721200785187
-1.13,1.12,10.71,0.05,0.09,-0.12,1721200785197
-1.44,3.57,9.85,0.12,0.00,-0.02,1721200785207
0.35,1.14,11.94,-0.07,0.12,0.05,1721200785217
0.95,1.30,11.08,0.10,-0.10,-0.01,1721200785227
2.33,1.58,8.15,0.04,0.15,-0.17,1721200785237
0.92,0.62,13.92,-0.03,0.12,-0.22,1721200785247
-2.35,-0.09,9.97,0.12,-0.15,-0.19,1721200785257
-3.06,4.83,12.82,0.05,0.16,-0.04,1721200785267
0.40,5.78,10.89,0.20,-0.01,0.02,1721200785277
1.56,-0.67,7.55,-0.05,0.08,-0.03,1721200785287
-2.30,-2.53,14.39,-0.11,0.03,-0.14,1721200785297
-4.52,2.60,8.51,0.15,-0.15,-0.09,1721200785307
-1.13,-1.44,8.03,-0.12,0.09,0.05,1721200785317
-0.55,0.10,12.31,0.12,-0.06,0.23,1721200785327
3.27,-1.57,10.46,-0.12,0.30,0.02,1721200785337
0.22,0.54,14.51,0.08,-0.19,0.02,1721200785347
-1.39,-1.14,10.28,-0.12,0.12,-0.06,1721200785357
-2.67,-0.77,11.09,-0.05,-0.09,0.11,1721200785367
0.76,0.25,10.87,-0.10,0.09,0.17,1721200785377
2.39,-1.39,9.11,-0.07,-0.11,0.03,1721200785387
-1.95,0.70,7.91,-0.03,-0.09,-0.09,1721200785397
-1.58,-0.65,9.56,-0.14,0.13,0.03,1721200785407
-0.63,-2.84,11.59,-0.12,-0.05,0.34,1721200785417
0.76,0.34,9.17,-0.01,-0.08,0.27,1721200785427
2.84,1.97,16.03,-0.13,0.23,-0.00,1721200785437
-0.30,-2.67,11.60,-0.08,-0.26,-0.01,1721200785447
-1.33,4.70,12.13,-0.09,0.16,-0.07,1721200785457
1.39,0.03,7.21,0.04,-0.09,0.00,1721200785467
-0.95,-0.73,-0.07,0.06,-0.14,0.06,1721200785477
1.24,-1.79,14.85,-0.13,0.29,-0.02,1721200785487
0.75,1.69,13.46,0.24,-0.15,0.03,1721200785497
1.13,2.17,13.45,-0.08,0.26,-0.03,1721200785507
-0.28,4.35,8.74,0.25,-0.21,0.13,1721200785517
1.83,-2.05,8.52,-0.16,0.32,-0.12,1721200785527
0.86,-3.89,17.79,0.15,-0.11,-0.04,1721200785537
-2.06,-0.23,4.59,0.13,0.09,-0.01,1721200785547
-3.11,4.37,12.65,0.15,0.04,-0.06,1721200785557
0.54,-2.50,8.11,0.07,-0.02,0.03,1721200785567
1.49,2.15,15.80,0.16,0.18,-0.00,1721200785577
1.42,-3.82,5.09,0.09,0.01,-0.13,1721200785587
-3.81,-1.60,12.58,0.07,-0.02,-0.13,1721200785597
-0.50,5.52,9.68,0.31,0.13,0.00,1721200785607
2.69,-2.99,7.29,0.06,0.09,0.10,1721200785617
0.40,-0.27,12.18,0.11,0.07,-0.05,1721200785627
0.26,2.35,11.86,0.21,0.12,-0.19,1721200785637
-1.09,-0.14,9.34,0.12,-0.02,0.01,1721200785647
-0.89,0.70,13.14,0.11,0.21,0.12,1721200785657
1.10,-2.23,5.25,0.13,0.01,0.05,1721200785667
0.02,0.75,14.38,0.11,0.13,-0.19,1721200785677
0.00,1.81,4.62,0.28,-0.04,0.02,1721200785687
0.12,4.97,14.47,0.04,0.32,-0.05,1721200785697
-0.72,-2.23,7.04,0.12,-0.09,-0.05,1721200785707
-3.17,0.78,11.90,-0.06,0.11,0.08,1721200785717
0.91,-3.23,7.24,-0.01,-0.01,0.24,1721200785727
2.28,1.34,16.31,-0.07,0.24,0.00,1721200785737
2.01,1.24,8.03,0.20,-0.05,-0.09,1721200785747
0.20,2.84,6.75,-0.14,0.16,-0.12,1721200785757
-1.07,1.60,8.88,-0.03,0.08,-0.20,1721200785767
-1.31,-1.02,12.38,-0.38,0.16,-0.01,1721200785777
-1.61,1.61,16.57,0.05,-0.03,0.12,1721200785787
3.32,0.08,6.87,-0.14,0.24,0.04,1721200785797
2.13,2.95,9.11,-0.03,-0.06,-0.16,1721200785807
0.29,0.44,8.07,-0.30,0.21,-0.32,1721200785817
-3.04,3.02,11.58,-0.01,-0.04,-0.31,1721200785827
-1.82,-5.65,8.08,-0.30,0.16,-0.12,1721200785837
-0.94,-1.00,17.67,-0.14,0.07,0.15,1721200785847
-0.80,0.04,6.78,-0.09,-0.04,0.06,1721200785857
0.39,4.60,14.52,-0.05,0.35,-0.28,1721200785867
1.31,-0.58,5.91,-0.10,-0.06,-0.17,1721200785877
-2.74,0.49,9.46,-0.14,-0.03,-0.10,1721200785887
-0.79,-5.60,5.26,-0.17,0.08,-0.09,1721200785897
-2.26,3.27,16.12,-0.09,0.15,-0.07,1721200785907
0.63,-0.95,9.05,-0.04,0.13,-0.05,1721200785917
0.28,1.12,12.96,-0.08,-0.04,-0.05,1721200785927
0.15,-1.33,6.67,0.03,0.03,-0.06,1721200785937
1.60,1.10,15.23,-0.12,0.38,-0.09,1721200785947
-0.15,4.68,11.89,0.07,-0.10,-0.19,1721200785957
-4.64,-3.70,4.66,-0.20,0.03,-0.32,1721200785967
-5.98,1.75,13.50,0.11,-0.02,-0.02,1721200785977
1.28,-1.16,10.35,-0.02,0.23,0.31,1721200785987
0.90,4.81,13.91,0.11,-0.04,0.17,1721200785997
0.79,2.52,9.09,0.07,0.12,-0.13,1721200786007
-1.49,-2.98,10.86,-0.09,0.02,-0.13,1721200786017
-3.22,-1.79,12.48,0.08,0.06,-0.03,1721200786027
-0.39,0.37,10.29,0.06,0.17,-0.00,1721200786037
-0.56,2.67,14.49,0.08,0.02,0.00,1721200786047
-2.64,0.89,4.62,0.18,-0.19,-0.02,1721200786057
-0.72,-0.00,14.23,-0.00,0.32,-0.07,1721200786067
0.12,-0.49,10.84,0.23,-0.16,0.03,1721200786077
-0.63,-2.69,10.86,-0.15,0.14,0.07,1721200786087
-1.41,2.79,12.57,0.29,-0.13,0.00,1721200786097
-0.55,-3.21,2.89,-0.05,0.06,-0.00,1721200786107
-1.95,-1.65,13.95,0.04,-0.06,0.06,1721200786117
0.17,-0.05,8.83,0.13,0.02,0.19,1721200786127
-0.57,4.22,13.71,-0.01,-0.02,-0.00,1721200786137
-2.44,2.98,10.05,0.13,-0.23,-0.03,1721200786147
-0.46,-1.92,7.09,0.06,0.05,0.20,1721200786157
0.97,-0.85,13.53,-0.11,0.05,0.05,1721200786172
-0.08,5.01,18.22,0.10,-0.05,0.01,1721200786177
-0.17,1.21,6.50,0.07,-0.11,-0.08,1721200786187
-3.33,-1.18,9.27,0.01,-0.20,0.16,1721200786197
-0.57,1.04,7.66,0.08,0.09,0.39,1721200786207
3.64,-1.04,17.44,-0.20,0.09,0.13,1721200786217
-0.07,9.15,13.60,0.43,-0.50,0.02,1721200786227
1.97,-4.80,1.18,-0.21,0.08,0.03,1721200786237
-2.72,7.82,17.03,0.18,-0.27,0.06,1721200786247
0.88,-1.19,1.06,-0.09,0.00,0.08,1721200786257
-2.91,2.43,11.98,-0.03,-0.23,0.01,1721200786267
0.07,-0.18,8.07,0.03,0.02,0.10,1721200786277
-0.14,-0.47,12.94,-0.08,-0.14,0.22,1721200786287
-0.38,2.96,13.66,0.07,-0.19,0.27,1721200786297
1.44,0.09,4.08,-0.09,-0.15,-0.01,1721200786307
-0.33,2.28,15.81,-0.07,-0.02,-0.15,1721200786317
-0.57,0.15,7.80,0.06,-0.15,0.01,1721200786327
-2.17,-1.02,9.41,-0.20,-0.06,0.16,1721200786337
0.18,-1.11,10.57,-0.10,-0.14,0.17,1721200786347
2.31,-0.56,8.79,-0.15,0.04,-0.18,1721200786357
0.54,-2.92,15.38,-0.24,-0.08,-0.25,1721200786367
-3.28,-0.10,5.24,0.00,-0.33,0.02,1721200786377
-0.97,-1.03,9.76,-0.33,0.25,0.01,1721200786387
0.89,-1.64,12.17,0.00,-0.26,0.02,1721200786397
-0.62,-5.65,10.31,-0.34,0.02,-0.06,1721200786407
-2.68,6.58,13.21,0.03,-0.16,-0.04,1721200786417
1.61,-2.77,3.66,-0.22,-0.02,0.04,1721200786427
0.55,0.10,11.95,-0.08,-0.19,0.07,1721200786437
3.28,-1.69,10.34,-0.23,0.14,-0.19,1721200786447
0.00,1.83,12.21,0.02,-0.17,-0.28,1721200786457
-0.57,-4.53,9.88,-0.25,0.01,-0.23,1721200786467
-1.87,5.11,15.16,0.13,-0.13,0.00,1721200786477
3.17,-4.10,4.75,-0.08,0.17,-0.04,1721200786487
-0.04,2.06,15.60,0.08,-0.03,-0.16,1721200786497
1.28,0.99,6.84,0.16,0.00,-0.10,1721200786507
0.27,3.74,15.25,0.08,0.09,-0.12,1721200786517
1.23,-1.62,8.59,0.05,-0.03,-0.11,1721200786527
-1.53,0.93,13.25,0.03,0.01,-0.17,1721200786537
0.09,1.90,13.07,0.12,0.18,-0.24,1721200786547
-0.25,-2.04,9.99,0.10,-0.09,-0.04,1721200786557
-1.64,1.71,9.45,0.17,0.10,-0.10,1721200786567
0.84,0.59,10.81,0.15,0.13,-0.16,1721200786577
-0.13,0.52,11.88,0.14,0.00,-0.10,1721200786587
0.42,4.12,14.66,0.28,0.14,-0.08,1721200786597
1.88,-1.15,4.49,0.20,-0.00,0.07,1721200786607
0.29,0.91,9.93,0.08,0.18,-0.11,1721200786617
0.33,-3.05,10.81,0.14,0.00,-0.30,1721200786627
-2.57,2.65,11.24,0.31,0.03,-0.14,1721200786637
-1.03,0.32,8.55,0.12,0.14,0.03,1721200786647
0.62,2.27,11.71,0.19,0.10,0.00,1721200786657
1.30,0.88,8.97,0.19,0.12,-0.18,1721200786667
0.05,0.35,6.36,0.25,0.08,-0.17,1721200786677
-1.03,-0.97,7.18,-0.06,0.15,-0.13,1721200786687
-2.26,2.65,18.55,0.16,0.08,-0.03,1721200786697
-0.29,-2.16,2.48,0.09,-0.06,0.08,1721200786707
0.24,3.82,11.70,-0.00,0.23,-0.06,1721200786717
3.24,-3.26,8.02,-0.09,0.10,-0.25,1721200786727
-2.35,1.58,17.79,0.09,0.03,-0.32,1721200786737
-2.49,0.95,6.40,0.14,0.17,-0.10,1721200786747
-4.54,0.94,7.84,-0.22,-0.02,0.01,1721200786757
-2.56,2.29,15.26,0.01,0.01,0.07,1721200786767
3.33,-1.78,6.65,-0.18,0.05,0.02,1721200786777
0.05,3.34,10.70,0.06,-0.10,-0.16,1721200786787
2.89,-3.48,12.11,-0.24,0.40,-0.25,1721200786797
-2.44,2.41,13.14,-0.04,-0.37,-0.18,1721200786807
-3.71,-0.28,4.59,-0.17,0.08,-0.06,1721200786817
0.66,-0.08,14.48,-0.18,0.24,-0.04,1721200786827
2.04,4.78,13.93,0.13,0.00,-0.09,1721200786837
0.17,-5.73,-1.02,-0.28,-0.16,-0.14,1721200786847
-4.47,3.95,17.67,-0.01,0.20,-0.34,1721200786857
-0.23,-4.02,7.44,-0.15,0.12,-0.19,1721200786867
-4.98,3.32,15.94,-0.06,-0.20,0.08,1721200786877
1.55,-1.48,2.97,-0.03,0.13,0.16,1721200786887
4.72,-3.60,13.61,-0.31,0.22,0.07,1721200786897
0.74,4.91,8.96,0.09,-0.32,-0.13,1721200786907
0.97,-0.14,10.83,-0.29,0.40,-0.51,1721200786917
-3.77,-0.93,10.44,0.01,-0.33,-0.33,1721200786927
-3.92,4.90,14.20,-0.04,0.33,0.02,1721200786937
0.79,-1.07,6.82,0.07,-0.15,0.25,1721200786947
0.64,2.06,11.94,-0.03,0.18,-0.11,1721200786957
4.19,-3.89,7.31,0.01,0.06,-0.45,1721200786967
-4.33,0.00,10.33,-0.13,-0.13,-0.37,1721200786977
-4.07,2.26,15.47,0.10,0.13,-0.13,1721200786987
-2.56,1.36,13.95,0.11,0.16,-0.02,1721200786997
-0.06,-0.14,4.90,0.11,-0.05,0.19,1721200787007
3.02,-3.02,9.43,-0.11,0.20,-0.03,1721200787017
1.46,5.26,13.09,0.18,-0.01,-0.43,1721200787027
-1.12,-2.59,4.94,-0.08,-0.03,-0.57,1721200787037
-6.94,0.72,14.31,0.04,-0.10,-0.28,1721200787047
-0.46,-2.94,11.16,0.08,0.36,0.16,1721200787057
2.08,-3.63,10.91,-0.04,-0.05,0.13,1721200787067
-0.35,7.53,10.76,0.14,0.03,-0.34,1721200787077
0.48,-1.93,11.15,-0.02,0.11,-0.54,1721200787087
-5.28,-3.34,5.81,0.14,-0.30,-0.15,1721200787097
-1.68,0.39,7.52,0.12,0.45,0.05,1721200787107
2.04,1.36,15.79,-0.04,0.00,0.06,1721200787117
-1.29,5.50,10.71,0.21,-0.29,-0.11,1721200787127
-0.21,1.46,5.50,0.06,0.18,-0.31,1721200787137
-1.96,-3.61,6.85,-0.00,-0.21,-0.15,1721200787147
-4.80,-0.38,15.39,-0.00,0.13,-0.08,1721200787157
-0.26,1.52,9.84,0.29,-0.07,0.23,1721200787167
2.24,4.15,9.51,0.13,0.17,0.24,1721200787177
3.29,1.92,11.64,0.14,0.02,-0.17,1721200787187
0.06,-0.64,12.84,-0.04,0.01,-0.30,1721200787197
-2.46,2.70,16.77,0.10,-0.03,-0.18,1721200787207
-2.47,2.12,7.60,0.11,-0.06,0.05,1721200787217
-0.40,0.66,8.33,0.02,-0.00,0.13,1721200787227
2.77,-0.91,9.89,-0.00,0.05,0.03,1721200787237
1.11,5.27,11.22,0.21,0.00,-0.33,1721200787247
-0.51,-1.52,7.28,-0.12,0.02,-0.22,1721200787257
-4.36,0.08,18.49,-0.03,-0.03,-0.07,1721200787267
-3.53,1.18,4.09,0.09,-0.09,0.11,1721200787277
0.02,3.42,11.03,-0.11,0.23,0.07,1721200787287
2.04,-4.94,7.66,-0.06,-0.26,-0.03,1721200787297
-2.39,3.19,8.66,0.05,0.00,-0.17,1721200787307
1.64,1.66,13.57,-0.06,0.36,-0.14,1721200787317
-2.18,-2.89,8.21,-0.08,-0.30,0.11,1721200787327
-1.64,-0.94,11.69,-0.16,0.15,0.13,1721200787337
3.02,-1.52,9.27,0.03,-0.01,0.02,1721200787347
-0.67,1.53,8.63,-0.08,-0.07,-0.24,1721200787357
-3.13,1.88,11.56,-0.02,0.02,-0.19,1721200787367
-2.65,-1.33,6.51,-0.10,-0.16,0.09,1721200787377
0.43,0.85,16.78,-0.16,0.28,0.08,1721200787387
1.15,-2.08,2.02,0.04,-0.30,0.03,1721200787397
-0.24,-0.23,7.81,-0.22,0.28,-0.04,1721200787407
3.18,-1.70,13.52,0.06,-0.15,-0.14,1721200787417
-0.84,-1.16,10.75,-0.07,-0.13,0.02,1721200787427
-1.50,-0.46,13.33,-0.12,0.13,-0.07,1721200787437
-1.47,7.83,6.42,0.13,-0.09,0.11,1721200787447
3.89,-0.35,9.19,-0.27,0.38,-0.07,1721200787457
0.97,-2.32,13.64,0.09,-0.36,-0.03,1721200787467
0.81,-4.10,3.20,-0.13,0.21,-0.05,1721200787477
-0.23,2.32,21.77,-0.03,0.12,-0.09,1721200787487
-1.37,5.54,8.52,0.24,-0.19,0.02,1721200787497
1.97,-1.59,6.06,-0.11,0.28,-0.03,1721200787507
1.16,-5.34,11.35,0.06,-0.00,-0.18,1721200787517
-0.55,-1.16,14.24,0.07,0.29,-0.24,1721200787527
-4.23,2.36,4.38,0.10,-0.21,-0.01,1721200787537
-1.38,6.75,12.63,0.06,0.22,0.04,1721200787547
5.40,-4.36,10.06,0.07,0.05,-0.02,1721200787557
0.87,-5.17,10.96,-0.00,-0.08,-0.11,1721200787567
-2.21,-0.31,7.62,0.10,0.07,-0.17,1721200787577
-0.79,-0.85,16.32,0.01,0.37,-0.09,1721200787587
-3.02,5.95,7.84,0.32,-0.13,0.17,1721200787597
1.62,2.33,14.21,0.02,0.32,0.18,1721200787607
5.17,0.99,8.70,0.28,-0.04,0.11,1721200787617
3.35,-3.72,11.87,-0.16,0.24,-0.45,1721200787627
-4.13,8.15,12.42,0.39,-0.21,-0.42,1721200787637
-2.35,-2.28,3.21,-0.00,0.31,-0.02,1721200787647
-1.85,-4.28,14.26,0.03,0.02,0.27,1721200787657
-0.34,4.90,8.47,0.24,0.12,0.05,1721200787667
3.81,5.25,14.17,-0.02,0.36,-0.31,1721200787677
-0.03,1.39,7.50,0.22,-0.23,-0.18,1721200787687
-2.66,-1.88,9.44,-0.19,0.34,-0.20,1721200787697
-2.59,1.33,9.55,0.22,-0.14,0.07,1721200787707
1.02,1.98,6.13,-0.08,0.29,-0.01,1721200787717
2.09,2.71,14.18,-0.01,0.03,-0.20,1721200787727
-0.96,-0.16,5.96,-0.08,-0.09,-0.27,1721200787737
-2.53,-0.57,14.42,-0.14,0.22,-0.21,1721200787747
0.74,-5.69,9.66,-0.07,0.04,0.12,1721200787757
0.11,6.90,9.88,0.04,0.13,-0.04,1721200787767
3.01,-5.24,6.96,-0.28,0.08,-0.34,1721200787777
-4.52,1.52,15.18,-0.06,-0.15,-0.35,1721200787787
-3.50,3.95,7.25,0.05,0.21,-0.05,1721200787797
0.09,-2.63,11.65,-0.30,0.06,0.10,1721200787807
-0.39,-1.73,9.47,-0.08,-0.08,0.01,1721200787817
1.04,-3.16,9.06,-0.24,0.27,-0.19,1721200787827
-0.56,-0.12,15.84,-0.18,-0.01,-0.31,1721200787837
-3.84,-1.70,1.61,-0.02,-0.28,-0.01,1721200787847
-0.20,3.43,17.46,-0.23,0.63,0.03,1721200787857
1.02,0.03,14.14,0.08,-0.28,-0.04,1721200787867
-2.75,-0.91,6.91,-0.16,0.10,-0.05,1721200787877
0.64,-1.69,10.10,-0.06,0.13,-0.04,1721200787887
-1.43,-3.10,8.84,-0.09,-0.04,0.04,1721200787897
-1.00,1.16,10.93,0.02,0.03,-0.14,1721200787907
-1.09,0.36,13.38,0.05,0.08,-0.13,1721200787917
-2.33,0.77,11.50,0.06,-0.04,0.17,1721200787927
-0.97,4.19,11.52,0.10,-0.00,0.21,1721200787937
2.73,-3.43,7.60,0.04,-0.07,0.19,1721200787947
1.61,0.86,10.51,0.08,-0.04,-0.09,1721200787957
-1.03,3.77,12.71,0.15,-0.04,-0.21,1721200787967
-2.17,-1.70,10.20,-0.02,-0.00,-0.04,1721200787977
-2.42,-3.19,12.59,0.02,-0.03,0.00,1721200787987
-0.08,-1.49,10.21,0.07,0.10,0.07,1721200787997
1.03,5.15,15.13,0.14,0.07,-0.03,1721200788007
-0.28,-0.62,5.04,0.12,-0.30,-0.03,1721200788017
0.09,-2.38,13.81,-0.03,0.24,-0.04,1721200788027
0.58,-0.62,10.64,0.24,-0.05,-0.09,1721200788037
-0.56,1.02,10.90,-0.05,0.13,-0.12,1721200788047
-0.72,6.47,10.47,0.33,-0.25,-0.05,1721200788057
2.44,-3.65,7.39,-0.04,0.21,0.02,1721200788067
0.24,1.92,12.37,0.30,-0.11,-0.19,1721200788077
-0.51,0.76,7.34,-0.11,0.08,-0.34,1721200788087
-3.76,6.21,18.04,0.23,-0.25,-0.25,1721200788097
-2.53,-5.78,0.18,-0.04,-0.04,0.03,1721200788107
-2.58,5.92,16.89,0.27,0.22,-0.03,1721200788117
0.46,-2.94,4.27,0.11,-0.16,0.00,1721200788127
-2.83,5.72,12.37,0.20,-0.17,0.10,1721200788137
5.89,-1.80,9.51,0.11,0.29,-0.08,1721200788147
1.79,-2.05,12.85,-0.03,-0.24,-0.31,1721200788157
-4.24,2.59,9.04,0.16,-0.17,-0.36,1721200788167
-4.84,0.48,8.15,-0.00,-0.09,-0.01,1721200788182
0.17,-2.19,12.79,-0.01,0.07,0.20,1721200788187
-0.07,1.71,8.71,0.10,-0.08,0.05,1721200788197
1.30,-0.18,9.45,-0.10,0.08,-0.27,1721200788207
-1.00,0.23,15.37,0.04,-0.09,-0.19,1721200788217
-2.57,4.58,8.04,0.16,-0.15,-0.01,1721200788227
-1.80,-1.92,10.47,-0.13,0.02,0.14,1721200788237
-2.38,-1.88,6.61,-0.05,-0.17,0.16,1721200788247
-1.17,5.41,8.49,0.02,0.08,-0.16,1721200788257
2.03,-1.19,6.16,-0.14,-0.01,-0.01,1721200788267
-1.86,1.01,14.93,-0.13,-0.08,0.03,1721200788277
-0.92,-4.50,13.77,-0.13,0.12,-0.02,1721200788287
-2.34,1.56,6.90,-0.02,-0.17,-0.01,1721200788297
-1.09,1.13,4.41,-0.29,0.08,0.02,1721200788307
3.12,-1.52,15.68,-0.07,-0.01,0.17,1721200788317
4.14,-4.53,6.48,-0.04,-0.00,-0.08,1721200788327
-0.81,-1.78,15.08,-0.20,-0.08,-0.28,1721200788337
-4.46,3.85,9.21,0.05,-0.08,-0.07,1721200788347
-0.96,2.67,13.37,-0.23,0.26,0.14,1721200788357
0.76,-4.19,2.61,-0.03,-0.47,0.24,1721200788367
2.60,-8.27,7.59,-0.28,0.35,-0.16,1721200788377
3.93,5.20,22.01,0.14,0.03,-0.42,1721200788387
-1.64,1.92,3.57,-0.03,-0.28,-0.16,1721200788397
-3.25,3.04,9.70,-0.12,0.32,0.07,1721200788407
3.75,-6.96,9.93,-0.17,0.12,0.01,1721200788417
-0.92,0.65,13.02,-0.06,-0.18,-0.32,1721200788427
0.76,5.89,7.10,0.14,0.20,-0.40,1721200788437
-1.22,-6.91,6.60,-0.14,-0.08,-0.17,1721200788447
-2.77,3.13,15.45,0.13,0.11,0.15,1721200788457
3.79,0.93,9.91,0.02,0.31,-0.00,1721200788467
-0.44,3.20,14.25,0.06,-0.15,-0.20,1721200788477
-0.40,-3.84,6.58,0.01,0.07,-0.18,1721200788487
-2.01,2.57,16.21,0.07,0.16,-0.17,1721200788497
1.65,-1.07,11.30,0.06,0.12,0.10,1721200788507
-1.34,6.07,8.60,0.22,-0.01,-0.10,1721200788517
2.13,-3.84,12.05,-0.10,0.37,-0.18,1721200788527
-2.22,3.18,14.87,0.34,-0.11,-0.06,1721200788537
-0.08,0.43,6.92,0.01,0.33,-0.06,1721200788547
-0.07,0.26,11.96,0.13,-0.09,0.10,1721200788557
1.31,5.22,13.14,0.11,0.29,-0.10,1721200788567
1.70,-1.94,8.33,0.23,-0.04,-0.14,1721200788577
-1.52,-3.59,8.41,-0.06,0.18,-0.12,1721200788587
-2.82,3.45,13.46,0.26,0.04,-0.08,1721200788597
0.30,3.34,14.95,0.19,0.30,0.04,1721200788607
0.89,0.18,5.40,0.32,-0.07,0.25,1721200788617
1.24,-1.28,8.84,-0.06,0.25,-0.05,1721200788627
0.83,6.13,14.53,0.35,0.01,-0.28,1721200788637
0.59,0.69,5.66,0.09,0.19,-0.24,1721200788647
-3.11,-1.33,9.24,-0.03,-0.05,0.02,1721200788657
-1.56,-0.65,11.00,0.07,0.13,0.12,1721200788667
1.72,3.68,7.98,0.07,0.17,-0.14,1721200788677
-1.24,0.79,5.62,-0.03,-0.13,-0.10,1721200788687
-2.73,-0.02,14.65,-0.11,0.19,-0.02,1721200788697
-0.17,1.02,13.17,0.27,0.07,0.10,1721200788707
0.20,1.18,4.41,-0.11,0.04,0.05,1721200788717
0.15,1.27,14.86,-0.12,0.04,-0.13,1721200788727
2.60,-3.63,9.39,-0.06,0.08,-0.15,1721200788737
-0.45,0.24,12.96,-0.03,0.07,-0.22,1721200788747
-3.48,-1.02,8.06,-0.02,0.00,-0.22,1721200788757
-2.51,-0.53,8.85,-0.13,0.12,-0.02,1721200788767
1.77,0.69,16.28,-0.18,0.22,0.20,1721200788777
2.27,0.95,8.83,0.02,-0.18,-0.01,1721200788787
1.13,-2.13,5.60,-0.31,0.18,-0.40,1721200788797
-2.34,-6.52,17.39,-0.34,-0.15,-0.28,1721200788807
-5.20,2.96,9.85,0.03,-0.02,-0.08,1721200788817
0.72,-0.44,12.64,-0.27,0.36,0.00,1721200788827
-0.30,-2.89,-0.23,-0.04,-0.54,0.15,1721200788837
2.64,3.55,15.73,-0.34,0.73,-0.05,1721200788847
3.79,3.39,17.42,0.06,-0.38,-0.12,1721200788857
-3.08,0.96,4.82,-0.26,0.02,-0.38,1721200788867
-5.03,1.18,14.96,0.05,0.09,-0.26,1721200788877
-2.54,-7.44,5.61,-0.19,0.01,0.18,1721200788887
-0.88,9.78,15.37,0.21,0.08,0.17,1721200788897
4.49,-5.47,1.50,-0.06,0.05,-0.20,1721200788907
-3.41,6.97,20.46,0.02,0.12,-0.47,1721200788917
-3.21,-3.78,2.93,0.22,-0.17,-0.28,1721200788927
-4.93,-1.12,16.15,-0.19,0.41,0.01,1721200788937
-0.16,1.45,11.78,0.36,0.01,0.12,1721200788947
1.56,-3.81,4.92,-0.09,0.02,0.04,1721200788957
-1.20,2.08,8.46,0.19,-0.10,-0.12,1721200788967
3.29,-0.79,12.39,0.01,0.37,-0.32,1721200788977
-0.38,2.82,13.32,0.17,-0.25,-0.30,1721200788987
-3.70,7.45,9.35,0.18,0.14,-0.21,1721200788997
-0.36,-2.00,10.26,-0.00,0.08,-0.04,1721200789007
-0.61,-6.73,11.00,0.02,-0.05,-0.03,1721200789017
-0.81,3.12,7.07,0.20,0.06,-0.14,1721200789027
-0.14,4.05,12.97,0.08,0.21,-0.38,1721200789037
-1.57,-1.23,8.98,0.18,-0.11,-0.29,1721200789047
-4.11,1.00,8.46,0.08,0.02,0.02,1721200789057
-1.07,4.22,8.96,0.21,0.12,0.04,1721200789067
2.27,-1.27,10.87,-0.10,0.10,-0.13,1721200789077
-1.71,3.35,6.50,0.26,-0.30,-0.10,1721200789087
-0.58,-3.66,7.74,-0.12,0.26,-0.28,1721200789097
-3.20,3.09,19.63,0.19,-0.13,-0.18,1721200789107
-1.91,2.51,2.44,0.06,-0.01,0.15,1721200789117
0.36,4.05,15.48,-0.08,0.24,0.07,1721200789127
1.89,-1.15,9.01,0.10,-0.07,-0.01,1721200789137
-0.43,-1.74,13.15,-0.20,0.08,-0.16,1721200789147
-3.65,3.90,9.27,0.22,-0.22,-0.22,1721200789157
-2.41,0.80,9.00,-0.11,0.26,0.07,1721200789167
-1.00,2.58,8.08,0.17,-0.24,0.30,1721200789177
0.53,-2.26,-3.45,-0.26,-0.05,0.34,1721200789187
-0.46,2.27,23.57,-0.18,0.33,-0.10,1721200789197
0.24,-3.84,14.50,-0.00,-0.24,-0.28,1721200789207
-6.69,-5.90,7.27,-0.39,-0.32,-0.08,1721200789217
-4.41,7.02,16.33,0.12,0.06,0.35,1721200789227
5.44,-7.33,1.90,-0.34,-0.08,0.51,1721200789237
0.16,10.54,15.78,0.20,-0.18,0.04,1721200789247
5.57,-9.66,1.42,-0.26,0.17,-0.42,1721200789257
-15.58,-4.53,9.93,-0.10,-0.83,-0.29,1721200789267
-5.07,-4.53,13.17,-0.14,0.28,0.13,1721200789277
0.05,0.63,16.14,-0.08,-0.15,0.46,1721200789287
1.54,0.45,5.19,-0.09,-0.20,0.39,1721200789297
5.18,4.80,11.50,-0.07,0.32,-0.17,1721200789307
2.42,-6.76,10.35,-0.25,-0.34,-0.42,1721200789317
-6.19,-1.42,15.93,-0.13,-0.19,-0.09,1721200789327
-0.19,1.94,8.28,0.11,0.04,0.34,1721200789337
3.57,-0.22,11.17,-0.18,-0.01,0.19,1721200789347
2.68,0.67,9.40,0.07,-0.25,-0.14,1721200789357
1.75,2.09,11.11,0.00,0.19,-0.34,1721200789367
-1.18,1.63,15.22,0.05,-0.11,-0.15,1721200789377
-3.80,-2.95,6.28,0.01,-0.24,0.05,1721200789387
0.59,2.59,14.02,0.01,0.47,0.05,1721200789397
-0.47,-3.17,6.34,-0.04,-0.46,0.01,1721200789407
-0.55,4.62,19.71,0.04,0.25,-0.12,1721200789417
3.30,1.18,3.33,0.40,-0.13,0.03,1721200789427
0.45,0.95,8.37,-0.12,0.17,-0.15,1721200789437
3.85,-5.08,11.63,-0.04,0.12,-0.17,1721200789447
-4.19,4.70,19.13,0.23,0.05,-0.27,1721200789457
2.13,-0.17,6.82,0.25,0.13,-0.12,1721200789467
1.98,1.39,6.86,0.22,0.06,0.07,1721200789477
3.35,0.28,4.13,0.12,0.23,-0.16,1721200789487
2.01,1.75,20.76,0.05,0.22,-0.43,1721200789497
-1.49,-1.25,5.87,0.25,-0.14,-0.36,1721200789507
-1.90,2.34,15.92,0.13,0.42,-0.27,1721200789517
1.84,-3.84,2.88,0.16,-0.05,0.22,1721200789527
1.51,4.33,14.54,-0.03,0.46,-0.30,1721200789537
1.96,-0.42,2.73,0.34,-0.10,-0.56,1721200789547
-3.21,6.48,16.73,0.14,0.56,-0.51,1721200789557
-2.17,-9.79,6.69,-0.01,0.15,-0.21,1721200789567
-5.68,3.33,13.79,0.14,0.08,-0.11,1721200789577
0.95,4.90,6.85,0.15,0.28,-0.10,1721200789587
2.28,2.77,4.92,0.17,0.03,-0.05,1721200789597
0.80,-4.05,6.94,-0.20,0.30,-0.52,1721200789607
-5.01,0.64,11.44,0.12,-0.04,-0.49,1721200789617
-4.01,0.16,9.73,-0.27,0.48,-0.15,1721200789627
-2.94,4.63,22.79,0.04,0.16,-0.07,1721200789637
0.73,-1.43,5.17,0.05,0.12,-0.02,1721200789647
2.78,2.80,15.22,-0.06,0.42,-0.28,1721200789657
0.62,-2.82,2.88,-0.10,-0.12,-0.36,1721200789667
-5.32,6.61,12.22,-0.08,0.28,-0.36,1721200789677
-0.52,-4.11,8.53,-0.09,0.21,-0.22,1721200789687
-3.57,1.19,9.09,0.12,-0.04,-0.05,1721200789697
3.62,-3.06,11.35,-0.42,0.71,-0.14,1721200789707
-1.93,7.36,15.02,-0.00,-0.49,-0.17,1721200789717
-0.35,2.35,4.75,-0.12,0.51,-0.31,1721200789727
-2.53,-6.39,9.38,-0.20,-0.06,-0.27,1721200789737
-5.52,-0.97,10.33,-0.06,0.17,-0.13,1721200789747
1.31,0.31,18.65,-0.19,0.50,0.06,1721200789757
-1.01,3.67,7.73,0.08,-0.27,-0.07,1721200789767
-1.21,1.33,-0.91,-0.14,0.37,-0.20,1721200789777
-0.80,-3.08,11.29,-0.23,0.07,-0.13,1721200789787
-2.74,-0.06,9.32,0.13,0.07,0.03,1721200789797
1.38,0.72,17.08,-0.12,0.45,0.07,1721200789807
-1.96,4.99,9.58,0.09,-0.26,-0.16,1721200789817
-2.51,-4.12,10.31,-0.38,0.34,-0.15,1721200789827
-3.49,1.71,17.88,0.28,-0.07,0.11,1721200789837
0.83,-3.29,4.78,-0.05,0.28,0.34,1721200789847
-2.20,2.71,9.51,0.06,-0.32,0.12,1721200789857
-0.89,-2.17,5.62,0.12,0.33,-0.09,1721200789867
1.48,-0.37,16.92,-0.05,0.41,-0.08,1721200789877
-0.61,5.75,13.46,0.18,-0.11,-0.09,1721200789887
-1.55,2.26,7.03,0.07,0.05,0.18,1721200789897
0.62,-1.40,11.11,0.09,0.14,0.19,1721200789907
2.13,-8.44,8.34,-0.06,0.08,0.11,1721200789917
-3.21,4.04,10.67,0.15,-0.13,-0.15,1721200789927
-2.17,5.86,12.30,0.21,0.35,-0.28,1721200789937
-3.64,-4.92,6.53,-0.00,-0.22,0.12,1721200789947
-2.96,1.87,12.12,0.10,0.22,0.33,1721200789957
4.89,-1.62,12.39,0.13,0.22,0.21,1721200789967
1.76,3.80,11.86,0.03,-0.09,-0.07,1721200789977
-2.53,0.96,4.78,0.10,-0.14,-0.31,1721200789987
-5.43,-1.24,6.87,0.03,-0.06,-0.11,1721200789997
-3.75,-0.39,11.98,0.06,0.08,0.28,1721200790007
0.87,-1.84,10.52,0.08,0.05,0.38,1721200790017
2.29,4.00,13.47,0.12,0.06,0.05,1721200790027
1.46,2.91,9.27,0.14,-0.06,-0.03,1721200790037
-0.62,3.53,12.60,0.11,-0.01,0.11,1721200790047
0.31,3.25,9.60,0.11,0.03,0.02,1721200790057
0.08,-0.27,7.68,-0.05,-0.13,0.03,1721200790067
-3.11,3.43,7.81,-0.03,-0.18,-0.01,1721200790077
-0.87,2.45,12.01,-0.04,0.14,0.05,1721200790087
0.05,-0.68,9.18,-0.01,-0.09,0.17,1721200790097
-1.63,0.89,12.20,-0.09,-0.09,0.19,1721200790107
-2.24,0.49,6.85,-0.06,-0.22,0.06,1721200790117
-2.77,3.51,7.25,-0.07,-0.06,0.05,1721200790127
-0.94,0.35,16.31,-0.14,-0.01,0.06,1721200790669
0.85,0.23,14.48,0.01,-0.14,0.09,1721200790674
1.01,0.01,10.89,-0.14,0.15,-0.06,1721200790684
-1.38,1.53,1.12,0.15,-0.26,-0.03,1721200790694
0.03,0.18,21.47,-0.39,0.61,0.13,1721200790705
0.17,2.43,13.31,0.20,-0.47,0.13,1721200790715
-0.13,1.39,5.41,-0.20,0.36,-0.05,1721200790726
1.97,-2.16,14.77,-0.11,-0.03,-0.12,1721200790736
-1.54,0.96,9.89,0.09,-0.13,-0.01,1721200790746
-2.49,1.22,11.21,0.03,0.12,0.01,1721200790756
-4.18,1.27,10.92,0.05,-0.20,0.03,1721200790766
-1.45,-4.68,10.87,-0.09,0.04,0.17,1721200790776
2.25,3.86,16.53,0.05,0.15,-0.03,1721200790786
0.04,-1.62,1.65,0.21,-0.36,-0.10,1721200790796
1.09,-5.44,11.16,-0.28,0.44,-0.24,1721200790806
-1.68,6.38,14.45,0.38,-0.38,-0.07,1721200790816
-0.74,-1.75,1.97,-0.09,0.09,0.08,1721200790826
0.17,7.22,23.00,0.15,0.11,-0.13,1721200790836
0.91,-2.42,5.88,0.21,-0.32,-0.14,1721200790846
-2.52,4.02,11.14,-0.05,0.26,-0.16,1721200790856
0.63,-1.31,9.42,0.18,-0.06,-0.02,1721200790866
-0.63,-0.92,11.20,-0.10,0.03,-0.15,1721200790876
-2.36,0.57,5.92,0.22,-0.21,-0.19,1721200790886
-1.59,2.70,7.91,0.07,0.26,-0.11,1721200790896
1.44,0.72,14.58,-0.01,0.03,-0.09,1721200790906
0.26,1.50,12.46,0.22,-0.16,0.01,1721200790916
0.82,2.98,8.23,0.10,0.11,-0.15,1721200790926
-1.06,0.46,11.96,0.11,-0.18,-0.21,1721200790936
-3.57,6.46,6.78,0.34,0.06,-0.10,1721200790946
1.44,-3.71,8.20,-0.03,0.26,-0.12,1721200790956
-2.92,-0.07,8.27,0.13,-0.41,0.02,1721200790966
-0.23,2.38,14.15,-0.00,0.39,0.01,1721200790976
2.07,6.83,13.16,0.46,0.01,0.06,1721200790986
3.22,-3.55,6.69,-0.23,0.14,-0.00,1721200790996
-0.87,-0.06,10.69,0.06,-0.41,-0.01,1721200791006
2.09,3.68,11.88,0.03,0.56,-0.21,1721200791016
0.80,0.93,11.22,0.06,-0.14,-0.19,1721200791026
-4.79,-2.80,3.16,-0.16,-0.26,-0.05,1721200791036
-2.68,-0.16,19.27,-0.07,0.37,-0.02,1721200791046
-1.55,-5.56,8.71,0.01,-0.22,0.12,1721200791056
-4.49,4.69,16.87,-0.03,0.02,0.12,1721200791066
-0.45,-3.09,-2.83,0.05,-0.30,0.20,1721200791076
1.62,1.56,11.71,-0.13,0.47,0.11,1721200791086
4.47,-2.46,11.55,0.08,-0.12,-0.04,1721200791096
-3.61,0.08,10.30,-0.23,-0.28,-0.06,1721200791106
-2.30,1.93,9.44,-0.05,0.04,0.04,1721200791116
0.04,-4.81,7.95,-0.35,0.02,0.13,1721200791126
0.16,-2.88,14.37,-0.14,-0.11,0.14,1721200791136
3.00,-1.11,10.61,-0.11,0.02,0.08,1721200791146
-0.90,-0.98,8.39,-0.07,-0.16,0.10,1721200791156
-1.64,4.92,10.42,-0.12,0.17,-0.03,1721200791166
0.14,-2.32,10.64,-0.21,-0.15,0.03,1721200791176
-1.62,1.56,14.02,-0.05,-0.05,0.13,1721200791186
2.77,-6.25,6.17,-0.13,0.08,0.02,1721200791196
-1.10,2.44,7.84,-0.03,-0.25,0.22,1721200791206
3.37,1.25,16.18,-0.12,0.26,0.11,1721200791216
2.18,2.76,10.11,0.15,-0.19,0.03,1721200791226
-0.21,-3.86,6.05,-0.15,0.05,-0.34,1721200791236
-2.59,1.39,15.60,0.09,-0.03,-0.14,1721200791246
-1.25,2.70,11.54,0.14,0.03,0.17,1721200791256
1.76,0.02,11.95,-0.06,0.10,0.25,1721200791266
1.02,1.52,6.83,0.11,-0.24,0.09,1721200791276
-0.00,3.44,12.14,0.09,0.13,-0.26,1721200791286
4.08,-6.57,12.64,0.03,0.05,-0.14,1721200791296
-3.07,4.46,16.91,0.15,-0.17,-0.02,1721200791306
-2.47,1.04,5.90,0.13,0.08,0.21,1721200791316
1.48,3.41,9.68,0.19,0.19,0.16,1721200791326
4.65,2.35,13.99,0.17,0.07,-0.06,1721200791336
1.44,0.58,9.43,0.12,-0.12,-0.15,1721200791346
-2.32,3.74,7.50,0.24,0.11,-0.24,1721200791356
0.59,-4.80,9.88,0.01,0.26,-0.22,1721200791366
-2.17,0.71,11.51,0.32,-0.23,0.02,1721200791376
0.18,5.50,11.49,0.19,0.30,0.18,1721200791386
3.15,-0.74,10.36,0.03,0.03,0.04,1721200791396
1.25,3.83,9.79,0.16,0.05,-0.19,1721200791406
2.28,1.97,8.57,0.04,0.21,-0.33,1721200791416
-1.31,-1.73,14.55,-0.10,0.04,-0.35,1721200791426
-5.15,3.54,9.55,0.22,-0.13,-0.09,1721200791436
-0.00,2.64,6.70,-0.04,0.29,0.22,1721200791446
2.29,1.71,10.32,-0.04,-0.00,0.01,1721200791456
0.06,-1.67,12.84,-0.19,0.02,-0.29,1721200791466
-1.94,4.55,8.27,0.17,-0.04,-0.24,1721200791476
0.75,-5.62,6.41,-0.36,0.23,-0.11,1721200791486
-3.51,4.34,16.84,0.08,-0.22,-0.05,1721200791496
-0.14,5.64,6.30,0.00,0.14,-0.04,1721200791506
2.17,-2.39,9.50,-0.12,-0.09,0.06,1721200791516
2.47,-4.50,12.05,-0.25,0.11,-0.13,1721200791526
0.03,0.75,16.68,0.10,-0.06,-0.31,1721200791536
-4.31,1.99,0.16,0.11,-0.16,-0.36,1721200791546
-4.93,-1.28,10.20,-0.19,0.11,-0.16,1721200791556
-1.54,-2.99,12.98,0.04,-0.10,0.28,1721200791566
1.17,-1.47,18.43,-0.22,0.25,0.17,1721200791576
0.18,4.27,7.26,0.25,-0.40,-0.13,1721200791586
0.32,3.35,3.56,-0.14,0.19,-0.35,1721200791596
-1.17,-8.95,8.50,-0.16,-0.36,-0.04,1721200791606
-5.03,-1.23,15.37,0.17,0.16,0.09,1721200791616
3.28,1.61,10.05,0.17,0.19,0.16,1721200791626
-0.96,2.63,9.02,-0.16,-0.43,0.13,1721200791636
-1.45,7.02,11.70,0.13,0.11,-0.09,1721200791646
4.17,-12.53,5.02,-0.12,0.02,-0.15,1721200791656
-7.04,-1.77,10.17,0.09,-0.28,-0.11,1721200791666
-1.47,-0.12,11.63,0.13,0.19,-0.14,1721200791676
0.17,3.71,19.31,0.07,0.09,0.01,1721200791686
0.41,-8.69,3.51,-0.06,-0.32,0.30,1721200791696
0.72,-0.54,12.75,-0.04,0.28,-0.02,1721200791706
5.90,1.67,15.52,0.16,0.03,-0.44,1721200791716
-2.23,-1.74,5.06,-0.07,-0.40,-0.67,1721200791726
-7.39,1.42,10.84,0.13,0.02,-0.33,1721200791736
-0.98,-10.02,7.04,-0.12,0.31,0.23,1721200791746
1.65,5.78,22.41,0.06,0.21,0.09,1721200791756
2.55,7.56,7.81,0.41,-0.19,-0.46,1721200791766
-0.32,-0.94,3.94,-0.24,0.08,-0.63,1721200791776
-3.90,-2.41,7.72,0.13,-0.26,-0.28,1721200791786
-0.27,-4.50,10.82,-0.14,0.53,-0.09,1721200791796
-0.62,3.09,14.67,0.07,-0.13,-0.18,1721200791806
-3.48,6.00,7.33,0.14,-0.17,-0.33,1721200791816
-0.72,1.19,9.48,0.03,0.25,-0.20,1721200791826
0.51,0.69,15.03,0.18,0.16,0.00,1721200791836
-0.41,-1.84,4.54,-0.03,-0.15,-0.02,1721200791846
0.10,6.88,15.65,0.27,0.07,-0.26,1721200791856
2.67,-6.37,9.10,0.06,0.10,-0.20,1721200791866
-6.92,5.16,6.57,0.31,-0.37,-0.15,1721200791876
1.97,-0.50,10.84,-0.06,0.58,-0.07,1721200791886
1.07,0.84,11.04,0.10,-0.47,0.13,1721200791896
-1.59,6.28,8.83,0.03,0.29,-0.27,1721200791906
1.82,-1.96,13.48,0.02,0.25,-0.30,1721200791916
-1.31,-1.65,15.38,-0.02,-0.15,0.16,1721200791926
-2.06,4.07,3.81,0.03,-0.07,0.10,1721200791936
-0.18,1.10,1.80,-0.19,0.15,-0.18,1721200791946
0.18,-1.44,19.99,-0.23,0.25,-0.18,1721200791956
-2.03,-0.77,14.62,0.11,-0.16,-0.13,1721200791966
-2.03,0.04,4.87,-0.03,0.04,0.30,1721200791976
1.11,0.29,12.84,-0.20,0.33,0.19,1721200791986
1.59,-4.30,9.50,-0.19,-0.14,0.02,1721200791996
-1.83,2.35,7.93,0.01,-0.07,-0.18,1721200792006
2.71,-6.82,7.88,-0.13,0.14,-0.06,1721200792016
-1.80,-0.02,9.27,-0.08,-0.08,0.10,1721200792026
-1.04,5.16,13.95,-0.04,0.25,0.03,1721200792036
0.98,-1.34,7.86,-0.07,-0.12,-0.02,1721200792046
-2.12,-3.64,5.25,-0.18,-0.03,-0.11,1721200792056
-1.00,-0.25,13.19,-0.04,0.19,0.11,1721200792066
-0.32,3.73,11.02,0.01,-0.18,0.30,1721200792076
1.87,-5.30,4.31,-0.34,0.10,0.02,1721200792086
-0.43,1.02,16.75,-0.09,0.01,-0.26,1721200792096
0.33,-1.58,6.67,-0.03,-0.06,-0.10,1721200792106
-0.92,0.79,13.26,-0.03,0.05,0.19,1721200792116
1.65,0.13,11.58,0.00,0.21,-0.05,1721200792126
-1.44,1.03,14.20,-0.04,-0.05,-0.09,1721200792136
-2.72,0.51,8.15,-0.03,-0.04,0.01,1721200792146
-0.67,2.07,12.64,0.04,0.10,0.18,1721200792156
2.51,-4.54,4.54,0.03,0.01,0.25,1721200792166
-0.54,2.41,14.29,0.11,0.06,-0.04,1721200792176
1.89,1.60,11.38,0.13,-0.09,-0.25,1721200792186
-0.64,-2.57,10.84,0.03,-0.08,0.08,1721200792196
0.12,1.18,9.36,0.22,0.16,0.26,1721200792206
4.86,0.14,10.46,0.06,0.28,0.06,1721200792216
0.39,6.51,12.98,0.37,-0.26,-0.14,1721200792226
1.48,-5.28,6.76,0.04,0.19,-0.16,1721200792236
-0.79,5.08,18.89,0.21,0.14,0.00,1721200792246
-1.45,0.66,1.84,0.09,-0.17,0.11,1721200792256
-0.26,-0.29,14.77,0.10,0.14,0.10,1721200792266
5.15,-2.61,6.91,0.29,0.11,-0.01,1721200792276
-1.05,3.18,8.62,0.04,-0.01,-0.27,1721200792286
-2.96,5.33,11.43,0.29,0.08,-0.06,1721200792296
0.39,2.64,14.79,0.08,0.32,0.02,1721200792306
1.53,-3.93,8.32,0.11,-0.18,0.10,1721200792316
0.67,-1.45,2.97,0.04,0.09,-0.02,1721200792326
2.82,2.85,8.72,-0.04,0.31,-0.38,1721200792336
-1.06,3.83,16.52,0.13,-0.00,-0.42,1721200792346
-4.93,2.22,7.47,0.17,-0.07,-0.06,1721200792356
-2.59,2.50,8.02,-0.03,0.18,0.10,1721200792366
2.58,-1.07,10.60,-0.22,0.16,0.04,1721200792376
0.76,1.41,12.76,-0.03,-0.06,-0.15,1721200792386
0.89,1.40,5.77,-0.01,0.16,-0.28,1721200792396
-2.90,-7.16,5.49,-0.30,-0.21,-0.19,1721200792406
-6.82,2.74,15.11,0.01,-0.16,0.01,1721200792416
3.14,0.23,8.43,-0.17,0.28,0.21,1721200792426
3.82,-1.05,15.37,-0.28,0.01,-0.07,1721200792436
0.91,0.36,10.01,-0.08,0.03,-0.38,1721200792446
-1.54,-4.83,12.65,-0.25,0.20,-0.38,1721200792456
-3.33,3.99,12.57,0.01,-0.22,0.05,1721200792466
-0.46,1.99,9.60,-0.13,0.15,0.11,1721200792476
1.66,1.18,12.72,-0.03,0.02,0.00,1721200792486
0.69,-3.50,5.45,-0.20,-0.06,-0.17,1721200792496
-0.76,1.03,14.43,-0.04,0.04,-0.37,1721200792506
-1.10,2.85,7.02,0.11,0.03,-0.29,1721200792516
-3.63,-3.74,4.48,-0.14,-0.01,-0.05,1721200792526
-3.30,2.79,17.71,0.06,0.26,0.09,1721200792536
1.13,-0.09,9.40,0.09,-0.03,-0.04,1721200792546
-0.15,0.51,7.92,0.04,-0.18,-0.13,1721200792556
0.83,2.09,16.08,0.06,0.29,-0.13,1721200792566
-0.24,0.20,12.95,0.04,-0.20,-0.05,1721200792576
-5.25,-2.73,4.54,0.03,-0.11,-0.13,1721200792586
0.04,-2.78,9.60,-0.01,0.49,-0.23,1721200792596
1.05,1.63,14.90,-0.02,-0.20,-0.06,1721200792606
-1.86,4.80,11.00,0.15,-0.17,-0.09,1721200792616
2.22,1.13,11.68,0.05,0.24,-0.07,1721200792626
-0.26,-5.94,9.91,-0.14,-0.28,-0.06,1721200792636
-5.45,3.28,6.46,0.10,-0.03,-0.10,1721200792646
0.06,-3.00,7.80,-0.02,0.27,-0.26,1721200792656
-2.68,-0.38,10.79,0.19,-0.01,-0.23,1721200792671
-1.31,-0.47,8.82,0.09,0.04,-0.01,1721200792676
-1.48,7.37,10.43,0.11,0.15,-0.06,1721200792686
1.56,2.32,8.48,0.00,-0.02,-0.15,1721200792696
-0.71,1.23,15.09,0.04,-0.05,-0.20,1721200792706
-3.83,1.56,2.69,0.25,-0.22,-0.11,1721200792716
-1.90,-0.39,8.41,-0.04,0.18,0.15,1721200792726
1.90,0.13,19.17,0.09,-0.03,0.06,1721200792736
-0.10,8.98,9.06,0.36,-0.26,-0.14,1721200792746
0.15,0.90,7.01,0.03,0.12,-0.06,1721200792756
-1.86,-2.80,11.35,0.06,-0.28,0.08,1721200792766
-0.68,1.27,9.15,0.12,0.00,0.19,1721200792776
2.37,3.28,6.69,0.15,-0.00,-0.03,1721200792786
1.04,-2.01,10.62,-0.07,-0.02,-0.29,1721200792796
-3.05,0.16,14.56,0.11,-0.20,-0.16,1721200792806
-1.68,2.82,10.07,0.13,-0.01,0.20,1721200792816
-0.56,1.83,8.29,-0.05,-0.09,0.11,1721200792826
0.81,1.41,12.43,-0.01,-0.03,-0.06,1721200792836
1.54,1.24,9.16,-0.13,-0.02,-0.14,1721200792846
-3.54,-0.25,6.73,-0.04,-0.41,0.09,1721200792856
-1.56,-2.75,11.17,-0.28,0.34,0.08,1721200792866
2.02,0.05,15.69,-0.02,-0.14,0.01,1721200792876
0.95,1.91,6.46,-0.04,-0.16,0.01,1721200792886
-0.33,-3.70,3.07,-0.22,-0.07,-0.09,1721200792896
-1.73,-3.24,12.62,-0.15,0.03,-0.14,1721200792906
-0.55,2.12,13.59,-0.00,-0.02,-0.09,1721200792916
0.88,-0.23,10.49,-0.13,-0.09,-0.06,1721200792926
1.61,-1.51,8.24,-0.12,-0.12,0.08,1721200792936
0.96,-0.02,10.40,-0.13,0.10,-0.04,1721200792946
1.94,2.58,9.17,0.01,0.08,-0.17,1721200792956
1.98,-3.04,15.01,-0.27,0.14,-0.39,1721200792966
-1.25,3.44,14.09,0.09,-0.14,-0.25,1721200792976
-0.73,-2.23,3.22,-0.12,0.14,-0.21,1721200792986
0.22,0.13,14.06,-0.06,0.19,-0.10,1721200792996
1.38,0.23,11.73,0.04,0.04,-0.20,1721200793006
0.41,2.36,8.83,0.08,0.08,-0.30,1721200793016
1.17,-2.67,9.98,-0.10,0.14,-0.51,1721200793026
-3.75,-1.36,13.13,0.13,0.02,-0.28,1721200793036
-1.20,2.41,12.69,0.04,0.49,-0.19,1721200793046
-0.11,2.08,8.26,0.23,-0.13,0.00,1721200793056
2.61,-1.24,5.86,0.09,0.31,-0.09,1721200793066
0.50,-1.08,11.77,0.11,0.11,-0.43,1721200793076
-3.07,0.83,7.40,0.16,-0.03,-0.33,1721200793086
-2.21,6.82,18.67,0.14,0.41,-0.04,1721200793096
0.30,-3.15,5.70,0.15,0.02,-0.02,1721200793106
-0.89,-0.96,7.98,-0.04,0.24,-0.12,1721200793116
1.45,-0.75,8.62,0.12,0.14,-0.16,1721200793126
0.88,3.85,16.04,0.14,0.32,-0.23,1721200793136
-0.26,2.34,8.34,0.26,0.00,-0.10,1721200793146
-0.53,-3.01,9.41,0.04,0.20,-0.06,1721200793156
-1.62,0.70,7.34,0.10,0.15,-0.23,1721200793166
-1.26,1.84,11.49,0.09,0.27,-0.22,1721200793176
-0.62,-2.18,6.61,0.03,0.17,0.00,1721200793186
-3.13,2.20,10.28,0.12,0.14,-0.02,1721200793196
2.17,-2.73,10.37,-0.08,0.38,-0.11,1721200793206
1.48,3.20,17.00,0.16,0.12,-0.10,1721200793216
0.43,2.42,5.80,-0.09,0.16,-0.22,1721200793226
-3.08,4.63,13.88,0.12,0.10,-0.27,1721200793236
-0.97,-5.71,3.76,-0.16,0.20,-0.09,1721200793246
-4.61,2.56,14.95,-0.06,-0.03,-0.03,1721200793256
-1.64,0.17,6.12,-0.10,0.18,0.07,1721200793266
1.47,1.90,16.17,-0.09,0.34,0.05,1721200793276
2.36,-0.62,7.84,0.00,-0.01,-0.11,1721200793286
-2.19,3.45,10.19,-0.14,-0.02,-0.13,1721200793296
-0.76,-1.75,8.99,-0.01,0.05,0.05,1721200793306
0.29,-2.82,14.41,-0.19,0.18,0.05,1721200793316
-1.19,2.77,2.84,0.11,-0.10,-0.05,1721200793326
2.66,-6.05,10.02,-0.43,0.46,-0.19,1721200793336
-0.41,4.11,15.87,0.05,-0.38,0.06,1721200793346
-0.30,-1.09,6.34,-0.17,0.35,0.04,1721200793356
-0.90,3.39,12.45,0.01,-0.03,-0.02,1721200793366
2.74,-5.98,15.44,-0.30,0.28,0.06,1721200793376
-2.32,-1.42,7.89,0.01,-0.38,0.02,1721200793386
-2.27,0.28,4.65,-0.01,0.29,0.11,1721200793396
1.28,4.75,13.59,-0.03,0.22,-0.00,1721200793406
-0.91,-3.30,14.02,-0.13,-0.18,-0.12,1721200793416
-3.78,2.02,6.29,0.07,-0.01,0.08,1721200793426
1.24,-7.58,8.30,-0.33,0.30,0.21,1721200793436
-3.81,3.56,9.35,0.16,-0.42,0.12,1721200793446
1.12,-0.20,8.82,-0.07,0.48,-0.06,1721200793456
0.97,-0.02,17.09,-0.00,-0.35,0.11,1721200793466
-2.40,6.58,4.46,0.20,-0.07,0.11,1721200793476
1.88,-4.13,7.64,-0.27,0.20,0.04,1721200793486
-3.37,-2.33,16.34,-0.07,-0.40,-0.00,1721200793496
-2.22,0.04,6.68,0.12,-0.02,-0.04,1721200793506
-0.50,1.38,11.49,0.10,0.10,0.01,1721200793516
-1.06,-0.45,7.63,0.08,-0.19,0.27,1721200793526
-0.92,-0.53,11.83,-0.16,0.10,0.04,1721200793536
-0.58,7.63,12.35,0.27,-0.21,-0.23,1721200793546
0.58,-4.82,6.00,-0.07,-0.01,-0.12,1721200793556
-2.70,-1.12,12.19,0.08,-0.16,0.04,1721200793566
-0.06,6.39,11.92,0.27,0.10,0.08,1721200793576
0.33,0.85,7.00,0.01,-0.26,0.05,1721200793586
-2.97,3.57,14.48,0.16,-0.14,-0.06,1721200793596
-0.23,1.69,3.05,0.31,-0.09,0.06,1721200793606
0.46,-0.35,11.15,-0.10,0.14,0.01,1721200793616
-0.64,4.50,13.95,0.29,-0.42,0.09,1721200793626
1.22,1.95,5.78,0.09,0.14,0.10,1721200793636
1.37,1.82,18.13,0.00,-0.03,-0.15,1721200793646
-1.25,-0.09,9.56,0.19,-0.32,-0.07,1721200793656
-0.45,2.09,7.05,0.10,-0.01,0.04,1721200793666
0.93,0.70,11.11,0.01,0.01,0.06,1721200793676
-2.45,3.62,10.67,0.18,-0.35,-0.02,1721200793686
0.18,-4.57,5.05,-0.10,0.09,0.05,1721200793696
0.93,-0.22,11.74,-0.04,-0.04,0.06,1721200793706
1.81,3.33,13.38,-0.03,0.09,-0.06,1721200793716
-1.80,-1.57,11.42,-0.17,-0.28,-0.09,1721200793726
-2.50,-0.72,5.99,-0.03,-0.14,0.08,1721200793736
2.21,2.08,11.73,-0.06,0.26,-0.03,1721200793746
1.23,-8.74,6.62,-0.35,-0.37,0.05,1721200793756
-4.33,0.08,15.06,-0.08,-0.05,-0.09,1721200793766
-0.59,4.56,13.01,0.08,0.02,0.04,1721200793776
-0.79,-4.82,3.49,-0.28,-0.35,0.14,1721200793786
-0.92,0.62,8.58,-0.15,0.20,-0.05,1721200793796
5.05,1.08,14.91,-0.19,0.26,-0.27,1721200793806
-1.93,-0.04,11.66,-0.23,-0.31,-0.16,1721200793816
-4.30,-1.72,4.12,-0.09,-0.01,0.03,1721200793826
3.16,-0.57,13.47,-0.16,0.21,-0.05,1721200793836
4.96,-2.26,12.17,-0.12,-0.22,-0.04,1721200793846
-0.58,8.44,10.66,0.10,-0.01,-0.35,1721200793856
0.84,-1.69,8.64,-0.01,0.14,-0.37,1721200793866
-4.81,0.27,12.02,-0.05,-0.18,-0.19,1721200793876
0.39,-0.54,9.98,-0.02,0.30,0.01,1721200793886
3.30,7.04,11.63,0.12,0.04,-0.15,1721200793896
-0.22,-2.38,8.54,0.04,-0.25,-0.33,1721200793906
-2.06,-0.82,11.71,0.14,0.12,-0.21,1721200793916
-0.38,2.40,9.63,0.29,0.25,-0.13,1721200793926
-0.55,-3.25,7.30,-0.08,0.02,-0.11,1721200793936
-2.58,1.59,8.89,0.08,-0.13,-0.01,1721200793946
3.71,3.79,14.47,0.12,0.46,-0.14,1721200793956
3.52,1.72,15.53,0.17,-0.04,-0.29,1721200793966
-2.71,-2.26,5.39,0.18,-0.20,-0.17,1721200793976
-2.05,0.83,8.22,0.09,0.36,-0.06,1721200793986
-1.03,2.86,13.95,0.15,0.12,-0.18,1721200793996
0.03,-0.55,10.97,0.11,0.09,-0.06,1721200794006
-0.05,3.41,10.59,0.31,0.10,-0.00,1721200794016
4.11,1.03,9.69,0.12,0.29,-0.01,1721200794026
1.56,1.71,12.29,0.23,-0.01,-0.28,1721200794036
-2.22,1.84,10.57,0.28,0.11,-0.43,1721200794046
-2.83,-2.06,5.96,0.19,0.11,-0.11,1721200794056
-2.43,1.00,9.50,0.07,0.16,0.11,1721200794066
1.34,5.02,14.31,0.16,0.28,-0.10,1721200794076
1.60,1.94,10.53,0.16,0.08,-0.18,1721200794086
-0.60,1.18,9.69,0.00,0.18,-0.09,1721200794096
-1.04,2.71,12.26,0.13,0.17,-0.17,1721200794106
-0.32,1.30,7.82,0.06,0.09,-0.08,1721200794116
-0.46,2.44,13.16,-0.02,0.13,-0.02,1721200794126
-0.68,-0.32,5.75,0.05,-0.12,0.05,1721200794136
-0.27,-0.48,11.28,-0.14,0.29,-0.16,1721200794146
1.24,-1.62,7.64,-0.05,-0.03,-0.07,1721200794156
-0.54,0.45,11.81,-0.12,0.20,-0.11,1721200794166
1.62,4.95,12.64,0.00,0.28,-0.27,1721200794176
-0.85,-1.52,5.07,-0.12,-0.11,-0.15,1721200794186
-1.91,-5.74,13.35,-0.26,0.24,-0.17,1721200794196
-1.46,-0.38,12.51,0.06,0.01,-0.04,1721200794206
-1.36,2.50,9.17,-0.09,0.18,-0.02,1721200794216
-1.27,-2.04,7.29,-0.10,-0.05,-0.05,1721200794226
-0.96,-2.24,10.32,-0.10,0.05,0.03,1721200794236
1.55,5.94,14.22,0.05,0.21,-0.01,1721200794246
0.04,-2.58,1.67,-0.24,-0.21,-0.17,1721200794256
-2.37,-4.80,14.50,-0.27,0.22,-0.19,1721200794266
1.56,-2.60,15.51,-0.00,0.12,0.03,1721200794276
-1.69,3.91,5.75,-0.06,-0.06,0.00,1721200794286
-4.21,1.09,8.85,-0.08,0.05,-0.10,1721200794296
-0.04,2.29,14.70,-0.03,0.32,-0.00,1721200794306
1.76,-1.07,14.01,-0.18,-0.10,0.09,1721200794316
-1.87,0.60,8.78,0.09,-0.25,0.08,1721200794326
1.16,-1.30,7.86,-0.07,0.32,-0.03,1721200794336
-0.01,-1.20,13.52,0.02,-0.16,-0.11,1721200794346
-1.33,4.85,9.04,0.25,-0.03,-0.14,1721200794356
-0.15,-2.78,7.01,-0.00,0.11,-0.07,1721200794366
-4.25,2.06,14.67,0.11,-0.14,-0.14,1721200794376
0.25,0.39,7.08,0.16,0.25,-0.09,1721200794386
2.71,1.99,11.59,0.09,0.03,-0.18,1721200794396
-0.48,2.54,10.51,0.15,-0.09,-0.24,1721200794406
-2.56,-4.47,4.53,0.05,0.03,-0.22,1721200794416
-2.33,-0.61,19.94,0.00,0.24,-0.21,1721200794426
-0.02,3.65,9.18,0.40,-0.06,-0.03,1721200794436
0.42,0.98,8.07,-0.06,0.16,-0.03,1721200794446
-2.44,1.34,10.57,0.22,-0.25,-0.17,1721200794456
-1.67,1.40,6.10,0.16,0.13,-0.18,1721200794466
-0.00,0.72,11.41,0.10,0.12,-0.12,1721200794476
0.18,-0.89,12.22,0.06,-0.06,0.04,1721200794486
-0.26,4.24,8.56,0.29,-0.00,0.05,1721200794496
2.36,-2.08,5.99,0.02,0.13,-0.11,1721200794506
-1.66,0.62,13.57,-0.02,-0.06,-0.15,1721200794516
-0.98,4.81,11.50,0.16,0.15,-0.25,1721200794526
0.75,2.40,10.50,0.05,0.13,-0.02,1721200794536
-1.30,-1.06,15.14,-0.15,-0.02,0.11,1721200794546
-3.35,4.60,6.10,0.21,-0.28,-0.05,1721200794556
0.86,-1.44,7.25,-0.15,0.27,-0.04,1721200794566
-2.16,-0.15,12.44,-0.06,-0.16,0.10,1721200794576
-3.47,-1.31,8.93,-0.14,-0.01,0.01,1721200794586
-0.98,3.48,14.49,0.02,0.16,0.11,1721200794596
1.48,-4.13,7.75,-0.11,-0.15,0.28,1721200794606
-2.09,7.66,13.30,0.12,-0.05,0.22,1721200794616
3.56,-2.35,3.00,-0.16,-0.01,-0.02,1721200794626
-4.25,1.95,13.42,-0.17,-0.36,-0.12,1721200794636
-2.32,-2.24,8.61,-0.11,0.26,-0.03,1721200794646
-2.35,-5.91,11.47,-0.21,-0.06,0.17,1721200794656
-2.49,-1.04,12.96,-0.20,-0.13,0.28,1721200794666
0.59,-0.43,4.92,-0.06,-0.25,0.13,1721200794681
3.91,1.90,7.71,-0.03,0.06,0.05,1721200794686
1.49,-4.29,9.39,-0.20,-0.17,0.02,1721200794696
-3.50,-1.57,12.30,-0.21,-0.20,0.06,1721200794706
-1.20,2.59,13.30,0.01,-0.06,0.16,1721200794716
4.19,-1.07,9.02,-0.06,-0.02,0.32,1721200794726
4.19,0.73,11.12,-0.03,-0.11,0.06,1721200794736
1.61,-0.09,10.56,-0.04,-0.03,-0.36,1721200794746
-2.04,1.23,9.87,0.04,-0.12,-0.34,1721200794756
-2.71,1.92,12.67,-0.02,0.15,0.07,1721200794766
-1.96,-1.22,9.47,0.09,-0.21,0.29,1721200794776
1.58,4.75,9.53,0.10,0.17,0.06,1721200794786
4.88,-1.62,11.40,-0.03,-0.01,-0.06,1721200794796
-0.98,-0.98,12.82,0.08,-0.14,-0.13,1721200794806
-2.03,-4.04,8.79,-0.04,0.03,-0.17,1721200794816
-1.63,1.79,12.80,0.21,-0.13,0.24,1721200794826
3.38,0.86,9.12,0.04,0.14,0.12,1721200794836
1.48,3.68,12.87,0.23,-0.18,0.03,1721200794846
2.61,-1.25,4.06,0.02,0.10,-0.15,1721200794856
-1.58,-1.16,12.41,0.02,-0.07,-0.23,1721200794866
-0.66,2.94,15.61,0.18,0.12,-0.07,1721200794876
1.72,-0.79,4.33,0.05,-0.07,0.14,1721200794886
2.09,4.02,17.46,0.13,0.21,-0.11,1721200794896
2.70,1.09,6.78,0.21,-0.06,-0.31,1721200794906
-1.47,-0.85,8.91,0.06,-0.00,-0.33,1721200794916
0.01,-1.60,10.20,0.04,0.15,-0.18,1721200794926
-2.77,5.09,12.70,0.25,-0.00,-0.12,1721200794936
0.28,-0.97,6.56,-0.07,0.23,-0.11,1721200794946
-0.06,0.44,14.41,0.15,0.02,-0.08,1721200794956
2.11,0.93,7.13,-0.01,0.24,-0.12,1721200794966
0.82,1.70,13.19,-0.10,0.07,-0.22,1721200794976
-1.80,3.58,12.66,0.11,0.00,-0.48,1721200794986
-0.90,1.53,13.81,0.12,0.28,-0.17,1721200794996
-1.54,1.92,0.77,0.15,-0.11,0.03,1721200795006
-1.68,8.52,13.14,-0.07,0.49,-0.14,1721200795016
2.90,-8.98,7.64,-0.19,-0.02,-0.31,1721200795026
-4.46,0.94,12.54,0.02,-0.06,-0.35,1721200795036
0.36,0.60,9.94,-0.03,0.43,-0.14,1721200795046
-1.15,1.20,12.29,-0.13,-0.18,0.03,1721200795056
-1.19,6.16,12.33,-0.02,0.14,-0.13,1721200795066
2.16,-6.52,7.12,-0.18,0.10,-0.32,1721200795076
-3.83,-0.12,12.01,0.04,-0.09,-0.23,1721200795086
0.21,-0.73,13.75,-0.07,0.43,-0.09,1721200795096
-1.47,-1.42,5.90,-0.04,-0.37,0.08,1721200795106
-3.62,1.94,5.97,-0.11,0.23,-0.20,1721200795116
2.60,-1.53,11.59,0.03,0.24,-0.23,1721200795126
0.39,-1.91,11.96,-0.15,-0.09,-0.03,1721200795136
-2.97,-0.15,10.91,-0.10,-0.02,-0.07,1721200795146
-2.31,-1.44,8.79,-0.08,0.09,-0.10,1721200795156
0.20,1.87,13.64,-0.03,0.19,-0.03,1721200795166
1.19,-0.20,7.68,-0.09,-0.05,-0.02,1721200795176
-1.56,-1.73,12.03,-0.09,0.07,-0.19,1721200795186
0.42,-2.85,11.69,-0.13,0.19,-0.17,1721200795196
-1.78,4.14,17.39,0.00,0.05,-0.08,1721200795206
-2.38,4.57,3.87,0.11,-0.22,-0.03,1721200795216
-1.37,-2.93,8.54,-0.07,0.12,0.02,1721200795226
1.82,-4.26,10.85,0.07,0.09,-0.10,1721200795236
-0.28,-1.43,11.62,-0.06,-0.11,-0.14,1721200795246
-3.02,9.49,14.39,0.22,0.10,-0.21,1721200795256
-2.05,2.27,6.27,0.04,-0.00,-0.16,1721200795266
-1.66,-4.53,12.85,-0.05,0.10,-0.02,1721200795276
0.30,-2.01,11.72,0.08,0.05,0.05,1721200795286
-1.30,-0.68,3.52,-0.02,-0.13,-0.06,1721200795296
-1.96,7.62,14.44,0.29,0.17,-0.17,1721200795306
2.08,-3.15,7.41,0.08,0.02,-0.10,1721200795316
-6.55,3.18,7.95,0.06,-0.46,-0.08,1721200795326
-4.61,0.41,12.87,0.13,0.44,-0.07,1721200795336
4.47,1.30,16.42,0.26,0.34,0.07,1721200795346
2.40,-2.92,8.29,-0.11,-0.30,0.13,1721200795356
-3.57,5.53,5.10,0.30,-0.47,-0.03,1721200795366
3.88,7.35,7.48,0.29,0.52,-0.14,1721200795376
4.43,-4.17,7.79,-0.12,-0.14,-0.14,1721200795386
-6.26,4.03,17.18,0.04,-0.19,-0.38,1721200795396
-3.67,4.06,9.89,0.33,0.22,-0.19,1721200795406
-1.51,-2.12,5.47,-0.10,-0.02,0.16,1721200795416
-2.18,3.62,7.54,0.19,-0.17,0.17,1721200795426
4.57,-2.09,10.17,-0.14,0.33,-0.07,1721200795436
-0.06,4.68,15.85,0.15,-0.30,-0.14,1721200795446
-2.35,-0.37,7.34,-0.18,0.12,-0.23,1721200795456
-4.74,-0.68,14.99,0.01,-0.23,-0.13,1721200795466
-2.01,1.28,8.39,0.11,0.06,0.32,1721200795476
4.21,1.97,7.02,-0.00,0.22,0.29,1721200795486
0.84,-3.11,3.24,-0.13,-0.32,-0.12,1721200795496
-4.31,-2.24,14.20,-0.25,0.02,-0.39,1721200795506
-2.51,-2.05,11.52,0.07,-0.09,-0.03,1721200795516
-2.97,2.93,10.79,-0.05,0.10,0.16,1721200795526
1.74,-2.72,8.37,-0.22,0.07,0.20,1721200795536
-1.13,3.04,11.73,0.03,-0.19,-0.09,1721200795546
2.78,-4.32,9.87,-0.15,0.24,-0.17,1721200795556
-1.16,-2.61,10.66,0.03,-0.26,0.19,1721200795566
-0.32,-0.20,8.87,-0.11,0.28,0.07,1721200795576
0.17,4.90,13.75,0.04,-0.11,-0.06,1721200795586
2.42,-1.53,6.93,-0.07,-0.09,-0.01,1721200795596
0.97,2.43,8.42,0.10,0.12,-0.23,1721200795606
-1.27,-3.02,8.02,-0.21,0.14,-0.24,1721200795616
-3.00,2.66,14.93,0.03,-0.05,-0.03,1721200795626
0.98,-3.65,6.84,-0.02,-0.05,-0.03,1721200795636
2.61,1.85,15.24,0.02,0.16,0.19,1721200795646
2.12,3.51,10.41,0.23,0.01,-0.07,1721200795656
-0.57,-3.05,7.41,-0.15,0.12,-0.36,1721200795666
-3.58,3.10,18.67,0.07,0.03,-0.31,1721200795676
-2.52,0.63,6.78,0.18,-0.02,0.24,1721200795686
2.15,-0.46,2.52,-0.05,0.25,0.24,1721200795696
3.48,-1.89,13.09,-0.04,0.02,-0.21,1721200795706
-0.14,0.62,12.26,-0.00,-0.01,-0.35,1721200795716
-3.49,3.33,6.85,0.17,0.01,-0.10,1721200795726
0.11,-2.60,19.58,-0.13,0.44,0.08,1721200795736
-0.17,5.49,4.80,0.37,-0.32,0.12,1721200795746
3.14,-0.94,2.61,-0.10,0.41,-0.22,1721200795756
3.54,0.54,13.58,0.09,-0.13,-0.28,1721200795766
-2.20,1.20,13.41,0.04,0.09,-0.13,1721200795776
-1.14,5.41,12.84,0.33,0.06,0.02,1721200795786
1.11,-4.15,-1.61,-0.06,0.03,0.09,1721200795796
-1.07,1.74,16.84,-0.06,0.12,-0.06,1721200795806
2.40,0.67,14.11,0.24,0.18,-0.18,1721200795816
-0.82,2.98,0.23,0.17,-0.17,0.04,1721200795826
2.18,-1.29,11.25,-0.35,0.45,-0.15,1721200795836
-0.53,5.66,18.86,0.27,-0.14,-0.19,1721200795846
1.63,-2.94,2.50,-0.19,0.16,-0.10,1721200795856
-0.79,2.43,21.98,-0.08,0.09,-0.17,1721200795866
-1.43,0.23,7.92,0.24,-0.06,-0.27,1721200795876
-2.94,5.26,1.91,0.15,0.17,0.12,1721200795886
3.83,-8.08,8.86,-0.31,0.33,0.19,1721200795896
-0.23,3.22,17.75,0.09,-0.22,-0.16,1721200795906
-0.07,11.46,7.99,0.24,0.25,-0.40,1721200795916
0.34,-4.28,10.04,-0.18,0.01,-0.21,1721200795926
-4.06,-5.92,12.13,0.11,-0.11,0.24,1721200795936
2.39,1.00,10.90,-0.05,0.58,0.05,1721200795946
2.85,6.13,13.95,0.06,-0.13,-0.29,1721200795956
-2.00,-1.05,1.83,0.10,-0.13,-0.46,1721200795966
-1.88,-1.75,10.54,0.06,0.49,-0.20,1721200795976
-3.04,-4.19,7.92,-0.08,-0.02,0.12,1721200795986
-3.28,7.94,17.76,0.10,0.18,-0.03,1721200795996
3.40,-1.23,4.74,0.02,0.15,-0.41,1721200796006
-2.45,-5.06,2.05,-0.17,-0.19,-0.19,1721200796016
-2.24,-0.40,14.11,-0.14,0.46,-0.16,1721200796026
-0.74,6.18,23.49,0.16,0.17,-0.20,1721200796036
-1.46,0.89,3.47,-0.04,-0.13,0.05,1721200796046
-2.56,-4.53,8.08,-0.20,-0.04,-0.07,1721200796056
-0.43,-8.02,6.25,-0.07,0.11,-0.08,1721200796066
-1.87,4.43,12.36,0.01,0.22,-0.29,1721200796076
-0.66,8.91,12.09,0.19,0.19,-0.16,1721200796086
0.11,-7.72,8.80,-0.24,-0.05,0.16,1721200796096
-3.47,-2.95,11.43,-0.06,-0.14,0.22,1721200796106
3.21,3.04,19.78,-0.13,0.64,-0.22,1721200796116
1.77,4.48,8.02,0.26,-0.43,-0.18,1721200796126
-1.53,-1.51,-0.21,-0.26,0.32,-0.15,1721200796136
-1.33,0.22,20.18,0.14,-0.04,-0.01,1721200796146
-1.43,4.61,3.40,0.24,0.06,-0.01,1721200796156
1.98,0.55,14.16,-0.18,0.32,-0.16,1721200796166
-2.55,-1.85,9.53,0.08,-0.44,0.07,1721200796176
-3.95,-0.03,7.50,-0.13,0.31,0.07,1721200796186
2.47,4.74,17.05,0.27,0.10,0.12,1721200796196
-0.09,-0.37,0.12,0.01,-0.16,0.07,1721200796206
-1.24,3.06,12.82,0.01,0.18,-0.06,1721200796216
1.41,2.68,17.77,0.14,0.32,-0.08,1721200796226
0.71,-0.40,12.60,0.04,-0.10,0.01,1721200796236
-3.50,3.86,2.75,0.22,-0.16,-0.02,1721200796246
1.33,-1.43,13.65,-0.27,0.40,0.07,1721200796256
-0.70,-0.24,12.91,0.11,-0.54,0.09,1721200796266
-1.15,4.03,10.75,0.07,0.23,0.07,1721200796276
1.45,-1.55,8.32,0.19,-0.02,0.04,1721200796286
-1.34,8.73,11.81,0.12,0.08,-0.11,1721200796296
-1.07,-0.38,9.68,-0.07,-0.05,-0.02,1721200796306
-5.25,-0.32,10.80,0.01,-0.31,0.12,1721200796316
-1.17,2.23,8.26,0.04,0.10,0.32,1721200796326
2.52,-1.62,10.15,-0.06,0.03,0.28,1721200796336
1.29,3.79,11.91,0.11,-0.15,0.03,1721200796346
1.47,0.46,2.41,0.03,0.01,0.05,1721200796356
-1.06,3.62,15.96,-0.10,0.16,-0.11,1721200796366
-0.05,-2.39,3.16,0.11,-0.32,0.05,1721200796376
-0.69,-3.93,14.79,-0.25,0.10,0.17,1721200796386
0.36,-2.71,8.32,-0.05,-0.15,0.18,1721200796396
-2.88,-0.00,9.32,-0.27,0.21,-0.27,1721200796406
-2.43,2.74,9.79,0.13,-0.06,-0.07,1721200796416
2.45,-7.06,6.55,-0.24,-0.01,0.38,1721200796426
2.25,-5.67,16.99,-0.14,-0.22,0.32,1721200796436
3.64,9.77,12.63,0.27,0.31,-0.20,1721200796446
3.90,3.11,5.35,-0.13,-0.08,-0.29,1721200796456
-4.43,1.20,14.64,-0.16,-0.20,-0.13,1721200796466
-1.65,-5.37,3.51,-0.01,0.08,-0.10,1721200796476
-0.78,-1.24,10.84,-0.03,0.24,0.02,1721200796486
1.77,-0.13,11.21,-0.12,0.05,0.03,1721200796496
0.35,2.54,16.24,0.13,-0.08,0.14,1721200796506
3.39,1.38,5.39,0.10,0.08,-0.08,1721200796516
0.80,0.72,10.71,-0.02,0.00,-0.22,1721200796526
-1.64,1.19,14.69,0.03,0.08,-0.23,1721200796536
-4.10,-0.75,6.21,0.12,-0.15,0.03,1721200796546
1.09,6.33,17.03,0.24,0.46,0.23,1721200796556
5.83,-8.31,4.16,0.00,-0.05,-0.02,1721200796566
-5.36,2.83,13.86,0.06,-0.23,-0.26,1721200796576
0.60,-1.81,7.21,0.07,0.25,-0.13,1721200796586
-1.90,4.53,14.14,0.29,-0.11,0.18,1721200796596
2.61,-3.04,2.38,-0.06,0.32,0.17,1721200796606
-0.72,1.18,14.48,0.06,-0.13,-0.16,1721200796616
0.64,5.26,3.57,0.20,0.08,-0.30,1721200796626
0.00,-4.40,11.21,-0.10,0.26,-0.26,1721200796636
-2.78,-2.41,16.64,0.17,0.04,0.21,1721200796646
-0.24,-1.58,15.95,-0.08,0.24,0.06,1721200796656
-1.53,7.25,1.29,0.30,-0.44,0.05,1721200796666
4.02,5.76,13.03,-0.08,0.76,-0.08,1721200796676
3.13,2.11,6.87,0.17,0.53,-0.39,1721200796691
-2.88,2.40,6.02,-0.04,-0.09,-0.18,1721200796696
-2.12,2.21,15.25,0.03,0.40,-0.12,1721200796706
-0.76,-6.73,10.08,-0.21,-0.09,-0.01,1721200796716
-5.82,11.52,10.08,0.25,-0.11,0.15,1721200796726
3.08,-2.00,4.54,-0.18,0.44,0.15,1721200796736
0.90,-1.32,12.12,-0.08,-0.32,0.02,1721200796746
0.39,-2.44,9.23,-0.19,0.19,-0.17,1721200796756
-0.33,5.09,15.31,0.14,0.19,-0.28,1721200796766
-2.79,-1.46,9.83,-0.12,0.13,-0.14,1721200796776
-4.42,-3.35,10.90,-0.14,-0.16,0.18,1721200796786
-0.20,6.93,9.81,0.24,0.02,0.19,1721200796796
6.46,-5.45,8.43,-0.26,0.36,-0.10,1721200796806
-2.04,-1.93,12.52,-0.07,-0.47,-0.36,1721200796816
-4.36,4.86,10.44,0.22,0.32,-0.36,1721200796826
-0.39,0.73,14.80,-0.15,0.28,-0.04,1721200796836
-2.24,-0.63,12.86,0.02,-0.52,0.23,1721200796846
-3.07,0.32,0.60,0.02,0.13,0.12,1721200796856
3.93,1.53,16.57,-0.11,0.57,-0.18,1721200796866
0.77,-4.61,12.60,0.01,-0.53,-0.18,1721200796876
-7.14,0.02,5.88,0.05,0.01,0.02,1721200796886
-1.95,-3.96,4.05,0.10,0.25,0.32,1721200796896
2.53,5.68,18.48,-0.09,0.21,0.30,1721200796906
4.72,9.78,18.49,0.18,-0.20,-0.18,1721200796916
-0.67,-4.99,4.45,-0.13,-0.31,-0.26,1721200796926
-6.15,-3.20,9.02,0.11,0.19,-0.10,1721200796936
-0.02,-4.75,8.99,-0.08,0.15,0.24,1721200796946
-2.77,8.68,13.10,0.13,-0.48,0.42,1721200796956
2.76,-2.31,3.21,-0.05,0.04,0.09,1721200796966
1.67,4.18,19.61,0.04,-0.06,-0.13,1721200796976
-0.25,-3.55,-0.05,0.01,-0.25,-0.08,1721200796986
-0.89,-2.36,19.58,-0.31,0.37,-0.16,1721200796996
0.10,0.21,7.73,0.25,-0.39,-0.06,1721200797006
-1.44,0.74,9.14,-0.23,0.25,-0.12,1721200797016
-1.87,-5.05,8.78,0.07,-0.36,0.27,1721200797026
-0.08,-0.21,11.79,-0.15,0.32,0.15,1721200797036
2.72,6.72,12.74,0.16,-0.01,-0.25,1721200797046
0.60,-2.87,6.55,-0.27,-0.11,-0.38,1721200797056
-6.84,3.04,13.35,0.07,-0.40,-0.21,1721200797066
-3.20,-2.77,5.09,-0.13,0.11,0.26,1721200797076
0.90,6.16,11.10,0.26,-0.02,0.36,1721200797086
7.10,-0.40,15.42,-0.16,0.20,-0.05,1721200797096
-2.14,-0.74,6.80,-0.01,-0.96,-0.16,1721200797106
-5.50,6.68,9.78,0.21,0.33,-0.15,1721200797116
3.15,-2.09,10.70,-0.02,0.06,0.05,1721200797126
-2.96,4.26,13.80,0.05,-0.41,0.13,1721200797136
0.68,5.51,8.78,0.08,0.09,-0.05,1721200797146
0.84,-4.79,6.26,-0.02,-0.32,0.07,1721200797156
-1.62,3.21,18.28,0.04,0.29,-0.02,1721200797166
1.70,4.87,8.46,0.18,-0.18,-0.02,1721200797176
-2.47,1.00,9.40,-0.17,-0.30,0.04,1721200797186
-0.44,-4.67,8.43,0.04,0.04,0.06,1721200797196
0.64,3.20,12.80,-0.02,0.08,0.07,1721200797206
0.44,-0.17,11.58,-0.03,-0.29,0.12,1721200797216
-4.99,-1.64,4.67,-0.03,-0.35,0.07,1721200797226
-1.77,2.81,10.26,0.03,0.14,0.17,1721200797236
4.91,-3.96,8.50,-0.16,-0.08,0.34,1721200797246
1.44,2.30,18.59,-0.13,-0.18,0.10,1721200797256
1.96,-0.55,5.94,0.10,-0.14,-0.15,1721200797266
-1.52,-0.58,7.08,-0.18,-0.07,-0.26,1721200797276
-0.18,1.61,13.91,0.09,-0.11,0.12,1721200797286
3.75,-2.45,6.22,-0.05,-0.01,0.14,1721200797296
0.75,0.52,9.10,-0.01,-0.21,-0.11,1721200797306
-1.44,1.02,9.22,-0.12,0.07,-0.35,1721200797316
-2.43,-5.50,11.39,-0.24,-0.21,-0.24,1721200797326
-2.36,1.67,7.92,0.17,-0.14,-0.07,1721200797336
7.53,-3.62,11.46,-0.18,0.44,0.10,1721200797346
2.99,5.46,17.68,0.11,-0.24,-0.01,1721200797356
0.81,-2.95,5.72,-0.20,0.05,-0.51,1721200797366
-3.86,1.89,18.40,0.03,-0.06,-0.66,1721200797376
-2.72,-0.60,4.93,0.07,-0.08,-0.14,1721200797386
-3.04,0.85,13.90,0.03,0.10,0.19,1721200797396
1.97,-1.57,10.27,0.12,0.11,0.03,1721200797406
0.66,1.49,5.33,0.04,-0.22,-0.23,1721200797416
1.03,2.16,14.74,0.02,0.23,-0.37,1721200797426
-2.30,-0.53,10.07,0.21,-0.25,-0.19,1721200797436
-2.92,4.13,13.03,0.17,0.30,0.13,1721200797446
2.48,-0.91,6.39,0.23,-0.11,0.06,1721200797456
-0.20,-4.56,11.67,-0.04,-0.05,-0.30,1721200797466
-0.74,10.71,14.81,0.41,0.12,-0.27,1721200797476
2.12,-1.87,4.81,0.04,-0.04,-0.04,1721200797486
-0.02,-1.93,11.52,0.25,-0.05,-0.12,1721200797496
2.68,-0.21,7.66,0.16,0.35,-0.22,1721200797506
-0.97,5.72,10.40,0.15,-0.11,-0.35,1721200797516
-1.38,-1.84,5.70,0.08,0.06,-0.32,1721200797526
-1.36,-1.81,16.13,-0.06,0.26,-0.24,1721200797536
-1.65,-0.97,13.06,0.19,-0.03,-0.05,1721200797546
-0.24,5.94,7.50,0.20,0.10,-0.17,1721200797556
3.26,5.60,9.01,0.04,0.20,-0.30,1721200797566
1.24,-7.36,14.92,-0.25,0.00,-0.43,1721200797576
-4.73,5.27,12.51,0.41,0.06,-0.40,1721200797586
-0.31,-2.77,-1.70,-0.21,0.24,-0.31,1721200797596
-6.85,-1.70,14.87,-0.18,0.24,-0.00,1721200797606
1.15,4.13,13.29,0.02,0.41,-0.14,1721200797616
1.30,0.28,4.09,0.04,-0.14,-0.19,1721200797626
1.84,-2.85,11.37,-0.34,0.45,-0.38,1721200797636
0.97,1.53,15.24,0.09,0.09,-0.26,1721200797646
-0.54,1.16,5.56,-0.06,0.02,-0.25,1721200797656
-0.57,-2.62,12.71,-0.37,0.13,-0.39,1721200797666
-2.80,-0.56,14.60,0.12,-0.15,-0.37,1721200797676
-2.67,7.65,8.11,0.13,0.34,-0.13,1721200797686
0.83,-5.60,11.20,-0.31,0.28,-0.03,1721200797696
-2.91,4.59,10.22,0.13,-0.24,-0.11,1721200797706
2.04,-2.49,5.31,-0.20,0.52,-0.37,1721200797716
-1.24,3.09,11.64,0.13,-0.17,-0.33,1721200797726
-1.60,1.21,10.30,-0.23,0.31,-0.18,1721200797736
-3.11,-0.79,14.43,0.08,-0.27,-0.15,1721200797746
-2.42,-0.55,8.84,-0.13,0.25,-0.08,1721200797756
0.19,-2.44,8.96,0.00,0.10,-0.20,1721200797766
0.07,1.65,9.66,0.06,0.22,-0.18,1721200797776
0.24,-0.59,10.23,-0.01,0.18,-0.05,1721200797786
-3.83,-0.14,7.69,-0.05,-0.14,-0.09,1721200797796
-1.58,1.98,16.12,0.09,0.22,-0.07,1721200797806
2.31,-2.70,3.17,-0.02,-0.02,-0.01,1721200797816
-2.44,4.66,14.34,0.07,0.07,-0.27,1721200797826
-1.64,-4.99,6.06,0.00,0.17,-0.25,1721200797836
-5.35,4.36,13.71,0.07,0.12,0.02,1721200797846
1.24,-1.94,7.14,-0.05,0.04,0.09,1721200797856
0.80,-0.35,12.53,-0.03,-0.02,0.03,1721200797866
-0.09,3.02,11.67,0.09,0.22,-0.18,1721200797876
-2.30,-0.64,10.34,-0.02,-0.09,-0.17,1721200797886
-5.02,-0.80,3.07,0.03,-0.20,0.05,1721200797896
1.25,-2.50,12.08,-0.08,0.46,0.14,1721200797906
4.57,2.37,17.90,0.05,0.07,0.18,1721200797916
1.03,5.47,10.92,0.03,-0.02,-0.24,1721200797926
-2.92,0.82,5.85,0.10,-0.24,-0.21,1721200797936
-2.51,2.38,13.98,0.05,0.30,0.11,1721200797946
-0.05,-5.74,8.49,0.02,-0.09,0.21,1721200797956
-1.94,6.05,9.89,0.20,-0.00,0.10,1721200797966
5.65,3.63,14.47,0.15,0.38,0.02,1721200797976
1.30,-0.84,11.31,0.03,-0.30,-0.08,1721200797986
-3.06,7.24,9.72,0.40,-0.02,0.03,1721200797996
2.80,3.16,8.95,0.05,0.39,0.01,1721200798006
-1.82,0.51,12.01,0.02,-0.43,-0.10,1721200798016
-2.98,-3.71,12.48,-0.00,0.05,0.05,1721200798026
0.52,2.29,4.56,0.35,-0.01,0.18,1721200798036
3.85,1.06,9.21,-0.15,0.33,0.05,1721200798046
1.58,1.41,20.82,0.09,-0.23,-0.16,1721200798056
-4.15,4.55,7.66,0.24,-0.06,-0.27,1721200798066
-3.66,2.00,7.46,-0.00,0.15,-0.13,1721200798076
-3.80,-0.43,11.72,-0.08,-0.21,0.11,1721200798086
-2.18,0.74,6.49,0.06,-0.15,0.34,1721200798096
1.93,-1.25,4.70,-0.01,0.14,0.13,1721200798106
2.63,-5.76,8.07,-0.17,0.07,-0.11,1721200798116
-1.86,4.51,17.34,-0.18,-0.07,-0.21,1721200798126
-1.15,4.71,12.26,0.19,-0.17,0.07,1721200798136
1.69,-2.74,9.05,-0.24,0.11,0.16,1721200798146
-1.99,-5.34,7.18,-0.04,-0.37,-0.10,1721200798156
-3.28,-0.23,10.20,-0.20,0.20,-0.13,1721200798166
-0.77,-1.73,7.69,-0.03,-0.11,0.16,1721200798176
-0.82,-1.89,9.99,-0.23,-0.05,0.18,1721200798186
3.34,4.07,13.58,0.06,0.25,0.02,1721200798196
4.44,0.73,10.25,-0.06,0.01,-0.32,1721200798206
-2.66,-2.53,11.81,-0.17,-0.16,-0.37,1721200798216
-4.00,4.24,15.23,0.05,0.02,-0.05,1721200798226
0.82,3.55,7.38,0.04,-0.04,0.36,1721200798236
4.13,-6.85,6.33,-0.19,0.01,0.14,1721200798246
2.46,0.80,10.27,-0.04,0.06,-0.25,1721200798256
-0.42,4.14,13.44,-0.03,0.05,-0.43,1721200798266
-2.68,1.74,11.17,0.07,-0.10,-0.02,1721200798276
-0.29,-1.48,7.12,0.02,0.08,0.18,1721200798286
1.71,0.15,14.81,0.01,0.23,-0.00,1721200798296
1.20,6.86,13.29,0.12,0.13,-0.38,1721200798306
-2.40,-5.04,11.77,-0.10,-0.17,-0.23,1721200798316
-4.37,4.43,8.17,0.27,-0.01,0.25,1721200798326
4.04,1.64,12.32,0.15,0.38,0.15,1721200798336
5.37,-2.71,9.10,0.14,-0.22,0.02,1721200798346
-0.67,5.85,13.11,0.16,0.08,-0.50,1721200798356
-1.64,1.59,11.76,0.22,0.07,-0.44,1721200798366
-4.71,-0.55,6.41,0.21,-0.13,0.21,1721200798376
0.83,0.17,13.17,0.09,0.36,0.19,1721200798386
3.96,0.17,9.55,0.15,-0.12,-0.06,1721200798396
-0.54,3.40,6.50,0.15,-0.04,-0.36,1721200798406
0.43,-0.94,10.18,-0.02,0.25,-0.31,1721200798416
-1.82,-1.37,8.94,0.14,-0.09,0.05,1721200798426
0.65,3.27,16.04,0.09,0.43,-0.00,1721200798436
4.02,0.26,7.79,0.16,-0.10,-0.13,1721200798446
-0.49,5.57,7.58,0.04,0.09,-0.26,1721200798456
-0.64,-1.03,5.99,-0.11,0.20,-0.33,1721200798466
-3.36,-0.59,17.06,-0.02,0.06,-0.16,1721200798476
-1.19,-0.91,5.05,0.05,0.13,0.08,1721200798486
1.59,0.62,9.05,-0.17,0.24,-0.10,1721200798496
1.11,-0.82,14.02,-0.17,0.04,-0.35,1721200798506
-2.51,4.19,12.69,0.11,-0.08,-0.19,1721200798516
-1.17,1.88,4.58,-0.06,0.23,0.01,1721200798526
-0.14,-6.03,9.08,-0.23,0.14,-0.06,1721200798536
0.30,-0.11,17.02,-0.11,0.11,-0.22,1721200798546
1.53,4.13,11.54,0.07,0.08,-0.14,1721200798556
-1.19,-3.13,1.99,-0.12,0.06,-0.26,1721200798566
-3.70,1.54,15.80,-0.07,0.27,-0.13,1721200798576
0.13,1.65,7.02,0.04,0.06,0.01,1721200798586
1.50,-3.13,11.97,-0.25,0.17,-0.35,1721200798596
-0.56,0.99,11.54,0.14,-0.06,-0.25,1721200798606
-2.27,1.19,6.85,-0.03,0.34,-0.13,1721200798616
-0.65,-0.84,13.18,-0.06,0.15,-0.10,1721200798626
0.67,-0.84,7.66,-0.02,-0.00,-0.01,1721200798636
1.58,-0.54,12.52,-0.14,0.27,-0.26,1721200798646
-2.16,1.50,6.88,0.02,-0.06,-0.35,1721200798656
-2.36,2.02,13.00,-0.02,0.42,-0.18,1721200798666
-0.15,-2.30,13.74,0.00,0.04,0.13,1721200798676
-2.00,-1.09,6.58,-0.07,-0.14,-0.04,1721200798686
-3.17,4.43,9.48,0.16,-0.15,-0.28,1721200798701
0.44,-2.51,5.72,0.02,-0.13,-0.20,1721200798706
-4.90,2.68,16.81,-0.01,0.20,-0.16,1721200798716
-1.38,-2.66,6.05,0.17,0.07,0.01,1721200798726
-1.83,5.21,11.02,0.03,0.21,-0.09,1721200798736
0.41,0.77,9.56,0.15,0.04,0.01,1721200798746
-1.21,-1.93,12.12,0.06,0.17,0.00,1721200798756
-0.39,3.35,4.50,0.15,-0.01,0.11,1721200798766
0.88,0.75,15.40,-0.01,0.22,0.02,1721200798776
1.69,5.66,12.29,0.33,-0.00,-0.03,1721200798786
-0.76,-4.94,2.27,-0.12,0.00,-0.14,1721200798796
-6.68,1.46,10.90,0.13,0.04,-0.14,1721200798806
-0.09,1.73,16.99,0.06,0.44,0.09,1721200798816
1.28,-5.51,1.99,0.08,-0.39,0.36,1721200798826
1.41,10.60,15.40,0.29,0.66,0.14,1721200798836
5.83,-2.30,10.79,-0.03,-0.02,-0.10,1721200798846
-7.96,3.67,12.50,-0.03,-0.43,-0.27,1721200798856
-5.09,-0.05,4.93,0.24,0.34,-0.14,1721200798866
0.88,-2.48,12.82,-0.13,0.20,0.36,1721200798876
1.26,0.11,8.39,-0.02,-0.33,0.43,1721200798886
2.18,7.18,15.02,0.14,0.24,-0.09,1721200798896
1.36,0.52,5.86,0.13,-0.13,-0.18,1721200798906
-6.97,-4.50,8.68,-0.35,-0.19,-0.03,1721200798916
-5.35,3.21,9.02,0.09,-0.15,0.31,1721200798926
3.48,-3.27,11.49,-0.36,0.32,0.41,1721200798936
3.11,3.82,16.28,0.24,-0.20,0.22,1721200798946
4.53,-4.70,5.58,-0.30,0.14,-0.14,1721200798956
-3.04,8.61,14.83,0.08,-0.38,-0.01,1721200798966
-0.48,5.46,7.06,-0.09,0.27,-0.09,1721200798976
-1.55,-4.37,10.40,-0.06,-0.27,0.06,1721200798986
-2.81,-1.24,8.68,-0.09,0.02,0.19,1721200798996
1.78,0.40,11.53,-0.16,0.05,0.26,1721200799006
1.79,0.81,10.91,-0.03,-0.18,0.00,1721200799016
1.89,0.00,11.66,-0.18,0.32,-0.17,1721200799026
-1.38,0.57,13.21,-0.02,-0.22,-0.22,1721200799036
-1.67,1.83,10.48,-0.05,0.01,-0.02,1721200799046
2.13,-4.63,5.11,-0.10,-0.02,0.16,1721200799056
-0.40,1.88,15.02,-0.16,0.07,-0.10,1721200799066
-1.63,5.70,7.55,0.09,-0.12,-0.39,1721200799076
-1.26,-8.32,8.31,-0.24,0.12,-0.19,1721200799086
-0.20,-0.53,13.91,0.19,0.06,0.10,1721200799096
3.04,-4.28,11.07,-0.19,0.14,0.06,1721200799106
-1.32,14.06,15.08,0.19,-0.17,-0.01,1721200799116
1.35,0.71,3.53,-0.00,0.21,-0.29,1721200799126
-1.16,-3.95,8.95,-0.06,-0.03,-0.21,1721200799136
-2.17,-2.11,13.31,0.03,0.12,-0.13,1721200799146
-1.59,1.41,7.64,0.07,-0.06,0.22,1721200799156
1.48,4.78,14.19,0.01,0.38,0.06,1721200799166
2.25,1.50,9.63,0.09,-0.20,-0.26,1721200799176
-1.40,-0.28,8.28,-0.03,0.07,-0.31,1721200799186
-1.50,-4.80,12.64,-0.02,0.19,-0.06,1721200799196
-3.72,3.57,11.28,0.15,0.00,0.10,1721200799206
-0.30,0.68,9.76,0.04,0.15,0.20,1721200799216
1.58,7.04,7.94,0.36,-0.01,0.09,1721200799226
5.41,0.80,8.10,-0.05,0.32,-0.27,1721200799236
-1.12,0.50,13.97,0.15,-0.19,-0.21,1721200799246
-4.54,4.11,4.48,0.18,0.08,-0.01,1721200799256
0.39,-3.84,11.64,-0.03,0.23,0.17,1721200799266
0.09,-4.16,9.18,0.05,-0.19,0.12,1721200799276
-0.66,4.67,11.16,0.06,0.11,-0.11,1721200799286
-0.44,9.48,12.14,0.32,0.25,-0.24,1721200799296
0.59,-2.89,5.65,0.01,-0.02,0.00,1721200799306
-2.71,-3.99,16.18,0.06,0.08,0.01,1721200799316
0.06,1.97,8.96,0.08,0.20,0.13,1721200799326
0.98,2.99,10.47,0.00,-0.10,-0.02,1721200799336
0.67,-1.60,5.75,0.02,-0.01,-0.10,1721200799346
-0.87,-1.18,10.80,-0.11,0.13,-0.09,1721200799356
-0.89,-2.61,8.64,-0.03,0.05,-0.09,1721200799366
-1.86,3.15,14.00,-0.05,0.26,-0.10,1721200799376
-1.36,2.92,7.26,0.05,-0.02,0.10,1721200799386
-0.53,-2.14,10.16,-0.34,0.07,-0.02,1721200799396
0.19,3.23,14.88,0.09,-0.09,0.01,1721200799406
0.71,2.02,6.45,-0.10,-0.00,0.02,1721200799416
-2.75,-3.90,3.46,-0.14,-0.28,-0.00,1721200799426
-2.63,-3.65,13.65,-0.28,0.31,0.07,1721200799436
1.33,6.17,16.27,0.19,0.11,0.09,1721200799446
2.71,2.00,9.58,-0.07,-0.00,-0.11,1721200799456
-1.50,1.78,9.17,0.00,-0.29,-0.06,1721200799466
-1.83,-2.82,9.59,-0.18,0.07,0.08,1721200799476
-0.61,4.11,14.49,0.10,-0.07,0.12,1721200799486
0.45,-2.00,3.19,-0.08,-0.19,0.06,1721200799496
-2.49,-0.14,9.95,-0.04,-0.06,-0.13,1721200799506
0.35,-1.95,11.42,-0.10,0.09,-0.08,1721200799516
-0.99,0.40,17.73,0.06,-0.01,0.11,1721200799526
-1.36,2.33,5.71,0.01,-0.05,0.10,1721200799536
-1.26,3.15,13.45,-0.05,-0.01,-0.02,1721200799546
1.57,-1.06,8.66,0.11,-0.22,-0.06,1721200799556
0.22,1.73,7.42,0.15,0.01,-0.04,1721200799566
0.44,-3.03,10.76,-0.09,0.01,-0.01,1721200799576
-3.40,2.67,12.67,0.09,-0.41,0.19,1721200799586
1.07,-3.57,6.04,-0.09,0.18,-0.12,1721200799596
0.99,3.52,13.70,0.20,-0.05,-0.14,1721200799606
1.62,4.60,11.92,0.06,0.05,-0.13,1721200799616
-1.89,0.20,4.30,0.15,-0.37,-0.02,1721200799626
-3.83,-1.50,10.70,-0.16,0.13,-0.08,1721200799636
1.07,2.23,9.58,0.37,-0.09,0.04,1721200799646
3.34,-5.37,7.11,-0.30,0.15,-0.07,1721200799656
-3.49,4.33,14.45,0.17,-0.65,-0.09,1721200799666
-1.12,4.94,10.38,0.05,0.42,-0.29,1721200799676
-1.09,-2.94,10.08,0.04,-0.28,-0.07,1721200799686
-4.22,2.54,8.54,0.04,-0.05,0.16,1721200799696
3.05,-0.68,12.49,-0.03,0.22,-0.03,1721200799706
3.23,3.50,11.05,0.21,-0.14,-0.08,1721200799716
2.23,-0.32,6.03,-0.11,0.14,-0.27,1721200799726
-3.30,2.14,15.56,-0.02,-0.34,-0.26,1721200799736
-3.51,5.59,8.71,0.23,-0.17,0.02,1721200799746
-0.14,-1.63,9.61,-0.07,0.13,-0.02,1721200799756
-2.04,2.50,12.43,0.22,-0.19,-0.04,1721200799766
2.48,0.45,9.83,-0.04,0.32,0.03,1721200799776
0.86,3.89,9.28,0.14,-0.30,-0.07,1721200799786
0.52,4.58,14.15,0.02,0.18,-0.28,1721200799796
-0.82,-1.69,4.52,0.07,-0.35,-0.04,1721200799806
-3.71,-4.10,12.11,-0.14,0.05,-0.07,1721200799816
0.21,4.02,12.57,0.18,0.09,-0.01,1721200799826
0.69,1.08,6.02,-0.18,-0.28,0.05,1721200799836
-1.98,-0.64,9.71,0.06,-0.28,-0.06,1721200799846
2.16,-0.71,10.46,0.11,0.40,-0.19,1721200799856
-0.80,-1.93,6.07,-0.24,-0.18,-0.12,1721200799866
-7.42,3.16,16.80,-0.18,-0.28,-0.04,1721200799876
-1.35,-2.75,7.49,-0.05,0.04,0.18,1721200799886
3.36,3.87,14.15,0.19,0.11,0.23,1721200799896
6.45,-8.29,4.22,-0.23,-0.13,0.10,1721200799906
-3.43,7.55,17.19,0.03,-0.33,-0.42,1721200799916
-1.94,-1.42,1.47,-0.03,0.12,-0.42,1721200799926
-4.41,-4.48,9.37,-0.24,-0.04,-0.08,1721200799936
-1.50,1.83,15.50,0.01,0.11,0.11,1721200799946
2.80,1.29,7.89,-0.01,-0.12,0.21,1721200799956
1.18,2.40,11.54,0.01,-0.02,-0.14,1721200799966
1.84,-6.56,10.11,-0.18,0.09,-0.31,1721200799976
-2.10,2.08,11.59,-0.11,-0.11,-0.18,1721200799986
0.13,4.47,13.80,0.02,0.09,-0.01,1721200799996
2.06,0.61,7.29,0.07,-0.10,-0.02,1721200800006
-0.41,0.56,4.35,-0.01,-0.09,-0.18,1721200800016
-1.59,1.46,12.86,-0.12,0.24,-0.33,1721200800026
-0.66,-2.10,12.98,-0.07,0.00,-0.22,1721200800036
-1.14,5.23,14.51,0.10,0.01,-0.10,1721200800046
1.18,-0.34,4.40,0.12,-0.09,0.07,1721200800056
-0.44,3.31,14.68,-0.01,0.22,-0.30,1721200800066
-1.45,0.18,6.27,0.08,-0.24,-0.37,1721200800076
-4.08,0.82,12.13,0.05,0.13,-0.17,1721200800086
-0.06,-1.28,11.76,0.07,0.15,0.05,1721200800096
-1.82,-0.70,8.42,0.07,-0.30,0.18,1721200800106
1.14,1.39,13.13,0.05,0.28,-0.07,1721200800116
4.24,4.05,10.80,0.29,-0.02,-0.33,1721200800126
-1.14,1.86,5.40,0.08,-0.07,-0.30,1721200800136
-4.10,-1.74,14.58,0.07,0.07,-0.24,1721200800146
-2.37,-0.64,8.74,0.20,0.05,-0.00,1721200800156
0.59,2.28,10.29,0.05,0.14,0.07,1721200800166
2.26,2.09,8.60,0.14,-0.07,-0.02,1721200800176
1.54,3.83,8.52,0.12,0.13,-0.38,1721200800186
1.59,-0.85,15.07,0.03,0.19,-0.50,1721200800196
-3.06,-1.98,9.86,0.13,-0.12,-0.26,1721200800206
-2.84,1.48,9.48,-0.05,0.19,-0.01,1721200800216
1.61,0.17,9.86,-0.00,0.11,-0.12,1721200800226
1.38,5.58,9.18,0.08,0.04,-0.28,1721200800236
0.43,-1.15,8.18,-0.13,0.15,-0.42,1721200800246
-2.49,-4.88,7.22,0.01,-0.04,-0.20,1721200800256
-1.06,-1.24,13.23,-0.29,0.44,-0.11,1721200800266
-0.39,3.16,12.99,-0.01,-0.20,-0.05,1721200800276
1.31,4.76,9.29,-0.02,0.38,-0.35,1721200800286
1.82,-2.61,7.09,-0.05,0.07,-0.36,1721200800296
-2.97,1.48,15.39,-0.12,0.08,-0.21,1721200800306
-0.61,-2.03,6.60,-0.10,0.09,-0.03,1721200800316
1.37,2.58,13.51,-0.06,0.29,-0.27,1721200800326
2.23,2.93,8.47,0.01,0.19,-0.58,1721200800336
-4.23,0.09,7.37,-0.06,-0.07,-0.27,1721200800346
-3.21,-0.56,9.81,0.01,0.34,-0.07,1721200800356
2.10,-2.69,10.73,-0.21,0.33,0.02,1721200800366
0.07,0.33,13.43,-0.03,-0.09,-0.18,1721200800376
0.96,0.79,8.67,0.02,0.37,-0.37,1721200800386
-0.51,2.48,13.12,0.07,0.21,-0.32,1721200800396
-3.14,-0.58,5.75,-0.00,-0.09,0.02,1721200800406
-2.82,2.91,11.38,0.11,0.25,0.06,1721200800416
2.60,-1.86,9.03,-0.06,0.34,-0.20,1721200800426
-1.18,-1.55,14.31,-0.15,-0.20,-0.19,1721200800436
-3.10,2.99,8.24,0.21,0.06,-0.29,1721200800446
-0.61,-5.18,3.21,-0.22,0.35,-0.03,1721200800456
-2.79,6.78,18.73,0.26,0.16,0.03,1721200800466
3.35,3.17,11.86,0.08,0.32,-0.02,1721200800476
-2.00,-3.48,5.34,-0.03,-0.34,-0.10,1721200800486
-3.23,-0.72,8.24,-0.04,0.36,-0.16,1721200800496
3.26,-1.51,21.10,-0.01,0.40,0.20,1721200800506
0.80,1.80,12.25,0.22,-0.13,-0.00,1721200800516
-1.15,1.70,2.37,0.10,-0.02,-0.06,1721200800526
-2.58,6.55,15.42,0.12,0.36,-0.22,1721200800536
0.98,0.95,12.42,0.04,-0.02,0.02,1721200800546
-1.75,-3.47,7.08,0.11,-0.18,0.13,1721200800556
0.00,1.55,8.05,0.17,0.49,-0.01,1721200800566
1.34,0.61,14.05,-0.02,0.02,-0.14,1721200800576
-4.42,1.41,2.36,0.08,-0.35,-0.02,1721200800586
-1.96,-2.49,11.31,-0.06,0.60,0.02,1721200800596
1.96,6.42,16.77,0.39,0.16,0.01,1721200800606
2.05,1.05,9.55,-0.03,-0.01,0.10,1721200800616
-2.98,1.54,13.85,0.12,-0.20,0.02,1721200800626
-1.16,4.13,5.08,0.23,0.09,0.01,1721200800636
1.88,0.47,7.88,0.06,0.10,0.05,1721200800646
-0.94,-1.91,6.30,-0.02,-0.17,-0.02,1721200800656
