AccX,AccY,AccZ,GyrX,GyrY,GyrZ,Time
-2.21,-2.16,10.12,0.06,-0.14,0.41,1721199719139
-1.01,-3.94,4.98,-0.09,-0.10,0.36,1721199719144
-0.83,-2.02,18.78,0.07,-0.01,0.36,1721199719154
-0.17,1.42,0.81,0.07,-0.27,0.36,1721199719164
0.45,1.30,15.50,-0.27,0.27,0.22,1721199719174
-3.34,-5.15,8.14,0.06,-0.44,0.31,1721199719184
-5.53,-0.34,15.79,-0.08,0.09,0.52,1721199719194
-0.60,4.44,2.67,0.14,-0.30,0.65,1721199719204
3.17,-3.06,12.38,-0.61,0.19,0.42,1721199719214
2.56,-3.24,21.36,0.28,-0.02,0.22,1721199719224
-0.40,-2.27,1.67,-0.05,-0.18,0.28,1721199719234
-1.58,0.51,15.39,-0.17,-0.03,0.69,1721199719244
4.34,-5.75,15.58,-0.05,-0.00,0.69,1721199719254
3.76,-1.36,11.31,0.01,-0.23,0.28,1721199719264
0.46,1.97,-0.17,-0.06,-0.27,0.08,1721199719274
1.39,0.85,15.00,-0.14,0.36,0.13,1721199719284
2.94,-4.95,5.44,-0.02,-0.07,0.20,1721199719294
-2.58,4.53,16.68,-0.11,-0.02,0.14,1721199719304
-2.01,-2.26,7.93,-0.14,-0.13,0.16,1721199719314
-2.24,-6.35,15.83,-0.11,0.21,0.25,1721199719324
0.95,-2.57,3.53,0.28,-0.07,0.41,1721199719334
7.04,7.63,5.80,0.01,0.46,0.21,1721199719344
6.43,-0.36,5.23,-0.24,0.09,-0.39,1721199719354
-2.49,-2.75,25.35,-0.04,0.17,-0.56,1721199719364
-7.53,3.52,7.68,0.40,-0.03,0.07,1721199719374
-2.53,4.55,1.20,-0.42,0.49,0.43,1721199719384
-2.27,-9.96,26.13,-0.16,0.44,0.27,1721199719394
2.31,-1.92,6.96,0.16,-0.19,-0.10,1721199719404
-4.31,11.71,-0.32,-0.07,0.20,-0.42,1721199719414
-4.15,0.23,19.84,-0.16,0.42,-0.43,1721199719424
-4.81,-2.17,8.99,0.28,-0.12,0.07,1721199719434
-2.31,3.42,5.25,-0.14,0.36,0.25,1721199719444
2.61,2.26,13.71,0.06,0.13,-0.06,1721199719454
2.43,-2.97,8.87,-0.05,0.07,-0.41,1721199719464
-3.17,-0.28,19.86,0.17,0.10,-0.45,1721199719474
-7.49,-3.92,0.27,-0.17,-0.20,-0.16,1721199719484
-10.88,3.00,18.49,0.08,0.02,0.16,1721199719494
-1.05,1.15,4.83,0.26,0.19,0.15,1721199719504
0.50,4.70,6.67,-0.13,-0.04,-0.13,1721199719514
-2.49,1.86,12.90,0.04,-0.11,-0.29,1721199719524
-2.44,-7.24,9.79,-0.25,0.04,-0.21,1721199719534
-5.70,2.26,19.39,0.28,-0.25,-0.01,1721199719544
-1.98,-1.15,-8.71,-0.11,-0.12,-0.07,1721199719554
3.38,5.66,14.70,-0.19,-0.06,-0.25,1721199719564
-1.71,-3.31,2.00,0.01,0.01,-0.21,1721199719574
-5.36,1.70,14.67,-0.02,-0.14,-0.03,1721199719584
-4.58,-0.34,-0.72,-0.04,-0.26,0.08,1721199719594
-5.00,0.45,16.11,-0.17,-0.00,0.05,1721199719604
-1.33,-3.66,15.44,0.15,-0.40,0.16,1721199719614
-2.90,1.81,7.43,0.06,-0.33,0.20,1721199719624
-1.91,6.38,7.01,0.07,-0.20,0.26,1721199719634
1.85,2.10,-0.51,-0.29,-0.27,0.28,1721199719644
1.90,-0.80,17.39,-0.29,-0.28,0.16,1721199719654
2.58,6.13,21.22,0.37,-0.20,-0.01,1721199719664
3.12,6.68,2.71,-0.17,-0.26,-0.22,1721199719674
-0.18,5.14,15.83,-0.21,-0.33,-0.02,1721199719684
0.94,-0.23,11.91,-0.11,-0.03,-0.20,1721199719694
-4.13,5.57,3.66,0.02,-0.49,-0.37,1721199719704
-7.96,2.62,7.92,-0.07,-0.08,-0.14,1721199719714
-7.73,-4.62,8.50,0.02,-0.22,0.58,1721199719724
-5.43,1.32,8.36,-0.09,-0.40,1.07,1721199719734
4.46,3.63,21.73,0.20,0.04,0.85,1721199719744
9.85,0.77,3.47,-0.01,-0.59,0.47,1721199719754
4.87,1.99,7.65,-0.02,-0.37,-0.04,1721199719764
7.27,-5.07,15.13,0.09,-0.06,-0.04,1721199719774
2.55,-1.33,8.75,0.03,-0.32,0.04,1721199719784
-1.07,3.56,6.17,-0.18,-0.13,-0.22,1721199719794
-5.96,-1.36,5.84,-0.22,-0.49,-0.32,1721199719804
-12.09,-1.98,11.22,-0.03,-0.48,-0.07,1721199719814
-7.96,-6.66,9.38,-0.21,-0.10,0.41,1721199719824
-5.52,1.60,16.77,0.04,-0.27,0.63,1721199719834
-1.03,-5.40,-3.52,-0.20,-0.49,0.42,1721199719844
-3.83,0.57,20.81,-0.29,-0.22,0.16,1721199719854
2.22,-1.55,11.85,0.13,-0.48,0.40,1721199719864
3.82,-1.00,4.32,-0.14,-0.35,0.50,1721199719874
5.19,-3.02,8.82,-0.27,-0.28,0.27,1721199719884
3.53,-0.90,13.39,-0.25,-0.35,-0.12,1721199719894
0.19,-1.90,14.39,-0.30,-0.35,-0.23,1721199719904
-3.83,-0.96,10.40,-0.10,-0.48,0.13,1721199719914
-3.64,-2.71,4.91,-0.24,-0.34,0.52,1721199719924
1.69,0.47,15.24,-0.28,-0.17,0.48,1721199719934
4.18,3.27,12.49,0.04,-0.45,0.31,1721199719944
3.03,-2.40,7.67,-0.17,-0.35,0.30,1721199719954
3.89,3.31,21.01,-0.02,-0.15,0.29,1721199719964
6.58,0.30,5.54,0.22,-0.50,0.46,1721199719974
8.70,1.73,10.90,-0.13,0.06,0.26,1721199719984
7.88,6.10,17.24,0.17,-0.26,-0.14,1721199719994
2.89,2.01,6.17,0.22,-0.25,-0.32,1721199720004
1.31,1.32,7.30,0.19,0.05,-0.15,1721199720014
3.14,1.00,9.00,0.18,0.02,0.04,1721199720024
3.86,5.67,16.63,0.21,0.15,-0.14,1721199720034
4.53,1.71,1.44,0.28,-0.12,-0.30,1721199720044
-0.62,0.58,8.00,-0.00,0.10,-0.30,1721199720054
0.86,1.67,14.42,0.12,0.21,-0.18,1721199720064
2.69,2.51,10.89,0.10,0.08,-0.20,1721199720074
3.56,2.98,5.74,0.09,0.08,-0.23,1721199720084
4.31,-0.80,7.24,-0.10,0.28,-0.37,1721199720094
3.04,-2.07,15.42,-0.16,0.24,-0.49,1721199720104
-0.78,4.40,13.30,0.19,0.12,-0.61,1721199720114
-1.81,-5.40,1.28,-0.19,0.24,-0.51,1721199720124
-5.48,1.60,21.11,-0.19,0.23,-0.48,1721199720134
-6.40,3.14,3.26,0.23,-0.06,-0.23,1721199720144
-1.84,-6.83,5.80,-0.48,0.30,0.17,1721199720154
4.61,-0.86,20.69,-0.07,0.20,0.19,1721199720164
8.03,-0.05,3.26,-0.00,0.13,-0.48,1721199720174
1.56,-0.39,10.31,-0.40,0.27,-1.07,1721199720184
-4.73,0.26,14.30,-0.11,0.09,-0.99,1721199720194
-5.94,-4.29,6.19,-0.17,0.25,-0.28,1721199720204
-0.93,-2.17,12.13,-0.21,0.33,0.07,1721199720214
5.26,2.31,13.47,0.04,0.24,-0.25,1721199720224
4.83,-3.61,2.33,-0.13,0.09,-0.77,1721199720234
-1.72,-3.79,14.58,-0.24,0.24,-1.04,1721199720244
-3.60,0.40,16.77,0.20,0.19,-0.62,1721199720254
-5.16,-2.47,6.18,0.04,0.19,-0.12,1721199720264
-1.34,1.30,15.15,0.01,0.49,-0.13,1721199720274
-0.33,-4.42,8.69,0.13,-0.03,-0.24,1721199720284
-4.42,2.15,10.13,0.03,0.23,-0.38,1721199720294
-0.40,1.34,13.00,0.17,0.40,-0.43,1721199720304
-4.59,-1.46,10.37,0.08,-0.03,-0.14,1721199720314
-2.76,-4.19,11.48,-0.08,0.39,0.08,1721199720324
-0.28,-3.37,14.15,0.19,0.10,0.11,1721199720334
0.38,-1.22,6.97,0.12,0.10,-0.06,1721199720344
-0.84,4.52,9.99,0.33,-0.09,-0.30,1721199720354
-2.10,0.18,7.67,0.08,0.06,-0.31,1721199720364
-5.77,-3.75,14.67,0.04,-0.04,-0.15,1721199720374
-3.80,-1.73,11.44,0.25,0.01,0.22,1721199720384
0.61,-1.36,7.86,0.10,0.21,0.23,1721199720394
-1.00,-2.70,5.41,0.13,-0.32,0.05,1721199720404
-0.90,5.31,14.44,0.06,0.26,-0.27,1721199720414
-0.11,-3.97,8.71,0.08,-0.24,-0.13,1721199720424
-6.02,3.94,11.32,0.05,-0.03,-0.10,1721199720434
0.27,-1.47,7.79,-0.01,0.19,-0.03,1721199720444
-0.58,-1.36,12.84,-0.03,-0.46,0.01,1721199720454
-1.64,5.69,11.63,0.28,0.02,-0.12,1721199720464
0.61,-4.02,1.03,0.01,-0.24,-0.08,1721199720474
-5.05,2.39,17.89,-0.19,-0.14,-0.17,1721199720484
-3.25,1.07,12.39,0.25,-0.15,-0.08,1721199720494
-3.78,-1.95,5.96,0.08,-0.28,0.00,1721199720504
-3.70,3.60,10.38,0.14,-0.08,0.02,1721199720514
1.24,-0.91,4.60,-0.03,-0.21,0.13,1721199720524
1.75,1.74,14.13,-0.12,-0.22,0.06,1721199720534
3.52,7.67,15.22,0.20,-0.11,-0.12,1721199720544
0.96,2.56,1.84,0.01,-0.48,-0.23,1721199720554
-3.03,2.43,13.84,-0.22,-0.13,-0.18,1721199720564
-1.32,-1.46,9.39,0.01,-0.22,0.06,1721199720574
-0.86,1.81,14.71,-0.09,-0.17,-0.00,1721199720584
1.46,6.69,6.26,0.29,-0.29,0.02,1721199720594
2.70,-1.80,3.64,-0.24,-0.18,-0.15,1721199720604
-2.63,-1.86,21.15,-0.04,-0.32,-0.12,1721199720614
-3.55,-1.45,6.21,0.21,-0.36,-0.04,1721199720624
-0.79,-3.87,14.58,-0.10,-0.06,0.06,1721199720634
-0.34,-4.67,2.31,0.15,-0.52,0.38,1721199720644
0.96,-0.62,8.08,-0.35,0.17,-0.01,1721199720654
-1.16,1.78,18.10,0.17,-0.40,-0.19,1721199720664
-0.37,-4.69,7.59,-0.07,-0.31,-0.06,1721199720674
0.77,-1.80,15.34,-0.05,-0.14,0.32,1721199720684
2.32,0.66,8.58,-0.07,-0.22,0.23,1721199720694
0.98,-1.79,4.74,0.10,-0.53,-0.19,1721199720704
5.97,-1.80,14.63,-0.05,0.17,-0.39,1721199720714
5.90,-7.64,15.56,0.09,-0.29,-0.16,1721199720724
-5.07,-2.40,6.83,0.16,-0.47,-0.26,1721199720734
0.62,2.61,14.59,-0.05,0.62,-0.35,1721199720744
5.03,-5.17,8.22,0.06,-0.46,-0.20,1721199720754
-1.33,1.91,7.41,0.15,-0.09,-0.65,1721199720764
4.23,2.56,19.37,0.21,0.44,-0.97,1721199720774
4.40,-11.08,4.24,0.02,-0.27,-0.37,1721199720784
-6.47,-0.83,13.81,-0.08,-0.02,-0.42,1721199720794
1.55,0.32,10.36,0.24,0.39,-0.65,1721199720804
3.88,-7.23,1.22,-0.12,-0.21,-0.44,1721199720814
-1.05,-1.64,17.25,0.02,0.19,-0.49,1721199720824
1.84,-5.38,8.96,0.13,0.32,-0.67,1721199720834
-0.96,-3.01,15.53,-0.05,0.13,-0.37,1721199720844
-2.53,0.39,7.39,0.10,0.03,-0.20,1721199720854
3.51,1.89,11.57,0.02,0.46,-0.30,1721199720864
5.96,-1.52,8.02,-0.04,0.35,-0.61,1721199720874
-0.96,-2.99,13.57,0.03,-0.06,-0.78,1721199720884
-4.63,4.89,7.94,0.25,0.33,-0.69,1721199720894
-2.64,2.93,9.37,-0.06,0.42,-0.43,1721199720904
-0.17,4.12,12.29,0.19,0.14,-0.31,1721199720914
1.70,-3.54,6.02,-0.07,0.30,-0.54,1721199720924
-0.91,0.81,9.40,-0.01,0.29,-0.56,1721199720934
-0.91,5.50,12.41,-0.01,0.36,-0.47,1721199720944
2.13,1.79,6.40,-0.05,0.35,-0.41,1721199720954
1.64,3.88,12.38,-0.04,0.40,-0.68,1721199720964
0.92,0.77,13.76,-0.11,0.42,-0.80,1721199720974
-2.03,3.66,15.03,0.18,0.27,-0.68,1721199720984
-1.73,-0.59,6.02,-0.11,0.44,-0.57,1721199720994
-3.73,1.17,8.03,0.03,0.18,-0.45,1721199721004
0.55,-0.60,9.62,-0.25,0.62,-0.42,1721199721014
3.99,0.26,10.68,0.03,0.36,-0.44,1721199721024
4.21,-5.58,5.55,-0.25,0.52,-0.71,1721199721034
3.15,-4.43,15.31,-0.07,0.59,-1.03,1721199721044
-0.34,-2.46,7.93,0.11,0.33,-0.93,1721199721054
-2.47,-2.44,11.54,-0.25,0.57,-0.90,1721199721064
-2.59,-0.99,14.14,0.19,0.48,-0.85,1721199721074
1.20,-3.48,6.40,-0.14,0.86,-0.78,1721199721084
-1.07,-2.40,17.07,-0.17,0.42,-0.80,1721199721094
-6.11,-4.56,6.64,0.02,0.39,-0.95,1721199721104
-7.98,-5.82,10.24,-0.07,0.57,-0.72,1721199721114
-6.31,-1.91,13.35,0.00,0.36,-0.45,1721199721124
-1.93,1.33,9.45,0.12,0.63,-0.37,1721199721134
-3.01,-2.29,13.78,-0.09,0.76,-0.54,1721199721149
-5.58,-4.32,11.74,0.17,0.57,-0.49,1721199721153
-3.37,-4.89,9.07,0.12,0.57,-0.37,1721199721163
-4.12,6.64,19.14,0.03,0.54,-0.15,1721199721173
-4.98,3.91,8.16,0.15,0.10,-0.02,1721199721183
-7.24,-4.96,6.14,-0.31,0.28,-0.06,1721199721193
-7.32,1.51,12.70,0.20,0.34,-0.14,1721199721203
-3.28,-4.03,0.84,0.01,0.26,-0.09,1721199721213
-3.40,7.01,13.70,0.13,0.42,-0.03,1721199721223
-0.08,1.12,10.13,0.14,0.31,0.08,1721199721233
-3.63,4.85,15.40,0.16,0.09,0.10,1721199721243
-3.32,1.05,8.61,0.30,0.10,0.36,1721199721253
-0.40,8.28,12.59,0.23,0.22,0.52,1721199721263
2.26,6.18,7.40,0.21,-0.01,0.33,1721199721273
2.00,-0.51,6.45,-0.11,0.01,-0.03,1721199721283
-0.41,-1.50,15.05,-0.02,0.08,-0.11,1721199721293
-3.90,2.65,11.62,0.19,0.06,0.02,1721199721303
-7.12,5.93,7.53,0.18,-0.02,0.21,1721199721313
-4.80,0.90,7.69,-0.00,0.13,0.48,1721199721323
-1.47,2.19,14.84,0.06,0.02,0.65,1721199721333
-0.77,-1.25,1.78,-0.04,-0.22,0.62,1721199721343
-0.88,0.15,16.94,-0.37,0.11,0.42,1721199721353
-0.62,4.77,10.03,0.40,-0.34,0.49,1721199721363
1.48,-9.40,-1.30,-0.56,0.04,0.60,1721199721373
-5.19,-2.27,26.52,0.05,-0.19,0.53,1721199721383
0.87,-7.22,8.56,-0.05,-0.36,0.58,1721199721393
-1.54,-0.54,18.07,0.00,-0.02,0.67,1721199721403
-0.33,-4.87,1.75,-0.06,-0.34,0.74,1721199721413
-2.06,-2.33,16.02,-0.36,-0.07,0.57,1721199721423
-0.83,-7.40,6.22,0.00,-0.47,0.70,1721199721433
-0.02,-4.44,12.18,-0.26,0.06,0.75,1721199721443
2.92,-8.16,11.91,-0.09,-0.38,0.85,1721199721453
2.17,-3.26,12.43,-0.19,-0.20,0.72,1721199721463
4.76,-0.54,12.46,-0.10,-0.09,0.46,1721199721473
0.83,-2.21,4.91,-0.24,-0.39,0.24,1721199721483
-2.65,2.29,14.87,-0.08,-0.30,0.48,1721199721493
3.55,-5.73,4.47,-0.21,-0.14,0.69,1721199721503
4.72,2.49,20.73,0.01,-0.11,0.44,1721199721513
5.19,-5.58,-0.39,-0.05,-0.33,0.27,1721199721523
-5.06,-0.25,23.40,-0.21,-0.12,0.10,1721199721533
-1.61,2.55,7.34,0.31,-0.40,0.51,1721199721543
1.76,11.66,14.57,0.20,0.15,0.52,1721199721553
8.41,-2.96,-2.06,0.12,-0.37,0.35,1721199721563
2.70,5.22,15.85,0.02,-0.05,-0.17,1721199721573
2.64,-1.82,6.50,0.30,-0.43,-0.01,1721199721583
-0.66,0.99,11.76,-0.04,0.08,0.11,1721199721593
3.54,5.49,9.68,0.38,-0.03,0.24,1721199721603
5.61,1.44,9.77,-0.15,0.22,0.03,1721199721613
1.03,8.63,11.35,0.18,-0.21,-0.26,1721199721623
0.76,-3.94,7.05,-0.30,0.25,-0.54,1721199721633
-3.78,-3.00,16.52,0.06,-0.27,-0.17,1721199721643
-3.55,0.25,1.96,-0.05,0.07,0.09,1721199721653
-0.55,3.89,9.40,-0.12,0.02,0.13,1721199721663
3.65,-1.38,13.10,-0.17,0.04,-0.12,1721199721673
1.64,1.56,13.20,0.04,0.02,-0.34,1721199721683
-1.08,0.10,10.95,-0.13,0.14,-0.41,1721199721693
-2.14,-1.64,11.03,-0.00,-0.07,-0.19,1721199721703
1.71,-12.88,8.09,-0.41,-0.02,-0.11,1721199721713
-3.30,4.19,16.86,0.26,-0.24,-0.35,1721199721723
-2.35,-5.51,-6.12,-0.23,-0.08,-0.33,1721199721733
-6.80,-3.37,12.05,-0.47,0.03,-0.18,1721199721743
1.33,-12.37,11.00,-0.26,0.31,-0.29,1721199721753
-1.32,-8.08,15.95,-0.19,0.04,-0.42,1721199721763
-4.98,-2.57,6.81,0.04,-0.23,-0.09,1721199721773
-2.24,1.98,10.25,-0.28,0.25,0.13,1721199721783
2.21,-3.61,12.95,-0.20,-0.16,0.19,1721199721793
0.82,-4.99,15.06,-0.37,0.08,-0.11,1721199721803
2.04,-3.31,15.05,-0.08,0.02,-0.13,1721199721813
-1.74,0.30,7.33,-0.07,-0.10,-0.04,1721199721823
-1.75,8.67,9.31,0.02,-0.06,-0.09,1721199721833
1.81,2.78,2.43,0.11,-0.16,0.03,1721199721843
-0.52,-1.87,12.62,-0.20,0.00,-0.27,1721199721853
-0.23,7.50,13.88,0.30,-0.14,-0.03,1721199721863
-4.98,5.40,12.03,-0.15,-0.03,-0.03,1721199721873
-5.69,1.76,8.85,0.37,-0.49,0.05,1721199721883
-1.40,5.70,9.37,0.21,0.17,0.31,1721199721893
5.63,5.89,13.59,0.31,-0.22,0.17,1721199721903
0.09,10.98,8.27,0.16,-0.60,-0.18,1721199721913
-1.45,2.50,6.94,0.13,0.05,-0.56,1721199721923
-3.20,-2.95,9.35,0.06,-0.26,-0.23,1721199721933
-6.13,-7.42,0.15,0.15,-0.33,0.21,1721199721943
-0.11,8.71,18.06,0.02,0.19,0.43,1721199721953
7.59,1.69,12.10,0.18,-0.20,0.06,1721199721963
5.47,4.64,9.79,0.06,-0.09,-0.33,1721199721973
2.29,-1.01,6.55,-0.11,-0.12,-0.74,1721199721983
-8.63,-0.79,14.98,0.06,-0.31,-0.46,1721199721993
-9.64,-4.38,6.28,0.08,-0.02,0.18,1721199722003
-3.54,-8.74,9.45,0.03,-0.27,0.80,1721199722013
11.33,7.77,11.88,0.20,0.52,0.47,1721199722023
12.48,1.84,6.20,-0.24,-0.39,-0.56,1721199722033
-6.16,1.78,17.91,-0.18,-0.55,-1.02,1721199722043
-7.08,-5.65,3.28,0.06,0.05,-0.48,1721199722053
-6.98,-4.15,6.35,-0.12,-0.09,0.40,1721199722063
1.25,-3.56,13.74,-0.22,0.01,0.61,1721199722073
7.16,-0.39,14.81,-0.09,-0.10,0.11,1721199722083
7.06,-0.87,16.32,-0.16,0.02,-0.49,1721199722093
0.42,-2.29,5.84,-0.05,-0.27,-0.57,1721199722103
-3.52,0.75,9.26,-0.19,0.08,-0.40,1721199722113
-2.41,0.40,12.84,-0.08,0.11,-0.18,1721199722123
-0.32,-6.39,7.06,-0.14,-0.12,0.04,1721199722133
1.90,1.98,16.56,-0.09,0.28,-0.04,1721199722143
3.26,-1.27,6.89,0.02,-0.07,-0.35,1721199722153
-0.53,2.63,12.22,-0.15,0.14,-0.51,1721199722163
-0.08,4.22,8.00,0.12,0.09,-0.41,1721199722173
-1.78,-2.37,7.93,-0.20,0.04,-0.36,1721199722183
-0.73,3.61,17.73,0.13,0.09,-0.25,1721199722193
4.92,-2.80,4.82,0.01,0.22,-0.31,1721199722203
0.56,-1.39,12.30,0.00,0.02,-0.61,1721199722213
-2.02,4.99,9.87,0.35,0.19,-0.68,1721199722223
-1.34,-2.43,8.61,0.01,0.28,-0.40,1721199722233
-3.51,-0.20,10.48,0.17,-0.05,-0.15,1721199722243
1.10,-0.59,8.89,-0.08,0.43,-0.25,1721199722253
2.29,4.47,19.68,0.18,0.20,-0.49,1721199722263
-0.42,-3.73,3.81,0.05,0.06,-0.68,1721199722273
-5.42,6.29,12.11,0.27,0.29,-0.66,1721199722283
-1.38,-3.40,10.41,0.05,0.41,-0.44,1721199722293
-3.65,5.20,15.11,0.29,-0.07,-0.13,1721199722303
1.27,-2.61,2.95,0.04,0.31,-0.15,1721199722313
1.72,2.04,14.31,0.09,0.27,-0.39,1721199722323
-0.97,-0.60,7.07,0.13,0.18,-0.69,1721199722333
-5.49,-2.09,11.72,0.04,0.12,-0.41,1721199722343
-3.64,1.30,9.39,0.20,0.26,-0.06,1721199722353
2.29,0.79,11.91,0.08,0.30,-0.08,1721199722363
1.86,7.80,9.95,0.34,0.12,-0.29,1721199722373
0.59,-3.25,3.17,-0.08,0.21,-0.40,1721199722383
-5.22,-2.93,11.94,0.01,0.13,-0.31,1721199722393
-2.70,-2.99,11.45,-0.06,0.34,-0.07,1721199722403
-1.13,5.01,14.23,0.26,0.09,0.17,1721199722413
3.64,5.73,8.70,0.02,0.36,-0.06,1721199722423
1.78,4.60,7.07,0.16,0.04,-0.34,1721199722433
-1.76,-5.02,7.67,-0.31,0.31,-0.34,1721199722443
-5.01,-1.62,19.31,-0.05,0.17,-0.04,1721199722453
-3.11,4.07,4.45,0.14,0.11,0.17,1721199722463
1.82,3.24,9.02,-0.21,0.40,0.13,1721199722473
1.61,-2.79,12.52,-0.10,-0.01,-0.10,1721199722483
-3.56,7.16,9.80,0.10,0.09,-0.23,1721199722493
-0.72,2.93,7.51,-0.13,0.30,0.01,1721199722503
-0.95,-6.38,6.20,-0.20,-0.12,0.28,1721199722513
0.49,-0.85,18.15,-0.18,0.36,0.04,1721199722523
2.41,2.60,9.14,0.20,-0.04,-0.02,1721199722533
2.05,4.24,12.58,-0.24,0.45,-0.20,1721199722543
-0.66,-1.20,12.62,-0.07,-0.14,-0.16,1721199722553
-3.90,-3.30,5.15,-0.25,0.07,-0.02,1721199722563
-0.32,-1.36,13.50,-0.11,0.25,0.15,1721199722573
1.21,-2.51,3.06,-0.15,-0.09,0.14,1721199722583
0.70,2.62,14.90,-0.17,0.30,-0.12,1721199722593
0.57,-3.47,11.36,-0.07,-0.01,-0.23,1721199722603
-5.37,-1.01,7.39,-0.14,-0.03,-0.04,1721199722613
0.12,-1.44,14.83,-0.27,0.51,0.26,1721199722623
1.29,3.43,13.44,-0.08,-0.17,0.29,1721199722633
0.87,2.88,3.13,-0.08,0.05,0.04,1721199722643
3.06,-0.08,14.50,-0.22,0.30,-0.06,1721199722653
-0.63,-4.64,8.37,-0.18,-0.25,-0.09,1721199722663
-2.47,4.31,16.06,-0.08,0.40,-0.19,1721199722673
-1.00,-4.24,7.04,-0.00,-0.20,0.00,1721199722683
-4.20,7.84,11.88,0.05,0.24,0.12,1721199722693
3.12,-0.72,6.86,0.05,0.11,0.15,1721199722703
-0.37,-0.02,16.91,-0.25,0.09,0.03,1721199722713
-0.57,2.52,12.91,0.12,0.00,-0.13,1721199722723
-1.83,3.79,7.23,0.13,0.15,-0.10,1721199722733
-0.89,-2.63,6.53,-0.07,0.06,0.14,1721199722743
-1.08,3.90,14.31,0.17,0.04,0.23,1721199722753
2.28,-0.70,8.71,0.17,-0.07,0.08,1721199722763
-0.07,1.57,13.41,0.09,0.06,-0.14,1721199722773
0.87,-0.04,11.16,0.06,0.18,-0.20,1721199722783
-2.59,0.05,8.21,0.16,-0.22,0.06,1721199722793
-1.08,-0.62,6.74,0.13,0.24,0.11,1721199722803
0.80,-1.47,11.87,0.08,-0.02,0.05,1721199722813
0.11,3.30,13.21,0.13,-0.03,-0.14,1721199722823
-0.19,0.15,7.97,0.09,0.04,-0.27,1721199722833
-1.02,-1.04,9.31,-0.06,0.06,-0.11,1721199722843
-3.36,-3.39,6.01,0.12,-0.21,0.04,1721199722853
-1.91,-3.99,10.93,-0.09,0.32,0.03,1721199722863
0.49,1.01,17.68,0.16,0.06,0.10,1721199722873
0.51,3.22,7.79,0.06,-0.07,0.00,1721199722883
0.39,6.68,13.27,0.15,0.19,-0.23,1721199722893
-0.44,-6.73,3.39,-0.19,-0.13,-0.17,1721199722903
-4.42,3.00,17.85,0.13,-0.02,-0.01,1721199722913
0.55,-0.74,5.08,0.23,0.03,0.23,1721199722923
-0.45,0.08,10.63,-0.03,-0.04,0.07,1721199722933
0.62,0.74,9.44,0.15,0.03,-0.12,1721199722943
2.07,0.14,15.39,-0.04,0.25,-0.18,1721199722953
-2.68,-1.53,9.02,0.05,-0.33,-0.20,1721199722963
-5.02,4.44,13.20,0.05,0.16,-0.11,1721199722973
-0.35,-1.50,8.60,0.07,-0.00,0.00,1721199722983
-0.07,1.84,10.24,0.08,-0.06,0.02,1721199722993
1.99,3.53,10.97,0.14,0.07,-0.01,1721199723003
0.36,-0.48,11.28,-0.02,-0.06,-0.11,1721199723013
-3.11,-3.47,6.79,0.01,-0.12,-0.05,1721199723023
-0.41,-0.57,16.36,-0.15,0.36,-0.05,1721199723033
0.90,8.11,9.52,0.39,-0.18,0.02,1721199723043
1.80,-4.35,3.03,-0.28,0.07,-0.09,1721199723053
-0.61,3.31,16.03,0.06,-0.15,-0.04,1721199723063
1.30,2.35,7.08,0.01,0.24,-0.07,1721199723073
-0.61,1.07,7.18,0.02,-0.18,-0.12,1721199723083
-1.30,-0.48,13.52,-0.26,0.29,-0.18,1721199723093
-3.39,-0.96,14.26,-0.01,-0.17,-0.12,1721199723103
-5.10,1.37,6.64,0.01,0.00,0.06,1721199723113
0.46,1.65,7.74,-0.08,0.13,0.28,1721199723123
3.70,-0.58,13.21,-0.22,0.05,0.13,1721199723133
0.63,-2.19,11.52,-0.15,-0.17,-0.17,1721199723143
-5.30,-5.15,8.59,-0.28,-0.20,-0.17,1721199723158
-3.39,-3.57,10.89,-0.31,-0.18,-0.05,1721199723162
-4.01,3.87,10.02,-0.04,-0.02,0.26,1721199723172
1.83,-3.69,4.62,-0.28,0.06,0.26,1721199723182
0.91,-1.71,10.48,-0.19,-0.09,0.07,1721199723192
-0.53,0.03,11.08,-0.24,0.06,-0.18,1721199723202
-3.72,2.35,12.00,-0.12,-0.23,-0.03,1721199723212
-1.49,0.32,11.52,-0.28,0.13,0.20,1721199723222
0.45,-2.33,9.41,-0.13,-0.21,0.24,1721199723232
0.40,3.45,10.29,-0.12,0.07,-0.00,1721199723242
-0.37,-1.14,10.73,-0.06,-0.16,0.03,1721199723252
-0.73,4.52,11.59,-0.01,0.02,0.09,1721199723262
0.57,-5.13,7.49,-0.17,-0.16,0.20,1721199723272
0.12,2.59,13.27,-0.14,-0.06,0.22,1721199723282
2.27,-1.79,7.25,-0.09,-0.11,0.06,1721199723292
1.74,0.67,14.11,-0.14,-0.04,-0.05,1721199723302
1.55,0.78,8.00,0.20,-0.11,-0.06,1721199723312
1.33,2.00,7.60,0.06,0.09,-0.18,1721199723322
-2.07,-1.29,16.29,0.07,-0.12,-0.11,1721199723332
-0.81,3.59,14.04,0.23,0.05,0.16,1721199723342
2.13,-2.25,7.12,0.02,0.03,0.19,1721199723352
0.04,1.84,9.13,0.22,-0.13,0.06,1721199723362
3.72,-3.37,4.38,0.14,0.17,-0.04,1721199723372
-0.24,0.62,17.95,0.04,-0.02,-0.23,1721199723382
-3.22,5.75,14.43,0.30,-0.11,-0.24,1721199723392
-1.26,1.25,6.46,0.07,0.02,-0.05,1721199723402
0.51,-1.78,9.09,0.10,-0.02,0.26,1721199723412
3.81,-6.25,6.05,0.03,0.15,0.15,1721199723422
2.17,5.37,13.89,0.22,0.05,-0.26,1721199723432
-0.29,1.12,8.92,0.26,-0.13,-0.25,1721199723442
-2.11,0.56,11.86,0.07,0.13,-0.09,1721199723452
-0.35,-3.44,9.70,0.05,0.03,0.09,1721199723462
0.17,0.17,8.08,0.19,0.02,0.09,1721199723472
2.50,-4.24,5.30,0.08,0.14,0.01,1721199723482
1.61,2.64,14.99,0.14,0.02,-0.11,1721199723492
1.48,5.83,12.30,0.26,0.16,-0.30,1721199723502
-0.59,1.87,13.41,0.10,0.03,-0.30,1721199723512
-3.40,-2.39,5.71,0.05,-0.07,-0.14,1721199723522
-2.89,2.89,14.08,0.09,0.31,0.03,1721199723532
3.00,-1.64,3.65,0.30,-0.00,0.15,1721199723542
1.28,-3.05,9.30,0.06,0.08,-0.11,1721199723552
0.22,2.31,13.17,0.31,0.17,-0.33,1721199723562
-1.15,2.15,10.65,0.05,0.05,-0.20,1721199723572
-3.35,8.28,10.85,0.21,-0.01,0.17,1721199723582
1.03,-5.72,3.50,-0.25,0.29,0.07,1721199723592
-0.60,1.27,17.78,-0.04,0.03,-0.24,1721199723602
-0.46,-4.17,4.46,0.08,-0.10,-0.06,1721199723612
-1.27,0.49,13.96,-0.14,0.23,0.12,1721199723622
1.67,5.03,8.38,0.25,0.05,0.07,1721199723632
1.17,-1.05,6.85,-0.14,0.11,-0.33,1721199723642
-1.68,2.40,17.21,-0.01,-0.04,-0.33,1721199723652
-3.18,-0.39,11.66,-0.07,0.13,-0.09,1721199723662
-4.20,0.74,7.17,-0.08,-0.09,0.12,1721199723672
0.81,1.79,7.57,-0.08,0.15,0.08,1721199723682
5.19,-2.73,9.83,-0.16,-0.01,-0.09,1721199723692
0.68,0.68,10.45,0.06,-0.10,-0.35,1721199723702
-2.51,-0.39,8.12,-0.18,0.09,-0.40,1721199723712
-2.72,-4.63,11.11,-0.29,0.00,-0.14,1721199723722
-1.14,2.25,13.15,-0.05,0.27,0.04,1721199723732
2.91,-1.50,6.01,-0.16,-0.03,-0.09,1721199723742
-0.18,-1.32,12.22,-0.19,0.05,-0.20,1721199723752
-0.50,-0.96,9.35,-0.11,0.09,-0.30,1721199723762
-1.99,0.26,12.77,-0.23,0.01,-0.17,1721199723772
-1.66,0.01,7.72,-0.05,-0.03,0.13,1721199723782
1.60,-4.42,9.98,-0.32,0.23,0.11,1721199723792
1.72,2.30,14.57,-0.08,0.02,-0.14,1721199723802
1.03,-1.07,6.47,-0.06,0.01,-0.18,1721199723812
-1.04,1.66,13.59,-0.22,0.22,-0.19,1721199723822
-2.00,-1.58,8.95,-0.04,-0.14,-0.15,1721199723832
-1.84,-0.06,10.23,-0.16,0.22,0.02,1721199723842
1.26,4.86,13.75,0.10,0.18,0.04,1721199723852
-0.42,-1.89,9.36,-0.09,-0.01,-0.12,1721199723862
-3.08,1.07,11.51,-0.04,-0.03,-0.19,1721199723872
0.07,2.65,15.20,-0.08,0.33,-0.24,1721199723882
-1.15,-0.80,6.79,0.17,-0.22,-0.12,1721199723892
-2.34,1.94,8.42,0.09,0.23,-0.18,1721199723902
-0.51,-6.95,6.87,0.22,-0.20,-0.02,1721199723912
-1.49,2.21,12.82,0.05,0.47,-0.26,1721199723922
0.80,4.91,15.58,0.35,0.01,-0.31,1721199723932
-2.27,-1.63,5.88,0.05,0.03,-0.21,1721199723942
-0.98,1.00,14.34,0.12,0.23,-0.12,1721199723952
-0.91,-3.65,7.60,0.19,-0.11,-0.17,1721199723962
-0.97,1.23,12.43,0.12,0.31,-0.12,1721199723972
0.26,1.34,11.59,0.30,-0.01,-0.13,1721199723982
-2.00,-2.39,9.75,-0.04,-0.07,-0.13,1721199723992
-2.72,4.08,12.76,0.30,0.02,-0.22,1721199724002
-0.30,-1.94,6.05,0.05,0.29,-0.27,1721199724012
-3.27,-3.95,9.84,-0.02,-0.12,-0.11,1721199724022
-2.64,1.22,12.86,0.27,0.12,0.06,1721199724032
1.74,4.56,8.85,0.26,0.21,0.09,1721199724042
0.66,-1.75,9.90,-0.06,0.03,-0.17,1721199724052
-0.44,-3.55,16.60,-0.03,-0.07,-0.37,1721199724062
-3.24,1.41,7.15,0.31,-0.18,-0.13,1721199724072
-1.36,3.83,7.81,0.04,0.48,0.08,1721199724082
-0.14,-1.47,12.55,0.14,-0.20,0.02,1721199724092
-2.17,0.09,5.62,0.26,-0.11,0.13,1721199724102
3.56,-0.61,14.18,-0.03,0.52,-0.06,1721199724112
-0.16,1.45,12.92,0.07,-0.46,-0.14,1721199724122
-3.66,5.10,12.78,0.11,0.19,-0.23,1721199724132
-1.11,-5.06,4.97,0.14,-0.11,-0.07,1721199724142
-3.81,1.14,2.66,0.23,-0.05,0.24,1721199724152
5.12,-0.19,17.78,-0.09,0.54,0.17,1721199724162
3.93,5.03,17.74,0.33,-0.33,-0.01,1721199724172
-0.54,2.83,2.36,0.01,0.08,-0.34,1721199724182
-1.04,-4.58,14.26,-0.27,0.08,-0.23,1721199724192
-4.15,5.55,12.97,0.20,-0.04,0.00,1721199724202
0.24,0.50,9.15,-0.20,0.25,0.13,1721199724212
-1.54,-0.83,8.40,0.13,-0.39,0.10,1721199724222
1.19,-1.10,7.30,-0.11,0.49,0.08,1721199724232
3.18,1.79,19.53,-0.02,-0.02,0.02,1721199724242
-2.06,1.38,6.36,-0.02,-0.30,-0.13,1721199724252
-2.63,-0.03,11.62,-0.23,0.22,-0.19,1721199724262
-3.20,-2.77,5.86,-0.02,-0.18,0.10,1721199724272
-2.10,-4.10,9.73,-0.37,0.12,0.27,1721199724282
-0.27,-3.35,13.86,-0.16,-0.07,0.18,1721199724292
0.86,6.13,13.14,-0.03,0.23,-0.11,1721199724302
1.69,-9.37,4.17,-0.25,-0.23,-0.01,1721199724312
-4.52,1.65,13.75,-0.10,-0.02,0.01,1721199724322
1.83,-4.45,9.62,-0.12,0.11,-0.02,1721199724332
-1.85,5.36,11.55,-0.05,-0.14,0.14,1721199724342
-0.72,6.50,9.31,-0.12,0.14,0.10,1721199724352
-1.13,-4.83,4.94,-0.22,-0.29,-0.08,1721199724362
-1.61,-7.75,9.64,-0.40,0.17,-0.11,1721199724372
-1.08,2.70,14.82,-0.06,-0.16,0.05,1721199724382
-0.88,-0.53,9.83,-0.07,-0.11,0.19,1721199724392
1.09,5.37,14.86,-0.03,0.06,0.24,1721199724402
3.08,2.03,10.54,-0.02,-0.04,0.23,1721199724412
0.43,0.61,7.06,-0.04,-0.04,-0.09,1721199724422
-0.69,-1.43,9.47,-0.04,-0.01,-0.21,1721199724432
-0.60,-2.20,6.65,0.13,-0.20,0.07,1721199724442
1.29,1.18,11.83,0.05,0.10,0.22,1721199724452
2.82,1.25,15.74,0.11,-0.08,0.17,1721199724462
0.29,4.75,11.17,0.16,-0.04,-0.18,1721199724472
0.90,-1.42,9.29,-0.00,0.01,-0.28,1721199724482
-2.83,-0.47,9.71,0.21,-0.17,-0.02,1721199724492
-0.44,1.13,9.00,0.29,0.17,0.10,1721199724502
4.07,-6.97,8.19,0.11,0.01,0.18,1721199724512
1.98,7.72,13.55,0.34,-0.00,0.02,1721199724522
5.19,-7.32,5.30,-0.04,0.14,-0.16,1721199724532
-1.57,2.46,17.20,0.02,-0.01,-0.26,1721199724542
-2.05,-2.21,7.23,0.16,0.13,-0.29,1721199724552
-2.69,-1.24,15.08,0.05,0.03,-0.01,1721199724562
0.18,3.86,7.40,0.31,0.07,0.22,1721199724572
3.67,2.65,7.82,0.04,0.32,-0.05,1721199724582
3.23,-3.30,10.18,0.14,0.04,-0.41,1721199724592
-1.53,-1.14,11.87,0.11,0.10,-0.47,1721199724602
-3.22,6.33,13.11,0.27,0.19,-0.15,1721199724612
-0.73,0.10,7.19,0.06,0.20,0.03,1721199724622
1.12,-3.25,8.28,0.13,0.08,-0.09,1721199724632
2.32,1.21,11.12,0.09,0.31,-0.32,1721199724642
-1.11,2.38,15.54,0.15,0.16,-0.50,1721199724652
-5.39,-3.95,9.61,0.15,0.02,-0.27,1721199724662
-5.35,3.70,7.00,0.26,0.10,0.17,1721199724672
1.54,3.15,5.84,-0.01,0.43,0.17,1721199724682
1.58,-2.99,11.90,-0.15,-0.09,-0.11,1721199724692
0.15,-1.82,13.26,-0.03,0.16,-0.28,1721199724702
-0.99,0.44,9.34,0.02,0.12,-0.21,1721199724712
-2.17,1.09,14.52,-0.12,0.04,0.08,1721199724722
-0.17,3.89,9.35,0.15,0.11,0.13,1721199724732
1.36,4.93,4.15,-0.01,0.22,-0.11,1721199724742
-1.09,3.26,9.65,-0.06,0.06,-0.26,1721199724752
-2.24,-4.00,11.42,-0.15,0.01,-0.05,1721199724762
-1.34,0.69,6.93,0.07,0.06,0.33,1721199724772
3.58,3.75,11.29,-0.21,0.37,0.09,1721199724782
2.22,-2.39,10.11,-0.13,-0.36,-0.14,1721199724792
-2.14,-2.29,11.50,-0.22,0.17,-0.24,1721199724802
-1.18,1.82,8.64,0.04,0.12,-0.16,1721199724812
-0.81,2.24,11.03,-0.18,0.29,0.04,1721199724822
0.29,-2.80,9.11,-0.23,-0.12,0.20,1721199724832
-1.43,-0.09,10.77,-0.10,-0.05,-0.09,1721199724842
0.81,-0.64,5.94,-0.03,0.22,-0.06,1721199724852
0.18,-4.37,13.22,-0.44,0.09,-0.07,1721199724862
-3.35,-0.76,12.07,-0.07,-0.26,0.04,1721199724872
0.68,2.77,12.35,-0.12,0.44,0.00,1721199724882
2.97,4.95,13.68,0.10,-0.23,0.09,1721199724892
-0.69,-5.66,0.31,-0.20,-0.07,0.09,1721199724902
0.67,-0.11,18.35,-0.20,0.54,0.06,1721199724912
1.45,1.98,12.82,-0.04,-0.10,-0.06,1721199724922
-5.65,3.84,0.80,-0.08,-0.27,-0.11,1721199724932
0.31,-7.10,9.71,-0.35,0.45,-0.08,1721199724942
0.67,3.73,23.75,-0.04,-0.15,0.09,1721199724952
-1.17,3.69,5.02,0.23,-0.09,0.12,1721199724962
1.07,0.50,6.91,-0.10,0.31,-0.02,1721199724972
-0.87,1.58,11.96,0.08,-0.13,0.06,1721199724982
-2.67,1.02,13.71,0.02,0.11,-0.15,1721199724992
-2.41,-0.43,11.01,0.25,-0.22,-0.02,1721199725002
-1.67,6.08,6.21,0.22,0.19,0.17,1721199725012
1.81,-0.52,7.53,0.16,-0.06,0.12,1721199725022
-0.85,-0.83,10.75,0.06,-0.11,-0.14,1721199725032
1.74,-2.20,12.63,0.16,0.26,-0.16,1721199725042
-1.07,1.41,10.05,0.19,-0.08,-0.13,1721199725052
-3.73,6.59,8.24,0.20,-0.12,-0.00,1721199725062
-1.10,-1.59,7.88,0.06,0.10,-0.09,1721199725072
0.32,2.73,14.60,0.20,0.01,-0.03,1721199725082
0.18,-6.58,8.21,-0.08,-0.02,-0.08,1721199725092
-3.61,-1.98,9.39,0.06,-0.12,-0.01,1721199725102
2.33,6.02,15.20,0.14,0.52,-0.16,1721199725112
-0.10,-1.64,7.93,0.16,-0.44,-0.09,1721199725122
-3.08,-4.57,9.18,0.01,0.16,0.14,1721199725132
1.77,5.86,14.91,0.34,0.19,0.03,1721199725142
2.13,4.44,7.87,0.18,-0.18,-0.02,1721199725152
1.01,-1.08,18.97,-0.10,0.10,-0.30,1721199725167
-2.74,-0.30,17.98,0.01,0.06,-0.35,1721199725171
-2.81,-1.12,5.49,0.18,-0.06,-0.06,1721199725181
-1.67,-2.53,4.62,0.05,0.01,0.28,1721199725191
3.12,0.49,17.77,-0.02,0.25,0.26,1721199725201
2.87,9.54,16.05,0.37,-0.09,-0.01,1721199725211
1.43,6.65,2.32,0.17,0.01,-0.28,1721199725221
-0.37,-7.16,9.48,-0.22,-0.02,-0.31,1721199725231
-4.02,-3.71,9.80,0.02,-0.31,0.08,1721199725241
-1.40,3.35,12.24,-0.04,0.35,0.18,1721199725251
2.96,3.52,12.82,0.18,0.05,0.11,1721199725261
2.01,-1.73,5.36,-0.12,-0.04,-0.13,1721199725271
-1.84,4.89,13.94,-0.01,0.03,-0.35,1721199725281
-4.64,0.52,7.10,-0.06,0.00,-0.25,1721199725291
-6.77,1.05,12.08,-0.04,-0.09,0.31,1721199725301
-2.75,-0.20,8.49,-0.10,0.05,0.57,1721199725311
2.18,3.94,17.03,-0.03,0.07,0.29,1721199725321
2.93,-1.86,0.28,-0.08,-0.32,-0.11,1721199725331
-1.53,-0.59,11.62,-0.38,0.20,-0.25,1721199725341
-2.64,-4.87,15.87,-0.17,-0.06,0.06,1721199725351
-1.47,0.69,12.39,0.06,-0.09,0.45,1721199725361
3.74,7.06,6.76,0.09,0.09,0.24,1721199725371
3.35,-4.07,4.57,-0.39,-0.19,-0.17,1721199725381
-4.08,1.35,16.33,-0.13,-0.09,-0.46,1721199725391
-6.30,-2.88,3.04,-0.09,-0.12,-0.23,1721199725401
-7.07,-4.54,7.89,-0.21,-0.25,0.41,1721199725411
1.41,-0.14,14.08,-0.22,0.17,0.56,1721199725421
6.08,4.98,13.70,-0.05,-0.16,0.28,1721199725431
4.13,4.70,9.76,-0.19,-0.06,-0.32,1721199725441
-1.93,-3.36,9.48,-0.12,-0.32,-0.45,1721199725451
-3.69,-1.65,11.11,-0.11,0.02,0.04,1721199725461
-0.94,-3.80,7.14,-0.09,-0.15,0.39,1721199725471
-0.67,9.59,12.75,0.10,-0.06,0.27,1721199725481
4.81,-3.87,8.04,-0.16,-0.00,-0.13,1721199725491
-0.45,8.69,16.09,0.09,-0.29,-0.25,1721199725501
0.99,-4.24,5.12,0.01,-0.00,-0.18,1721199725511
-2.62,-2.96,15.77,0.01,-0.17,-0.04,1721199725521
0.25,0.72,7.40,0.31,-0.04,0.27,1721199725531
3.60,1.80,9.38,0.06,0.08,0.11,1721199725541
1.72,4.79,10.02,0.25,-0.19,-0.14,1721199725551
3.29,-1.11,9.61,0.01,0.17,-0.36,1721199725561
-1.79,-2.83,13.81,0.08,-0.14,-0.38,1721199725571
-4.65,0.31,11.54,0.20,0.04,-0.11,1721199725581
-0.53,-0.56,9.57,0.22,0.08,0.18,1721199725591
2.22,7.79,9.49,0.35,0.02,0.23,1721199725601
5.04,-1.84,4.33,0.07,0.15,-0.10,1721199725611
2.07,-2.50,14.72,0.04,0.03,-0.55,1721199725621
-2.04,1.54,11.75,0.17,-0.01,-0.49,1721199725631
-3.52,-1.80,8.34,0.06,0.04,-0.07,1721199725641
0.27,2.28,15.20,0.15,0.26,0.05,1721199725651
3.30,1.67,5.43,0.36,-0.01,-0.05,1721199725661
1.69,-3.92,7.75,-0.12,0.27,-0.40,1721199725671
-3.47,4.54,17.77,0.25,0.03,-0.56,1721199725681
-4.30,-4.02,2.55,0.14,0.02,-0.19,1721199725691
-2.29,1.41,15.38,0.05,0.25,0.13,1721199725701
2.82,-3.34,8.83,0.12,0.08,0.14,1721199725711
1.14,8.37,12.73,0.12,0.23,-0.29,1721199725721
1.90,2.97,7.82,0.14,0.23,-0.53,1721199725731
-3.33,-6.97,6.43,-0.17,-0.14,-0.25,1721199725741
-4.72,2.13,16.07,0.07,0.28,-0.05,1721199725751
0.89,3.77,7.36,0.10,0.30,-0.05,1721199725761
0.37,4.61,11.87,-0.00,0.04,-0.05,1721199725771
-0.44,-3.31,0.88,-0.11,-0.03,-0.12,1721199725781
-2.00,1.07,17.18,-0.20,0.28,-0.33,1721199725791
-1.40,3.11,12.41,0.19,-0.00,-0.24,1721199725801
-1.74,3.03,3.09,-0.05,0.14,0.04,1721199725811
0.69,-3.77,12.28,-0.38,0.31,-0.01,1721199725821
-0.62,3.07,16.14,0.05,-0.03,-0.26,1721199725831
-0.65,-1.94,8.55,-0.21,0.21,-0.29,1721199725841
-2.48,1.78,9.53,-0.07,-0.01,-0.08,1721199725851
-0.78,3.31,8.89,-0.04,0.22,0.05,1721199725861
3.62,-3.54,14.41,-0.32,0.27,-0.00,1721199725871
0.06,1.73,9.23,0.04,-0.22,-0.15,1721199725881
1.52,0.34,7.15,-0.23,0.53,-0.31,1721199725891
-0.60,-0.98,9.79,-0.03,-0.06,-0.20,1721199725901
-2.18,-4.10,10.27,-0.28,0.24,-0.07,1721199725911
-1.18,-0.69,16.94,-0.04,0.13,-0.00,1721199725921
-0.68,10.08,9.76,0.15,0.16,-0.05,1721199725931
0.54,-2.04,3.72,-0.28,0.04,0.05,1721199725941
-2.28,-4.05,14.65,-0.19,-0.04,-0.08,1721199725951
-1.48,1.44,9.85,0.11,0.01,-0.25,1721199725961
-1.52,5.38,5.75,0.02,0.22,-0.06,1721199725971
-1.10,0.74,7.87,-0.14,0.10,0.12,1721199725981
-2.65,-8.87,12.86,-0.23,-0.23,0.13,1721199725991
-1.35,3.62,12.85,0.14,0.32,0.11,1721199726001
2.94,6.94,10.09,0.01,0.34,0.03,1721199726011
-0.78,-0.57,12.96,-0.07,-0.40,-0.03,1721199726021
-3.06,-6.15,5.93,0.05,-0.05,0.13,1721199726031
2.05,2.20,17.14,0.08,0.47,0.14,1721199726041
2.42,4.55,11.11,0.27,-0.22,0.09,1721199726051
-2.69,-1.07,9.33,-0.06,-0.05,-0.22,1721199726061
-4.23,1.60,5.78,0.42,-0.13,0.03,1721199726071
0.60,-4.49,13.13,-0.12,0.42,0.28,1721199726081
-0.25,2.55,17.12,0.22,-0.46,0.29,1721199726091
-0.30,3.26,3.69,0.17,0.06,0.04,1721199726101
2.55,-3.89,11.84,-0.08,0.09,-0.08,1721199726111
-0.55,2.31,14.11,0.21,-0.05,-0.05,1721199726121
-0.47,-0.43,7.36,0.06,-0.03,0.16,1721199726131
-3.22,5.27,12.96,0.22,-0.21,0.01,1721199726141
1.25,-4.73,3.96,0.13,0.05,0.01,1721199726151
0.12,-0.57,14.77,-0.07,0.02,0.02,1721199726161
-1.08,2.28,6.25,0.08,-0.29,0.01,1721199726171
-3.28,-0.01,9.65,0.02,0.02,-0.11,1721199726181
-0.19,1.62,7.53,0.18,0.16,-0.09,1721199726191
2.27,1.15,15.46,-0.04,0.08,0.17,1721199726201
-1.09,1.22,12.85,0.11,-0.40,0.18,1721199726211
-1.39,2.83,5.20,0.04,0.00,-0.04,1721199726221
2.14,4.12,14.77,0.11,0.10,-0.10,1721199726231
1.10,-1.81,9.44,-0.03,-0.29,0.01,1721199726241
-3.31,4.59,5.08,0.13,-0.34,0.10,1721199726251
1.21,-1.44,6.07,-0.13,0.22,-0.04,1721199726261
2.59,-2.53,16.81,-0.03,-0.11,-0.11,1721199726271
-0.96,4.34,6.08,0.21,-0.18,0.06,1721199726281
1.16,-1.43,12.37,-0.24,0.32,-0.12,1721199726291
-1.28,4.37,16.71,0.24,-0.34,-0.04,1721199726301
-2.51,7.34,4.78,0.10,-0.06,0.16,1721199726311
0.41,-6.15,8.92,-0.26,-0.09,0.23,1721199726321
-2.06,-0.01,15.80,-0.08,-0.21,-0.11,1721199726331
-0.89,-0.64,6.45,0.02,-0.15,-0.03,1721199726341
-4.14,3.03,8.25,-0.04,-0.05,0.07,1721199726351
-1.03,-1.52,11.46,-0.14,0.01,0.37,1721199726361
0.30,-2.87,5.65,-0.08,-0.30,0.34,1721199726371
0.28,2.38,10.23,-0.21,0.02,-0.02,1721199726381
2.53,-3.75,13.76,-0.29,-0.08,-0.19,1721199726391
-1.39,0.12,15.35,-0.03,-0.34,0.12,1721199726401
-1.83,0.01,7.08,-0.08,-0.06,0.23,1721199726411
0.11,0.04,13.42,-0.11,-0.13,0.15,1721199726421
0.87,4.12,10.12,0.07,-0.24,0.07,1721199726431
1.28,-3.58,5.57,-0.24,-0.17,-0.22,1721199726441
-3.13,1.33,14.00,-0.01,-0.31,-0.14,1721199726451
-2.82,-4.24,9.11,-0.18,-0.17,0.14,1721199726461
-0.84,3.87,12.06,0.06,-0.28,0.52,1721199726471
6.53,-1.94,6.05,-0.20,0.10,0.23,1721199726481
1.90,2.15,15.45,-0.09,-0.41,-0.21,1721199726491
-1.50,3.05,6.74,0.06,-0.20,-0.28,1721199726501
-1.00,-3.06,8.36,-0.09,-0.10,0.03,1721199726511
0.68,-0.11,11.27,0.06,-0.20,0.22,1721199726521
2.75,0.77,10.52,-0.01,-0.09,0.06,1721199726531
1.86,5.24,14.82,0.07,-0.12,-0.15,1721199726541
0.61,-6.02,5.20,-0.02,-0.25,-0.24,1721199726551
-2.82,-2.00,11.44,0.02,-0.23,-0.19,1721199726561
0.25,5.03,14.11,0.28,0.01,0.08,1721199726571
3.29,0.09,9.52,0.06,-0.10,0.27,1721199726581
1.03,3.54,10.92,0.14,-0.17,-0.11,1721199726591
2.91,-8.10,6.53,-0.17,0.10,-0.59,1721199726601
-4.03,4.92,19.32,0.20,-0.42,-0.25,1721199726611
-1.96,2.46,4.57,0.23,0.00,0.28,1721199726621
2.88,-2.95,9.62,0.02,0.11,0.22,1721199726631
4.77,-1.55,11.23,0.05,-0.06,-0.22,1721199726641
2.37,6.25,15.91,0.25,-0.02,-0.60,1721199726651
0.25,-5.50,5.08,0.01,-0.09,-0.37,1721199726661
-4.42,10.29,16.89,0.32,0.03,-0.17,1721199726671
3.64,-1.21,3.69,0.27,0.16,-0.13,1721199726681
3.27,-1.65,8.37,0.11,-0.05,-0.43,1721199726691
-0.27,2.66,13.24,0.12,0.18,-0.67,1721199726701
-2.43,0.36,13.75,0.15,0.04,-0.46,1721199726711
-4.09,2.61,7.30,0.23,0.06,-0.17,1721199726721
-0.91,1.65,4.97,0.06,0.27,-0.25,1721199726731
1.05,3.71,10.61,0.10,0.13,-0.28,1721199726741
2.25,-3.97,8.70,-0.18,0.14,-0.35,1721199726751
-1.49,4.29,13.23,0.14,0.04,-0.40,1721199726761
-1.86,-1.94,7.59,-0.22,0.25,-0.37,1721199726771
-3.10,2.40,16.36,0.04,-0.02,-0.20,1721199726781
1.42,-1.49,6.16,-0.02,0.18,-0.21,1721199726791
-0.72,3.69,9.56,-0.07,0.08,-0.29,1721199726801
-1.51,4.78,14.38,0.01,0.21,-0.54,1721199726811
-2.40,-0.91,-2.28,0.13,-0.13,-0.29,1721199726821
-3.55,-1.66,12.59,-0.32,0.43,-0.27,1721199726831
2.20,-2.19,14.59,0.01,-0.07,-0.17,1721199726841
-0.41,-0.28,4.97,-0.21,0.12,-0.23,1721199726851
0.19,1.47,14.71,-0.21,0.34,-0.49,1721199726861
-0.22,-3.18,12.51,-0.06,0.15,-0.34,1721199726871
-2.77,-1.46,5.71,-0.12,0.05,-0.17,1721199726881
0.44,1.43,14.90,-0.16,0.39,-0.26,1721199726891
0.21,0.39,11.02,-0.04,0.01,-0.21,1721199726901
-1.96,0.36,8.98,-0.20,0.23,-0.28,1721199726911
0.52,-0.93,14.84,-0.10,0.18,-0.26,1721199726921
-2.04,0.35,2.92,-0.03,-0.09,-0.15,1721199726931
-0.77,-0.69,9.90,-0.17,0.42,-0.17,1721199726941
1.91,-2.22,17.30,-0.13,0.28,-0.30,1721199726951
-2.46,4.84,12.02,0.09,0.02,-0.28,1721199726961
-1.28,-2.43,8.01,-0.18,0.39,-0.22,1721199726971
-2.00,3.12,15.84,0.09,-0.05,-0.05,1721199726981
-0.94,2.99,6.91,0.09,0.18,-0.06,1721199726991
-1.92,-0.04,11.29,-0.05,0.10,-0.17,1721199727001
-3.84,-2.30,8.97,0.10,-0.15,-0.13,1721199727011
-0.50,1.87,12.44,0.07,0.62,-0.07,1721199727021
2.25,-0.65,10.69,0.01,-0.01,-0.07,1721199727031
-2.91,0.69,7.64,0.13,-0.21,-0.14,1721199727041
0.78,-0.28,9.27,0.18,0.47,-0.12,1721199727051
-0.36,0.17,10.84,0.08,0.01,-0.10,1721199727061
-3.19,4.84,14.07,0.10,0.10,-0.13,1721199727071
-0.68,0.28,10.80,0.05,0.11,-0.17,1721199727081
-2.56,-4.98,9.66,-0.00,-0.07,-0.04,1721199727091
-1.93,0.05,5.42,0.19,0.17,0.10,1721199727101
2.09,4.85,12.94,0.09,0.32,0.01,1721199727111
1.91,-0.46,9.19,0.07,-0.28,-0.00,1721199727121
-0.84,3.56,12.38,0.05,0.19,-0.22,1721199727131
-1.03,-2.69,6.91,0.03,-0.07,-0.13,1721199727141
-4.91,-2.53,14.06,-0.14,-0.05,0.03,1721199727151
-2.61,1.26,4.12,0.25,-0.05,0.10,1721199727161
-5.16,-0.01,5.33,0.03,-0.07,-0.10,1721199727176
1.55,-1.77,9.79,0.03,-0.31,0.04,1721199727180
-3.87,2.89,11.20,0.06,-0.08,-0.03,1721199727190
-0.32,3.78,10.61,0.29,0.14,-0.06,1721199727200
0.40,0.99,7.57,0.04,0.02,-0.03,1721199727210
-3.33,-3.23,8.40,0.00,-0.40,0.17,1721199727220
-0.98,2.86,11.96,0.20,0.24,0.20,1721199727230
4.84,-0.31,4.48,0.05,0.06,-0.05,1721199727240
0.43,2.13,15.05,-0.04,0.09,-0.34,1721199727250
-0.77,3.29,13.30,0.23,0.07,-0.31,1721199727260
-2.23,-2.86,6.35,0.02,-0.05,0.14,1721199727270
-2.31,5.88,10.91,0.20,0.11,0.18,1721199727280
3.96,-2.77,8.86,-0.10,0.09,0.07,1721199727290
0.12,3.98,15.24,0.07,-0.26,-0.18,1721199727300
-1.86,0.31,4.94,-0.03,0.05,-0.23,1721199727310
-5.18,4.61,13.44,-0.00,-0.04,-0.09,1721199727320
-2.29,-3.21,7.52,-0.08,-0.05,0.21,1721199727330
-0.79,-2.62,9.84,-0.11,0.02,0.24,1721199727340
0.68,3.26,11.06,-0.04,0.04,0.14,1721199727350
2.57,2.25,7.89,-0.07,-0.07,0.07,1721199727360
0.46,-2.55,8.31,-0.16,-0.18,-0.10,1721199727370
-0.87,0.61,11.89,-0.02,0.10,-0.13,1721199727380
-2.31,-2.33,9.71,-0.21,-0.02,0.07,1721199727390
-2.38,-2.27,14.39,-0.20,-0.13,0.21,1721199727400
0.92,2.51,8.19,0.08,-0.05,0.18,1721199727410
4.25,1.27,5.37,-0.04,0.04,0.06,1721199727420
0.31,-1.32,10.93,-0.21,-0.06,-0.12,1721199727430
-3.09,-5.74,10.52,-0.21,-0.11,-0.13,1721199727440
-4.26,8.49,15.08,0.00,-0.05,0.01,1721199727450
1.73,-2.45,8.07,-0.33,0.06,0.19,1721199727460
1.50,-0.91,8.34,-0.04,-0.29,0.18,1721199727470
5.56,-1.53,7.66,-0.21,0.40,-0.24,1721199727480
0.35,2.42,16.92,-0.13,-0.26,-0.34,1721199727490
-5.47,-0.85,9.18,-0.17,-0.06,-0.16,1721199727500
-1.65,-0.69,15.92,-0.22,0.18,0.08,1721199727510
2.17,5.27,11.63,0.13,-0.15,0.12,1721199727520
3.66,-0.52,3.85,-0.09,0.08,-0.14,1721199727530
2.60,5.04,15.31,0.10,0.06,-0.41,1721199727540
-0.56,-1.11,9.98,0.06,-0.01,-0.36,1721199727550
-4.48,-0.03,9.78,0.13,-0.04,-0.07,1721199727560
-1.80,1.54,9.91,0.07,0.18,-0.03,1721199727570
-1.19,0.74,12.43,0.14,-0.25,0.08,1721199727580
3.23,7.38,13.78,0.31,0.30,0.08,1721199727590
5.38,-2.46,9.79,0.17,0.03,-0.18,1721199727600
-2.68,-1.36,11.90,0.14,-0.09,-0.42,1721199727610
-3.17,8.68,11.13,0.36,0.23,-0.24,1721199727620
0.02,-3.24,4.01,0.14,-0.05,0.19,1721199727630
0.27,0.90,14.83,0.16,0.11,0.23,1721199727640
4.91,2.94,9.30,0.41,0.18,-0.26,1721199727650
2.71,3.74,8.06,0.24,0.02,-0.40,1721199727660
-1.36,-2.79,11.60,0.05,0.05,-0.34,1721199727670
-3.37,1.11,13.76,0.33,0.07,-0.11,1721199727680
1.09,0.37,4.98,0.23,0.24,0.06,1721199727690
1.31,0.83,4.77,0.13,0.08,-0.15,1721199727700
-1.52,0.89,12.63,0.03,0.16,-0.40,1721199727710
-3.86,0.93,18.39,0.09,0.16,-0.41,1721199727720
-4.06,-0.87,7.15,0.18,-0.03,0.13,1721199727730
0.63,3.93,8.60,0.04,0.32,0.34,1721199727740
5.34,-2.17,4.73,-0.09,0.09,-0.13,1721199727750
1.31,0.73,11.53,-0.16,0.04,-0.57,1721199727760
-1.79,2.05,15.68,-0.00,0.15,-0.45,1721199727770
-4.45,0.78,5.43,0.08,0.01,-0.12,1721199727780
-2.88,3.09,7.79,-0.09,0.20,-0.03,1721199727790
0.36,0.36,16.83,-0.19,0.18,-0.07,1721199727800
-0.31,4.32,13.12,0.12,-0.13,-0.09,1721199727810
0.94,-1.15,4.40,-0.08,0.17,-0.21,1721199727820
0.30,-2.27,9.66,-0.14,0.09,-0.27,1721199727830
-1.12,-0.31,10.30,-0.07,0.03,-0.14,1721199727840
-1.13,3.35,9.96,0.05,0.14,-0.12,1721199727850
0.02,0.07,9.46,-0.14,0.14,-0.20,1721199727860
0.54,-3.05,12.37,-0.16,-0.11,-0.05,1721199727870
-0.85,-5.42,11.17,-0.24,0.04,0.01,1721199727880
-1.79,4.51,9.72,0.03,0.23,-0.17,1721199727890
2.24,-3.76,3.46,-0.25,0.13,-0.27,1721199727900
-1.20,-2.69,16.12,-0.14,-0.01,-0.18,1721199727910
-2.37,-0.19,3.73,0.15,0.08,-0.06,1721199727920
2.03,2.82,12.37,-0.14,0.52,0.00,1721199727930
1.34,0.05,11.98,-0.07,-0.06,-0.19,1721199727940
-2.45,1.93,12.66,-0.10,0.06,-0.38,1721199727950
-1.62,0.34,11.55,0.07,0.11,-0.15,1721199727960
-2.50,-1.60,6.01,-0.06,0.05,0.02,1721199727970
-2.78,-2.22,10.30,-0.18,0.14,-0.04,1721199727980
0.15,-0.34,15.41,0.04,0.27,-0.17,1721199727990
-0.26,1.61,9.82,-0.02,0.12,-0.24,1721199728000
-4.25,-0.04,4.95,-0.00,-0.22,-0.06,1721199728010
0.29,-3.97,14.57,-0.07,0.46,0.17,1721199728020
5.18,1.92,13.36,0.16,0.10,-0.03,1721199728030
1.24,5.26,12.17,-0.03,0.09,-0.33,1721199728040
-4.93,-1.85,9.03,-0.02,-0.15,-0.36,1721199728050
-5.97,2.25,10.77,0.17,0.20,-0.19,1721199728060
1.61,-1.03,10.90,0.07,0.21,0.21,1721199728070
-1.50,-0.54,7.45,-0.02,-0.27,0.18,1721199728080
0.17,7.44,12.28,0.24,0.40,-0.17,1721199728090
2.94,-1.65,7.73,0.00,0.05,-0.27,1721199728100
-6.56,2.12,8.01,0.00,-0.39,-0.21,1721199728110
-2.26,-1.65,7.85,0.03,0.49,-0.00,1721199728120
1.35,-0.69,15.11,0.06,0.20,-0.00,1721199728130
-0.44,7.75,9.78,0.26,-0.06,-0.03,1721199728140
2.50,-1.24,6.98,-0.00,0.10,0.07,1721199728150
-1.15,1.27,13.27,0.07,-0.21,-0.15,1721199728160
-2.08,2.53,10.40,0.19,0.27,-0.30,1721199728170
-1.42,2.46,7.97,0.19,0.07,-0.14,1721199728180
-2.77,-0.66,9.93,0.01,0.05,0.00,1721199728190
-1.76,3.13,6.31,0.29,-0.01,0.10,1721199728200
2.73,0.98,8.07,0.02,0.33,0.08,1721199728210
2.42,-0.73,16.79,-0.02,-0.00,-0.07,1721199728220
0.01,3.85,12.55,0.17,-0.07,-0.18,1721199728230
-0.79,1.80,9.50,-0.04,0.04,-0.12,1721199728240
-3.29,1.29,5.89,0.14,-0.15,-0.01,1721199728250
-1.19,-3.79,9.22,-0.18,0.31,0.09,1721199728260
-1.30,0.74,12.61,0.14,-0.07,0.08,1721199728270
0.21,3.09,8.91,-0.05,0.23,-0.01,1721199728280
-1.35,1.22,13.40,0.00,-0.13,0.02,1721199728290
-2.72,-3.39,8.52,-0.15,-0.08,0.22,1721199728300
-0.86,0.21,13.19,-0.07,0.09,0.17,1721199728310
0.62,3.40,8.49,-0.02,0.11,-0.06,1721199728320
-0.93,-8.36,3.34,-0.36,-0.24,0.04,1721199728330
-4.76,2.85,16.91,-0.15,0.10,0.23,1721199728340
2.40,1.57,9.85,0.07,0.11,0.16,1721199728350
1.96,-2.03,3.28,-0.04,-0.28,0.24,1721199728360
0.99,-3.61,11.66,-0.27,0.05,0.03,1721199728370
0.55,3.86,17.72,-0.03,-0.09,-0.06,1721199728380
-2.58,-4.37,4.27,-0.17,-0.19,-0.06,1721199728390
-3.40,-5.71,13.61,-0.28,0.07,0.14,1721199728400
-0.94,1.37,9.28,0.01,-0.05,0.29,1721199728410
2.66,1.76,10.52,-0.15,0.09,0.32,1721199728420
3.14,3.25,11.87,-0.01,-0.01,-0.18,1721199728430
-0.65,2.13,7.81,-0.02,-0.17,-0.37,1721199728440
-0.94,-4.48,11.45,-0.11,0.11,-0.08,1721199728450
-0.72,2.40,10.60,0.09,-0.06,0.14,1721199728460
1.97,-3.12,10.47,-0.11,0.14,0.13,1721199728470
1.20,0.69,11.94,0.07,-0.07,-0.00,1721199728480
0.50,0.36,7.70,-0.04,0.14,-0.29,1721199728490
1.18,2.05,14.34,0.07,0.03,-0.24,1721199728500
-0.95,-0.84,8.90,0.15,-0.05,-0.01,1721199728510
-1.51,-0.70,12.91,-0.03,0.15,0.13,1721199728520
0.28,3.91,13.80,0.22,0.02,-0.00,1721199728530
2.29,-1.81,6.39,0.02,0.09,-0.15,1721199728540
-1.48,-1.98,12.09,0.01,0.04,-0.18,1721199728550
-4.97,4.27,7.14,0.23,0.13,-0.15,1721199728560
-1.05,-2.64,14.54,0.01,0.23,0.12,1721199728570
1.33,5.12,12.73,0.30,-0.06,0.42,1721199728580
4.17,1.76,6.54,0.05,0.34,0.06,1721199728590
1.87,1.39,17.10,0.09,-0.03,-0.37,1721199728600
-1.47,-1.98,6.26,0.11,-0.07,-0.22,1721199728610
-2.22,1.89,11.84,0.17,0.26,0.06,1721199728620
1.44,-2.14,8.11,0.07,0.13,0.10,1721199728630
0.66,-2.73,12.83,-0.07,0.07,-0.14,1721199728640
-1.43,6.72,8.71,0.35,0.15,-0.26,1721199728650
-0.02,5.84,10.04,0.08,0.33,-0.12,1721199728660
-1.96,1.31,11.02,0.18,-0.09,-0.00,1721199728670
-1.60,-0.94,8.20,0.07,0.27,0.00,1721199728680
0.96,-3.27,10.31,-0.11,0.15,-0.05,1721199728690
0.33,8.19,16.16,0.15,0.06,-0.01,1721199728700
1.17,-1.56,1.65,-0.04,-0.01,-0.12,1721199728710
-3.20,-1.12,14.17,-0.13,0.09,-0.19,1721199728720
-0.30,6.28,9.48,0.26,0.22,-0.10,1721199728730
0.35,-0.31,4.42,-0.20,0.09,-0.14,1721199728740
-4.41,0.41,18.92,-0.06,0.05,-0.11,1721199728750
-3.39,0.50,9.54,0.14,0.12,-0.01,1721199728760
-0.87,0.20,7.66,-0.07,0.03,0.23,1721199728770
2.04,1.45,9.21,0.03,0.01,0.25,1721199728780
4.61,0.13,13.78,-0.21,0.19,-0.15,1721199728790
0.35,4.19,18.44,0.10,-0.07,-0.43,1721199728800
-3.58,-2.88,3.54,-0.00,-0.13,-0.10,1721199728810
-4.65,1.62,6.38,-0.02,0.11,0.18,1721199728820
3.11,-5.23,8.08,-0.32,0.19,0.31,1721199728830
2.55,2.22,20.06,0.01,-0.09,0.06,1721199728840
0.95,4.12,2.81,0.19,-0.03,-0.13,1721199728850
-0.21,-5.06,5.39,-0.38,0.12,-0.12,1721199728860
-2.14,-2.76,13.40,-0.06,-0.11,0.04,1721199728870
1.18,-0.45,14.42,-0.14,0.25,0.15,1721199728880
0.50,6.86,8.94,0.13,-0.23,0.14,1721199728890
2.39,2.04,7.38,-0.18,0.23,-0.05,1721199728900
0.31,-3.92,12.35,-0.15,-0.16,-0.21,1721199728910
-4.39,-4.38,7.58,-0.10,-0.10,-0.01,1721199728920
-3.29,4.51,13.24,-0.02,0.19,0.18,1721199728930
1.10,3.16,11.60,0.00,0.01,0.10,1721199728940
-0.83,-0.98,7.56,-0.02,-0.16,-0.04,1721199728950
-0.05,-2.38,11.20,-0.13,0.14,-0.00,1721199728960
-0.32,2.64,12.17,-0.01,0.06,-0.07,1721199728970
-1.47,2.61,11.81,0.03,-0.08,-0.14,1721199728980
-2.63,-3.74,9.92,-0.06,-0.07,0.07,1721199728990
-2.12,-0.08,8.41,0.09,-0.26,0.28,1721199729000
3.23,5.54,14.12,0.13,0.47,-0.06,1721199729010
4.06,1.49,12.19,0.01,-0.04,-0.27,1721199729020
-5.05,4.80,9.38,0.06,-0.52,-0.19,1721199729030
-3.24,-6.46,6.73,0.04,0.12,0.05,1721199729040
0.56,1.22,10.30,0.15,0.10,0.27,1721199729050
2.71,3.97,12.76,0.00,-0.06,0.09,1721199729060
0.39,2.39,11.74,0.15,-0.16,-0.22,1721199729070
-1.25,2.37,7.40,0.20,-0.03,-0.31,1721199729080
-1.97,-3.17,7.78,0.02,-0.14,0.10,1721199729090
-2.00,2.45,17.47,0.11,0.02,0.15,1721199729100
0.89,2.92,8.41,0.24,-0.11,-0.09,1721199729110
-0.88,-3.28,7.35,0.06,-0.16,0.01,1721199729120
-1.04,-0.72,9.94,-0.12,0.36,-0.36,1721199729670
-2.82,1.00,14.01,-0.12,0.16,-0.37,1721199729675
-2.49,4.77,13.22,0.26,0.19,-0.29,1721199729684
-0.28,-0.53,5.70,-0.07,0.27,-0.20,1721199729694
-1.47,3.66,13.46,-0.01,0.17,-0.24,1721199729703
0.68,1.04,9.62,0.07,0.20,-0.31,1721199729713
-0.71,-0.34,11.54,0.03,0.20,-0.41,1721199729723
-1.74,-2.19,8.30,0.06,0.15,-0.21,1721199729733
-0.95,1.18,12.30,-0.04,0.31,-0.30,1721199729742
-0.27,6.03,12.72,0.26,0.15,-0.26,1721199729752
-0.22,0.58,2.37,-0.05,0.28,-0.18,1721199729762
-1.50,-4.44,11.54,-0.23,0.25,-0.26,1721199729772
0.34,-3.17,17.67,-0.01,0.22,-0.10,1721199729782
-0.07,4.41,9.23,0.26,0.13,0.01,1721199729792
0.82,-1.69,2.45,-0.11,0.23,-0.17,1721199729802
-0.26,-9.73,13.15,-0.42,0.29,-0.28,1721199729812
-2.22,0.24,18.98,0.10,0.25,-0.15,1721199729822
0.76,0.10,2.04,0.14,0.28,-0.03,1721199729832
0.76,2.34,8.87,-0.16,0.42,-0.11,1721199729842
0.12,1.65,12.18,-0.01,0.18,-0.36,1721199729852
-2.78,-1.32,14.16,-0.17,0.27,-0.41,1721199729862
-4.56,-0.34,6.86,0.04,0.08,-0.23,1721199729872
-3.81,-2.19,8.24,-0.20,0.42,0.03,1721199729882
-2.08,-2.41,11.48,-0.03,0.04,0.17,1721199729892
-0.82,3.95,5.16,0.19,0.26,0.06,1721199729902
3.41,-2.01,6.81,-0.23,0.39,-0.14,1721199729912
-2.06,-1.12,21.43,-0.10,0.03,-0.22,1721199729922
-4.17,-0.14,3.65,0.24,-0.01,0.10,1721199729932
0.30,-0.45,9.52,-0.12,0.55,0.26,1721199729942
2.29,1.66,14.69,-0.03,0.04,0.13,1721199729952
0.87,8.83,11.99,0.10,0.16,-0.02,1721199729962
0.65,-6.67,4.21,-0.25,0.13,-0.17,1721199729972
-5.69,-0.53,15.35,-0.11,0.21,-0.24,1721199729982
-2.53,1.15,14.71,0.15,0.22,0.26,1721199729992
-0.87,8.11,5.09,0.26,-0.01,0.50,1721199730002
2.55,4.18,3.82,-0.11,0.22,0.16,1721199730012
2.23,1.09,19.95,-0.13,0.05,-0.26,1721199730022
-2.63,-1.34,13.58,0.04,-0.02,-0.28,1721199730032
-5.13,3.22,7.37,0.23,0.13,0.04,1721199730042
-2.30,2.74,6.31,0.11,-0.01,0.40,1721199730052
-1.20,7.93,8.64,0.20,-0.08,0.37,1721199730062
2.26,5.63,-0.47,0.10,0.09,-0.04,1721199730072
1.05,-4.70,12.31,-0.37,0.08,-0.25,1721199730082
-4.41,2.97,19.26,0.16,-0.19,0.04,1721199730092
-2.74,2.04,3.96,-0.06,0.12,0.44,1721199730102
0.13,5.90,10.25,0.00,-0.09,0.54,1721199730112
5.33,-2.38,11.44,-0.18,0.07,0.31,1721199730122
2.28,-1.19,13.28,-0.15,-0.25,0.06,1721199730132
-0.17,2.92,5.90,0.02,-0.06,0.08,1721199730142
-1.10,3.53,7.87,-0.17,0.12,0.04,1721199730152
-2.13,-2.10,11.73,-0.13,-0.17,0.19,1721199730162
-2.76,-4.06,14.95,-0.31,-0.04,0.31,1721199730172
-1.78,4.13,8.86,0.01,-0.14,0.40,1721199730182
1.91,-0.37,8.70,-0.23,0.21,0.33,1721199730192
0.59,-0.08,14.03,-0.10,-0.27,0.09,1721199730202
-1.74,3.59,7.58,-0.05,-0.12,0.06,1721199730212
0.26,-1.15,12.70,-0.31,0.07,0.23,1721199730222
-0.23,4.20,14.37,0.01,-0.26,0.24,1721199730232
2.06,0.64,5.62,-0.05,-0.04,0.44,1721199730242
3.41,-7.51,13.35,-0.26,0.05,0.13,1721199730252
-0.53,3.39,15.38,0.10,-0.35,-0.05,1721199730262
-0.57,2.18,8.75,0.00,-0.04,0.08,1721199730272
-0.33,-0.69,9.70,-0.05,-0.08,0.18,1721199730282
-0.53,5.49,9.33,0.09,-0.22,0.19,1721199730292
1.75,-1.22,9.47,-0.06,-0.00,0.07,1721199730302
2.83,-4.62,11.15,0.04,-0.15,0.15,1721199730312
2.04,-2.91,10.48,0.01,-0.05,-0.12,1721199730322
-0.12,4.96,15.17,0.22,-0.06,-0.21,1721199730332
-0.62,2.03,6.30,0.07,-0.05,-0.23,1721199730342
-3.55,1.21,12.93,0.03,-0.05,-0.24,1721199730352
-2.75,-5.41,7.35,0.13,-0.12,-0.02,1721199730362
-1.79,-5.49,7.82,-0.01,0.09,0.14,1721199730372
1.11,0.47,13.00,0.10,0.01,0.13,1721199730382
1.83,8.80,9.80,0.20,-0.08,-0.13,1721199730392
1.86,-1.93,9.21,0.01,-0.02,-0.29,1721199730402
-2.10,-3.46,14.26,-0.03,-0.10,-0.15,1721199730412
-3.01,-5.67,4.17,0.00,-0.07,0.04,1721199730422
-0.97,4.39,16.41,0.12,0.21,0.12,1721199730432
4.55,2.27,4.86,0.22,-0.07,0.22,1721199730442
1.48,3.00,9.81,-0.05,0.11,-0.14,1721199730452
0.99,0.01,13.51,-0.02,0.10,-0.45,1721199730462
-2.72,-5.35,10.06,0.01,-0.14,-0.29,1721199730472
-4.74,2.27,10.37,0.16,0.07,0.15,1721199730482
1.13,3.83,10.78,0.14,0.14,0.27,1721199730492
2.58,4.53,9.39,0.21,0.00,0.02,1721199730502
0.30,3.05,11.17,0.09,0.15,-0.40,1721199730512
-2.55,0.56,15.34,0.14,-0.04,-0.15,1721199730522
-2.52,5.25,7.88,0.29,-0.01,0.23,1721199730532
1.88,2.71,4.94,0.10,0.21,0.20,1721199730542
4.34,1.08,12.78,0.09,0.09,-0.11,1721199730552
1.05,-0.66,8.47,0.06,-0.04,-0.36,1721199730562
-4.83,3.60,16.92,0.11,-0.03,-0.13,1721199730572
-5.17,3.95,7.10,0.20,-0.01,0.20,1721199730582
-0.95,1.15,5.23,-0.02,-0.01,0.39,1721199730592
3.25,-2.09,10.92,-0.21,0.06,0.18,1721199730602
2.88,-3.54,13.41,-0.00,-0.19,0.01,1721199730612
1.41,0.63,10.65,0.13,0.00,-0.09,1721199730622
0.68,7.16,5.03,0.14,-0.00,-0.07,1721199730632
0.55,2.94,10.30,-0.15,-0.04,0.06,1721199730642
0.90,-5.66,11.97,-0.26,-0.16,-0.04,1721199730652
1.17,-5.27,15.10,-0.05,0.02,-0.14,1721199730662
1.31,-3.24,10.55,-0.01,0.09,-0.33,1721199730672
-2.80,8.36,6.64,0.16,-0.23,-0.23,1721199730682
-1.03,-1.16,1.75,-0.34,0.12,-0.05,1721199730692
-2.83,-2.03,20.93,-0.24,-0.01,-0.21,1721199730702
-0.04,-7.35,12.05,-0.09,-0.01,0.03,1721199730712
2.60,-5.50,10.37,-0.11,0.09,0.11,1721199730722
1.49,10.08,10.02,0.28,0.04,-0.23,1721199730732
1.78,3.95,7.83,-0.13,0.18,-0.65,1721199730742
-2.62,0.19,19.30,-0.02,-0.16,-0.32,1721199730752
-6.40,-6.11,5.31,-0.03,-0.05,-0.06,1721199730762
-4.95,1.97,12.74,0.05,0.16,-0.14,1721199730772
0.40,-0.11,3.20,0.25,-0.13,0.02,1721199730782
0.06,1.28,6.72,-0.12,0.18,-0.08,1721199730792
-0.01,0.27,17.24,-0.06,0.01,-0.38,1721199730802
-2.75,-1.47,13.82,-0.00,-0.06,-0.38,1721199730812
-4.35,-6.56,5.60,-0.04,-0.08,-0.10,1721199730822
-1.67,1.30,15.06,0.13,0.13,0.13,1721199730832
1.40,-1.11,8.17,0.06,-0.21,0.21,1721199730842
-2.68,2.11,10.66,-0.03,-0.31,-0.12,1721199730852
-0.74,1.07,9.63,0.14,0.01,-0.09,1721199730862
-0.16,-2.13,6.96,-0.11,0.04,-0.06,1721199730872
-4.01,2.47,7.45,0.06,-0.45,0.13,1721199730882
-0.49,-1.10,10.03,-0.05,0.24,0.23,1721199730892
3.31,0.66,21.64,0.04,-0.05,0.14,1721199730902
0.51,6.59,4.91,0.27,-0.62,0.08,1721199730912
1.24,2.11,6.30,-0.13,0.16,-0.12,1721199730922
-0.07,0.70,12.98,0.08,-0.29,-0.03,1721199730932
-1.94,-3.28,5.16,-0.10,-0.16,-0.11,1721199730942
1.11,0.11,14.21,0.07,-0.00,-0.04,1721199730952
-1.98,3.35,11.47,0.07,-0.02,-0.22,1721199730962
-4.56,10.97,13.86,0.29,-0.17,-0.22,1721199730972
-4.59,2.65,5.38,-0.03,-0.16,-0.05,1721199730982
-5.42,-0.74,15.06,-0.12,-0.29,0.25,1721199730992
0.64,-7.38,8.37,-0.09,-0.27,0.52,1721199731002
2.89,6.22,8.16,0.26,-0.24,0.44,1721199731012
7.98,9.56,6.52,0.16,0.06,-0.06,1721199731022
4.22,1.38,9.10,-0.03,-0.35,-0.30,1721199731032
-3.04,-5.29,10.44,-0.27,-0.25,-0.17,1721199731042
-3.32,-2.46,19.62,-0.05,-0.16,0.15,1721199731052
0.73,5.02,9.81,0.29,-0.25,0.45,1721199731062
4.53,3.38,-0.05,0.03,-0.17,0.19,1721199731072
1.37,-4.93,5.62,-0.33,-0.21,-0.14,1721199731082
-1.25,-1.07,15.77,-0.24,-0.20,-0.36,1721199731092
-3.34,-1.63,20.50,-0.17,-0.05,-0.17,1721199731102
-2.88,-0.79,6.07,0.22,-0.37,0.21,1721199731112
2.39,-6.61,-3.19,-0.26,-0.04,0.34,1721199731122
8.23,3.02,12.60,-0.30,0.09,-0.07,1721199731132
3.54,0.73,17.69,-0.13,0.12,-0.54,1721199731142
-3.94,0.31,14.16,-0.01,-0.42,-0.57,1721199731152
-7.25,-2.99,-0.37,-0.04,-0.22,0.05,1721199731162
0.06,-1.30,11.58,-0.33,0.30,0.31,1721199731172
4.04,-1.17,12.28,-0.21,-0.24,0.02,1721199731182
2.52,4.59,14.60,-0.07,-0.10,-0.58,1721199731192
1.93,-6.47,7.51,-0.15,-0.18,-0.54,1721199731202
-2.96,2.85,11.28,-0.18,0.08,-0.28,1721199731212
-1.90,0.97,9.85,-0.09,-0.10,-0.30,1721199731222
0.94,-4.22,10.40,-0.22,0.05,-0.21,1721199731232
1.11,1.82,12.07,-0.14,-0.00,-0.50,1721199731242
0.32,5.68,14.99,-0.04,0.04,-0.50,1721199731252
-2.18,0.45,14.01,-0.05,0.01,-0.51,1721199731262
-1.77,1.91,9.90,0.16,0.14,-0.31,1721199731272
1.62,-2.72,5.97,-0.02,0.14,-0.28,1721199731282
-2.31,6.11,12.38,0.29,-0.05,-0.44,1721199731292
0.77,6.20,5.00,0.38,0.26,-0.44,1721199731302
0.09,-0.00,12.24,0.09,0.10,-0.35,1721199731312
-2.83,3.54,17.76,0.28,0.08,-0.29,1721199731322
0.90,-0.74,4.62,0.25,0.17,-0.31,1721199731332
1.75,-7.61,7.35,-0.08,0.14,-0.34,1721199731342
-1.93,6.02,18.62,0.38,0.10,-0.47,1721199731352
-1.91,6.74,2.57,0.51,0.22,-0.34,1721199731362
-0.64,-5.29,7.74,0.02,0.23,-0.27,1721199731372
-0.16,-2.28,13.08,0.18,0.07,-0.16,1721199731382
-0.74,5.77,10.78,0.26,0.16,-0.26,1721199731392
0.14,0.31,5.86,0.11,0.18,-0.23,1721199731402
-0.38,-5.05,7.21,-0.10,0.13,-0.18,1721199731412
0.08,5.44,21.09,0.27,0.34,-0.27,1721199731422
1.89,2.24,0.33,0.14,0.17,-0.34,1721199731432
-3.57,-0.15,10.39,-0.17,0.18,-0.37,1721199731442
0.22,-1.02,9.28,0.06,0.22,-0.24,1721199731452
0.37,-0.93,7.84,-0.13,0.32,-0.32,1721199731462
-2.32,-1.64,11.37,-0.19,0.17,-0.34,1721199731472
-3.11,0.80,16.22,-0.10,0.26,-0.39,1721199731482
-1.49,0.84,10.58,-0.02,0.29,-0.28,1721199731492
-1.22,2.62,7.56,-0.10,0.20,-0.10,1721199731502
0.64,1.51,10.18,-0.05,0.36,-0.19,1721199731512
1.24,-3.24,12.77,-0.29,0.33,-0.49,1721199731522
-3.14,5.48,12.46,0.15,0.03,-0.34,1721199731532
-1.26,2.84,3.28,-0.12,0.47,-0.29,1721199731542
-0.17,-2.33,12.60,-0.16,0.20,-0.24,1721199731552
-2.17,-3.49,12.34,-0.10,0.14,-0.26,1721199731562
-1.62,-0.10,12.41,-0.12,0.27,-0.29,1721199731572
-1.23,12.20,8.28,0.26,0.25,-0.22,1721199731582
0.70,-4.50,5.06,-0.34,0.19,-0.25,1721199731592
-4.61,-2.96,17.04,0.02,-0.14,-0.25,1721199731602
-0.89,-2.61,0.86,0.08,0.46,-0.03,1721199731612
1.04,-2.21,12.76,-0.21,0.38,-0.12,1721199731622
-1.10,0.48,9.67,0.10,0.15,-0.19,1721199731632
-0.26,6.97,14.57,0.12,0.57,-0.16,1721199731642
-1.01,0.75,4.50,0.10,-0.15,-0.02,1721199731652
-3.05,-0.32,15.18,-0.17,0.48,0.00,1721199731662
-2.11,1.97,7.85,0.15,0.34,-0.18,1721199731677
-1.83,3.54,3.75,0.14,-0.11,-0.17,1721199731681
-3.55,-4.84,5.50,-0.26,0.41,-0.32,1721199731691
-4.83,4.44,22.19,0.21,0.16,0.03,1721199731701
-2.50,1.32,3.54,0.16,0.23,0.27,1721199731711
1.03,-8.73,5.26,-0.26,0.09,0.19,1721199731721
2.27,5.04,14.27,0.05,0.38,-0.07,1721199731731
3.54,-1.43,7.97,0.04,0.20,-0.31,1721199731741
-4.11,-2.44,10.58,-0.09,-0.00,-0.21,1721199731751
-5.63,2.85,11.79,0.13,0.24,0.05,1721199731761
1.40,0.93,12.98,0.05,0.45,0.34,1721199731771
3.14,3.77,11.14,0.07,0.13,0.31,1721199731781
1.74,5.82,10.41,0.13,0.17,-0.06,1721199731791
0.33,-0.13,6.69,-0.01,0.11,-0.26,1721199731801
-5.01,-2.19,8.72,0.02,-0.02,-0.12,1721199731811
-3.51,3.91,15.94,0.09,0.41,0.24,1721199731821
0.34,1.51,8.92,0.08,-0.09,0.38,1721199731831
-0.86,2.43,7.44,0.20,-0.13,0.36,1721199731841
4.28,2.89,8.71,0.30,0.43,0.13,1721199731851
3.32,-0.66,13.54,-0.07,0.07,-0.15,1721199731861
-4.74,1.10,13.89,0.08,-0.33,-0.11,1721199731871
-6.71,5.79,10.53,0.24,0.18,0.03,1721199731881
-1.69,0.91,5.73,0.22,0.09,0.38,1721199731891
2.89,0.90,10.04,0.08,0.24,0.50,1721199731901
4.91,0.86,8.45,-0.00,-0.05,0.06,1721199731911
0.67,3.57,11.25,-0.02,-0.13,-0.27,1721199731921
-2.64,3.66,10.94,0.15,0.03,-0.08,1721199731931
-2.52,-6.60,11.35,-0.20,0.11,0.22,1721199731941
-1.41,1.34,10.09,0.21,-0.16,0.50,1721199731951
5.20,0.89,3.13,-0.15,0.30,0.27,1721199731961
3.58,4.85,20.72,-0.04,0.08,-0.12,1721199731971
-1.02,7.79,8.94,0.30,-0.08,-0.23,1721199731981
-0.88,-2.38,3.61,-0.10,0.05,0.02,1721199731991
-0.83,-4.73,16.96,-0.25,0.01,0.31,1721199732001
-0.75,4.54,17.71,0.19,-0.02,0.03,1721199732011
-1.64,-0.13,-0.45,0.09,-0.23,-0.11,1721199732021
-4.91,4.25,8.91,-0.03,0.20,-0.02,1721199732031
0.51,-2.37,11.61,-0.11,0.18,0.17,1721199732041
1.58,-3.40,14.47,-0.14,-0.21,0.35,1721199732051
2.21,2.61,13.96,0.07,0.02,0.18,1721199732061
2.83,2.60,6.33,0.06,-0.04,-0.16,1721199732071
-2.34,-4.09,4.85,-0.16,-0.29,-0.14,1721199732081
-4.60,1.79,15.12,0.05,0.09,0.01,1721199732091
-0.12,2.41,7.60,0.07,0.10,-0.03,1721199732101
-1.40,-0.33,8.30,-0.14,-0.14,0.14,1721199732111
-1.13,5.42,14.26,0.06,0.13,0.20,1721199732121
3.61,2.33,15.33,0.09,0.20,0.02,1721199732131
0.51,-4.56,5.27,-0.07,-0.38,0.03,1721199732141
-4.13,3.45,12.47,0.01,-0.11,0.07,1721199732151
1.45,1.21,9.01,0.04,0.10,0.14,1721199732161
1.81,4.53,15.24,0.18,-0.08,0.12,1721199732171
2.04,-0.05,2.56,0.06,-0.11,-0.07,1721199732181
1.72,0.58,12.25,-0.03,0.12,-0.13,1721199732191
-1.01,2.28,10.86,0.04,0.10,-0.23,1721199732201
-2.58,4.27,18.40,0.18,-0.01,-0.12,1721199732211
-1.19,1.26,-2.89,0.32,-0.23,0.28,1721199732221
3.76,-0.26,16.32,-0.35,0.30,0.13,1721199732231
3.06,0.54,13.64,0.28,-0.31,0.10,1721199732241
1.07,3.21,0.63,-0.03,0.05,-0.26,1721199732251
-1.22,-1.80,14.83,-0.22,0.06,-0.27,1721199732261
-4.26,-1.10,10.20,0.04,-0.22,0.08,1721199732271
-0.60,-1.19,10.16,-0.08,0.11,0.22,1721199732281
3.53,2.97,11.20,0.15,0.05,-0.01,1721199732291
1.64,-0.30,3.74,-0.21,-0.10,-0.19,1721199732301
-4.29,4.96,11.20,0.04,-0.19,-0.14,1721199732311
-0.68,-0.04,7.32,-0.03,0.21,-0.03,1721199732321
0.93,-2.23,20.35,-0.13,0.08,0.17,1721199732331
0.79,0.67,10.60,0.08,-0.19,0.01,1721199732341
-0.17,4.45,5.76,0.01,-0.16,-0.02,1721199732351
-1.50,3.79,6.07,-0.00,-0.04,-0.20,1721199732361
-1.22,-4.80,10.42,-0.17,0.00,0.04,1721199732371
-1.42,2.20,18.67,0.10,0.03,0.11,1721199732381
2.46,-0.62,3.73,-0.01,-0.05,0.17,1721199732391
0.23,4.92,11.84,-0.08,0.01,-0.14,1721199732401
1.39,3.54,12.05,0.04,0.12,-0.34,1721199732411
-1.71,0.95,8.87,0.18,-0.21,-0.12,1721199732421
-2.02,-0.84,13.10,-0.15,0.13,0.06,1721199732431
-1.50,3.42,11.04,0.19,-0.13,0.02,1721199732441
-0.64,3.33,0.92,0.02,-0.05,-0.07,1721199732451
-0.26,0.69,13.96,-0.20,0.11,-0.20,1721199732461
-0.58,-3.05,12.55,0.19,-0.11,-0.07,1721199732471
0.91,-1.49,11.49,-0.10,0.34,-0.05,1721199732481
0.72,4.78,14.79,0.13,-0.01,-0.09,1721199732491
0.28,1.87,10.49,0.02,-0.05,-0.08,1721199732501
1.44,3.11,9.95,0.09,0.01,-0.11,1721199732511
0.11,-1.54,5.40,0.01,-0.12,-0.18,1721199732521
-2.57,2.02,12.56,0.06,0.10,-0.05,1721199732531
-1.07,1.73,10.65,-0.01,0.10,-0.08,1721199732541
-1.53,2.78,10.56,0.13,-0.19,0.08,1721199732551
2.00,-1.93,9.11,-0.04,0.22,-0.05,1721199732561
0.97,-0.37,14.19,-0.02,-0.01,-0.15,1721199732571
-1.88,3.08,5.77,0.07,-0.20,-0.15,1721199732581
-1.78,0.96,3.54,-0.07,-0.02,0.01,1721199732591
0.31,-0.69,20.02,-0.20,0.23,-0.04,1721199732601
0.57,-4.62,10.30,0.20,-0.25,-0.02,1721199732611
0.49,3.26,11.15,0.04,0.40,-0.05,1721199732621
1.45,1.29,10.06,-0.12,0.03,-0.20,1721199732631
-4.03,4.20,8.57,0.17,-0.51,-0.01,1721199732641
-1.17,-3.78,-0.84,-0.12,0.07,0.17,1721199732651
1.05,-0.82,16.18,0.03,0.13,0.06,1721199732661
2.85,1.72,10.87,0.04,0.09,-0.11,1721199732671
-0.49,-1.54,10.22,-0.15,-0.07,-0.19,1721199732681
-2.82,1.75,13.62,0.02,0.08,-0.15,1721199732691
-0.30,1.65,10.48,0.07,0.16,0.04,1721199732701
0.27,0.99,14.24,0.01,0.09,0.04,1721199732711
0.11,-0.78,8.83,-0.06,-0.14,-0.03,1721199732721
0.32,2.84,14.05,0.11,-0.00,-0.04,1721199732731
1.14,0.79,4.79,0.02,0.03,-0.17,1721199732741
-1.92,-2.48,12.48,-0.07,-0.06,-0.13,1721199732751
-2.62,1.07,12.25,0.08,-0.01,0.04,1721199732761
0.12,2.71,11.74,0.00,0.10,-0.12,1721199732771
-0.82,3.79,1.69,0.18,-0.27,-0.03,1721199732781
2.43,-1.44,13.30,-0.19,0.51,-0.09,1721199732791
1.37,0.42,9.60,0.29,-0.26,-0.02,1721199732801
-0.44,1.86,12.40,-0.25,0.27,-0.28,1721199732811
-1.28,1.86,13.37,0.20,-0.22,-0.13,1721199732821
-2.28,2.27,4.35,-0.06,0.15,-0.10,1721199732831
1.03,-4.26,11.43,-0.09,-0.02,0.04,1721199732841
-0.44,-0.29,9.36,0.06,-0.08,-0.03,1721199732851
-0.93,7.49,15.24,0.08,0.29,-0.22,1721199732861
-0.80,1.29,4.51,0.10,-0.13,-0.20,1721199732871
-2.78,-1.47,17.01,-0.23,0.21,-0.09,1721199732881
0.52,-3.18,9.59,0.20,-0.10,0.07,1721199732891
-1.34,4.23,0.40,0.00,0.06,-0.08,1721199732901
1.79,3.17,17.65,-0.07,0.24,-0.26,1721199732911
0.74,-1.12,10.55,0.20,-0.09,-0.01,1721199732921
-1.01,2.02,11.71,-0.10,0.08,-0.08,1721199732931
1.25,0.49,13.99,-0.07,-0.03,-0.12,1721199732941
-1.52,6.27,10.20,0.25,-0.25,-0.11,1721199732951
-1.07,0.83,3.52,-0.03,0.15,-0.25,1721199732961
-2.52,-6.19,7.11,-0.10,-0.21,-0.03,1721199732971
-2.67,0.61,11.41,0.07,0.06,0.10,1721199732981
1.39,5.05,12.50,0.08,0.19,0.03,1721199732991
1.50,3.33,9.00,0.04,-0.08,-0.17,1721199733001
-1.10,-1.73,10.00,-0.10,-0.00,-0.23,1721199733011
-2.29,2.08,12.06,0.21,0.17,-0.27,1721199733021
0.39,-0.64,8.98,-0.07,0.17,-0.08,1721199733031
-2.98,-3.17,11.19,-0.17,-0.39,0.11,1721199733041
-3.84,10.47,13.64,0.40,0.02,0.15,1721199733051
6.52,-4.75,1.85,-0.15,0.19,0.07,1721199733061
-1.98,-0.40,15.45,-0.07,-0.55,-0.06,1721199733071
-1.00,-0.43,4.00,0.03,0.15,-0.42,1721199733081
-2.51,3.50,16.68,0.06,0.18,-0.26,1721199733091
-3.94,2.16,6.96,0.05,0.03,0.06,1721199733101
-0.84,-1.41,14.27,-0.14,0.08,0.21,1721199733111
3.12,2.81,13.18,0.08,0.00,0.05,1721199733121
2.15,2.04,6.52,0.01,-0.06,-0.28,1721199733131
-2.27,3.96,11.07,0.09,-0.03,-0.27,1721199733141
-1.03,-1.56,6.39,-0.03,0.15,0.01,1721199733151
-0.53,-2.06,11.08,-0.07,-0.10,0.04,1721199733161
0.63,1.69,14.20,-0.04,0.11,-0.12,1721199733171
0.85,2.16,8.61,0.08,-0.06,-0.10,1721199733181
-1.15,3.24,13.01,-0.02,0.09,-0.01,1721199733191
-0.52,0.27,8.16,0.04,-0.04,-0.08,1721199733201
0.11,-2.43,6.36,-0.02,-0.03,-0.15,1721199733211
-0.49,1.81,18.15,-0.01,0.25,-0.24,1721199733221
-2.43,1.32,2.71,0.15,-0.21,-0.06,1721199733231
-3.14,4.70,11.92,-0.00,0.31,-0.00,1721199733241
3.63,-2.33,12.62,-0.02,0.18,-0.07,1721199733251
1.33,4.38,11.33,0.13,-0.25,-0.02,1721199733261
-0.63,3.23,6.20,-0.03,0.11,-0.28,1721199733271
-2.69,0.09,12.53,0.02,0.11,-0.30,1721199733281
-2.44,0.61,9.31,0.09,-0.04,0.06,1721199733291
-1.03,1.70,9.44,0.05,0.06,0.09,1721199733301
2.27,-1.50,9.87,-0.04,0.10,-0.06,1721199733311
0.10,-2.32,9.67,-0.03,-0.06,-0.20,1721199733321
-2.16,-0.81,5.15,-0.03,-0.04,-0.22,1721199733331
-0.16,6.86,13.94,0.24,0.24,0.02,1721199733341
3.32,4.24,10.75,0.04,0.27,-0.03,1721199733351
0.50,-1.01,8.61,-0.10,-0.24,-0.22,1721199733361
-4.00,-0.94,14.45,-0.07,0.08,-0.33,1721199733371
-1.90,-1.46,8.11,0.22,0.09,0.06,1721199733381
-1.78,1.55,6.01,-0.08,-0.02,0.29,1721199733391
-0.12,4.47,8.46,0.10,-0.13,0.07,1721199733401
4.38,-0.81,8.25,-0.09,0.23,-0.18,1721199733411
1.75,-2.24,17.45,-0.05,0.22,-0.45,1721199733421
-2.63,1.41,9.66,0.11,-0.01,-0.26,1721199733431
-3.73,3.05,9.94,0.03,0.10,0.15,1721199733441
1.31,1.91,10.91,0.05,0.08,0.25,1721199733451
3.21,1.64,9.40,0.10,-0.10,-0.15,1721199733461
0.21,-4.41,6.40,-0.16,-0.07,-0.31,1721199733471
-4.55,2.26,12.20,0.04,0.06,-0.28,1721199733481
-2.62,1.31,6.21,0.06,0.22,-0.03,1721199733491
-1.49,1.71,10.88,0.02,0.22,0.08,1721199733501
1.40,2.58,13.23,0.01,0.23,-0.01,1721199733511
3.03,-0.52,16.33,-0.02,0.04,-0.08,1721199733521
0.26,4.02,14.49,0.13,0.01,-0.19,1721199733531
-1.33,1.91,4.69,0.05,-0.08,-0.11,1721199733541
-3.23,0.19,6.80,0.07,-0.13,-0.02,1721199733551
-0.78,-0.47,4.96,0.03,0.12,0.05,1721199733561
1.16,-1.78,15.68,-0.09,0.20,-0.03,1721199733571
-0.52,4.24,12.30,0.22,-0.03,-0.02,1721199733581
-0.34,1.52,4.10,-0.02,0.08,-0.04,1721199733591
0.44,2.77,16.41,0.10,0.11,-0.11,1721199733601
2.25,-0.83,7.44,0.06,-0.02,0.00,1721199733611
-3.61,1.87,6.76,-0.02,-0.26,-0.09,1721199733621
-3.08,-3.68,9.60,-0.16,0.13,-0.04,1721199733631
-0.31,-1.01,15.70,0.07,0.10,0.09,1721199733641
0.95,2.49,6.36,0.09,0.05,-0.05,1721199733651
0.91,-0.23,9.68,-0.02,0.16,-0.15,1721199733661
-2.00,3.53,10.17,0.03,0.08,-0.14,1721199733671
-1.86,-0.68,7.13,-0.04,0.14,0.17,1721199733686
0.90,-2.54,11.07,-0.07,0.07,0.07,1721199733690
0.94,-1.58,13.44,-0.02,0.02,0.05,1721199733700
0.11,6.47,13.41,0.11,0.13,-0.12,1721199733710
-1.15,-3.29,4.08,-0.10,-0.11,-0.26,1721199733720
-4.43,-1.52,9.73,-0.08,0.09,-0.12,1721199733730
-0.68,2.76,14.02,0.04,0.28,0.12,1721199733740
1.07,1.40,12.91,-0.05,0.13,0.02,1721199733750
0.34,1.48,11.17,0.07,-0.02,-0.07,1721199733760
2.50,2.28,12.65,-0.05,0.28,-0.14,1721199733770
0.88,0.90,12.08,0.03,-0.11,-0.10,1721199733780
-2.29,1.26,13.10,0.02,0.04,-0.09,1721199733790
-2.60,2.42,7.80,0.11,-0.04,-0.09,1721199733800
-1.88,0.09,1.15,0.05,-0.14,0.12,1721199733810
1.37,-3.27,13.08,-0.26,0.35,0.16,1721199733820
2.15,2.71,15.92,0.24,0.04,-0.07,1721199733830
1.35,3.10,7.30,-0.13,0.19,-0.27,1721199733840
-2.61,2.16,13.40,0.04,-0.14,-0.14,1721199733850
-0.83,-1.98,13.87,-0.09,0.25,0.09,1721199733860
0.10,-0.69,7.65,0.13,-0.11,0.12,1721199733870
-0.29,5.63,12.45,-0.04,0.16,-0.09,1721199733880
0.55,-0.85,14.06,0.09,-0.05,-0.08,1721199733890
-2.51,-1.37,2.75,0.08,-0.23,-0.06,1721199733900
-0.22,0.80,12.02,-0.09,0.46,-0.15,1721199733910
1.53,2.98,14.33,0.13,0.09,-0.07,1721199733920
-1.87,1.68,4.83,0.04,-0.23,0.05,1721199733930
-2.35,-1.89,10.23,-0.13,0.10,-0.03,1721199733940
-0.61,1.35,13.73,0.13,-0.01,0.05,1721199733950
1.65,0.86,0.89,-0.01,-0.03,0.01,1721199733960
0.83,-2.39,18.01,-0.25,0.16,-0.25,1721199733970
-1.36,5.76,13.52,0.38,-0.09,-0.13,1721199733980
-1.46,-0.79,3.67,-0.18,0.08,-0.07,1721199733990
-3.33,-0.23,12.61,0.05,-0.11,0.02,1721199734000
0.58,-2.35,11.15,-0.12,0.25,0.06,1721199734010
-1.28,3.15,8.05,0.19,-0.20,0.00,1721199734020
0.58,-1.48,7.63,-0.22,0.18,-0.06,1721199734030
-0.34,1.72,12.14,0.15,-0.32,0.13,1721199734040
1.55,5.23,7.75,0.04,0.30,-0.05,1721199734050
0.79,-0.45,15.94,-0.14,0.21,-0.30,1721199734060
-2.24,-1.01,12.98,0.08,-0.22,-0.16,1721199734070
-4.53,1.16,5.56,0.04,-0.01,-0.01,1721199734080
-1.35,-0.46,9.09,-0.06,0.13,0.24,1721199734090
2.66,1.78,11.80,-0.00,0.09,0.12,1721199734100
3.88,-1.11,11.06,-0.09,-0.10,-0.13,1721199734110
-1.74,6.21,15.24,0.08,-0.07,-0.35,1721199734120
-2.41,-1.03,5.58,0.05,0.00,-0.05,1721199734130
-1.63,-3.16,14.46,-0.15,0.17,0.16,1721199734140
0.45,2.20,9.72,0.13,-0.07,0.19,1721199734150
0.06,5.43,11.29,-0.03,0.03,-0.20,1721199734160
-0.39,-0.71,4.70,0.09,-0.19,-0.11,1721199734170
-0.11,-7.27,8.64,-0.25,0.17,-0.05,1721199734180
-1.51,5.13,17.23,0.18,-0.01,-0.03,1721199734190
0.87,6.24,5.13,0.09,0.09,-0.16,1721199734200
0.16,1.58,15.00,-0.09,-0.01,-0.13,1721199734210
-1.13,-5.07,9.68,0.00,-0.08,0.01,1721199734220
-1.88,0.46,9.31,-0.01,-0.02,0.04,1721199734230
-2.07,2.51,8.72,0.01,0.04,-0.13,1721199734240
-2.07,0.14,10.63,-0.03,0.02,-0.07,1721199734250
-0.87,2.25,9.76,0.15,0.02,0.07,1721199734260
2.42,1.96,10.92,-0.02,0.24,-0.05,1721199734270
1.58,1.09,8.89,0.08,-0.12,-0.17,1721199734280
0.21,3.28,12.30,0.03,0.16,-0.10,1721199734290
-1.50,0.90,7.99,0.03,-0.09,-0.19,1721199734300
-2.77,1.75,12.67,0.04,-0.05,0.03,1721199734310
1.05,-2.09,8.40,-0.06,0.08,0.10,1721199734320
1.69,4.30,16.26,0.14,0.06,-0.15,1721199734330
-0.57,2.28,6.58,0.04,0.04,-0.35,1721199734340
-4.88,1.70,6.05,0.07,-0.14,-0.14,1721199734350
-1.77,-2.47,11.61,-0.10,0.30,0.09,1721199734360
2.11,1.30,11.56,0.07,0.02,0.24,1721199734370
1.73,5.18,11.46,-0.02,0.06,-0.08,1721199734380
0.79,1.05,13.68,-0.01,0.08,-0.29,1721199734390
-1.23,-0.69,9.92,0.08,-0.13,-0.21,1721199734400
-1.80,2.31,11.98,0.02,0.08,-0.05,1721199734410
-1.06,0.84,2.63,0.07,-0.15,-0.01,1721199734420
-1.81,1.41,8.16,-0.11,0.09,-0.09,1721199734430
0.45,-3.70,12.58,-0.13,0.09,-0.03,1721199734440
-1.07,0.80,10.84,0.10,-0.19,0.05,1721199734450
-0.26,3.80,11.74,0.03,0.29,-0.05,1721199734460
0.15,0.47,11.77,-0.09,0.05,-0.24,1721199734470
-3.81,1.49,7.10,0.10,-0.32,-0.06,1721199734480
-0.19,-2.18,6.17,-0.12,0.26,0.00,1721199734490
1.56,0.90,15.93,0.06,0.07,0.08,1721199734500
-0.10,1.29,7.20,-0.05,-0.05,-0.07,1721199734510
-1.42,1.78,10.13,0.02,-0.02,-0.16,1721199734520
0.22,-0.42,11.70,-0.11,0.23,-0.11,1721199734530
0.53,3.37,16.24,0.19,-0.01,0.12,1721199734540
-0.92,-3.56,0.70,-0.27,-0.13,-0.13,1721199734550
-3.65,-1.52,17.06,-0.02,-0.18,-0.14,1721199734560
-0.00,2.17,6.93,0.08,0.25,-0.16,1721199734570
-1.16,3.67,8.98,0.02,-0.01,0.02,1721199734580
-1.73,0.08,12.45,-0.12,0.17,0.01,1721199734590
0.99,0.95,11.20,0.06,0.07,0.01,1721199734600
1.67,3.01,7.65,0.04,0.01,-0.07,1721199734610
-0.37,2.95,9.20,-0.03,0.03,-0.15,1721199734620
-0.41,-0.90,8.83,0.01,-0.05,0.02,1721199734630
-0.64,-1.28,8.36,-0.06,-0.01,0.01,1721199734640
-0.71,2.50,17.52,0.10,0.01,-0.16,1721199734650
-0.01,2.05,3.76,0.15,-0.04,0.08,1721199734660
0.43,-1.19,11.41,-0.21,0.22,-0.03,1721199734670
-0.63,-1.88,9.42,0.05,-0.13,-0.09,1721199734680
-1.21,-1.47,14.08,-0.12,0.09,-0.02,1721199734690
-0.71,5.58,13.11,0.23,-0.00,0.03,1721199734700
-1.08,0.13,4.36,-0.11,-0.04,-0.09,1721199734710
-1.64,-0.26,12.08,0.06,-0.02,0.01,1721199734720
1.76,0.18,9.11,-0.02,0.22,0.01,1721199734730
0.63,1.10,9.50,0.05,-0.11,0.01,1721199734740
-0.63,1.94,13.51,-0.03,0.08,-0.04,1721199734750
1.55,3.81,15.58,0.17,0.07,-0.01,1721199734760
0.96,2.18,7.89,-0.00,-0.10,-0.10,1721199734770
-2.30,-0.75,5.14,0.04,-0.24,-0.18,1721199734780
-2.74,-0.55,8.58,-0.06,0.21,-0.05,1721199734790
-0.28,0.27,11.21,0.03,0.07,0.15,1721199734800
0.60,-0.18,11.97,-0.10,0.03,0.12,1721199734810
1.35,4.41,14.50,0.07,0.05,-0.18,1721199734820
0.45,1.34,7.85,-0.01,-0.04,-0.25,1721199734830
-3.39,-2.30,10.48,-0.10,-0.11,-0.06,1721199734840
-1.89,2.29,11.22,0.11,0.11,0.09,1721199734850
0.88,2.11,7.42,-0.03,0.03,0.00,1721199734860
-0.02,0.21,10.79,0.04,-0.15,-0.01,1721199734870
0.72,-1.09,9.22,-0.10,0.17,-0.04,1721199734880
0.06,3.33,13.35,0.04,-0.06,-0.14,1721199734890
-1.34,4.31,10.36,0.13,-0.02,-0.15,1721199734900
-0.29,0.95,9.28,-0.10,0.01,-0.05,1721199734910
-1.94,0.25,7.25,0.09,-0.36,-0.02,1721199734920
0.25,0.54,11.68,0.02,0.47,-0.16,1721199734930
0.70,-4.12,8.85,-0.11,-0.06,-0.05,1721199734940
-3.23,4.54,15.78,-0.01,-0.20,-0.02,1721199734950
1.88,4.47,9.17,0.24,0.16,-0.04,1721199734960
1.58,-0.20,6.69,-0.08,-0.03,-0.07,1721199734970
-2.21,-0.91,15.46,-0.06,-0.12,-0.21,1721199734980
-0.57,0.77,8.90,0.16,0.01,-0.13,1721199734990
0.06,1.75,7.93,-0.02,0.06,-0.09,1721199735000
-2.32,-1.50,12.35,-0.09,-0.02,-0.03,1721199735010
-0.61,-1.00,9.01,0.07,0.01,0.02,1721199735020
1.99,1.78,11.17,-0.07,0.19,-0.12,1721199735030
1.91,1.34,11.78,0.04,-0.09,-0.20,1721199735040
-1.34,1.31,9.44,0.04,-0.07,-0.22,1721199735050
-2.68,4.37,8.28,0.06,0.04,-0.16,1721199735060
-0.25,-0.56,7.53,0.00,0.09,-0.03,1721199735070
0.25,-4.81,10.72,-0.17,0.05,0.03,1721199735080
-0.13,0.82,12.79,0.04,-0.06,-0.03,1721199735090
0.20,7.03,10.02,0.16,0.09,-0.21,1721199735100
0.94,-1.00,8.22,-0.12,0.00,-0.13,1721199735110
-0.68,-2.60,11.95,-0.06,-0.20,0.01,1721199735120
-0.78,1.69,13.59,0.09,0.10,-0.22,1721199735130
-0.93,1.26,6.78,-0.00,0.09,-0.28,1721199735140
-3.45,1.40,13.95,0.02,-0.00,-0.09,1721199735150
-1.24,-2.43,8.36,-0.00,0.01,0.12,1721199735160
1.19,2.25,16.09,0.08,0.07,0.11,1721199735170
1.89,1.85,4.64,0.10,-0.01,-0.18,1721199735180
-0.84,0.31,12.92,-0.11,0.00,-0.35,1721199735190
-2.31,1.63,8.84,0.23,-0.18,-0.00,1721199735200
0.15,-2.31,4.72,-0.12,0.26,0.04,1721199735210
0.57,-3.62,11.01,-0.05,-0.03,-0.08,1721199735220
-1.38,3.88,13.92,0.05,0.02,-0.25,1721199735230
-0.17,5.02,8.41,0.07,0.19,-0.26,1721199735240
-0.74,-1.72,12.25,-0.05,0.05,-0.02,1721199735250
-0.75,-0.11,11.41,0.11,-0.06,0.15,1721199735260
1.71,4.91,8.09,0.05,0.12,-0.12,1721199735270
1.08,-0.52,12.61,-0.01,-0.03,-0.23,1721199735280
-2.72,-0.63,11.84,0.08,-0.07,-0.16,1721199735290
-1.17,-2.11,4.24,0.03,0.04,0.01,1721199735300
-0.54,-0.90,9.30,-0.09,0.08,-0.07,1721199735310
0.53,5.76,13.73,0.17,0.18,-0.13,1721199735320
0.93,2.95,6.65,0.01,0.04,-0.28,1721199735330
-1.97,-3.68,11.76,-0.07,-0.14,-0.11,1721199735340
-2.85,1.19,10.00,0.13,0.07,0.04,1721199735350
0.83,0.02,7.76,-0.05,0.16,0.06,1721199735360
-0.89,4.61,14.96,0.15,-0.01,-0.18,1721199735370
0.33,-0.22,6.17,0.04,0.13,-0.19,1721199735380
-0.66,-1.15,14.09,-0.02,0.03,-0.00,1721199735390
-0.85,0.81,8.82,0.02,0.03,0.02,1721199735400
-0.15,0.57,14.36,-0.05,0.04,-0.20,1721199735410
-0.73,3.73,8.74,0.28,-0.02,-0.26,1721199735420
-1.92,2.02,5.81,-0.03,0.05,-0.20,1721199735430
-2.95,-0.01,10.94,-0.04,-0.05,0.18,1721199735440
-2.18,-2.55,5.29,-0.07,-0.11,0.10,1721199735450
2.19,-0.84,17.64,0.03,0.44,-0.08,1721199735460
3.96,-1.02,8.92,0.14,-0.04,-0.09,1721199735470
-1.64,11.76,19.05,0.16,0.00,-0.11,1721199735480
1.26,5.15,6.33,0.15,-0.02,-0.16,1721199735490
-0.47,1.19,7.21,0.03,-0.20,-0.01,1721199735500
-1.45,-8.72,7.20,-0.23,0.12,0.01,1721199735510
-1.57,-3.27,15.39,0.00,-0.02,0.02,1721199735520
-0.24,7.25,10.04,0.30,-0.03,0.02,1721199735530
1.18,5.55,6.15,0.02,0.09,-0.06,1721199735540
0.26,-0.67,9.68,-0.09,0.01,-0.19,1721199735550
0.78,-3.88,14.49,-0.08,0.13,-0.16,1721199735560
0.62,-4.19,11.06,-0.01,0.04,-0.16,1721199735570
-3.96,4.30,6.84,0.08,-0.14,-0.07,1721199735580
-3.80,7.63,8.67,0.08,0.19,-0.15,1721199735590
0.49,-1.80,3.30,-0.16,-0.05,0.16,1721199735600
1.33,-1.00,15.62,-0.12,0.02,0.20,1721199735610
4.70,-1.67,12.41,-0.01,0.20,-0.19,1721199735620
0.27,6.14,14.11,0.22,-0.04,-0.35,1721199735630
-3.65,1.88,4.97,-0.04,-0.10,-0.25,1721199735640
-5.28,-1.51,7.80,-0.01,-0.21,0.19,1721199735650
-1.12,-0.07,12.03,-0.16,0.30,0.30,1721199735660
3.24,-0.55,13.67,0.05,-0.01,0.13,1721199735670
2.50,0.71,10.60,-0.05,0.00,-0.18,1721199735680
-2.02,-0.04,3.07,0.08,-0.21,-0.15,1721199735695
-0.89,0.33,3.03,-0.03,-0.08,-0.20,1721199735699
-3.18,-4.09,12.80,-0.16,-0.10,0.03,1721199735709
-1.19,-2.55,7.72,-0.02,-0.13,0.17,1721199735719
0.41,6.23,16.51,0.06,0.16,0.02,1721199735729
3.67,4.51,3.65,0.20,0.00,-0.09,1721199735739
1.45,-0.99,8.28,-0.23,0.16,-0.37,1721199735749
-2.04,-0.95,15.80,-0.01,-0.05,-0.19,1721199735759
-4.23,-0.10,12.63,0.01,-0.04,-0.01,1721199735769
-2.14,6.55,7.99,0.22,-0.08,0.34,1721199735779
2.76,-2.60,5.12,-0.21,0.03,0.13,1721199735789
1.88,3.19,12.55,0.05,-0.23,-0.06,1721199735799
3.55,-2.06,12.49,-0.14,0.32,-0.40,1721199735809
-3.16,0.77,8.58,0.19,-0.34,-0.18,1721199735819
-3.88,-4.29,4.61,-0.34,0.10,0.16,1721199735829
0.61,1.34,21.83,0.10,0.06,0.29,1721199735839
5.78,7.51,11.45,0.21,0.11,-0.04,1721199735849
1.80,2.69,2.81,-0.09,-0.25,-0.43,1721199735859
-5.37,-0.57,15.25,-0.12,0.01,-0.48,1721199735869
-3.44,-4.76,9.48,0.04,0.06,0.04,1721199735879
-1.41,1.41,9.57,-0.00,0.04,0.39,1721199735889
3.49,7.45,16.80,0.09,0.24,0.03,1721199735899
2.28,3.88,2.77,0.02,-0.42,-0.31,1721199735909
-3.03,-2.82,7.17,-0.12,-0.21,-0.30,1721199735919
1.66,-6.14,14.17,-0.13,0.53,-0.11,1721199735929
-0.44,-0.27,9.29,-0.01,-0.25,-0.11,1721199735939
-5.11,9.03,8.47,0.15,0.06,-0.25,1721199735949
1.92,-1.38,13.15,-0.06,0.27,-0.13,1721199735959
1.42,0.01,13.81,0.07,-0.28,0.15,1721199735969
2.06,0.58,7.61,-0.10,0.05,-0.07,1721199735979
1.79,2.82,18.56,-0.07,0.08,-0.53,1721199735989
-3.62,5.82,7.16,0.37,-0.25,-0.37,1721199735999
-6.04,-5.95,3.46,-0.32,0.13,-0.13,1721199736009
-4.58,-1.19,15.86,0.03,-0.12,0.26,1721199736019
3.91,0.91,13.83,-0.07,0.39,0.27,1721199736029
4.64,4.35,8.89,0.17,-0.25,-0.14,1721199736039
0.47,7.22,8.68,0.02,0.16,-0.51,1721199736049
-0.31,-3.03,10.19,-0.02,-0.04,-0.31,1721199736059
-2.69,0.72,14.70,0.09,-0.08,-0.00,1721199736069
-0.41,-1.19,5.71,-0.02,0.02,0.04,1721199736079
-1.31,5.38,12.91,0.14,-0.07,-0.19,1721199736089
-0.33,3.93,9.22,0.05,0.12,-0.23,1721199736099
-2.50,2.45,5.22,0.20,-0.28,-0.06,1721199736109
-0.17,-5.04,9.44,-0.23,0.23,0.05,1721199736119
0.83,-2.15,15.20,-0.01,-0.13,-0.04,1721199736129
-0.42,6.48,8.67,0.21,-0.08,-0.21,1721199736139
-0.41,4.82,9.46,0.04,0.18,-0.23,1721199736149
-1.17,-0.39,9.75,0.01,-0.11,-0.07,1721199736159
-0.27,-2.06,16.96,-0.08,0.27,-0.08,1721199736169
-0.47,0.14,7.97,0.07,-0.12,-0.24,1721199736179
-1.99,6.83,11.44,0.22,-0.00,-0.13,1721199736189
2.12,-1.13,4.62,-0.04,0.02,0.07,1721199736199
-0.43,1.62,12.09,0.02,-0.28,0.02,1721199736209
1.61,1.88,11.19,-0.04,0.24,-0.32,1721199736219
-1.24,1.22,8.32,0.08,-0.23,-0.29,1721199736229
-4.20,2.35,9.50,0.05,0.10,-0.07,1721199736239
0.15,-6.43,9.60,-0.15,0.20,0.11,1721199736249
0.24,1.03,11.99,0.04,-0.20,0.08,1721199736259
3.52,3.15,9.50,-0.05,0.15,-0.16,1721199736269
0.56,3.10,15.81,0.02,-0.01,-0.45,1721199736279
-2.80,4.93,7.03,0.22,-0.11,-0.20,1721199736289
-1.08,-3.62,5.21,-0.18,0.19,-0.14,1721199736299
-1.31,-2.17,11.95,-0.04,-0.02,-0.14,1721199736309
-0.91,1.91,11.82,-0.07,0.17,-0.17,1721199736319
-0.85,5.43,8.20,0.25,-0.08,-0.04,1721199736329
3.23,-3.61,9.31,-0.17,0.24,0.11,1721199736339
3.60,-2.09,15.28,0.06,0.02,-0.12,1721199736349
0.42,7.85,8.35,0.16,0.09,-0.62,1721199736359
-2.26,0.15,10.75,-0.11,0.07,-0.55,1721199736369
-6.59,-0.22,12.44,0.20,-0.11,-0.02,1721199736379
-1.76,1.69,7.65,0.03,0.39,0.29,1721199736389
4.57,-4.42,10.32,-0.20,0.06,0.04,1721199736399
0.97,1.52,13.50,0.04,-0.18,-0.29,1721199736409
-0.44,1.98,11.83,0.18,0.33,-0.44,1721199736419
-3.47,1.53,7.25,0.05,-0.01,-0.23,1721199736429
-2.19,2.14,9.43,0.11,0.08,0.02,1721199736439
4.16,1.57,12.42,0.04,0.45,-0.15,1721199736449
1.70,-1.77,9.46,0.06,-0.13,-0.38,1721199736459
-5.83,5.48,9.71,0.19,-0.12,-0.24,1721199736469
-2.32,-0.32,4.40,-0.03,0.23,-0.05,1721199736479
-0.42,-3.15,11.38,-0.05,-0.01,0.06,1721199736489
1.59,-0.67,13.15,-0.11,0.21,-0.09,1721199736499
0.17,4.45,14.27,0.26,-0.05,-0.33,1721199736509
-2.64,1.69,4.08,0.03,0.08,-0.22,1721199736519
-3.21,-0.81,6.08,-0.03,-0.02,0.15,1721199736529
1.73,0.31,15.06,-0.15,0.41,0.16,1721199736539
2.48,2.32,14.12,0.11,0.01,-0.13,1721199736549
-2.71,-0.17,3.14,-0.02,-0.25,-0.11,1721199736559
-3.58,-3.32,8.31,-0.23,0.14,0.11,1721199736569
3.28,-0.42,14.77,-0.01,0.31,0.14,1721199736579
4.30,3.13,10.01,0.04,0.09,-0.17,1721199736589
-0.67,6.11,13.70,0.01,0.10,-0.44,1721199736599
-3.40,-2.30,10.52,-0.12,-0.02,-0.18,1721199736609
-6.45,2.36,12.36,0.00,0.04,0.21,1721199736619
0.17,2.21,4.49,0.05,0.20,0.25,1721199736629
5.96,-0.16,14.98,-0.12,0.21,0.17,1721199736639
2.28,-0.02,9.20,-0.00,-0.19,-0.07,1721199736649
-3.89,5.12,9.66,-0.08,-0.11,-0.24,1721199736659
-0.91,2.98,13.68,0.06,0.14,-0.02,1721199736669
3.18,3.51,5.94,0.09,0.20,0.11,1721199736679
1.30,-2.64,8.03,-0.19,-0.03,-0.17,1721199736689
-3.78,-2.52,13.00,-0.02,-0.18,-0.28,1721199736699
-4.13,6.31,10.21,0.28,0.18,-0.00,1721199736709
1.62,1.89,7.21,-0.04,0.23,0.19,1721199736719
2.18,1.74,17.20,-0.03,-0.08,0.17,1721199736729
2.60,-0.39,6.15,0.03,-0.03,-0.22,1721199736739
-1.09,2.53,10.43,0.13,0.01,-0.40,1721199736749
-3.94,-0.83,9.24,0.04,0.16,-0.13,1721199736759
-3.90,1.61,10.08,0.09,-0.02,0.22,1721199736769
0.80,1.55,10.57,-0.05,0.21,0.17,1721199736779
2.56,0.88,8.63,0.00,-0.02,-0.03,1721199736789
2.57,-1.08,11.12,0.02,0.06,-0.12,1721199736799
1.09,1.56,22.08,-0.00,0.22,-0.25,1721199736809
-4.18,6.33,-2.82,0.45,-0.37,-0.12,1721199736819
-1.93,0.93,6.81,-0.34,0.59,-0.05,1721199736829
-4.53,-12.18,17.90,-0.20,0.46,0.08,1721199736839
-3.05,6.13,16.58,0.22,-0.07,-0.04,1721199736849
0.21,4.06,-3.58,0.07,0.11,-0.21,1721199736859
-1.64,-2.73,15.64,-0.32,0.34,-0.20,1721199736869
0.51,-1.28,22.41,0.14,0.07,-0.03,1721199736879
-0.26,2.24,1.04,0.14,-0.10,-0.01,1721199736889
-2.04,5.99,11.94,-0.05,0.30,-0.18,1721199736899
0.33,2.71,7.49,0.15,0.00,-0.05,1721199736909
-0.10,-2.36,8.61,-0.13,-0.10,0.10,1721199736919
0.34,0.74,16.05,0.02,0.14,-0.10,1721199736929
0.82,0.42,5.58,0.15,0.08,-0.30,1721199736939
-2.38,-2.57,7.70,-0.18,0.07,-0.24,1721199736949
-2.96,1.13,14.25,0.08,-0.06,0.13,1721199736959
1.89,7.33,11.70,0.22,0.21,0.12,1721199736969
4.77,4.75,6.26,0.11,0.10,-0.28,1721199736979
-1.21,-5.65,8.77,-0.17,-0.10,-0.49,1721199736989
-7.42,-0.24,14.54,0.07,0.14,-0.35,1721199736999
-4.07,1.85,6.75,0.18,0.17,0.16,1721199737009
0.54,6.30,9.46,0.08,0.24,0.37,1721199737019
4.22,-1.58,7.01,-0.20,-0.06,0.13,1721199737029
2.43,2.97,20.31,0.07,0.10,-0.36,1721199737039
1.86,-3.45,4.29,0.01,0.15,-0.50,1721199737049
-6.77,-1.07,10.99,-0.15,-0.08,-0.19,1721199737059
-4.30,3.97,14.05,0.25,0.28,0.27,1721199737069
2.57,1.41,2.33,-0.11,0.14,0.22,1721199737079
2.03,2.89,11.84,-0.04,-0.06,-0.14,1721199737089
3.90,-2.87,11.37,-0.16,0.37,-0.48,1721199737099
-2.35,-2.68,13.42,0.06,-0.08,-0.32,1721199737109
-6.16,0.82,9.20,0.02,0.03,0.10,1721199737119
-2.19,7.68,12.30,0.25,0.21,0.24,1721199737129
3.97,1.43,-0.36,-0.07,0.09,0.16,1721199737139
0.18,-5.91,16.14,-0.37,0.07,-0.18,1721199737149
-3.03,-1.64,10.67,0.22,-0.09,-0.25,1721199737159
-1.01,-0.69,12.41,-0.06,0.57,-0.08,1721199737169
-1.05,1.03,9.98,0.16,-0.11,0.30,1721199737179
0.47,8.88,14.63,0.06,0.30,0.10,1721199737189
4.28,0.21,4.45,0.11,-0.14,-0.10,1721199737199
-1.37,-0.30,11.88,-0.11,0.25,-0.33,1721199737209
-2.84,-0.87,14.40,0.03,0.14,-0.30,1721199737219
-4.11,2.64,1.91,0.27,-0.15,0.08,1721199737229
-2.77,4.47,9.71,-0.13,0.44,0.01,1721199737239
1.41,-2.26,13.03,0.05,-0.01,0.23,1721199737249
0.97,0.29,13.13,0.00,0.10,0.19,1721199737259
2.17,0.97,11.49,-0.03,0.16,-0.09,1721199737269
0.73,3.12,11.39,0.24,0.01,-0.29,1721199737279
-1.48,0.91,6.33,0.05,0.06,-0.15,1721199737289
-6.03,-0.34,3.57,-0.00,-0.19,0.14,1721199737299
-3.67,8.78,12.39,0.06,0.31,0.31,1721199737309
7.44,-5.41,10.73,-0.08,0.14,0.27,1721199737319
3.60,-7.39,10.71,-0.25,-0.22,-0.06,1721199737329
-2.92,4.84,13.86,0.20,0.11,-0.47,1721199737339
-3.51,5.58,6.09,0.12,0.21,-0.35,1721199737349
-3.99,1.87,11.05,-0.02,0.05,0.27,1721199737359
1.07,-3.62,12.60,-0.13,0.23,0.53,1721199737369
3.01,1.69,8.40,0.04,0.00,-0.01,1721199737379
3.20,-0.11,13.86,-0.17,0.28,-0.39,1721199737389
-1.83,2.42,8.54,0.25,-0.16,-0.14,1721199737399
-4.10,1.65,11.32,-0.25,0.26,-0.02,1721199737409
-1.96,1.20,13.32,0.10,-0.03,0.32,1721199737419
3.56,3.12,13.04,0.01,0.32,0.24,1721199737429
4.98,-2.67,6.79,-0.14,-0.06,-0.15,1721199737439
-2.63,0.98,12.16,0.04,-0.12,-0.42,1721199737449
-3.09,-0.35,3.64,0.12,0.19,-0.17,1721199737459
-1.26,-0.75,16.66,-0.14,0.29,0.20,1721199737469
-0.88,5.95,7.58,0.26,-0.14,0.35,1721199737479
3.57,-0.45,6.22,-0.32,0.34,-0.23,1721199737489
1.17,0.55,14.74,0.16,-0.13,-0.39,1721199737499
-1.90,-2.88,12.14,-0.09,0.42,-0.37,1721199737509
-8.35,2.43,8.18,0.16,-0.26,0.16,1721199737519
-2.87,1.60,8.78,-0.17,0.35,0.58,1721199737529
6.32,2.28,19.45,0.11,0.30,0.37,1721199737539
6.53,-1.09,5.37,0.08,-0.12,-0.27,1721199737549
-2.12,3.17,9.81,-0.00,0.02,-0.54,1721199737559
-4.98,5.48,10.25,0.24,0.17,-0.23,1721199737569
-2.43,0.85,9.50,-0.05,0.16,0.27,1721199737579
-0.25,-5.34,9.15,-0.12,-0.13,0.37,1721199737589
0.37,0.89,17.39,0.05,0.12,-0.08,1721199737599
1.38,0.82,3.73,0.14,0.01,-0.36,1721199737609
-3.77,2.26,10.49,-0.05,0.11,-0.35,1721199737619
-4.14,2.65,8.76,0.13,0.14,0.12,1721199737629
0.17,0.77,12.72,-0.16,0.20,0.30,1721199737639
1.92,1.48,10.44,0.10,-0.08,0.17,1721199737649
2.69,-0.89,10.65,-0.06,0.18,-0.20,1721199737659
-1.79,2.46,10.92,0.17,-0.04,-0.12,1721199737669
-4.07,2.52,5.24,0.01,0.04,0.07,1721199737679
-1.76,-2.81,10.61,-0.16,-0.04,0.37,1721199737689
4.68,1.61,14.11,0.05,0.09,0.08,1721199737704
4.15,1.98,12.20,0.04,0.08,-0.01,1721199737708
0.91,2.51,9.49,0.03,0.06,-0.31,1721199737718
-3.38,-1.00,8.55,-0.09,-0.03,-0.06,1721199737728
-4.74,0.83,12.80,0.01,0.02,0.18,1721199737738
-0.96,6.39,12.13,0.03,0.13,0.37,1721199737748
4.57,1.27,8.38,-0.03,-0.04,0.34,1721199737758
2.99,-5.20,10.65,-0.30,-0.08,-0.08,1721199737768
-2.16,1.30,14.29,0.19,-0.06,-0.22,1721199737778
-5.06,3.00,2.83,-0.07,-0.01,-0.08,1721199737788
-4.61,0.78,7.44,-0.08,-0.23,0.51,1721199737798
2.62,2.94,16.65,-0.08,0.34,0.47,1721199737808
8.29,-0.80,15.11,-0.01,-0.02,0.10,1721199737818
0.54,-1.28,11.32,-0.07,-0.34,-0.29,1721199737828
-7.03,3.28,3.89,0.11,-0.14,-0.13,1721199737838
-3.55,2.17,8.08,-0.07,0.20,0.31,1721199737848
1.35,1.81,10.33,-0.03,-0.11,0.59,1721199737858
4.51,2.70,12.98,-0.05,0.02,0.16,1721199737868
4.92,-3.71,8.50,-0.11,-0.16,-0.24,1721199737878
-1.75,-0.41,17.01,-0.01,0.04,-0.43,1721199737888
-5.88,4.84,6.55,0.20,-0.08,-0.10,1721199737898
-5.16,2.26,8.95,-0.11,0.01,0.33,1721199737908
2.13,2.37,11.78,0.09,-0.01,0.36,1721199737918
7.19,-2.46,8.97,-0.12,0.10,-0.02,1721199737928
0.54,-0.33,9.03,-0.00,-0.24,-0.42,1721199737938
-5.70,0.54,9.28,-0.05,-0.04,-0.41,1721199737948
-4.53,6.98,12.76,0.21,0.06,0.01,1721199737958
0.23,2.51,6.15,-0.01,-0.01,0.29,1721199737968
1.62,-0.02,14.38,0.01,-0.03,0.04,1721199737978
2.72,-5.04,4.63,-0.02,-0.03,-0.27,1721199737988
-3.19,5.18,11.07,0.03,0.04,-0.36,1721199737998
-2.72,4.94,10.65,0.18,0.03,-0.14,1721199738008
-2.82,4.90,12.30,0.00,0.05,0.19,1721199738018
2.11,-7.33,12.81,-0.26,0.03,0.19,1721199738028
1.38,-3.10,12.26,0.04,-0.10,-0.05,1721199738038
0.79,5.53,7.64,0.10,0.20,-0.44,1721199738048
-1.37,7.85,8.27,0.20,-0.05,-0.18,1721199738058
-1.15,3.34,8.01,-0.04,0.05,0.20,1721199738068
2.72,-3.65,15.43,-0.23,0.15,0.05,1721199738078
2.44,-5.37,11.41,-0.03,-0.21,-0.25,1721199738088
-3.02,1.91,11.28,-0.02,0.09,-0.34,1721199738098
-4.02,8.16,1.29,0.32,-0.04,-0.16,1721199738108
0.64,-6.12,8.97,-0.45,0.35,0.02,1721199738118
-0.21,4.69,21.36,0.23,-0.23,-0.08,1721199738128
2.47,1.57,5.04,-0.13,0.31,-0.22,1721199738138
-1.83,0.34,10.79,0.00,-0.19,-0.25,1721199738148
-3.02,0.89,10.56,0.08,0.20,-0.19,1721199738158
-1.46,-2.01,3.96,0.02,0.08,-0.00,1721199738168
-2.75,0.15,12.18,-0.20,0.05,0.01,1721199738178
0.11,7.86,16.26,0.23,0.14,0.23,1721199738188
6.20,2.37,8.42,-0.01,0.25,-0.01,1721199738198
2.17,-3.04,13.83,0.02,-0.14,-0.35,1721199738208
-4.24,-2.72,7.69,-0.03,-0.08,-0.31,1721199738218
-6.08,4.26,10.02,0.13,0.08,-0.07,1721199738228
-1.42,1.08,7.51,0.08,0.22,0.28,1721199738238
1.60,-1.06,10.71,-0.03,0.03,0.35,1721199738248
3.25,5.47,15.57,0.15,0.19,-0.18,1721199738258
2.73,-3.34,5.62,-0.08,-0.00,-0.50,1721199738268
-7.03,7.21,15.48,0.29,-0.16,-0.38,1721199738278
-4.51,-0.26,5.13,0.03,0.32,0.22,1721199738288
-2.87,-0.30,10.46,0.11,-0.21,0.61,1721199738298
3.18,0.85,9.64,0.07,0.26,0.23,1721199738308
5.61,-2.61,7.81,-0.09,0.01,-0.20,1721199738318
-2.39,7.24,13.82,0.17,-0.15,-0.30,1721199738328
-2.04,1.03,6.69,0.05,0.35,-0.14,1721199738338
-1.77,-1.57,8.92,0.01,-0.15,0.26,1721199738348
0.23,-0.68,12.44,-0.07,0.10,0.37,1721199738358
2.52,2.33,10.96,0.16,0.02,-0.02,1721199738368
-0.74,1.31,2.28,-0.07,-0.10,-0.26,1721199738378
-5.14,-2.69,9.54,-0.18,-0.08,-0.07,1721199738388
-2.89,0.59,13.12,0.12,0.18,0.24,1721199738398
3.04,-0.85,14.06,-0.09,0.37,0.24,1721199738408
2.11,4.97,14.81,0.18,-0.17,0.03,1721199738418
1.32,4.64,3.31,0.03,0.05,-0.20,1721199738428
-0.30,-0.91,9.26,-0.01,-0.05,-0.01,1721199738438
-3.68,-0.74,10.31,-0.12,0.04,0.17,1721199738448
-1.50,2.83,15.40,0.01,0.06,0.22,1721199738458
1.58,0.14,4.49,-0.02,-0.04,0.19,1721199738468
1.02,0.61,10.58,-0.21,0.11,0.02,1721199738478
1.98,-1.14,15.61,-0.03,0.07,-0.10,1721199738488
-0.05,2.08,10.27,0.09,-0.07,-0.03,1721199738498
-0.80,3.84,12.34,-0.02,0.08,0.03,1721199738508
-2.96,3.04,6.20,0.07,-0.22,0.04,1721199738518
-2.04,1.80,12.08,-0.05,0.24,-0.05,1721199738528
1.06,-3.90,7.62,-0.08,0.08,-0.04,1721199738538
-1.41,-0.37,16.98,-0.12,-0.10,0.06,1721199738548
-1.23,3.48,10.70,0.18,-0.10,0.17,1721199738558
0.96,0.79,7.54,-0.06,0.05,0.22,1721199738568
1.66,0.88,13.50,-0.02,-0.09,0.14,1721199738578
0.24,2.82,8.94,0.06,-0.06,-0.15,1721199738588
-1.40,2.49,8.54,0.08,0.04,-0.24,1721199738598
-2.66,-6.14,5.17,-0.16,-0.12,0.11,1721199738608
-3.44,0.57,15.63,-0.05,-0.03,0.42,1721199738618
2.62,5.61,10.35,0.12,0.09,0.32,1721199738628
5.22,3.09,11.45,0.06,-0.09,-0.13,1721199738638
-0.48,-2.46,3.92,-0.09,-0.20,-0.33,1721199738648
-5.37,-0.24,15.71,-0.05,0.02,-0.10,1721199738658
-3.14,0.24,3.35,0.14,-0.13,0.27,1721199738668
-0.51,3.45,16.94,-0.09,0.14,0.35,1721199738678
3.46,-1.63,8.47,0.11,-0.13,0.27,1721199738688
0.91,2.07,10.70,-0.20,-0.04,-0.16,1721199738698
0.80,-0.69,10.86,0.07,-0.10,-0.24,1721199738708
-1.40,1.30,12.70,0.16,0.06,-0.02,1721199738718
-2.48,2.90,8.56,0.13,-0.03,0.27,1721199738728
-0.40,4.01,9.06,0.05,-0.14,0.25,1721199738738
3.57,-0.68,8.66,-0.08,-0.06,0.07,1721199738748
2.81,0.89,13.86,0.02,-0.04,-0.34,1721199738758
-1.83,-1.88,2.10,0.13,-0.35,-0.14,1721199738768
-5.23,0.30,12.84,-0.19,0.16,0.11,1721199738778
0.84,3.99,16.00,0.20,0.13,0.24,1721199738788
4.07,1.88,9.25,-0.09,-0.06,0.04,1721199738798
0.59,3.36,10.21,0.12,-0.23,-0.22,1721199738808
0.32,-0.88,9.68,-0.07,0.22,-0.37,1721199738818
-3.63,-0.64,9.11,0.17,-0.33,0.08,1721199738828
-4.80,-1.54,4.29,-0.29,-0.14,0.26,1721199738838
0.67,4.12,16.29,0.09,-0.03,0.27,1721199738848
5.87,1.67,10.51,0.02,0.13,-0.03,1721199738858
1.38,-1.52,6.05,-0.09,-0.30,-0.25,1721199738868
-3.53,-0.54,10.70,-0.05,0.01,-0.21,1721199738878
-1.74,-3.97,11.36,-0.14,0.09,0.05,1721199738888
-0.74,6.99,13.67,0.24,-0.18,0.21,1721199738898
4.74,3.20,5.16,-0.07,0.13,-0.09,1721199738908
0.72,4.92,13.08,0.14,-0.17,-0.40,1721199738918
-2.04,-3.07,4.48,-0.16,-0.04,-0.39,1721199738928
-4.63,-0.65,15.54,0.04,-0.03,-0.07,1721199738938
-0.94,-5.83,8.69,-0.06,0.07,0.28,1721199738948
0.18,9.54,16.22,0.24,-0.10,0.28,1721199738958
4.24,7.23,3.33,0.08,-0.04,-0.08,1721199738968
1.90,-2.70,11.89,-0.17,-0.05,-0.43,1721199738978
-1.32,-4.59,11.89,0.16,-0.04,-0.36,1721199738988
-4.70,0.43,9.97,-0.04,0.11,-0.25,1721199738998
-4.85,6.75,6.59,0.39,-0.26,0.40,1721199739008
3.91,-0.62,12.39,-0.28,0.48,0.33,1721199739018
3.96,1.00,14.46,0.26,-0.35,-0.09,1721199739028
4.31,0.16,12.23,-0.23,0.27,-0.70,1721199739038
-4.32,2.61,13.54,0.36,-0.37,-0.54,1721199739048
-8.40,-1.51,6.82,-0.09,0.17,-0.01,1721199739058
-3.34,-0.73,11.86,0.14,-0.14,0.54,1721199739068
5.11,2.41,11.45,0.02,0.18,0.39,1721199739078
5.90,6.10,9.98,0.23,-0.10,-0.11,1721199739088
1.66,-1.36,8.40,-0.18,0.01,-0.51,1721199739098
-4.69,-0.24,9.70,0.17,-0.29,-0.22,1721199739108
-2.91,-4.58,8.27,-0.23,0.24,0.10,1721199739118
-0.92,6.22,19.33,0.22,-0.03,0.32,1721199739128
5.42,3.48,6.47,-0.04,0.06,0.12,1721199739138
2.37,-0.35,7.55,0.04,-0.30,-0.29,1721199739148
-1.53,-1.24,11.31,-0.07,0.33,-0.50,1721199739158
-3.21,-4.75,13.99,-0.03,-0.02,-0.21,1721199739168
-5.09,6.62,7.80,0.27,-0.16,0.17,1721199739178
4.02,0.35,9.08,-0.34,0.36,0.15,1721199739188
2.37,3.56,15.95,0.21,-0.30,-0.11,1721199739198
0.59,-2.73,5.30,-0.17,0.13,-0.42,1721199739208
-3.39,0.20,10.00,0.08,-0.15,-0.28,1721199739218
-1.74,-0.85,9.46,-0.14,0.14,0.07,1721199739228
-1.64,3.30,7.38,0.15,-0.20,0.19,1721199739238
1.92,1.81,11.58,-0.19,0.28,-0.02,1721199739248
3.89,0.97,14.95,-0.01,0.03,-0.23,1721199739258
-0.20,-1.23,12.24,-0.12,-0.16,-0.49,1721199739268
-5.40,0.18,9.25,0.03,-0.19,-0.21,1721199739278
-3.62,2.21,5.72,0.14,0.15,0.19,1721199739288
2.75,-3.23,11.36,-0.31,0.33,0.04,1721199739298
0.25,5.50,18.15,0.22,-0.33,-0.11,1721199739308
0.76,-0.72,5.24,-0.21,0.14,-0.22,1721199739318
-2.44,6.73,17.38,0.19,-0.11,-0.20,1721199739328
1.21,-7.62,2.13,-0.19,-0.04,-0.13,1721199739338
-3.53,5.71,12.85,0.23,-0.24,-0.09,1721199739348
1.99,-4.60,10.80,-0.23,0.50,-0.18,1721199739358
-3.41,6.61,12.53,0.29,-0.45,0.05,1721199739368
2.60,5.60,12.47,0.02,0.53,0.03,1721199739378
2.71,-5.83,4.94,0.05,-0.41,0.02,1721199739388
-3.76,3.22,10.54,-0.02,0.08,-0.23,1721199739398
3.09,1.81,13.31,0.14,0.34,-0.28,1721199739408
-0.59,-1.24,7.80,0.01,-0.20,-0.13,1721199739418
-4.68,0.52,11.88,-0.08,-0.08,-0.06,1721199739428
-1.46,4.03,10.37,0.20,0.09,0.00,1721199739438
1.68,0.19,8.54,-0.02,0.21,-0.06,1721199739448
-1.20,-1.05,10.32,-0.05,-0.09,-0.15,1721199739458
-2.32,0.87,12.75,0.00,-0.08,-0.02,1721199739468
1.36,4.81,16.11,0.13,0.20,0.04,1721199739478
3.48,1.40,9.83,0.04,-0.01,-0.06,1721199739488
-0.97,2.32,7.49,0.13,-0.24,-0.35,1721199739498
-1.88,-4.33,3.90,-0.10,0.13,-0.32,1721199739508
-4.45,-2.97,12.18,-0.05,-0.09,-0.00,1721199739518
-0.60,5.21,13.97,0.25,0.04,0.37,1721199739528
5.66,0.09,5.09,-0.07,0.06,0.08,1721199739538
1.49,2.93,15.83,-0.04,-0.22,-0.45,1721199739548
-0.62,0.61,9.67,0.17,0.11,-0.55,1721199739558
-3.69,-1.33,5.30,0.06,0.02,-0.16,1721199739568
-3.81,0.33,8.81,-0.02,-0.06,0.35,1721199739578
2.11,0.71,17.38,-0.03,0.19,0.23,1721199739588
3.67,4.12,5.60,0.18,-0.28,-0.07,1721199739598
3.00,2.62,13.01,-0.17,0.45,-0.57,1721199739608
-0.73,-4.59,14.49,0.08,-0.05,-0.48,1721199739618
-5.85,-1.69,2.86,-0.05,-0.27,0.05,1721199739628
-3.55,6.07,16.27,-0.05,0.16,0.26,1721199739638
4.60,5.51,5.69,0.18,0.09,0.09,1721199739648
