AccX,AccY,AccZ,GyrX,GyrY,GyrZ,Time
-0.70,1.04,9.47,0.02,0.21,-0.07,1721199618131
-0.72,0.58,9.31,-0.01,0.22,-0.07,1721199618136
-1.29,0.48,11.08,0.00,0.24,-0.10,1721199618146
-2.22,0.29,10.82,0.02,0.23,-0.08,1721199618156
-2.11,0.23,11.78,0.04,0.25,-0.08,1721199618166
-1.36,0.37,9.84,0.05,0.27,-0.02,1721199618176
-0.75,1.15,9.72,0.03,0.24,-0.08,1721199618186
-1.35,1.05,8.88,0.01,0.23,-0.17,1721199618196
-2.22,0.28,10.66,0.01,0.24,-0.07,1721199618206
-2.08,0.11,9.65,0.04,0.28,0.00,1721199618216
-1.37,0.75,10.50,0.03,0.28,-0.06,1721199618226
-1.50,1.04,9.44,0.02,0.24,-0.11,1721199618236
-2.08,0.79,9.98,0.00,0.29,-0.17,1721199618246
-1.36,0.61,10.50,0.04,0.28,-0.10,1721199618256
-2.03,0.67,9.99,0.01,0.21,-0.08,1721199618266
-1.96,0.34,9.87,-0.00,0.25,-0.09,1721199618276
-3.02,-0.26,11.08,0.04,0.16,-0.09,1721199618286
-3.68,0.36,10.85,0.06,0.30,-0.06,1721199618296
-2.88,-0.57,11.82,0.08,0.28,-0.09,1721199618306
-1.39,-1.46,4.75,0.03,0.01,-0.06,1721199618316
-4.18,-1.37,8.27,0.05,0.28,-0.08,1721199618326
-2.45,0.91,10.52,0.03,0.64,-0.13,1721199618336
-2.21,2.10,12.87,-0.00,0.02,-0.15,1721199618346
-6.87,2.45,9.74,-0.04,0.17,-0.10,1721199618356
-1.94,0.76,10.68,-0.00,0.44,-0.09,1721199618366
-2.66,2.24,14.58,-0.01,0.21,-0.01,1721199618376
-1.64,1.96,10.49,0.06,0.08,-0.02,1721199618386
-3.31,2.10,7.24,-0.00,0.07,-0.06,1721199618396
-4.19,0.64,7.98,-0.06,0.13,-0.12,1721199618406
-3.51,-0.88,10.39,-0.04,0.14,0.06,1721199618416
-2.39,0.09,11.91,0.04,0.13,0.01,1721199618426
-2.00,1.05,10.85,0.06,0.09,-0.14,1721199618436
-3.34,1.52,9.68,0.07,0.08,-0.15,1721199618446
-4.31,1.89,8.03,0.02,0.07,-0.13,1721199618456
-4.26,1.41,8.37,-0.05,0.07,-0.07,1721199618466
-3.78,-0.42,9.76,-0.06,-0.01,-0.03,1721199618476
-4.72,-0.59,11.07,0.02,0.00,-0.09,1721199618486
-4.91,1.32,10.07,0.07,-0.01,-0.11,1721199618496
-4.74,2.52,8.87,-0.01,-0.00,0.03,1721199618506
-3.39,1.14,10.24,-0.09,-0.01,0.11,1721199618516
-1.78,0.16,11.95,0.02,-0.03,0.08,1721199618526
-1.18,0.54,8.65,0.03,-0.07,-0.06,1721199618536
-2.66,1.16,8.58,0.01,-0.04,-0.18,1721199618546
-3.65,0.90,9.00,-0.01,-0.06,-0.09,1721199618556
-2.79,1.47,11.03,-0.02,-0.02,-0.01,1721199618566
-1.75,1.26,10.21,-0.02,-0.08,-0.01,1721199618576
-2.54,0.15,11.30,-0.02,-0.08,-0.10,1721199618586
-3.93,0.32,10.25,0.07,-0.09,-0.13,1721199618596
-4.17,1.60,7.60,0.02,-0.08,0.08,1721199618606
-3.57,1.76,7.80,-0.03,-0.11,0.08,1721199618616
-2.09,0.28,9.40,-0.06,-0.09,0.05,1721199618626
-0.94,0.24,13.20,-0.01,-0.05,0.07,1721199618636
-1.31,1.19,11.95,0.04,-0.12,0.01,1721199618646
-2.44,1.17,9.78,0.01,-0.11,-0.10,1721199618656
-3.02,0.80,8.27,0.00,-0.12,-0.00,1721199618666
-1.68,1.18,8.00,-0.03,-0.07,0.12,1721199618676
0.14,1.19,8.74,-0.05,-0.09,0.09,1721199618686
-0.20,-0.54,10.72,-0.06,-0.06,-0.16,1721199618696
-3.09,-0.69,14.60,0.04,-0.08,-0.23,1721199618706
-5.14,0.52,11.09,0.08,-0.14,0.06,1721199618716
-4.10,1.53,8.14,0.00,-0.10,0.17,1721199618726
-0.72,0.80,7.90,-0.01,-0.07,0.13,1721199618736
-0.85,1.59,6.65,-0.05,-0.27,-0.05,1721199618746
-3.50,1.06,6.39,-0.07,-0.08,-0.11,1721199618756
-1.08,-1.01,17.42,0.03,0.19,-0.13,1721199618766
-3.63,-0.31,9.53,0.09,-0.29,0.14,1721199618776
-3.39,2.50,11.24,0.11,-0.01,0.31,1721199618786
3.77,0.33,5.30,-0.12,-0.00,0.25,1721199618796
1.07,1.39,10.80,-0.01,-0.14,-0.13,1721199618806
-1.47,0.08,7.27,-0.01,-0.02,-0.36,1721199618816
-6.29,-0.57,11.82,-0.10,-0.17,-0.04,1721199618826
-4.72,-1.45,13.49,0.03,-0.03,0.31,1721199618836
0.51,1.76,11.51,0.04,0.00,0.31,1721199618846
1.45,2.98,8.54,-0.01,-0.09,-0.06,1721199618856
-1.77,0.10,9.32,-0.10,-0.06,-0.27,1721199618866
-4.87,-1.88,10.72,-0.03,-0.10,-0.04,1721199618876
-4.11,-0.74,10.27,0.02,-0.04,0.26,1721199618886
-0.48,0.82,9.35,0.02,-0.05,0.29,1721199618896
1.95,0.98,9.39,-0.02,-0.03,0.11,1721199618906
1.35,1.00,8.84,-0.02,-0.05,-0.03,1721199618916
-0.87,0.11,9.49,-0.05,0.02,-0.14,1721199618926
-3.09,-1.53,11.61,-0.04,-0.05,-0.09,1721199618936
-3.47,-0.76,12.18,0.04,-0.01,0.09,1721199618946
-1.59,1.24,10.29,0.03,-0.01,0.13,1721199618956
-0.52,1.13,8.93,-0.05,-0.03,0.00,1721199618966
-1.35,-0.83,11.12,-0.06,-0.01,-0.11,1721199618976
-2.51,-0.02,10.62,0.05,-0.02,0.04,1721199618986
-1.92,0.60,8.19,-0.03,0.05,0.13,1721199618996
-0.96,-0.25,10.42,-0.05,-0.01,0.08,1721199619006
-0.51,-1.06,10.83,-0.02,-0.00,0.07,1721199619016
-0.37,0.70,12.81,0.03,0.04,-0.01,1721199619026
-0.05,0.34,10.66,0.02,0.05,0.04,1721199619036
-0.76,-0.07,9.09,0.02,0.04,-0.07,1721199619046
-1.55,0.30,8.51,-0.02,0.06,-0.01,1721199619056
-1.97,1.01,9.85,-0.04,0.07,0.01,1721199619066
-1.48,-0.50,10.63,-0.05,0.09,0.03,1721199619076
-1.47,-0.85,11.09,0.01,0.05,-0.01,1721199619086
-1.48,0.55,9.31,0.01,0.11,0.01,1721199619096
-1.10,0.79,9.31,-0.07,0.11,0.06,1721199619106
-0.57,-0.57,12.65,-0.03,0.13,0.05,1721199619116
-0.11,-0.48,10.24,0.06,0.11,-0.04,1721199619126
-0.38,0.74,8.67,-0.01,0.14,-0.02,1721199619136
-0.48,0.89,11.05,-0.01,0.17,-0.00,1721199619146
-0.45,0.07,9.54,-0.02,0.16,-0.09,1721199619156
-0.80,-0.15,10.76,-0.02,0.18,-0.13,1721199619166
-1.45,-1.05,11.03,0.01,0.18,-0.08,1721199619176
-2.51,-0.11,11.58,0.08,0.19,-0.07,1721199619186
-3.47,1.16,8.45,0.05,0.14,-0.05,1721199619196
-3.25,1.08,8.06,-0.04,0.18,0.04,1721199619206
-1.72,0.02,10.23,-0.03,0.18,0.05,1721199619216
-1.49,0.01,10.24,-0.02,0.15,-0.06,1721199619226
-3.05,0.62,12.70,0.01,0.16,-0.15,1721199619236
-4.21,-0.74,11.85,0.03,0.13,-0.05,1721199619246
-3.75,0.49,9.98,0.10,0.14,0.13,1721199619256
-1.38,2.32,5.93,0.04,0.14,0.08,1721199619266
-0.91,1.99,6.82,-0.06,0.11,-0.09,1721199619276
-2.22,-0.03,8.66,-0.08,0.10,-0.14,1721199619286
-3.86,-0.39,12.47,-0.02,0.15,-0.05,1721199619296
-3.94,-3.05,11.18,-0.04,0.09,-0.01,1721199619306
-6.08,1.89,13.09,0.09,-0.05,-0.04,1721199619316
-4.83,4.19,10.75,0.05,0.12,-0.02,1721199619326
-2.44,-0.01,9.27,-0.08,0.08,0.12,1721199619336
-2.48,-1.17,7.83,-0.00,-0.07,0.14,1721199619346
-2.69,2.13,6.45,0.01,0.02,-0.02,1721199619356
-2.66,0.87,9.74,-0.09,0.01,-0.04,1721199619366
-2.85,-1.75,12.76,0.01,-0.02,0.11,1721199619376
-1.17,0.28,12.38,0.02,0.02,0.11,1721199619386
-0.55,2.07,13.62,0.02,0.00,-0.13,1721199619396
-2.88,-0.79,9.34,0.04,-0.09,-0.32,1721199619406
-6.62,-0.42,7.53,0.05,-0.12,-0.12,1721199619416
-6.12,2.65,7.31,0.02,-0.06,0.22,1721199619426
-2.13,1.19,6.01,-0.13,-0.07,0.30,1721199619436
-0.69,-2.18,11.85,-0.15,-0.12,0.03,1721199619446
-1.85,-2.45,16.36,0.12,-0.07,-0.18,1721199619456
-4.59,-0.23,8.51,0.09,-0.16,-0.18,1721199619466
-6.58,0.02,9.09,-0.03,-0.13,-0.01,1721199619476
-5.13,-0.48,8.33,0.02,-0.20,0.18,1721199619486
-2.17,-0.48,6.13,-0.07,-0.20,0.22,1721199619496
-1.24,-1.45,9.16,-0.10,-0.24,0.00,1721199619506
-3.50,-2.57,14.33,-0.02,-0.23,-0.21,1721199619516
-6.84,-1.26,12.78,0.11,-0.31,-0.07,1721199619526
-7.55,1.36,8.86,0.03,-0.34,0.21,1721199619536
-3.43,0.90,7.25,-0.07,-0.25,0.41,1721199619546
0.39,-1.39,8.11,-0.15,-0.33,0.28,1721199619556
-0.27,-2.44,11.60,-0.07,-0.37,0.00,1721199619566
-2.31,-3.28,12.15,0.01,-0.36,-0.09,1721199619576
-3.84,-0.70,14.15,0.06,-0.33,0.07,1721199619586
-2.62,0.57,7.61,0.02,-0.38,0.23,1721199619596
-0.77,0.95,9.91,-0.12,-0.29,0.19,1721199619606
0.20,-0.75,9.00,-0.04,-0.40,0.03,1721199619616
-1.50,-3.20,7.04,-0.13,-0.41,-0.05,1721199619626
-3.00,-4.01,12.84,-0.03,-0.37,0.05,1721199619636
-2.13,-1.18,10.73,0.11,-0.37,0.21,1721199619646
-0.39,2.20,12.52,-0.04,-0.27,0.10,1721199619656
-0.59,1.16,11.95,-0.01,-0.44,-0.02,1721199619666
-0.67,-2.81,7.18,-0.02,-0.20,-0.07,1721199619676
-2.76,1.25,5.92,-0.02,-0.43,-0.16,1721199619686
-6.37,0.06,5.31,-0.20,-0.34,-0.18,1721199619696
-9.28,-7.36,13.10,-0.17,-0.68,0.15,1721199619706
-4.47,-3.35,14.74,0.14,-0.47,0.91,1721199619716
7.54,2.70,9.29,0.05,-0.15,0.67,1721199619726
8.37,6.92,7.10,-0.08,-0.42,-0.51,1721199619736
-3.55,-6.30,12.07,-0.21,-0.76,-1.22,1721199619746
-12.52,-4.85,15.16,0.40,-0.33,-0.04,1721199619756
-4.55,-1.67,0.28,-0.19,-0.26,1.03,1721199619766
2.62,-1.27,14.80,-0.16,-0.47,0.40,1721199619776
0.48,-3.53,10.60,0.13,-0.86,-0.50,1721199619786
-5.92,5.03,10.78,0.15,-0.59,-0.01,1721199619796
1.12,2.20,5.09,-0.15,-0.23,0.55,1721199619806
5.60,-0.14,16.47,-0.08,-0.28,-0.14,1721199619816
0.25,-0.75,6.60,0.14,-0.83,-0.60,1721199619826
-5.15,2.02,11.87,-0.09,-0.20,-0.11,1721199619836
-0.03,-0.72,12.82,0.08,-0.31,0.45,1721199619846
3.17,1.61,8.70,0.08,-0.41,-0.02,1721199619856
2.93,3.18,8.67,0.14,-0.39,-0.52,1721199619866
-1.17,-0.45,4.87,-0.06,-0.45,-0.28,1721199619876
-0.01,-4.45,15.36,-0.05,-0.09,-0.04,1721199619886
2.04,0.51,16.79,0.44,-0.41,-0.19,1721199619896
2.54,3.70,-1.37,0.10,-0.34,-0.24,1721199619906
5.20,0.78,9.57,-0.31,-0.10,-0.05,1721199619916
6.06,-3.53,21.96,0.12,-0.11,-0.19,1721199619926
5.62,1.44,10.79,0.27,-0.25,-0.59,1721199619936
0.79,4.41,4.02,0.03,-0.22,-0.58,1721199619946
0.64,-2.35,5.94,-0.18,0.11,-0.30,1721199619956
-0.23,-1.52,25.31,0.16,0.04,-0.41,1721199619966
-2.42,4.63,3.67,0.38,-0.29,-0.56,1721199619976
-5.21,5.51,3.15,-0.26,0.02,-0.26,1721199619986
-1.27,-0.02,16.14,-0.02,0.07,0.08,1721199619996
2.87,0.34,14.36,0.04,-0.05,0.01,1721199620006
3.17,4.97,12.37,0.20,-0.16,-0.33,1721199620016
5.69,4.81,3.52,0.09,-0.03,-0.31,1721199620026
6.96,-0.88,5.71,-0.33,0.11,-0.23,1721199620036
6.52,2.95,20.09,0.13,0.14,-0.46,1721199620046
6.78,1.94,6.58,0.06,0.03,-0.95,1721199620056
1.21,-1.74,13.77,-0.08,0.20,-0.93,1721199620066
-3.28,-1.33,9.90,0.15,0.09,-0.65,1721199620076
-4.39,0.12,14.20,-0.03,0.36,-0.75,1721199620086
-4.95,-1.47,9.10,0.17,-0.02,-0.48,1721199620096
-4.64,-1.46,2.21,-0.08,0.19,-0.27,1721199620106
-1.91,-0.89,16.56,-0.06,0.29,-0.27,1721199620116
-1.08,-3.88,11.00,0.09,-0.04,-0.45,1721199620126
-1.19,1.86,10.15,0.23,0.05,-0.07,1721199620141
0.22,2.88,4.28,0.16,0.19,-0.03,1721199620145
4.90,0.12,8.34,-0.24,0.34,-0.16,1721199620155
4.02,0.00,18.95,0.13,0.12,-0.73,1721199620165
0.25,-3.34,8.03,0.03,0.04,-0.94,1721199620175
-6.62,4.81,11.05,0.19,0.06,-0.63,1721199620185
-3.45,1.82,2.20,-0.08,0.30,-0.40,1721199620195
-3.77,0.63,14.03,-0.07,0.08,-0.45,1721199620205
-3.85,-3.49,7.10,0.06,0.01,-0.48,1721199620215
-5.94,-0.73,16.27,0.02,0.16,-0.52,1721199620225
-6.82,1.41,10.77,0.24,-0.05,-0.30,1721199620235
-5.07,0.37,5.71,-0.13,0.02,0.08,1721199620245
-0.71,-1.90,9.27,-0.08,-0.03,0.17,1721199620255
3.24,-4.41,16.69,-0.05,0.08,-0.22,1721199620265
-0.27,1.87,9.82,0.26,-0.31,-0.34,1721199620275
-1.35,-0.23,6.34,-0.23,0.06,-0.17,1721199620285
-1.60,-3.13,20.79,0.04,-0.10,0.01,1721199620295
0.83,-1.44,12.02,0.20,-0.08,0.02,1721199620305
0.50,3.78,-2.34,-0.02,-0.22,-0.10,1721199620315
-0.91,-2.72,8.84,-0.39,0.16,-0.37,1721199620325
-4.74,-5.95,20.45,0.13,-0.37,-0.33,1721199620335
-8.50,-1.67,6.09,0.17,-0.26,0.05,1721199620345
-5.88,0.23,4.66,-0.09,-0.14,0.46,1721199620355
0.36,-5.55,10.14,-0.17,-0.13,0.45,1721199620365
2.82,-2.41,12.74,0.12,-0.26,0.29,1721199620375
3.86,-1.99,11.99,-0.10,-0.08,0.09,1721199620385
0.89,-0.74,11.13,0.10,-0.30,0.06,1721199620395
-0.36,-1.60,5.04,-0.19,-0.11,0.01,1721199620405
-3.34,-3.47,20.51,-0.10,-0.34,0.12,1721199620415
-3.31,-2.86,9.18,0.22,-0.44,0.48,1721199620425
0.44,-1.89,10.39,-0.12,-0.11,0.52,1721199620435
0.03,-0.03,11.68,0.14,-0.51,0.18,1721199620445
-2.69,-2.18,3.55,-0.20,-0.39,0.02,1721199620455
-7.59,-1.54,15.50,-0.11,-0.54,0.38,1721199620465
-4.07,1.32,3.96,0.14,-0.46,0.75,1721199620475
3.67,-3.92,8.94,-0.34,-0.18,0.67,1721199620485
1.79,-0.16,11.83,0.24,-0.84,0.34,1721199620495
0.54,-1.77,2.87,-0.25,-0.26,0.06,1721199620505
-5.59,-0.14,23.14,0.12,-0.75,0.17,1721199620515
-3.67,-5.56,10.61,0.19,-0.64,0.59,1721199620525
-0.63,-0.28,8.12,0.04,-0.58,0.86,1721199620535
2.09,1.20,5.82,-0.07,-0.66,0.58,1721199620545
0.51,-4.32,11.49,-0.20,-0.71,0.19,1721199620555
-4.77,-3.58,11.55,0.18,-0.98,0.42,1721199620565
-3.34,-0.87,2.54,-0.04,-0.62,0.87,1721199620575
0.27,2.09,9.03,0.04,-0.77,0.85,1721199620585
4.61,-5.25,4.94,-0.21,-0.80,0.58,1721199620595
2.08,-0.49,23.99,0.28,-0.78,0.41,1721199620605
3.19,-0.01,-5.65,0.20,-0.94,0.49,1721199620615
2.62,1.36,11.31,-0.20,-0.38,0.52,1721199620625
7.96,-2.31,11.37,0.31,-1.13,0.48,1721199620635
9.29,-4.13,14.45,-0.05,-0.13,0.28,1721199620645
5.80,-0.37,14.01,0.43,-0.91,0.21,1721199620655
7.49,-5.18,1.90,-0.23,-0.22,0.17,1721199620665
2.34,-0.63,21.24,0.25,-0.78,0.31,1721199620675
10.27,-3.45,11.65,0.09,-0.18,0.30,1721199620685
8.28,-0.41,7.48,0.03,-0.57,0.25,1721199620695
7.37,-7.71,10.61,-0.17,-0.05,-0.17,1721199620705
3.13,2.74,21.35,0.54,-0.34,-0.10,1721199620715
5.56,2.02,-6.50,-0.04,-0.16,0.37,1721199620725
5.18,1.48,20.87,-0.18,0.15,0.15,1721199620735
2.39,-2.29,21.72,0.22,-0.25,-0.35,1721199620745
-1.42,0.69,4.23,-0.06,-0.10,-0.18,1721199620755
-1.65,4.39,10.59,0.13,-0.07,0.27,1721199620765
3.12,-0.39,9.51,-0.10,-0.08,0.13,1721199620775
2.53,-1.43,11.03,0.08,-0.44,0.19,1721199620785
5.40,0.30,9.24,-0.03,0.04,0.38,1721199620795
10.11,6.84,11.20,0.09,0.02,0.30,1721199620805
8.64,1.43,6.80,-0.25,-0.20,-0.43,1721199620815
0.11,2.88,11.75,0.13,-0.35,-0.32,1721199620825
5.31,4.45,3.57,-0.03,0.32,0.37,1721199620835
10.81,3.23,17.59,-0.19,0.38,-0.00,1721199620845
5.01,3.51,9.73,0.20,-0.34,-0.91,1721199620855
-1.29,4.11,9.41,-0.01,0.43,-0.86,1721199620865
-2.25,1.81,11.35,0.00,0.22,0.00,1721199620875
-0.75,3.15,8.12,-0.01,0.21,-0.09,1721199620885
0.11,8.32,18.22,0.25,0.20,-0.46,1721199620895
0.45,0.48,-4.63,-0.20,-0.11,-0.14,1721199620905
5.43,0.38,20.08,-0.50,0.33,-0.17,1721199620915
3.20,8.75,13.20,0.71,0.03,-0.19,1721199620925
4.78,6.71,-13.42,-0.45,0.18,0.03,1721199620935
5.91,5.20,27.81,-0.22,0.23,-0.07,1721199620945
12.38,12.09,-9.80,0.42,0.05,-0.69,1721199620955
-1.27,6.08,4.47,-0.21,0.38,-0.60,1721199620965
-3.90,-0.72,17.33,0.01,-0.04,-0.22,1721199620975
1.31,-1.86,10.72,0.21,0.32,-0.17,1721199620985
3.28,4.77,4.77,0.08,0.01,-0.23,1721199620995
2.04,5.27,2.89,-0.26,0.14,-0.47,1721199621005
-0.69,2.54,21.86,-0.03,0.23,-0.60,1721199621015
-1.73,-1.35,5.99,0.11,-0.03,-0.20,1721199621025
-2.77,8.17,6.53,-0.00,0.16,0.05,1721199621035
6.22,0.85,14.32,-0.14,0.43,-0.23,1721199621045
2.01,2.45,14.91,0.21,-0.26,-0.57,1721199621055
-0.36,1.08,-1.15,-0.16,0.18,-0.41,1721199621065
0.15,1.54,14.26,-0.19,0.27,-0.27,1721199621075
1.65,-3.83,22.66,0.30,0.18,-0.47,1721199621085
1.87,4.12,3.00,-0.21,0.15,-0.10,1721199621095
1.89,6.44,7.18,-0.18,0.08,0.13,1721199621105
9.44,3.20,7.57,-0.15,0.52,-0.51,1721199621115
5.00,4.89,19.79,0.16,-0.03,-1.06,1721199621125
-0.60,-3.06,4.20,-0.00,0.14,-0.72,1721199621135
-1.91,2.94,11.26,-0.07,0.37,-0.15,1721199621145
5.55,1.06,10.93,-0.04,0.60,-0.44,1721199621155
4.50,5.69,10.93,0.09,0.19,-0.74,1721199621165
3.04,-0.58,8.18,-0.22,0.48,-0.63,1721199621175
0.29,-1.07,18.21,0.14,0.41,-0.59,1721199621185
0.42,-2.00,5.49,0.03,0.30,-0.68,1721199621195
-0.49,3.69,9.45,0.05,0.38,-0.42,1721199621205
5.49,-2.15,4.03,-0.23,0.63,-0.35,1721199621215
4.98,1.98,18.78,0.05,0.50,-0.87,1721199621225
3.28,2.28,7.67,0.13,0.51,-0.95,1721199621235
-0.71,1.90,6.15,-0.12,0.56,-0.76,1721199621245
0.07,-0.49,10.75,-0.04,0.62,-0.80,1721199621255
-0.25,-4.29,10.05,-0.14,0.53,-0.93,1721199621265
-3.05,2.72,14.73,0.35,0.50,-0.83,1721199621275
0.82,-0.51,1.51,-0.13,0.78,-0.84,1721199621285
-4.20,0.50,16.14,-0.03,0.31,-0.82,1721199621295
-3.63,-4.27,10.76,-0.03,0.78,-0.68,1721199621305
-2.46,3.55,12.96,0.18,0.39,-0.44,1721199621315
2.69,1.58,3.54,-0.21,0.76,-0.67,1721199621325
1.35,-2.60,20.77,-0.05,0.48,-0.85,1721199621335
-2.36,-3.89,-0.09,0.16,0.30,-0.68,1721199621345
-4.10,4.71,10.90,-0.08,0.86,-0.56,1721199621355
-0.75,-3.13,7.74,-0.05,0.37,-0.55,1721199621365
-2.54,-0.88,19.71,0.10,0.54,-0.56,1721199621375
0.43,0.40,3.86,0.28,0.42,-0.31,1721199621385
2.23,1.91,7.56,-0.19,0.72,-0.51,1721199621395
-0.03,-3.27,13.97,-0.04,0.35,-0.73,1721199621405
-4.16,-4.77,16.76,0.03,0.45,-0.56,1721199621415
-2.70,0.91,6.21,0.31,0.43,-0.09,1721199621425
1.33,0.20,-4.42,-0.39,0.61,-0.12,1721199621435
10.68,-3.90,20.14,-0.43,0.55,-0.69,1721199621445
-7.02,-2.34,6.96,0.51,0.15,-0.61,1721199621455
-9.45,2.41,4.49,-0.01,0.54,0.03,1721199621465
-3.70,-3.64,8.03,-0.14,0.22,0.58,1721199621475
-1.63,-2.22,15.28,-0.03,0.31,0.21,1721199621485
0.55,1.23,7.78,0.20,0.22,-0.10,1721199621495
-1.44,-0.82,6.39,-0.16,0.23,-0.09,1721199621505
-3.52,-3.85,13.56,0.01,0.18,-0.02,1721199621515
-3.70,-1.88,7.22,0.01,0.17,0.17,1721199621525
-1.54,1.74,11.75,-0.05,0.27,0.30,1721199621535
3.47,-1.89,11.47,-0.07,0.30,0.03,1721199621545
0.64,-1.37,4.19,0.06,-0.08,-0.00,1721199621555
-1.62,0.69,8.95,-0.14,0.50,-0.13,1721199621565
0.18,-6.65,13.11,-0.11,0.05,0.05,1721199621575
-2.43,-1.65,13.93,0.15,-0.09,0.37,1721199621585
-1.28,0.16,9.81,0.01,0.34,0.53,1721199621595
1.39,2.71,14.30,-0.03,0.17,0.57,1721199621605
5.29,3.61,6.70,-0.03,0.20,0.44,1721199621615
6.96,1.17,9.39,-0.14,0.32,0.38,1721199621625
5.31,-0.18,7.33,-0.07,0.15,0.35,1721199621635
5.08,2.79,11.09,-0.18,0.51,0.13,1721199621645
1.01,3.06,11.54,-0.10,0.17,-0.05,1721199621655
-4.91,-0.40,10.51,-0.09,0.20,0.21,1721199621665
-4.03,4.50,12.40,0.06,0.32,0.61,1721199621675
2.11,1.00,5.74,-0.14,0.31,0.86,1721199621685
4.37,3.99,13.35,-0.08,0.30,0.62,1721199621695
8.07,-1.95,8.03,-0.19,0.30,0.23,1721199621705
1.15,2.55,15.95,-0.05,0.18,0.05,1721199621715
-0.06,4.20,7.50,0.05,0.33,0.20,1721199621725
2.43,2.42,8.22,-0.33,0.48,0.46,1721199621735
-1.27,-2.92,11.32,-0.16,0.19,-0.01,1721199621745
-9.09,3.99,15.38,-0.16,0.18,-0.44,1721199621755
-15.07,-2.69,10.30,-0.44,0.03,0.56,1721199621765
-4.24,-4.43,15.36,-0.42,0.37,1.88,1721199621775
13.98,-2.92,3.04,0.09,0.25,1.50,1721199621785
18.73,1.48,-2.06,-0.32,0.38,-0.10,1721199621795
4.07,1.41,15.22,-0.42,-0.18,-1.43,1721199621805
-17.70,-4.98,25.48,-0.01,-1.23,-0.87,1721199621815
-15.69,-4.03,4.07,-0.24,0.52,0.54,1721199621825
-3.75,1.40,12.67,-0.27,0.28,1.37,1721199621835
3.28,-1.99,8.47,-0.27,-0.06,0.96,1721199621845
6.40,4.32,13.72,-0.23,0.28,0.15,1721199621855
3.26,-2.15,3.69,-0.26,-0.21,-0.06,1721199621865
-3.84,-9.13,6.59,-0.63,0.08,-0.11,1721199621875
-2.51,13.92,17.71,0.02,-0.03,0.27,1721199621885
-0.21,0.77,5.52,-0.15,-0.06,0.64,1721199621895
0.49,1.65,14.85,-0.21,0.02,0.51,1721199621905
5.69,6.11,16.04,0.08,0.22,0.15,1721199621915
2.94,1.21,5.58,-0.12,-0.13,-0.25,1721199621925
-6.48,2.16,8.92,0.03,-0.16,-0.33,1721199621935
-6.39,-3.26,10.93,0.07,0.05,0.02,1721199621945
-4.01,5.06,18.58,0.31,0.02,0.51,1721199621955
0.31,2.69,6.14,0.37,0.05,0.53,1721199621965
1.60,-3.19,8.97,0.06,0.15,0.32,1721199621975
2.16,1.72,17.66,0.16,0.18,0.00,1721199621985
-1.01,-0.59,2.29,0.40,-0.26,-0.09,1721199621995
-1.49,-5.40,5.33,-0.04,0.32,0.03,1721199622005
0.97,1.37,23.29,0.16,0.10,0.23,1721199622015
0.49,-0.97,4.92,0.34,-0.12,0.29,1721199622025
3.01,2.98,9.44,-0.06,0.44,0.11,1721199622035
2.23,-0.82,10.35,0.12,-0.20,-0.15,1721199622045
-1.97,-2.33,6.49,0.04,0.05,-0.20,1721199622055
-1.86,-0.99,11.06,0.04,0.07,0.01,1721199622065
-2.33,-1.48,14.71,0.02,-0.07,0.15,1721199622075
-0.47,0.01,8.83,0.11,0.02,0.15,1721199622085
0.86,-7.18,2.74,-0.23,0.01,0.11,1721199622095
-0.98,4.67,16.88,-0.00,0.22,-0.05,1721199622105
0.82,1.59,5.49,0.19,-0.02,-0.03,1721199622115
0.79,1.11,15.55,-0.19,0.33,-0.02,1721199622125
-0.97,3.10,11.97,0.22,-0.15,-0.07,1721199622135
0.17,-3.00,13.57,-0.29,0.28,0.15,1721199622150
-1.98,0.15,15.41,-0.00,-0.05,0.15,1721199622154
0.25,-4.27,3.20,0.17,-0.18,0.17,1721199622164
2.12,-0.25,10.91,-0.13,0.53,0.04,1721199622174
1.67,5.57,16.81,0.12,0.16,-0.19,1721199622184
-1.24,-0.94,7.79,-0.00,-0.00,-0.16,1721199622194
-2.93,1.92,13.49,-0.03,0.31,-0.03,1721199622204
-2.05,2.77,10.78,0.13,0.14,0.26,1721199622214
-1.51,-2.59,4.43,-0.03,-0.01,0.17,1721199622224
0.56,-0.22,10.38,0.07,0.06,0.02,1721199622234
1.87,0.40,11.71,0.09,0.15,-0.18,1721199622244
-1.25,0.24,7.80,0.06,0.01,-0.11,1721199622254
-1.38,2.03,14.28,-0.03,0.32,-0.06,1721199622264
-1.65,1.24,7.95,0.21,-0.05,0.01,1721199622274
-1.24,-1.99,9.42,-0.13,0.26,-0.04,1721199622284
-0.76,5.54,17.07,0.23,0.05,-0.11,1721199622294
-1.62,-1.98,2.43,0.07,-0.12,-0.06,1721199622304
-2.38,2.66,13.86,-0.01,0.21,-0.06,1721199622314
-0.52,-4.16,7.10,0.07,-0.08,-0.02,1721199622324
-3.66,-2.48,10.62,-0.17,0.05,-0.03,1721199622334
-1.49,4.12,14.00,0.18,0.03,-0.01,1721199622344
-0.49,-3.25,4.93,-0.05,-0.01,0.01,1721199622354
-1.63,3.51,16.50,-0.01,0.21,-0.05,1721199622364
-1.18,-0.05,6.86,0.09,-0.10,-0.07,1721199622374
-1.89,-1.31,15.82,-0.17,0.15,0.01,1721199622384
-1.29,5.77,8.64,0.37,-0.15,0.08,1721199622394
0.31,-2.51,5.71,-0.27,0.23,0.09,1721199622404
-1.46,3.40,16.18,0.08,-0.19,0.13,1721199622414
0.40,-3.01,1.32,-0.05,0.02,0.13,1721199622424
0.38,1.13,10.22,-0.13,0.08,0.21,1721199622434
2.08,-1.47,9.67,-0.17,0.15,0.06,1721199622444
0.42,4.03,15.94,-0.06,0.06,-0.05,1721199622454
-1.56,-1.05,2.39,-0.01,-0.22,-0.01,1721199622464
-1.75,-3.41,11.50,-0.42,0.25,0.12,1721199622474
0.51,5.48,19.48,0.07,0.05,0.15,1721199622484
0.51,-1.41,2.66,-0.04,-0.09,0.04,1721199622494
-1.29,1.59,10.78,-0.18,0.15,0.03,1721199622504
0.03,1.18,13.91,-0.04,0.13,-0.04,1721199622514
-2.89,0.85,7.73,-0.00,-0.11,-0.00,1721199622524
-2.54,-3.43,5.35,-0.20,0.08,0.13,1721199622534
-0.87,0.64,15.13,-0.14,0.13,0.08,1721199622544
-0.49,0.64,7.51,0.05,-0.12,0.04,1721199622554
-1.32,-2.61,9.11,-0.21,0.19,-0.06,1721199622564
-1.77,4.24,14.19,-0.03,0.05,-0.02,1721199622574
-2.11,-4.62,6.21,-0.20,-0.09,0.08,1721199622584
-2.07,3.78,19.02,-0.18,0.25,0.14,1721199622594
1.10,2.99,5.74,0.16,-0.16,0.13,1721199622604
-0.15,-6.04,7.21,-0.30,0.07,0.05,1721199622614
-1.38,5.58,16.79,0.16,0.01,0.05,1721199622624
-0.03,-0.08,6.86,0.04,-0.05,0.11,1721199622634
-3.28,-0.38,12.77,-0.02,-0.12,0.15,1721199622644
-1.79,2.25,8.73,0.19,-0.00,0.24,1721199622654
0.23,-6.16,6.80,-0.20,-0.04,0.18,1721199622664
-2.16,-1.04,15.20,-0.04,-0.14,0.21,1721199622674
0.04,1.90,7.69,0.12,0.11,0.18,1721199622684
0.30,-5.51,6.75,-0.16,0.01,0.15,1721199622694
-3.06,1.35,15.91,0.01,-0.07,0.17,1721199622704
0.05,5.56,11.12,0.11,0.12,0.28,1721199622714
0.20,-2.32,8.93,-0.07,-0.22,0.27,1721199622724
-2.59,1.23,7.52,0.14,-0.16,0.15,1721199622734
0.34,-3.18,6.94,-0.01,0.02,0.23,1721199622744
0.03,0.76,17.25,0.03,-0.05,0.32,1721199622754
-0.40,0.72,7.61,0.11,-0.18,0.40,1721199622764
-0.49,-1.72,10.10,-0.15,0.07,0.27,1721199622774
-0.38,2.03,12.73,0.01,-0.14,0.16,1721199622784
-0.79,-0.99,6.37,0.01,-0.21,0.26,1721199622794
-0.38,1.12,10.86,-0.03,-0.01,0.28,1721199622804
1.88,-1.97,9.76,0.00,-0.10,0.18,1721199622814
-0.62,-4.87,5.44,0.00,-0.27,0.12,1721199622824
-1.20,-0.39,13.37,-0.13,0.15,0.15,1721199622834
-2.15,6.19,17.29,0.16,-0.21,0.18,1721199622844
-1.26,2.27,3.69,0.04,-0.17,0.40,1721199622854
1.92,-2.60,10.02,-0.15,0.01,0.37,1721199622864
1.41,1.41,15.27,0.12,-0.23,0.32,1721199622874
0.16,-2.09,8.73,-0.09,-0.15,0.18,1721199622884
-1.22,4.49,12.62,0.16,-0.19,0.25,1721199622894
1.55,-1.60,6.33,-0.04,0.00,0.09,1721199622904
-0.80,-2.42,14.79,0.06,-0.32,0.19,1721199622914
-1.01,0.73,7.12,0.15,-0.09,0.30,1721199622924
1.08,1.17,12.75,-0.06,0.04,0.29,1721199622934
-0.23,4.16,9.65,0.28,-0.38,0.29,1721199622944
1.05,-1.96,7.94,0.03,0.02,0.05,1721199622954
-0.75,-1.14,12.13,0.14,-0.26,0.22,1721199622964
-2.31,0.63,11.33,-0.03,-0.06,0.16,1721199622974
-1.81,5.74,12.97,0.33,-0.30,0.39,1721199622984
2.62,-1.88,5.11,0.02,-0.06,0.43,1721199622994
3.36,-0.22,15.69,0.03,-0.13,0.19,1721199623004
0.22,1.04,3.89,0.26,-0.41,-0.01,1721199623014
-0.46,-1.98,13.70,-0.17,0.09,0.07,1721199623024
-0.97,1.00,13.68,0.29,-0.38,0.36,1721199623034
0.58,0.39,3.23,0.03,-0.07,0.34,1721199623044
2.00,-0.62,13.55,-0.02,-0.10,0.11,1721199623054
0.51,-0.09,10.35,0.10,-0.29,-0.01,1721199623064
-1.37,0.97,10.36,0.00,-0.13,0.16,1721199623074
-0.22,1.89,9.83,0.12,-0.18,0.28,1721199623084
2.76,-1.49,5.11,-0.06,-0.04,0.26,1721199623094
1.49,-0.87,13.26,-0.05,-0.21,0.04,1721199623104
-0.71,-0.82,8.69,0.04,-0.24,-0.06,1721199623114
-1.50,2.93,13.80,-0.00,-0.08,0.05,1721199623124
0.38,1.35,9.37,0.01,-0.16,0.22,1721199623134
0.55,0.78,8.09,-0.05,-0.14,0.12,1721199623144
0.45,-2.35,9.11,-0.17,-0.14,-0.04,1721199623154
-0.96,2.09,14.64,0.00,-0.15,-0.02,1721199623164
0.17,0.22,6.17,-0.04,-0.14,0.16,1721199623174
0.80,2.37,14.05,-0.05,-0.12,0.06,1721199623184
2.38,-1.90,7.77,-0.02,-0.23,-0.10,1721199623194
-0.35,4.23,15.12,-0.00,-0.07,-0.24,1721199623204
-1.01,1.48,7.33,0.05,-0.21,-0.17,1721199623214
-2.20,-0.32,10.38,-0.10,-0.17,-0.01,1721199623224
0.57,-0.85,7.63,0.06,-0.09,0.06,1721199623234
3.74,1.15,10.86,-0.12,0.02,-0.08,1721199623244
1.29,0.18,9.82,-0.03,-0.38,-0.22,1721199623254
0.23,2.55,9.28,-0.04,0.00,-0.31,1721199623264
2.13,-0.37,16.45,-0.16,-0.03,-0.34,1721199623274
-1.73,6.28,8.65,0.28,-0.37,-0.28,1721199623284
-0.98,-8.62,1.65,-0.37,0.02,-0.32,1721199623294
-1.70,1.60,24.35,0.00,-0.05,-0.19,1721199623304
1.12,-1.47,-1.98,0.12,-0.26,-0.13,1721199623314
1.85,-1.60,13.39,-0.31,0.13,-0.39,1721199623324
1.17,8.59,14.77,0.32,-0.12,-0.31,1721199623334
1.27,-2.03,5.29,-0.10,-0.12,-0.23,1721199623344
-1.23,-3.49,12.76,-0.09,-0.15,-0.30,1721199623354
0.15,0.89,9.17,0.05,0.10,-0.38,1721199623364
0.98,-1.86,10.12,-0.15,-0.03,-0.44,1721199623374
-3.11,1.05,9.97,0.06,-0.25,-0.43,1721199623384
-2.38,3.53,8.69,0.06,0.11,-0.33,1721199623394
0.80,-1.26,7.39,-0.02,-0.02,-0.20,1721199623404
2.06,0.54,15.92,-0.08,0.11,-0.34,1721199623414
1.62,4.16,4.62,0.27,-0.16,-0.40,1721199623424
0.27,-8.03,9.64,-0.41,0.21,-0.74,1721199623434
-4.39,6.39,20.42,0.33,-0.26,-0.47,1721199623444
-0.76,-5.99,-2.91,-0.15,0.10,-0.30,1721199623454
-0.66,5.83,25.83,0.00,0.08,-0.29,1721199623464
2.10,1.82,0.29,0.35,-0.18,-0.47,1721199623474
0.34,-0.83,12.95,-0.25,0.46,-0.70,1721199623484
-3.47,1.55,16.33,0.34,-0.26,-0.63,1721199623494
-3.77,-4.75,0.83,-0.15,0.05,-0.43,1721199623504
-1.19,4.06,20.86,0.12,0.27,-0.28,1721199623514
3.37,-1.56,4.61,0.09,-0.09,-0.29,1721199623524
-0.80,1.75,9.49,-0.07,-0.02,-0.71,1721199623534
-0.27,-1.32,12.77,-0.01,0.20,-0.80,1721199623544
-2.59,1.22,10.99,0.11,0.08,-0.57,1721199623554
-3.25,-4.41,8.20,-0.16,0.09,-0.36,1721199623564
-1.68,5.21,14.52,0.22,0.09,-0.47,1721199623574
1.52,-2.57,1.17,-0.03,0.10,-0.41,1721199623584
-1.65,-0.66,15.64,-0.15,0.17,-0.57,1721199623594
-1.76,1.74,8.10,0.18,-0.08,-0.59,1721199623604
-1.29,-1.64,7.97,-0.20,0.30,-0.54,1721199623614
-1.64,-2.29,13.46,0.06,0.00,-0.41,1721199623624
-1.40,2.48,8.96,0.01,0.16,-0.43,1721199623634
0.39,0.24,11.38,-0.00,0.10,-0.37,1721199623644
0.38,3.73,13.84,0.05,0.24,-0.47,1721199623654
-0.05,0.55,7.15,0.09,0.08,-0.56,1721199623664
-2.29,-1.69,8.67,-0.09,0.13,-0.48,1721199623674
-1.53,2.36,10.56,0.13,0.11,-0.30,1721199623684
-0.40,2.34,10.11,0.07,0.12,-0.35,1721199623694
-0.61,-2.85,6.13,0.01,-0.04,-0.26,1721199623704
0.54,-3.32,13.79,-0.09,0.22,-0.37,1721199623714
-0.04,1.49,10.88,0.06,0.02,-0.50,1721199623724
-1.29,3.46,13.25,-0.03,0.31,-0.57,1721199623734
-2.34,3.29,7.71,0.29,0.01,-0.31,1721199623744
-1.13,-8.22,5.33,-0.27,0.24,-0.15,1721199623754
-0.52,5.93,22.70,0.29,0.12,-0.25,1721199623764
1.50,3.14,-1.06,0.12,0.08,-0.36,1721199623774
-3.69,-4.45,17.53,-0.35,0.18,-0.54,1721199623784
-2.94,5.37,11.71,0.44,-0.02,-0.28,1721199623794
-0.04,-8.73,-0.08,-0.23,0.13,-0.15,1721199623804
-3.62,3.02,18.53,0.04,-0.22,-0.27,1721199623814
0.62,4.88,5.06,0.36,0.26,-0.30,1721199623824
-1.77,-3.06,7.20,-0.15,0.01,-0.43,1721199623834
-5.85,-0.74,12.63,0.03,-0.05,-0.34,1721199623844
-0.92,3.05,11.51,0.10,0.32,-0.07,1721199623854
1.08,1.40,7.20,0.04,-0.01,-0.08,1721199623864
0.11,1.14,12.46,-0.01,0.10,-0.39,1721199623874
-0.01,2.07,7.72,0.21,0.04,-0.46,1721199623884
-2.13,-3.50,10.08,-0.15,0.20,-0.24,1721199623894
-3.52,4.54,12.12,0.26,-0.08,-0.04,1721199623904
2.42,0.61,6.77,-0.01,0.33,-0.02,1721199623914
2.60,1.93,18.29,0.09,0.03,-0.18,1721199623924
-0.23,-0.16,2.72,0.16,-0.07,-0.43,1721199623934
-1.57,0.39,12.12,-0.08,0.46,-0.42,1721199623944
-2.35,1.64,11.42,0.16,-0.00,-0.23,1721199623954
-2.96,1.57,9.26,-0.02,0.08,-0.01,1721199623964
-0.90,2.07,7.27,0.19,0.04,-0.01,1721199623974
2.10,-3.76,10.22,-0.19,0.30,-0.19,1721199623984
-0.58,3.49,14.58,0.19,-0.07,-0.16,1721199623994
-0.33,-0.57,4.93,-0.10,0.23,-0.18,1721199624004
-2.85,4.40,17.92,0.12,0.04,-0.12,1721199624014
-0.87,0.36,1.89,0.20,0.10,-0.00,1721199624024
0.36,-5.31,9.53,-0.27,0.25,-0.08,1721199624034
-0.86,5.31,18.89,0.21,0.02,-0.05,1721199624044
0.78,2.09,2.90,0.09,0.07,-0.07,1721199624054
-1.24,-1.09,16.66,-0.05,0.08,-0.22,1721199624064
-3.65,-2.09,1.19,0.14,-0.12,-0.14,1721199624074
-2.94,1.93,17.40,-0.22,0.46,-0.07,1721199624084
0.26,2.02,8.63,0.27,-0.14,0.13,1721199624094
-0.10,-1.81,5.91,-0.19,0.18,0.00,1721199624104
0.15,-0.76,14.43,0.07,-0.03,-0.08,1721199624114
-0.40,-0.35,8.41,0.02,0.01,-0.14,1721199624124
-1.46,0.49,10.35,-0.02,0.07,-0.11,1721199624134
-1.65,0.28,12.19,-0.07,0.15,-0.08,1721199624144
0.15,-1.87,5.61,-0.08,0.10,0.08,1721199624159
1.32,-1.27,10.71,-0.13,0.18,0.03,1721199624163
0.27,4.05,11.51,0.09,-0.04,-0.13,1721199624173
-0.38,-0.09,10.17,-0.09,0.05,-0.15,1721199624183
-1.16,-2.36,12.47,-0.04,-0.02,0.00,1721199624193
-1.05,-1.55,7.57,-0.01,-0.02,0.17,1721199624203
0.73,1.39,11.76,-0.11,0.17,0.07,1721199624213
2.24,0.17,11.23,-0.02,0.02,-0.07,1721199624223
0.46,0.68,11.31,-0.07,0.05,-0.19,1721199624233
-2.88,0.68,7.29,-0.01,-0.02,-0.24,1721199624243
-3.26,-2.38,13.92,-0.12,0.09,0.11,1721199624253
-0.78,6.65,9.41,0.31,-0.01,0.27,1721199624263
4.77,-6.16,3.15,-0.23,0.17,0.01,1721199624273
0.37,3.29,18.80,0.11,-0.10,-0.23,1721199624283
-1.02,-0.58,4.34,0.02,0.09,-0.31,1721199624293
-4.41,4.50,14.59,0.05,-0.03,0.05,1721199624303
0.03,-4.18,3.45,-0.14,0.09,0.17,1721199624313
0.76,3.01,18.18,0.00,0.17,-0.12,1721199624323
0.06,-3.79,3.28,-0.03,-0.19,-0.20,1721199624333
-3.92,4.27,15.99,-0.03,0.16,-0.15,1721199624343
0.21,-0.01,9.56,0.12,0.12,0.05,1721199624353
-0.32,-0.43,9.08,-0.12,-0.00,0.10,1721199624363
0.00,2.89,11.77,0.06,0.04,-0.13,1721199624373
0.91,0.05,11.97,-0.09,0.12,-0.17,1721199624383
-1.66,1.90,11.16,0.17,-0.14,-0.01,1721199624393
-0.39,-3.25,2.71,-0.08,0.05,0.06,1721199624403
-0.57,2.12,16.23,0.05,0.12,0.03,1721199624413
0.27,3.91,4.42,0.20,-0.02,-0.12,1721199624423
-0.47,-6.07,14.18,-0.28,0.16,-0.04,1721199624433
-2.38,2.68,14.26,0.21,-0.20,0.10,1721199624443
0.54,3.02,3.85,0.02,0.22,0.07,1721199624453
1.50,0.29,15.82,-0.06,0.03,-0.11,1721199624463
-1.18,-1.07,8.67,0.12,-0.12,-0.13,1721199624473
-2.57,-0.64,8.12,-0.05,0.17,0.02,1721199624483
-0.03,5.20,16.01,0.04,0.15,0.16,1721199624493
2.04,3.30,9.84,0.10,-0.09,0.06,1721199624503
0.11,-1.95,5.53,0.03,-0.11,-0.07,1721199624513
-0.24,4.06,12.32,0.17,0.19,-0.08,1721199624523
0.62,-0.99,8.66,0.00,0.02,-0.11,1721199624533
-3.92,0.87,10.01,0.11,-0.16,0.08,1721199624543
-0.53,0.88,11.42,-0.02,0.29,0.21,1721199624553
2.98,3.25,11.06,0.12,0.01,0.13,1721199624563
2.42,0.15,10.77,-0.02,0.06,-0.15,1721199624573
-1.06,1.73,11.21,0.12,-0.05,-0.13,1721199624583
-3.03,0.91,8.37,0.03,0.03,-0.13,1721199624593
-2.38,-2.75,9.21,-0.03,-0.01,0.04,1721199624603
-0.70,4.91,15.33,0.09,0.13,0.10,1721199624613
3.12,-0.70,3.86,0.01,-0.03,0.10,1721199624623
0.25,2.66,17.80,-0.10,0.10,-0.07,1721199624633
-0.92,3.75,6.41,0.23,-0.10,-0.30,1721199624643
-2.17,-1.79,6.71,-0.14,0.14,-0.10,1721199624653
-2.38,-1.34,13.68,0.03,-0.01,0.15,1721199624663
-0.28,4.02,11.80,0.14,0.01,0.23,1721199624673
1.62,0.01,1.05,-0.02,-0.17,0.17,1721199624683
2.26,-0.71,16.53,-0.13,0.20,-0.20,1721199624693
0.92,2.95,6.16,0.22,-0.20,-0.13,1721199624703
-0.57,1.05,9.94,-0.21,0.30,-0.15,1721199624713
-1.15,1.72,15.24,0.14,-0.15,0.16,1721199624723
0.52,2.26,9.31,0.04,0.08,0.07,1721199624733
1.91,1.57,8.28,0.09,0.02,-0.16,1721199624743
-0.16,-1.08,8.09,-0.08,0.02,-0.14,1721199624753
-1.77,2.07,13.76,0.04,0.06,-0.02,1721199624763
-1.86,-0.33,10.75,-0.06,0.04,-0.31,1721199624773
-5.71,0.46,12.54,0.18,-0.34,0.18,1721199624783
-0.35,-9.08,4.15,-0.24,0.32,0.44,1721199624793
5.70,6.40,15.86,0.20,0.04,0.49,1721199624803
9.12,-1.92,0.39,-0.20,0.01,-0.35,1721199624813
0.67,2.45,19.60,0.08,-0.17,-0.78,1721199624823
-4.45,-4.37,-2.18,-0.00,-0.10,-0.44,1721199624833
-6.54,-2.42,17.57,-0.36,0.25,-0.07,1721199624843
-2.27,7.47,14.03,0.23,0.05,0.29,1721199624853
1.56,-7.23,6.49,-0.34,0.02,-0.03,1721199624863
-1.40,2.88,15.98,0.19,-0.23,-0.05,1721199624873
4.69,-7.19,-0.56,-0.23,0.25,0.01,1721199624883
-0.28,4.80,23.01,-0.04,-0.07,-0.16,1721199624893
-0.07,-0.43,0.79,0.13,-0.22,-0.26,1721199624903
-3.28,-1.11,15.53,-0.21,0.19,-0.26,1721199624913
-0.72,-0.53,6.37,0.20,-0.09,0.01,1721199624923
1.58,-5.03,9.12,-0.44,0.34,-0.05,1721199624933
-2.61,8.04,17.09,0.19,-0.20,-0.26,1721199624943
0.25,-1.11,6.52,-0.17,0.28,-0.09,1721199624953
-1.57,-0.52,16.32,0.02,-0.15,-0.15,1721199624963
-0.66,0.84,6.81,0.15,0.06,-0.11,1721199624973
0.35,0.11,11.05,-0.07,0.12,-0.15,1721199624983
-0.82,3.91,11.95,0.22,-0.10,-0.15,1721199624993
0.58,-1.29,7.02,0.06,0.13,-0.24,1721199625003
-1.16,-3.59,8.76,-0.02,0.01,-0.18,1721199625013
-1.36,4.55,14.81,0.14,0.24,-0.06,1721199625023
1.34,0.10,10.57,-0.03,0.08,-0.09,1721199625033
-1.19,5.41,9.92,0.24,-0.10,-0.22,1721199625043
0.93,-1.20,8.56,0.02,0.17,-0.39,1721199625053
-1.82,1.75,10.84,0.16,-0.18,-0.28,1721199625063
-0.52,-3.62,6.44,-0.12,0.12,-0.11,1721199625073
-1.77,5.64,19.06,0.17,-0.01,-0.21,1721199625083
-1.39,-1.18,0.22,0.17,-0.08,-0.27,1721199625093
-2.15,-0.34,14.06,-0.11,0.22,-0.20,1721199625103
-0.15,3.41,11.29,0.33,-0.03,-0.01,1721199625113
0.05,1.17,9.93,-0.11,0.13,-0.09,1721199625123
-0.43,2.10,12.73,0.22,-0.16,-0.20,1721199625133
-0.34,-2.87,2.68,-0.01,0.02,-0.19,1721199625143
-2.12,2.70,16.10,0.04,0.11,-0.23,1721199625153
-2.70,1.35,4.55,0.10,-0.07,-0.18,1721199625163
-3.18,1.94,12.60,-0.04,0.12,-0.06,1721199625173
-0.91,-2.92,3.35,0.07,-0.16,0.19,1721199625183
0.16,-0.37,13.60,-0.25,0.27,0.07,1721199625193
0.37,4.71,17.49,0.15,-0.08,-0.15,1721199625203
-1.05,0.92,7.91,0.06,-0.08,-0.07,1721199625213
-2.47,-3.29,6.55,-0.16,-0.10,0.22,1721199625223
-0.20,-0.44,15.93,-0.09,0.04,0.17,1721199625233
1.85,4.58,5.09,0.18,-0.11,-0.04,1721199625243
2.92,-4.88,9.05,-0.37,0.18,-0.21,1721199625253
-3.17,-0.07,14.80,0.06,-0.33,-0.01,1721199625263
-1.87,-5.22,3.03,-0.28,0.19,0.04,1721199625273
-2.66,3.20,17.28,-0.01,-0.03,0.04,1721199625283
2.11,1.82,8.82,-0.00,0.04,0.03,1721199625293
0.62,-3.83,7.66,-0.19,-0.29,0.12,1721199625303
-1.51,-0.35,10.44,0.01,0.02,0.09,1721199625313
4.13,-5.61,7.36,-0.20,0.25,-0.01,1721199625323
-2.03,1.85,14.46,-0.17,-0.15,-0.09,1721199625333
-4.05,2.91,10.04,-0.02,-0.13,0.08,1721199625343
-0.57,1.56,6.14,-0.13,-0.09,0.22,1721199625353
4.28,-4.29,10.90,-0.36,0.27,-0.09,1721199625363
0.43,3.45,13.93,0.06,-0.24,-0.22,1721199625373
-1.19,-2.75,8.70,-0.12,0.11,-0.17,1721199625383
-1.99,2.25,14.14,0.15,-0.12,0.19,1721199625393
1.05,-0.40,5.28,0.01,0.04,0.13,1721199625403
3.03,0.18,15.31,-0.06,0.16,-0.04,1721199625413
1.04,3.45,11.82,0.18,-0.05,-0.32,1721199625423
-0.40,-8.00,5.92,-0.15,-0.02,-0.11,1721199625433
-2.34,2.07,13.24,0.16,-0.02,0.14,1721199625443
3.13,0.59,6.84,0.11,0.18,0.03,1721199625453
2.02,2.57,14.67,0.09,-0.00,-0.16,1721199625463
2.45,-0.68,8.62,0.09,0.11,-0.25,1721199625473
-0.78,-1.11,10.45,0.15,-0.05,-0.19,1721199625483
-1.16,2.75,11.38,0.11,0.23,-0.03,1721199625493
0.72,3.30,8.39,0.24,0.06,-0.02,1721199625503
0.82,-4.71,6.21,-0.04,0.07,-0.16,1721199625513
-0.52,5.59,18.56,0.32,0.15,-0.39,1721199625523
-0.63,1.09,5.17,0.21,-0.04,-0.15,1721199625533
-1.17,-1.01,13.75,0.01,0.22,0.13,1721199625543
1.46,0.14,6.81,0.28,0.08,-0.08,1721199625553
1.44,0.14,10.87,-0.02,0.30,-0.36,1721199625563
-1.76,2.75,9.66,0.37,-0.10,-0.27,1721199625573
-2.97,1.06,8.91,0.08,0.23,-0.17,1721199625583
-2.40,3.99,11.44,0.30,0.03,0.07,1721199625593
0.75,-0.08,9.39,0.02,0.25,0.10,1721199625603
0.98,0.88,10.61,0.15,0.04,-0.09,1721199625613
0.95,-0.37,7.38,0.00,0.16,-0.16,1721199625623
-0.30,0.60,13.25,0.08,0.21,-0.26,1721199625633
-1.96,2.26,9.83,0.17,0.06,-0.17,1721199625643
-2.38,-0.56,10.34,0.01,0.05,0.09,1721199625653
-0.41,1.22,13.51,0.11,0.03,0.16,1721199625663
3.01,-1.62,3.83,-0.08,0.08,0.11,1721199625673
1.62,4.45,14.83,-0.06,0.21,-0.27,1721199625683
0.40,1.79,3.76,0.13,-0.01,-0.30,1721199625693
-2.26,-3.21,11.93,-0.27,0.25,-0.08,1721199625703
-1.77,-0.16,9.58,0.05,-0.06,0.22,1721199625713
2.84,-0.29,11.87,-0.31,0.33,0.10,1721199625723
2.49,3.52,11.55,0.06,-0.13,-0.17,1721199625733
-0.41,-5.20,2.98,-0.34,0.06,-0.26,1721199625743
-4.16,0.44,19.67,-0.10,0.17,-0.21,1721199625753
-0.82,-1.69,4.05,-0.13,0.11,0.02,1721199625763
0.69,2.09,15.18,-0.24,0.25,0.06,1721199625773
2.67,4.18,13.73,0.04,0.16,-0.22,1721199625783
-0.29,-3.32,2.55,-0.13,-0.15,-0.25,1721199625793
-3.71,0.40,13.35,-0.16,0.24,-0.18,1721199625803
-1.68,-3.48,9.45,-0.12,0.03,-0.05,1721199625813
-2.63,1.94,9.64,-0.05,0.02,0.00,1721199625823
1.11,-1.67,7.62,-0.06,0.25,-0.06,1721199625833
0.96,-0.66,14.82,-0.11,0.24,-0.22,1721199625843
-1.64,4.46,9.41,0.13,0.04,-0.13,1721199625853
-1.14,-1.11,11.51,-0.17,0.26,0.08,1721199625863
-2.17,1.02,14.15,0.05,-0.21,0.04,1721199625873
-0.88,-0.11,6.82,0.05,0.07,-0.25,1721199625883
-1.33,-1.54,11.21,0.08,0.06,-0.09,1721199625893
-0.19,-2.25,14.59,-0.03,0.24,0.07,1721199625903
-1.08,-1.80,5.10,0.16,-0.22,-0.06,1721199625913
-0.46,1.05,11.56,-0.14,0.48,-0.28,1721199625923
-1.88,3.03,13.03,0.29,-0.08,-0.23,1721199625933
-2.51,-0.77,9.05,-0.09,0.33,-0.08,1721199625943
-2.16,1.17,14.14,0.14,-0.09,0.24,1721199625953
1.70,0.67,10.56,-0.04,0.19,0.18,1721199625963
3.29,7.45,15.18,0.17,0.07,-0.19,1721199625973
0.31,-7.48,5.66,-0.06,-0.20,-0.38,1721199625983
-5.54,10.67,13.84,0.30,0.10,-0.23,1721199625993
-1.65,-10.42,0.99,-0.16,-0.10,0.08,1721199626003
-5.51,8.25,20.60,0.09,-0.03,0.10,1721199626013
2.72,-6.01,0.99,0.10,-0.08,-0.02,1721199626023
-2.08,2.39,10.71,0.02,0.05,-0.18,1721199626033
0.19,-3.23,6.23,0.07,0.17,-0.15,1721199626043
-3.05,3.84,18.93,0.08,-0.01,-0.08,1721199626053
-1.79,5.18,7.57,0.40,-0.04,0.14,1721199626063
2.72,0.84,8.25,0.07,0.24,0.24,1721199626073
2.45,0.17,6.61,0.15,-0.26,-0.03,1721199626083
2.20,4.31,15.67,0.02,0.29,-0.42,1721199626093
-2.97,-2.05,4.86,0.09,-0.46,-0.15,1721199626103
-5.54,2.61,14.08,-0.18,0.41,-0.03,1721199626113
-2.68,-2.50,10.14,0.10,-0.21,0.09,1721199626123
-3.47,3.66,9.97,-0.15,0.06,0.14,1721199626133
3.19,3.19,10.72,0.07,0.10,0.16,1721199626143
2.85,2.72,8.68,-0.04,0.02,-0.04,1721199626153
-2.53,1.37,10.30,0.04,-0.06,-0.03,1721199626168
-1.92,-1.88,5.96,0.02,-0.17,0.05,1721199626172
-3.25,-2.91,8.04,-0.21,-0.05,0.16,1721199626182
-2.51,-0.60,11.89,-0.17,0.02,0.15,1721199626192
0.41,3.19,10.29,0.01,-0.08,0.23,1721199626202
3.91,-4.32,10.06,-0.22,0.15,0.06,1721199626212
-0.16,-1.02,11.31,-0.02,-0.25,-0.02,1721199626222
-1.54,-1.20,9.23,-0.19,0.09,0.01,1721199626232
-3.38,1.87,14.89,-0.02,-0.11,0.09,1721199626242
-2.06,-2.48,3.77,-0.12,-0.23,0.22,1721199626252
1.47,-5.03,10.43,-0.17,0.08,0.19,1721199626262
2.27,-9.14,8.47,-0.23,-0.12,0.02,1721199626272
-3.24,5.55,17.21,-0.14,0.01,0.08,1721199626282
-2.73,-0.95,-0.00,-0.02,-0.27,0.20,1721199626292
1.80,-0.68,14.89,-0.35,0.39,0.05,1721199626302
6.09,4.61,17.47,0.18,-0.23,0.01,1721199626312
2.29,-2.27,4.74,-0.06,-0.06,-0.02,1721199626322
-3.12,1.42,17.83,-0.07,0.02,-0.01,1721199626332
-2.63,-0.90,1.21,0.14,-0.21,0.05,1721199626342
2.23,-4.53,13.16,-0.34,0.38,-0.16,1721199626352
2.86,7.40,21.47,0.33,-0.32,-0.07,1721199626362
2.19,-2.05,-0.16,0.04,0.12,-0.02,1721199626372
-3.51,-0.40,15.02,-0.03,0.11,-0.17,1721199626382
-3.56,-0.91,9.39,0.14,-0.05,-0.25,1721199626392
-1.05,4.72,11.82,0.12,0.20,-0.05,1721199626402
2.82,-1.95,7.12,0.09,-0.12,0.16,1721199626412
3.91,-1.04,15.03,0.03,0.28,-0.13,1721199626422
2.15,-0.50,8.03,0.21,-0.07,-0.41,1721199626432
-2.66,3.01,13.28,0.17,0.17,-0.32,1721199626442
-2.59,1.21,6.67,0.26,-0.01,0.09,1721199626452
-1.11,6.57,14.51,0.24,0.18,0.26,1721199626462
4.99,-7.14,2.17,-0.01,0.08,0.07,1721199626472
0.12,1.72,17.87,0.11,0.07,-0.39,1721199626482
0.20,1.48,8.48,0.26,0.05,-0.34,1721199626492
-4.67,1.75,7.61,0.14,-0.08,0.06,1721199626502
-0.42,-1.22,12.19,0.10,0.44,0.18,1721199626512
2.12,3.03,9.20,0.33,0.02,-0.01,1721199626522
0.76,-0.16,2.20,-0.11,0.06,-0.12,1721199626532
-1.13,4.61,20.84,0.02,0.27,-0.31,1721199626542
-1.00,-4.38,2.92,0.03,-0.08,-0.14,1721199626552
-4.13,3.81,13.09,0.02,0.20,0.05,1721199626562
2.89,-2.22,2.43,-0.05,0.13,0.16,1721199626572
1.68,4.13,14.11,-0.08,0.14,-0.04,1721199626582
1.64,-0.51,10.50,-0.08,0.15,-0.40,1721199626592
-4.04,2.84,13.49,0.09,-0.13,-0.19,1721199626602
-0.44,0.98,4.25,-0.12,0.25,0.12,1721199626612
1.79,1.88,17.28,-0.13,0.12,0.02,1721199626622
1.10,0.59,6.83,0.06,-0.05,-0.21,1721199626632
-2.01,-2.27,9.23,-0.31,0.14,-0.36,1721199626642
-3.27,-0.15,13.19,-0.00,0.02,-0.16,1721199626652
-0.90,-2.49,8.80,-0.21,0.16,0.12,1721199626662
-0.63,0.90,6.87,-0.03,0.03,0.01,1721199626672
0.97,1.23,11.89,-0.26,0.33,-0.36,1721199626682
-1.09,2.02,9.55,0.10,-0.10,-0.17,1721199626692
0.68,-4.17,11.20,-0.34,0.47,0.07,1721199626702
-0.24,4.70,11.06,0.21,-0.07,0.12,1721199626712
2.79,-4.68,8.42,-0.40,0.38,-0.24,1721199626722
-0.23,3.51,20.33,0.12,-0.29,-0.19,1721199626732
-2.39,-4.51,0.76,-0.03,-0.02,-0.09,1721199626742
-5.63,3.02,17.74,0.01,0.15,0.04,1721199626752
-1.40,-5.05,4.92,-0.04,-0.03,0.17,1721199626762
-0.26,4.13,12.53,-0.03,0.09,0.05,1721199626772
2.21,-2.48,5.71,-0.06,0.01,-0.27,1721199626782
-2.94,-2.83,17.65,-0.04,-0.03,-0.19,1721199626792
-4.43,-2.97,9.61,0.20,-0.04,0.28,1721199626802
0.61,-2.90,9.80,-0.21,0.41,0.20,1721199626812
1.44,8.83,17.43,0.24,-0.14,0.05,1721199626822
1.82,-3.07,3.69,-0.08,0.07,-0.15,1721199626832
-2.55,7.27,16.21,0.22,0.09,-0.21,1721199626842
-1.62,-7.75,0.62,-0.05,-0.12,-0.01,1721199626852
-4.76,4.37,18.71,-0.05,0.05,0.09,1721199626862
1.53,-1.78,7.70,0.21,-0.15,0.03,1721199626872
-2.17,-1.03,9.45,-0.04,-0.07,-0.12,1721199626882
-2.00,0.04,9.39,0.16,0.11,-0.09,1721199626892
-0.31,2.23,8.47,0.09,-0.01,-0.12,1721199626902
-2.86,2.23,9.96,0.12,-0.13,-0.09,1721199626912
-0.81,0.23,9.08,0.19,0.01,0.07,1721199626922
0.41,-0.45,11.63,0.11,0.08,0.10,1721199626932
-0.09,4.62,8.35,0.21,-0.09,-0.06,1721199626942
1.86,0.48,13.06,-0.02,0.03,-0.01,1721199626952
-0.94,1.01,10.29,0.29,-0.31,0.01,1721199626962
-1.92,0.23,2.64,0.05,0.12,0.07,1721199626972
-0.59,1.11,18.02,-0.12,0.10,-0.22,1721199626982
-2.10,3.28,7.77,0.28,-0.23,-0.03,1721199626992
-2.52,1.26,7.78,-0.13,0.26,0.02,1721199627002
-1.21,4.11,15.72,0.21,-0.06,0.09,1721199627012
0.97,3.74,9.93,0.13,0.04,0.15,1721199627022
0.10,3.45,11.07,0.03,-0.13,0.09,1721199627032
-0.65,5.85,15.38,0.08,-0.08,-0.04,1721199627042
-0.23,-4.65,0.56,-0.01,-0.42,0.08,1721199627052
-1.72,2.21,18.04,-0.20,0.19,0.18,1721199627062
0.56,2.44,4.26,0.25,-0.21,0.06,1721199627072
-0.97,-4.01,7.52,-0.38,0.19,-0.11,1721199627082
-1.68,-1.31,13.91,0.01,-0.34,0.14,1721199627092
0.86,-3.82,7.77,-0.19,0.09,0.22,1721199627102
0.41,-0.50,10.19,-0.07,-0.15,0.07,1721199627112
0.30,-1.01,9.70,-0.13,-0.05,-0.11,1721199627122
-0.79,-1.63,9.33,-0.14,-0.16,0.05,1721199627132
-1.01,-3.74,7.52,-0.26,-0.08,0.18,1721199627142
0.07,-3.86,14.58,-0.30,0.09,-0.11,1721199627152
-1.65,-0.57,11.10,-0.04,-0.22,0.05,1721199627162
-0.52,-0.83,4.21,-0.23,0.01,0.29,1721199627172
0.57,3.31,18.89,-0.14,0.07,-0.07,1721199627182
2.38,-0.63,6.27,0.14,-0.37,0.09,1721199627192
2.83,-5.96,8.31,-0.38,0.26,-0.07,1721199627202
-1.38,4.53,13.60,0.01,-0.14,-0.20,1721199627212
-2.25,-0.84,9.10,-0.19,-0.04,-0.19,1721199627222
-0.84,-3.75,10.48,-0.10,-0.19,0.11,1721199627232
3.06,5.35,15.42,-0.05,0.33,-0.06,1721199627242
1.08,-2.29,3.66,0.05,-0.35,-0.14,1721199627252
-0.89,0.99,20.43,-0.22,0.33,-0.34,1721199627262
-0.10,2.32,6.22,0.34,-0.32,-0.03,1721199627272
-0.50,0.46,9.05,-0.17,0.39,0.01,1721199627282
-0.16,5.09,16.69,0.35,-0.19,0.00,1721199627292
1.58,-1.91,6.24,0.05,0.11,-0.16,1721199627302
-1.51,4.91,13.32,0.26,-0.11,-0.08,1721199627312
2.79,0.49,12.53,0.10,0.35,-0.16,1721199627322
-0.46,2.53,9.42,0.33,-0.29,-0.18,1721199627332
-2.13,0.78,5.92,0.16,0.18,-0.19,1721199627342
-2.09,1.33,12.16,0.15,0.14,-0.18,1721199627352
-2.11,1.51,11.10,0.18,-0.01,0.07,1721199627362
0.95,-1.38,9.25,0.04,0.13,0.09,1721199627372
3.00,7.22,15.55,0.37,0.14,-0.09,1721199627382
4.15,-0.10,5.60,0.16,0.03,-0.33,1721199627392
-2.86,8.94,11.18,0.38,-0.10,-0.38,1721199627402
0.67,-6.70,5.49,-0.03,0.25,-0.01,1721199627412
-1.07,-2.36,12.01,0.01,0.01,0.03,1721199627422
1.08,2.04,9.31,0.09,0.21,-0.28,1721199627432
-0.26,-0.39,8.88,-0.07,0.05,-0.34,1721199627442
-2.91,-1.96,8.40,-0.01,-0.02,-0.08,1721199627452
-0.88,3.43,18.04,-0.07,0.42,-0.01,1721199627462
2.30,0.86,5.63,0.09,-0.13,0.21,1721199627472
4.63,0.69,13.48,-0.33,0.43,-0.23,1721199627482
3.00,-0.54,13.73,0.08,-0.12,-0.48,1721199627492
-2.34,1.30,6.70,-0.02,0.21,-0.51,1721199627502
-1.93,-2.43,5.92,-0.14,0.13,-0.21,1721199627512
-4.63,-0.54,13.30,-0.19,0.08,-0.09,1721199627522
-1.71,2.59,10.57,-0.05,0.17,0.02,1721199627532
2.33,-5.79,1.70,-0.20,0.14,-0.14,1721199627542
-1.56,0.51,14.39,-0.27,0.26,-0.34,1721199627552
-2.31,-3.46,10.46,-0.17,0.02,-0.24,1721199627562
-2.52,5.80,11.59,0.11,0.12,-0.02,1721199627572
2.06,-10.41,3.16,-0.39,0.16,-0.03,1721199627582
-3.45,1.83,19.69,-0.02,-0.09,-0.08,1721199627592
0.95,-2.04,3.97,0.04,0.24,-0.13,1721199627602
-3.16,2.87,14.01,-0.07,-0.00,-0.14,1721199627612
-2.74,-0.72,5.08,0.16,0.01,0.08,1721199627622
1.73,-4.15,14.67,-0.25,0.36,0.11,1721199627632
0.84,1.04,16.70,0.06,-0.19,-0.15,1721199627642
-1.02,1.38,13.10,-0.14,0.31,-0.28,1721199627652
-2.40,4.53,11.20,0.14,-0.07,-0.20,1721199627662
-2.65,-5.59,2.73,-0.02,-0.16,0.04,1721199627672
-2.89,-0.19,13.36,0.05,0.15,0.09,1721199627682
2.49,3.03,6.54,0.18,0.05,0.03,1721199627692
1.72,-0.99,12.37,-0.08,0.04,-0.19,1721199627702
-2.71,6.14,11.15,0.22,0.00,-0.31,1721199627712
-2.98,-4.22,10.11,-0.15,0.25,-0.21,1721199627722
-2.72,3.53,18.85,0.27,-0.18,0.22,1721199627732
1.63,0.34,2.44,0.27,0.09,0.38,1721199627742
2.41,1.07,13.13,0.08,0.13,-0.09,1721199627752
0.36,4.48,8.17,0.33,-0.18,-0.20,1721199627762
-1.40,-2.79,12.60,-0.04,0.16,-0.25,1721199627772
-3.49,1.09,8.57,0.42,-0.32,0.09,1721199627782
1.55,-0.46,2.69,0.00,0.38,0.09,1721199627792
0.62,-0.06,18.01,-0.04,-0.11,-0.15,1721199627802
-1.02,4.11,9.87,0.28,-0.05,-0.03,1721199627812
1.75,0.06,8.94,0.06,0.29,-0.08,1721199627822
-4.67,1.56,3.70,0.11,-0.34,-0.18,1721199627832
-5.34,1.32,14.24,-0.13,0.25,-0.04,1721199627842
-2.72,2.39,7.99,0.21,-0.20,0.22,1721199627852
-0.27,-2.75,9.49,-0.26,0.20,0.20,1721199627862
0.61,3.73,14.45,0.17,-0.14,0.19,1721199627872
2.15,-0.36,5.94,-0.13,0.04,0.00,1721199627882
-1.52,0.48,10.42,0.02,-0.19,0.16,1721199627892
-0.70,-0.98,7.47,-0.11,0.03,0.20,1721199627902
1.77,1.41,14.91,-0.07,0.00,0.12,1721199627912
0.59,-3.57,4.06,-0.05,-0.26,0.09,1721199627922
-2.08,-2.00,10.87,-0.34,0.16,-0.04,1721199627932
-1.73,-3.94,11.79,-0.16,-0.20,0.10,1721199627942
-2.09,0.44,14.29,-0.18,0.09,0.25,1721199627952
-0.24,-3.60,3.27,-0.03,-0.30,0.14,1721199627962
1.77,-1.51,9.76,-0.38,0.21,0.08,1721199627972
1.91,2.56,14.17,-0.04,-0.14,0.13,1721199627982
2.91,-7.16,9.02,-0.34,0.07,0.01,1721199627992
-0.74,2.28,14.71,0.03,-0.19,0.07,1721199628002
0.99,1.06,3.16,-0.16,0.08,0.12,1721199628012
0.96,0.91,20.57,-0.19,0.05,-0.14,1721199628022
1.00,-0.29,7.13,0.15,-0.15,0.02,1721199628032
-1.09,0.91,8.29,-0.13,0.16,-0.10,1721199628042
-0.07,-4.68,9.68,-0.04,-0.12,0.05,1721199628052
-2.23,2.75,11.60,-0.10,0.02,0.04,1721199628062
0.99,2.62,14.62,0.04,0.20,-0.00,1721199628072
0.23,-2.60,6.10,-0.01,-0.12,-0.02,1721199628082
-0.24,4.52,11.82,0.10,0.19,0.08,1721199628092
3.13,-0.79,10.78,0.03,0.09,0.05,1721199628102
0.04,4.78,15.42,0.16,-0.07,-0.03,1721199628112
-1.01,-3.97,7.84,-0.13,0.05,-0.01,1721199628640
-1.73,-0.57,13.98,-0.16,0.11,-0.02,1721199628644
-4.13,11.03,14.42,0.31,-0.17,0.13,1721199628653
-0.91,-3.47,2.64,-0.24,-0.00,0.23,1721199628663
-0.99,-6.12,17.69,-0.15,-0.12,0.45,1721199628672
1.96,-0.61,9.43,0.10,-0.03,0.32,1721199628682
0.30,5.96,6.40,-0.08,-0.14,-0.05,1721199628692
0.46,-2.01,12.99,-0.17,-0.00,0.03,1721199628702
-4.24,-1.99,7.78,0.03,-0.28,0.14,1721199628712
0.08,-4.34,11.33,-0.31,0.18,0.23,1721199628722
-0.21,4.59,14.63,0.03,-0.18,0.29,1721199628732
0.12,-2.80,12.43,-0.15,-0.09,0.18,1721199628742
-1.34,-1.13,6.06,0.05,-0.29,0.26,1721199628752
1.33,1.13,12.66,-0.16,0.16,0.05,1721199628762
2.67,-3.38,9.01,0.07,-0.34,0.11,1721199628772
-2.19,3.46,14.51,-0.11,0.09,-0.03,1721199628782
1.81,-5.43,10.01,-0.06,-0.19,0.24,1721199628792
-0.51,0.92,7.25,-0.09,-0.01,0.17,1721199628802
2.09,-0.90,7.17,-0.06,0.00,-0.06,1721199628812
0.64,-7.19,10.53,-0.17,-0.21,-0.07,1721199628822
-2.38,2.93,16.01,0.10,0.00,-0.02,1721199628832
1.80,3.96,12.50,0.17,0.08,0.17,1721199628842
0.77,2.41,9.49,-0.02,-0.12,0.19,1721199628852
-0.09,-2.52,8.11,-0.07,-0.05,-0.07,1721199628862
0.50,2.18,15.74,0.10,0.06,-0.26,1721199628872
-0.94,-5.68,1.75,0.06,-0.30,0.08,1721199628882
-2.18,7.17,17.54,0.15,0.24,0.12,1721199628892
4.86,1.68,3.57,0.26,0.02,0.12,1721199628902
-0.09,-0.67,13.89,-0.11,-0.04,-0.31,1721199628912
-2.92,3.84,8.80,0.40,-0.10,-0.28,1721199628922
-2.44,-2.12,10.42,-0.10,0.22,-0.05,1721199628932
-2.07,4.30,14.99,0.38,-0.19,0.40,1721199628942
4.11,1.06,8.31,0.16,0.29,0.12,1721199628952
3.82,3.25,10.99,0.26,-0.18,-0.18,1721199628962
1.89,4.95,6.10,0.14,0.15,-0.35,1721199628972
0.24,-4.57,10.57,-0.07,0.10,-0.40,1721199628982
-3.17,2.04,14.19,0.24,0.05,-0.24,1721199628992
-1.83,2.09,1.78,0.16,0.07,0.03,1721199629002
-0.50,-1.21,13.46,-0.16,0.18,-0.11,1721199629012
1.87,2.42,9.07,0.24,0.04,-0.13,1721199629022
3.19,-0.74,16.69,-0.22,0.39,-0.48,1721199629032
-2.29,8.41,10.30,0.47,-0.29,-0.38,1721199629042
-0.93,-2.84,1.29,-0.37,0.49,-0.38,1721199629052
-2.91,2.19,14.77,0.22,-0.43,-0.06,1721199629062
3.49,-8.31,3.73,-0.35,0.48,-0.23,1721199629072
-0.20,1.40,22.04,0.14,-0.13,-0.28,1721199629082
-3.26,3.45,-1.80,0.01,0.03,-0.32,1721199629092
-1.98,-3.36,15.53,-0.38,0.30,-0.24,1721199629102
-1.23,-1.76,11.78,0.07,-0.09,0.02,1721199629112
0.95,-2.86,12.91,-0.28,0.36,-0.25,1721199629122
-2.29,-0.72,3.93,0.09,-0.29,-0.23,1721199629132
-0.76,-1.49,11.49,-0.23,0.66,-0.18,1721199629142
-1.66,-1.74,12.29,0.05,-0.22,-0.05,1721199629152
-5.15,-2.32,6.07,-0.26,0.04,-0.04,1721199629162
0.57,2.89,18.35,0.11,0.33,0.05,1721199629172
-0.42,-4.00,1.03,-0.18,-0.14,0.01,1721199629182
-3.38,0.81,17.83,-0.11,0.12,-0.07,1721199629192
-0.23,-5.76,4.89,0.08,-0.12,0.13,1721199629202
-1.78,-1.69,11.46,-0.18,0.12,0.08,1721199629212
0.43,2.97,12.21,0.11,0.02,0.20,1721199629222
1.03,4.76,15.08,-0.01,0.18,0.04,1721199629232
-0.62,-4.55,5.09,-0.10,-0.23,-0.02,1721199629242
-4.12,0.26,11.57,-0.01,0.26,-0.17,1721199629252
-0.54,-0.63,9.72,0.10,-0.05,0.22,1721199629262
-1.26,3.89,14.79,0.05,-0.10,0.27,1721199629272
2.69,4.15,10.59,0.23,-0.20,0.13,1721199629282
3.30,3.53,10.32,0.06,0.19,-0.10,1721199629292
-1.72,-0.90,4.96,0.01,-0.43,-0.16,1721199629302
-5.39,3.10,16.09,0.10,0.04,0.09,1721199629312
-0.03,-5.43,1.46,0.30,-0.16,0.42,1721199629322
4.09,2.78,8.54,0.09,0.25,0.21,1721199629332
2.66,6.91,18.67,0.17,-0.22,-0.14,1721199629342
1.55,4.56,18.04,0.06,-0.05,-0.19,1721199629352
1.46,5.45,10.75,0.24,0.30,-0.05,1721199629362
6.05,-5.64,-0.45,-0.14,-0.06,-0.32,1721199629372
-5.11,1.73,6.51,-0.15,-0.36,-0.63,1721199629382
-9.25,3.60,12.75,0.07,0.56,-0.51,1721199629392
-3.95,-0.85,8.02,0.14,-0.05,0.44,1721199629402
-1.35,0.58,8.78,-0.18,0.02,0.55,1721199629412
3.63,2.36,15.92,0.02,0.00,0.26,1721199629422
3.52,2.82,7.90,0.09,-0.11,-0.05,1721199629432
0.37,-4.83,2.35,-0.10,-0.12,-0.26,1721199629442
-2.82,-6.10,14.80,-0.29,0.09,-0.17,1721199629452
-2.22,5.16,14.77,0.19,0.01,0.08,1721199629462
-0.48,3.74,11.35,-0.16,-0.03,0.09,1721199629472
-1.37,0.14,8.06,0.10,-0.35,0.17,1721199629482
1.39,-4.09,4.74,-0.20,0.40,-0.16,1721199629492
-1.55,-4.90,18.36,-0.15,-0.21,-0.19,1721199629502
-8.11,-4.28,7.26,-0.09,-0.35,0.07,1721199629512
-2.72,5.89,13.72,0.03,0.17,0.50,1721199629522
6.71,3.67,8.11,0.02,-0.11,0.45,1721199629532
5.75,-1.98,9.34,-0.29,-0.13,-0.19,1721199629542
-0.07,-7.88,7.02,-0.28,-0.20,-0.46,1721199629552
-7.75,7.54,17.49,-0.02,-0.03,-0.25,1721199629562
-3.36,-6.44,3.64,-0.09,-0.22,0.45,1721199629572
-3.05,3.29,13.52,-0.03,-0.14,0.64,1721199629582
8.29,-1.65,8.33,-0.13,0.07,0.34,1721199629592
4.67,8.29,19.73,-0.13,-0.10,-0.26,1721199629602
1.76,-0.68,4.93,-0.02,-0.32,-0.39,1721199629612
-5.16,-2.12,5.82,-0.11,-0.11,-0.17,1721199629622
-2.83,-1.87,10.96,-0.01,-0.00,0.12,1721199629632
0.82,4.36,14.59,0.10,-0.10,0.38,1721199629642
4.56,4.89,11.48,0.08,-0.06,0.06,1721199629652
2.83,-0.29,6.20,0.11,-0.27,-0.18,1721199629662
0.66,-4.97,6.23,-0.05,0.04,-0.11,1721199629672
-1.80,6.19,14.42,0.28,-0.07,-0.11,1721199629682
1.22,0.16,11.77,0.08,0.02,0.02,1721199629692
0.37,4.75,7.96,0.36,-0.30,0.24,1721199629702
4.98,2.15,8.10,-0.06,0.38,-0.17,1721199629712
0.35,0.82,13.14,0.16,-0.47,-0.25,1721199629722
-2.10,-3.18,5.37,-0.06,0.04,-0.28,1721199629732
-0.61,-1.94,18.71,0.07,0.11,-0.23,1721199629742
-2.19,-1.31,6.89,0.21,-0.23,-0.11,1721199629752
-1.16,0.18,9.34,-0.00,0.12,0.01,1721199629762
1.56,4.38,11.06,0.20,0.02,-0.16,1721199629772
3.42,1.14,8.00,0.05,0.15,-0.29,1721199629782
-0.04,-6.77,9.47,-0.02,-0.20,-0.43,1721199629792
-5.17,1.31,14.33,0.11,0.08,-0.50,1721199629802
-2.97,-0.28,11.88,0.10,0.11,-0.08,1721199629812
-1.36,3.36,8.25,0.09,0.04,0.15,1721199629822
3.08,1.94,10.94,0.06,0.18,-0.09,1721199629832
2.22,-4.49,9.08,-0.04,-0.11,-0.39,1721199629842
-2.41,4.30,11.00,0.13,-0.02,-0.36,1721199629852
1.13,-0.30,12.29,0.03,0.30,-0.22,1721199629862
-0.01,-5.29,7.48,-0.03,-0.15,0.09,1721199629872
0.11,4.70,11.37,0.14,0.27,-0.25,1721199629882
3.13,-1.36,8.87,-0.04,0.19,-0.56,1721199629892
-3.96,7.03,15.79,0.28,-0.11,-0.34,1721199629902
-2.29,-1.71,4.10,-0.07,0.26,-0.11,1721199629912
-1.25,4.81,16.42,0.23,0.13,-0.05,1721199629922
3.50,-7.10,2.81,-0.09,0.19,-0.32,1721199629932
-2.36,5.85,14.74,0.17,-0.02,-0.40,1721199629942
-0.28,4.96,11.51,0.17,0.35,-0.35,1721199629952
-1.25,2.90,6.11,0.18,-0.05,-0.16,1721199629962
-0.57,-4.33,8.35,-0.19,0.31,-0.34,1721199629972
-1.26,0.11,19.34,0.07,0.14,-0.39,1721199629982
-2.69,3.61,5.63,0.22,-0.02,-0.23,1721199629992
-1.88,2.45,4.59,-0.06,0.26,-0.11,1721199630002
0.29,-1.54,10.56,-0.05,0.07,-0.11,1721199630012
0.15,0.28,13.74,0.13,0.10,-0.16,1721199630022
1.37,0.50,10.30,-0.06,0.19,-0.28,1721199630032
-2.53,5.57,15.76,0.21,-0.10,-0.21,1721199630042
-1.45,0.35,3.26,0.04,0.17,-0.08,1721199630052
-0.76,-4.88,7.37,-0.14,0.02,-0.11,1721199630062
0.17,-3.47,17.19,0.02,0.09,-0.05,1721199630072
2.00,-0.82,14.06,0.12,0.12,0.03,1721199630082
-0.24,2.57,3.49,0.16,-0.01,-0.17,1721199630092
-1.67,4.24,10.41,-0.14,0.35,-0.38,1721199630102
-2.63,-8.64,6.03,-0.12,-0.28,0.09,1721199630112
-2.34,0.84,19.48,-0.16,0.40,0.10,1721199630122
4.64,-5.21,3.63,0.06,-0.12,0.12,1721199630132
-1.26,4.24,4.33,-0.14,-0.06,-0.22,1721199630142
1.44,0.80,11.26,-0.17,0.35,-0.43,1721199630152
-1.60,-4.01,19.17,-0.30,0.04,-0.26,1721199630162
-3.93,-3.88,11.93,-0.05,-0.02,0.20,1721199630172
0.22,-1.96,4.85,-0.20,0.24,0.11,1721199630182
2.91,8.05,13.92,0.11,0.06,-0.11,1721199630192
2.70,-1.13,2.74,-0.13,-0.07,-0.33,1721199630202
-4.61,-0.93,14.55,-0.28,0.08,-0.50,1721199630212
-4.49,-2.49,13.15,-0.20,0.19,-0.19,1721199630222
-4.92,1.43,10.35,-0.07,-0.08,0.31,1721199630232
0.94,4.80,4.70,-0.01,0.17,0.30,1721199630242
4.59,2.60,11.65,-0.05,0.05,0.01,1721199630252
2.23,4.20,16.29,-0.01,0.04,-0.44,1721199630262
-2.77,-3.85,6.47,-0.13,-0.18,-0.31,1721199630272
-4.62,3.16,12.02,0.02,0.16,0.10,1721199630282
1.16,-3.00,3.90,0.10,-0.08,0.33,1721199630292
0.32,0.85,8.17,0.06,0.03,0.02,1721199630302
4.38,-1.28,12.77,-0.08,0.16,-0.34,1721199630312
-1.81,-1.57,10.14,0.02,-0.27,-0.34,1721199630322
-2.13,-0.85,15.54,-0.12,0.50,-0.07,1721199630332
-0.31,3.43,9.96,0.17,-0.07,0.09,1721199630342
-0.94,0.10,2.07,-0.10,0.05,-0.09,1721199630352
2.68,-1.09,17.81,-0.07,0.30,-0.37,1721199630362
-1.38,-0.61,11.22,0.08,-0.26,-0.29,1721199630372
-3.80,3.63,10.33,-0.02,0.29,0.02,1721199630382
-0.55,1.94,9.03,0.03,0.03,-0.03,1721199630392
-0.82,-1.39,6.72,-0.10,-0.08,-0.07,1721199630402
-0.34,-1.55,9.09,-0.04,0.00,-0.10,1721199630412
-1.16,-6.25,11.42,-0.20,0.07,-0.11,1721199630422
-2.78,2.57,15.30,0.04,-0.02,-0.12,1721199630432
-1.39,1.23,5.15,0.12,-0.09,0.02,1721199630442
-1.43,3.02,11.77,-0.07,0.06,0.01,1721199630452
1.40,4.67,14.48,0.02,0.09,-0.08,1721199630462
-1.28,0.34,7.42,-0.04,-0.10,-0.25,1721199630472
-3.87,-6.26,6.00,-0.09,-0.16,-0.24,1721199630482
-3.54,7.56,14.57,0.29,0.09,0.02,1721199630492
-0.45,4.51,8.33,0.13,-0.01,0.05,1721199630502
-0.69,6.03,9.72,0.12,-0.10,0.03,1721199630512
2.60,-2.18,8.12,-0.01,0.08,-0.01,1721199630522
0.40,-0.52,14.84,0.05,-0.09,-0.20,1721199630532
-1.72,-0.41,5.86,0.22,-0.13,-0.09,1721199630542
-0.57,6.35,13.65,0.19,0.24,0.06,1721199630552
1.02,4.78,6.22,0.21,-0.27,0.09,1721199630562
-0.43,0.00,12.06,-0.35,0.13,-0.19,1721199630572
0.17,1.61,17.37,0.10,-0.18,-0.09,1721199630582
2.72,0.05,9.17,-0.05,0.21,-0.07,1721199630592
-0.07,3.39,8.33,0.17,-0.33,-0.13,1721199630602
-3.28,4.08,3.64,0.14,0.10,-0.12,1721199630612
0.54,3.02,15.78,-0.07,0.27,0.02,1721199630622
1.46,-2.58,7.78,0.11,-0.39,0.16,1721199630632
0.81,0.55,13.16,-0.02,-0.17,-0.21,1721199630647
1.54,5.13,16.37,0.23,0.05,-0.27,1721199630651
-2.24,-0.07,6.03,0.04,-0.18,-0.18,1721199630661
-6.52,4.73,15.00,0.01,-0.06,-0.00,1721199630671
-1.87,-1.43,7.08,-0.00,0.06,0.19,1721199630681
-0.53,-5.91,11.35,-0.19,-0.08,0.27,1721199630691
-0.03,0.24,12.11,0.12,-0.09,0.16,1721199630701
1.67,0.27,8.10,-0.01,0.02,-0.06,1721199630711
-1.47,-2.58,10.41,0.01,-0.23,0.07,1721199630721
-2.74,1.47,12.72,-0.13,0.08,0.15,1721199630731
-0.01,3.51,13.01,0.00,-0.19,0.28,1721199630741
1.29,-0.45,5.07,-0.14,-0.16,0.29,1721199630751
2.52,-2.93,10.11,-0.09,-0.08,0.14,1721199630761
1.17,-3.52,10.13,-0.12,-0.17,-0.07,1721199630771
-0.54,-0.28,16.59,-0.15,-0.08,-0.09,1721199630781
-1.61,0.08,9.01,-0.01,-0.35,0.12,1721199630791
-0.96,4.36,7.81,-0.00,-0.05,0.15,1721199630801
2.41,2.27,5.32,-0.06,-0.11,0.15,1721199630811
1.56,-4.39,12.62,-0.29,-0.11,-0.18,1721199630821
-1.89,-3.11,13.78,-0.06,-0.31,-0.21,1721199630831
-2.15,0.44,4.87,-0.04,-0.15,0.09,1721199630841
2.64,1.29,13.36,-0.08,0.11,0.15,1721199630851
2.67,0.46,14.14,-0.04,-0.27,-0.15,1721199630861
-2.35,2.98,9.39,-0.02,-0.09,-0.42,1721199630871
-2.49,-7.18,10.77,-0.22,-0.09,-0.30,1721199630881
-4.12,2.05,12.84,0.17,-0.27,0.09,1721199630891
2.77,-0.26,7.76,0.12,0.09,0.10,1721199630901
2.78,5.76,12.29,0.22,-0.16,-0.13,1721199630911
2.86,0.47,7.23,0.07,-0.07,-0.28,1721199630921
-1.01,-1.31,12.53,-0.05,-0.07,-0.43,1721199630931
-1.71,-4.57,10.13,0.08,-0.09,-0.27,1721199630941
-1.53,0.39,15.06,0.07,0.03,-0.10,1721199630951
1.08,3.39,7.18,0.25,-0.09,-0.02,1721199630961
2.18,-0.86,8.88,-0.05,0.06,-0.29,1721199630971
-0.13,3.79,14.34,0.24,-0.12,-0.43,1721199630981
-0.50,-2.96,8.53,-0.04,0.12,-0.37,1721199630991
-1.51,-1.99,13.77,0.08,-0.06,-0.06,1721199631001
1.80,-2.79,7.38,0.13,0.07,-0.16,1721199631011
1.35,3.64,9.43,0.24,-0.02,-0.39,1721199631021
1.67,8.77,13.07,0.16,0.33,-0.56,1721199631031
0.01,0.34,8.16,0.10,-0.03,-0.46,1721199631041
-4.01,-5.10,11.44,-0.04,0.08,-0.30,1721199631051
-1.56,-1.73,12.13,0.16,0.21,-0.33,1721199631061
0.39,1.65,7.35,0.19,0.04,-0.22,1721199631071
1.14,10.65,9.94,0.25,0.24,-0.26,1721199631081
3.42,-6.35,7.97,-0.13,0.20,-0.51,1721199631091
-3.19,-8.14,10.38,-0.03,-0.11,-0.44,1721199631101
-1.46,4.98,18.50,0.22,0.59,-0.46,1721199631111
-1.63,0.97,4.47,0.22,-0.19,-0.12,1721199631121
-2.24,6.39,8.15,0.09,0.32,-0.11,1721199631131
4.25,-7.21,9.78,-0.11,0.39,-0.38,1721199631141
-3.89,4.49,15.40,0.23,-0.11,-0.48,1721199631151
-2.65,4.26,6.81,0.11,0.42,-0.27,1721199631161
-2.49,-0.81,7.07,0.01,-0.03,0.03,1721199631171
1.42,2.40,14.77,0.05,0.38,-0.00,1721199631181
5.67,-4.55,10.77,-0.02,0.29,-0.45,1721199631191
-2.99,5.07,10.59,0.24,-0.05,-0.55,1721199631201
-4.16,5.25,4.52,0.01,0.41,-0.32,1721199631211
-3.84,3.50,11.29,0.06,0.09,0.04,1721199631221
0.18,-11.11,7.76,-0.43,0.22,0.16,1721199631231
0.62,2.09,20.71,0.10,0.17,0.06,1721199631241
7.20,3.92,5.56,0.10,0.27,-0.11,1721199631251
1.17,7.43,6.65,0.06,0.07,-0.37,1721199631261
-2.83,-1.89,8.88,-0.12,0.28,-0.48,1721199631271
-5.34,-2.03,15.10,-0.05,0.04,0.03,1721199631281
-2.08,-2.54,4.08,0.06,0.05,0.37,1721199631291
4.42,4.18,13.34,-0.07,0.44,0.17,1721199631301
5.38,3.44,11.58,0.12,-0.06,-0.25,1721199631311
-3.22,2.91,5.73,0.03,-0.10,-0.46,1721199631321
-4.40,-6.24,10.53,-0.30,0.24,-0.15,1721199631331
-2.93,-3.85,10.40,-0.00,-0.03,0.27,1721199631341
3.04,2.60,11.36,-0.13,0.45,0.15,1721199631351
1.95,-2.91,10.89,0.02,-0.34,-0.02,1721199631361
-2.68,3.83,14.83,-0.08,0.30,-0.19,1721199631371
-0.42,0.25,10.92,-0.03,0.05,0.00,1721199631381
-1.32,-3.76,5.45,-0.28,-0.06,0.29,1721199631391
2.07,0.62,15.68,-0.02,0.24,0.08,1721199631401
2.35,-2.24,5.57,0.07,-0.08,-0.34,1721199631411
-4.19,2.11,10.37,-0.11,-0.06,-0.26,1721199631421
-2.60,0.68,11.65,-0.10,0.22,-0.06,1721199631431
-0.96,0.09,13.05,0.00,-0.07,0.14,1721199631441
-0.31,-1.41,8.29,-0.03,-0.00,0.10,1721199631451
0.61,5.28,10.79,0.19,0.10,-0.14,1721199631461
1.21,-2.64,10.21,-0.14,0.07,-0.15,1721199631471
-5.45,5.46,12.91,0.14,-0.23,-0.08,1721199631481
-1.58,0.45,7.15,-0.02,0.26,-0.09,1721199631491
-0.81,0.08,14.56,0.10,-0.21,0.13,1721199631501
-0.57,-0.37,6.81,0.13,0.05,0.08,1721199631511
2.00,-5.84,8.86,-0.07,0.18,-0.14,1721199631521
-1.54,4.63,12.84,0.36,-0.15,-0.24,1721199631531
-1.21,2.11,6.96,0.06,0.12,-0.20,1721199631541
-2.67,6.47,13.70,0.23,-0.10,-0.10,1721199631551
1.79,-4.03,9.45,-0.03,0.27,-0.04,1721199631561
-0.68,-5.30,11.85,0.05,-0.28,-0.02,1721199631571
-1.47,1.95,7.43,0.11,0.15,-0.22,1721199631581
2.46,3.59,16.34,0.20,0.27,-0.24,1721199631591
-1.32,-1.26,3.30,0.22,-0.30,-0.15,1721199631601
-4.37,-0.65,13.47,-0.09,0.31,-0.18,1721199631611
-1.56,-0.70,12.50,0.16,-0.03,-0.04,1721199631621
0.85,5.98,12.48,0.04,0.27,-0.13,1721199631631
2.21,-4.79,5.88,0.08,-0.20,-0.30,1721199631641
-4.78,-1.60,9.27,0.02,-0.01,-0.30,1721199631651
-1.08,1.72,7.88,0.12,0.18,-0.19,1721199631661
-0.62,-2.19,13.07,-0.13,0.01,-0.16,1721199631671
-3.81,5.81,17.90,0.23,-0.10,-0.16,1721199631681
-0.70,-5.41,-0.47,-0.02,0.02,-0.10,1721199631691
-4.12,1.40,14.22,-0.03,0.07,-0.17,1721199631701
-1.01,2.29,9.93,0.23,0.08,0.05,1721199631711
-2.30,3.50,9.30,-0.06,-0.17,0.11,1721199631721
-0.19,1.05,12.85,0.10,0.02,0.07,1721199631731
1.53,-0.56,2.99,0.10,-0.09,0.08,1721199631741
1.79,-0.05,12.18,-0.21,0.06,0.00,1721199631751
0.96,4.64,16.75,0.27,-0.15,-0.10,1721199631761
-1.02,-2.34,3.90,-0.11,-0.06,-0.25,1721199631771
-2.48,-0.69,13.10,0.09,-0.11,0.04,1721199631781
1.77,1.81,9.50,0.04,0.13,0.07,1721199631791
2.85,4.62,10.12,0.15,-0.07,-0.12,1721199631801
2.59,-1.88,7.43,-0.08,0.09,-0.20,1721199631811
-0.87,3.22,14.60,0.03,0.01,-0.38,1721199631821
-0.58,0.59,8.36,0.01,0.06,-0.44,1721199631831
-1.23,-3.42,9.52,-0.24,0.05,-0.19,1721199631841
-2.63,5.15,10.08,0.17,0.11,-0.12,1721199631851
2.66,2.67,8.78,-0.09,0.33,-0.16,1721199631861
0.96,0.21,6.57,-0.02,-0.21,-0.17,1721199631871
-1.19,0.92,13.45,-0.22,0.39,-0.48,1721199631881
-1.45,-0.20,15.63,-0.02,0.10,-0.30,1721199631891
-3.36,1.08,9.62,-0.07,0.07,-0.11,1721199631901
-2.29,2.20,6.23,0.10,0.13,0.02,1721199631911
2.84,-6.00,7.46,-0.21,0.28,0.02,1721199631921
-0.98,3.69,13.18,0.05,0.01,-0.15,1721199631931
-2.28,3.07,10.20,-0.05,0.25,-0.33,1721199631941
-3.76,2.81,16.92,-0.01,0.15,-0.09,1721199631951
-1.96,-2.05,6.39,-0.08,0.01,0.18,1721199631961
1.36,1.25,11.33,-0.01,0.21,0.17,1721199631971
2.91,1.59,7.26,-0.01,0.13,-0.15,1721199631981
-1.48,-1.69,6.70,-0.14,0.01,-0.26,1721199631991
-3.37,5.23,14.30,0.04,0.30,-0.22,1721199632001
-0.52,-4.46,12.35,-0.12,0.12,-0.04,1721199632011
-5.40,-0.20,7.09,0.05,-0.24,0.22,1721199632021
0.70,4.49,11.35,-0.14,0.65,0.18,1721199632031
3.92,-4.87,5.33,-0.11,-0.14,-0.06,1721199632041
-2.87,4.70,15.28,0.07,0.03,-0.25,1721199632051
0.64,-9.62,3.84,-0.09,0.08,0.09,1721199632061
-4.42,8.73,19.28,-0.08,0.19,0.20,1721199632071
2.77,2.77,6.07,0.05,0.21,0.15,1721199632081
-1.59,-6.00,5.86,-0.31,-0.29,0.06,1721199632091
-0.98,6.28,11.54,0.18,0.20,0.07,1721199632101
5.80,-6.38,8.55,-0.17,0.22,0.03,1721199632111
-2.98,7.80,11.57,0.24,-0.37,0.27,1721199632121
3.28,-3.88,7.02,-0.19,0.64,-0.05,1721199632131
-1.96,-6.90,16.11,-0.11,-0.37,-0.11,1721199632141
-4.06,10.36,11.34,0.18,0.25,0.03,1721199632151
2.27,-5.67,3.29,-0.15,0.11,0.15,1721199632161
-2.04,5.13,19.61,0.18,-0.12,0.19,1721199632171
4.05,-7.92,8.93,0.00,0.22,0.12,1721199632181
-0.52,6.50,13.24,0.23,-0.04,-0.00,1721199632191
1.90,-3.04,1.45,-0.09,0.18,-0.18,1721199632201
-3.08,7.76,17.70,0.28,-0.06,-0.13,1721199632211
1.49,-5.34,9.31,0.03,0.30,0.06,1721199632221
-3.97,2.28,13.48,0.28,-0.30,0.24,1721199632231
1.43,-1.33,5.09,-0.03,0.47,-0.05,1721199632241
1.12,6.44,16.86,0.28,-0.10,-0.06,1721199632251
0.59,-0.21,1.13,0.07,-0.01,0.04,1721199632261
-0.64,-0.34,11.33,-0.01,0.19,-0.01,1721199632271
0.09,-6.31,15.60,-0.01,0.10,-0.11,1721199632281
-2.10,0.89,11.79,0.17,-0.12,0.22,1721199632291
-0.44,8.20,6.16,0.17,0.23,0.07,1721199632301
2.41,-4.07,4.95,-0.15,0.08,-0.02,1721199632311
-1.93,1.90,14.32,0.24,-0.09,0.06,1721199632321
2.25,-1.04,4.95,0.02,0.33,0.13,1721199632331
0.52,0.22,17.47,-0.09,0.01,0.09,1721199632341
-1.35,2.74,9.65,0.20,-0.20,0.18,1721199632351
2.82,3.50,13.45,0.03,0.52,-0.09,1721199632361
0.80,-3.38,4.93,0.14,-0.21,-0.01,1721199632371
-4.30,3.16,8.69,-0.07,0.11,0.00,1721199632381
-0.19,3.86,17.54,0.21,0.30,0.12,1721199632391
0.39,-2.71,1.66,0.02,-0.16,0.24,1721199632401
0.92,2.48,12.33,0.02,0.20,0.24,1721199632411
5.02,-3.59,11.20,-0.08,0.24,-0.12,1721199632421
-3.45,4.39,13.80,0.09,-0.23,-0.26,1721199632431
-3.93,1.91,4.75,0.10,0.15,0.04,1721199632441
1.59,-1.90,15.94,-0.10,0.23,0.43,1721199632451
3.88,2.80,11.41,0.06,-0.04,0.15,1721199632461
0.51,3.31,4.23,0.07,-0.02,-0.24,1721199632471
-1.55,3.14,14.16,-0.14,0.21,-0.21,1721199632481
-1.83,-4.03,6.45,0.08,-0.24,0.13,1721199632491
-1.35,1.94,9.04,-0.09,0.30,0.22,1721199632501
3.70,1.86,12.23,-0.02,0.10,0.01,1721199632511
1.48,-3.50,9.16,-0.13,-0.21,-0.16,1721199632521
-0.85,1.15,14.79,-0.04,0.18,-0.17,1721199632531
0.25,0.46,7.95,0.03,0.08,-0.04,1721199632541
-3.11,7.02,13.06,0.18,-0.06,-0.15,1721199632551
-0.87,-7.09,2.11,-0.14,-0.00,0.03,1721199632561
-0.50,-2.08,18.51,-0.13,0.18,0.07,1721199632571
1.70,1.48,7.49,0.11,-0.04,-0.05,1721199632581
-1.19,3.45,9.35,-0.16,0.04,-0.17,1721199632591
-1.11,0.85,8.54,0.13,-0.02,0.02,1721199632601
2.15,-5.24,11.66,-0.29,0.32,0.01,1721199632611
0.80,-0.11,18.19,0.05,-0.17,-0.09,1721199632621
-1.97,-0.97,1.20,-0.09,-0.15,-0.06,1721199632631
-4.12,4.86,11.08,-0.07,0.24,-0.17,1721199632641
-4.08,-1.23,12.21,-0.18,0.22,0.06,1721199632656
-3.70,-0.22,15.74,-0.11,-0.04,0.22,1721199632660
1.65,0.91,5.84,0.04,0.07,0.29,1721199632670
2.35,0.77,13.29,-0.15,0.20,-0.13,1721199632680
-1.73,1.03,7.68,0.06,-0.21,-0.14,1721199632690
-2.59,3.51,12.84,0.05,0.17,-0.09,1721199632700
-1.02,-3.95,4.67,0.04,-0.16,0.21,1721199632710
-1.72,2.36,14.19,-0.18,0.18,0.13,1721199632720
1.53,0.69,13.11,0.01,-0.13,0.02,1721199632730
-0.06,4.74,13.13,0.07,0.10,-0.22,1721199632740
-0.81,-0.60,-0.36,0.15,-0.14,-0.08,1721199632750
-1.83,-6.37,8.65,-0.36,0.13,0.10,1721199632760
-1.12,6.24,18.38,0.16,-0.10,0.14,1721199632770
1.40,-1.24,10.06,-0.15,0.08,0.03,1721199632780
-2.14,-0.43,13.86,0.08,-0.40,0.05,1721199632790
1.62,0.57,3.14,0.12,0.19,0.02,1721199632800
3.61,-3.25,17.31,-0.19,0.19,-0.01,1721199632810
-2.75,5.30,13.90,0.27,-0.31,-0.14,1721199632820
-3.62,-1.71,5.63,-0.12,0.02,-0.10,1721199632830
-2.81,2.32,17.40,0.17,-0.13,0.28,1721199632840
2.43,-4.46,3.85,-0.04,0.01,0.34,1721199632850
1.58,2.15,11.87,-0.10,-0.11,0.00,1721199632860
0.82,3.71,9.44,0.15,-0.06,-0.33,1721199632870
-2.01,-2.96,9.18,-0.22,-0.06,-0.19,1721199632880
-2.99,0.22,16.66,0.09,-0.13,0.12,1721199632890
1.73,4.02,8.10,0.08,0.15,0.26,1721199632900
2.99,0.68,11.04,-0.13,-0.07,-0.05,1721199632910
-2.15,3.65,13.81,0.18,-0.22,-0.30,1721199632920
-1.92,-0.24,9.94,0.08,0.05,-0.19,1721199632930
-3.31,1.77,7.38,0.16,-0.22,0.08,1721199632940
1.49,1.38,8.61,-0.02,0.16,0.22,1721199632950
5.17,-0.38,14.95,0.03,-0.06,0.11,1721199632960
0.77,5.84,5.29,0.24,-0.39,-0.35,1721199632970
-0.75,0.59,3.62,0.04,0.08,-0.35,1721199632980
-2.20,-5.01,12.09,-0.18,0.07,-0.19,1721199632990
-3.18,2.83,15.83,0.14,-0.16,-0.05,1721199633000
-0.01,4.24,4.56,0.08,0.03,0.09,1721199633010
2.23,-1.66,12.85,-0.19,0.07,0.02,1721199633020
2.31,6.84,16.83,0.35,-0.08,-0.15,1721199633030
2.78,-5.98,2.70,-0.25,0.03,-0.36,1721199633040
-6.51,0.79,12.56,-0.02,-0.43,-0.26,1721199633050
-3.21,0.89,7.70,-0.05,0.30,-0.11,1721199633060
-0.25,0.64,10.67,0.19,-0.00,0.13,1721199633070
0.29,-2.45,3.39,-0.07,-0.03,0.10,1721199633080
1.36,6.70,17.07,0.03,0.18,-0.25,1721199633090
0.65,-1.99,10.54,-0.11,-0.17,-0.33,1721199633100
-5.81,3.73,17.82,0.08,-0.11,-0.20,1721199633110
-2.21,-4.98,-5.09,0.05,-0.08,0.20,1721199633120
-0.97,0.12,12.02,-0.29,0.36,0.17,1721199633130
2.09,2.64,16.92,-0.01,-0.25,-0.10,1721199633140
0.40,1.91,9.96,-0.07,-0.16,-0.15,1721199633150
-1.61,1.76,7.69,-0.01,0.02,-0.13,1721199633160
0.13,0.06,12.88,-0.16,0.25,-0.15,1721199633170
-2.09,-7.24,7.93,-0.20,-0.36,-0.10,1721199633180
-5.24,-5.02,8.54,-0.18,-0.01,-0.06,1721199633190
0.12,6.00,14.21,0.04,0.36,0.13,1721199633200
3.43,1.03,11.75,-0.10,-0.14,0.11,1721199633210
-1.50,-0.99,10.38,-0.11,-0.16,-0.30,1721199633220
-0.05,-0.37,11.93,-0.14,0.28,-0.25,1721199633230
-1.81,4.10,12.57,0.10,-0.09,-0.05,1721199633240
-1.52,-0.45,11.33,-0.08,-0.11,0.23,1721199633250
0.36,-1.65,8.32,0.04,-0.10,0.26,1721199633260
4.45,-3.43,4.06,-0.07,0.15,-0.31,1721199633270
1.91,-0.80,20.00,-0.12,0.07,-0.56,1721199633280
-5.03,5.26,10.80,0.17,-0.18,-0.14,1721199633290
-3.85,5.67,8.69,0.12,0.26,0.29,1721199633300
2.29,-5.75,8.80,-0.10,-0.05,0.29,1721199633310
2.56,5.98,13.42,0.21,-0.08,-0.14,1721199633320
4.38,-1.21,4.64,0.13,0.01,-0.18,1721199633330
-3.73,0.33,12.20,0.07,-0.06,-0.29,1721199633340
-1.41,-2.48,9.79,0.12,0.21,-0.01,1721199633350
0.28,-3.05,9.21,-0.06,0.01,0.10,1721199633360
-1.61,5.15,12.30,0.14,0.04,-0.29,1721199633370
1.91,-2.51,10.78,-0.02,0.17,-0.00,1721199633380
-2.43,3.99,6.67,0.18,-0.26,0.09,1721199633390
2.25,1.68,9.50,0.11,0.42,-0.03,1721199633400
2.55,-7.20,16.69,-0.08,-0.08,-0.21,1721199633410
-4.11,4.17,9.51,0.27,-0.22,-0.15,1721199633420
-0.22,5.29,5.58,0.07,0.46,0.03,1721199633430
1.04,-4.23,13.47,-0.03,-0.01,0.00,1721199633440
-2.38,-0.99,4.76,0.21,-0.19,-0.08,1721199633450
2.56,3.75,9.54,-0.01,0.54,-0.08,1721199633460
0.78,-0.46,16.56,0.02,-0.16,-0.22,1721199633470
-3.56,2.13,7.43,0.18,-0.09,0.06,1721199633480
1.38,-1.92,9.30,0.05,0.36,0.04,1721199633490
2.32,-2.96,15.28,0.10,-0.01,-0.14,1721199633500
-1.26,5.12,12.11,0.26,-0.06,0.00,1721199633510
-1.58,1.06,3.98,0.03,0.10,0.02,1721199633520
-1.62,-5.94,15.09,-0.10,0.18,-0.11,1721199633530
-0.02,3.51,11.78,0.30,0.07,-0.01,1721199633540
0.83,5.60,5.10,-0.02,0.20,-0.07,1721199633550
-2.60,-1.08,6.90,0.01,-0.17,-0.11,1721199633560
-1.97,-0.80,15.71,0.02,0.27,-0.01,1721199633570
2.83,4.96,10.96,0.20,0.24,0.10,1721199633580
1.33,0.99,3.55,-0.01,-0.07,-0.05,1721199633590
-2.14,-4.07,11.53,-0.20,0.08,-0.24,1721199633600
-2.35,2.34,17.71,0.04,0.09,-0.10,1721199633610
-1.45,11.76,8.70,0.25,0.02,-0.04,1721199633620
2.56,-3.21,3.54,-0.22,0.19,0.15,1721199633630
0.61,-3.11,14.35,-0.16,-0.04,0.08,1721199633640
-0.34,4.05,13.71,-0.01,0.22,-0.23,1721199633650
0.43,4.89,11.18,0.12,0.04,-0.19,1721199633660
1.07,-3.96,2.68,-0.11,-0.12,0.04,1721199633670
-0.46,-1.98,14.75,-0.11,0.08,-0.08,1721199633680
-1.15,-1.06,5.49,0.05,0.06,-0.27,1721199633690
-1.54,2.12,13.28,-0.16,0.28,-0.35,1721199633700
-0.12,-3.94,8.79,-0.00,-0.11,-0.04,1721199633710
-4.45,0.26,6.61,-0.09,-0.02,0.04,1721199633720
-0.16,5.21,13.70,-0.06,0.33,0.10,1721199633730
3.30,-3.57,11.81,-0.26,-0.14,-0.06,1721199633740
-2.48,-3.95,7.70,-0.15,-0.27,-0.15,1721199633750
0.46,-1.47,10.39,-0.20,0.41,-0.17,1721199633760
-0.75,0.25,10.62,-0.06,-0.10,-0.11,1721199633770
-4.93,2.54,6.42,-0.09,0.03,-0.04,1721199633780
0.53,3.01,15.65,-0.08,0.37,0.12,1721199633790
4.01,-4.00,13.81,-0.27,-0.12,0.18,1721199633800
-0.33,5.60,16.67,-0.02,-0.03,-0.25,1721199633810
0.17,-2.96,-1.06,0.03,-0.22,-0.28,1721199633820
-5.27,-1.90,9.35,-0.25,0.06,-0.08,1721199633830
-0.23,2.37,16.03,-0.04,0.23,-0.05,1721199633840
-1.24,1.17,8.47,-0.09,-0.14,0.02,1721199633850
-1.58,0.31,12.09,-0.18,0.22,-0.05,1721199633860
3.82,-0.12,14.16,-0.06,0.34,-0.16,1721199633870
-0.25,1.37,7.57,0.01,-0.21,-0.14,1721199633880
-3.84,5.93,9.68,0.11,0.13,-0.19,1721199633890
0.66,-3.05,10.01,0.03,0.04,-0.05,1721199633900
-1.28,3.15,13.19,0.14,-0.09,0.11,1721199633910
0.93,-4.07,9.02,-0.06,0.13,-0.01,1721199633920
-0.96,1.38,14.97,0.14,0.07,-0.18,1721199633930
-0.57,-0.56,4.42,0.15,0.05,-0.23,1721199633940
-4.87,-1.84,4.77,0.06,-0.13,-0.05,1721199633950
-1.40,2.85,11.17,0.13,0.30,0.02,1721199633960
4.74,-0.72,16.35,0.05,0.26,-0.12,1721199633970
-2.35,1.41,7.59,0.12,-0.24,-0.13,1721199633980
-4.31,4.23,8.84,0.07,0.38,-0.10,1721199633990
-0.42,-0.99,10.36,0.07,0.01,-0.05,1721199634000
-0.07,-2.29,11.98,0.00,0.03,0.04,1721199634010
-0.93,4.31,9.27,0.20,-0.01,-0.09,1721199634020
-1.18,2.74,8.32,0.12,0.04,-0.10,1721199634030
-0.17,-5.32,12.66,-0.11,0.12,-0.02,1721199634040
-2.25,0.83,14.44,0.19,-0.19,0.03,1721199634050
-1.85,5.49,5.44,0.21,-0.05,0.02,1721199634060
-1.35,-0.57,9.67,-0.06,0.08,0.04,1721199634070
-1.45,3.39,14.88,0.21,0.01,0.08,1721199634080
2.21,-1.15,9.17,0.07,0.10,0.12,1721199634090
-0.49,3.10,7.59,0.10,-0.34,0.10,1721199634100
1.40,8.34,11.33,0.23,0.18,-0.15,1721199634110
3.74,-7.48,6.14,-0.11,-0.17,-0.06,1721199634120
-3.71,5.95,12.89,0.27,-0.32,-0.10,1721199634130
0.48,-4.61,6.40,-0.09,0.27,-0.08,1721199634140
-4.50,2.18,13.67,0.07,-0.35,0.08,1721199634150
0.56,3.84,14.06,0.01,0.39,0.18,1721199634160
2.64,1.92,10.55,0.12,-0.19,0.08,1721199634170
0.73,0.10,6.28,-0.02,0.06,-0.13,1721199634180
-1.02,0.92,3.17,0.07,-0.16,-0.05,1721199634190
-1.06,-1.14,14.86,-0.18,0.15,0.09,1721199634200
-1.10,4.89,16.29,0.24,-0.22,0.05,1721199634210
-1.77,-1.80,2.78,-0.13,-0.20,-0.06,1721199634220
-2.70,1.42,14.26,-0.17,0.04,0.13,1721199634230
1.09,-5.13,6.18,-0.22,0.04,-0.03,1721199634240
-3.36,2.67,12.95,-0.01,-0.22,-0.02,1721199634250
-1.03,-0.11,4.87,0.06,0.01,0.33,1721199634260
0.50,-0.44,11.97,-0.21,-0.01,0.24,1721199634270
2.59,2.86,14.40,-0.10,-0.12,0.13,1721199634280
2.74,-3.07,7.94,-0.32,-0.14,-0.13,1721199634290
-3.89,-1.82,9.17,-0.10,-0.35,-0.21,1721199634300
-3.77,-3.67,7.11,-0.11,0.03,0.00,1721199634310
-1.78,-4.48,4.98,-0.09,-0.18,0.35,1721199634320
0.66,4.65,13.82,-0.26,0.12,0.35,1721199634330
3.02,3.50,14.17,-0.19,-0.26,-0.02,1721199634340
0.27,-1.71,8.25,-0.13,-0.25,-0.25,1721199634350
-0.19,-1.09,9.53,-0.21,-0.05,-0.03,1721199634360
-0.86,4.16,11.11,0.05,-0.33,0.24,1721199634370
3.24,-1.67,11.99,-0.15,0.15,0.10,1721199634380
1.71,0.74,10.91,-0.03,-0.35,-0.13,1721199634390
-2.40,0.09,6.84,-0.14,-0.13,-0.15,1721199634400
-1.75,5.12,16.60,0.05,-0.02,-0.10,1721199634410
0.97,-3.87,4.24,0.08,-0.29,0.22,1721199634420
0.16,2.23,11.44,-0.02,0.03,0.11,1721199634430
1.57,4.72,15.95,0.20,-0.20,-0.19,1721199634440
0.39,-1.79,4.41,0.14,-0.35,-0.06,1721199634450
0.94,-0.54,13.42,-0.03,0.22,0.02,1721199634460
0.79,3.45,16.01,0.19,-0.19,-0.18,1721199634470
-2.18,0.43,3.75,0.25,-0.40,-0.08,1721199634480
1.90,-3.67,7.89,-0.04,0.26,-0.05,1721199634490
2.05,2.19,17.19,0.24,-0.18,-0.18,1721199634500
0.70,-1.36,7.72,0.17,-0.07,-0.26,1721199634510
-0.60,2.23,11.55,0.15,0.02,-0.22,1721199634520
-0.59,-0.30,5.58,0.15,-0.10,-0.13,1721199634530
-0.13,-3.96,10.28,0.01,0.08,-0.17,1721199634540
-0.62,-1.39,4.99,0.19,-0.17,-0.10,1721199634550
1.32,2.45,14.75,-0.01,0.27,-0.24,1721199634560
1.31,0.44,16.29,0.13,-0.19,-0.31,1721199634570
-0.84,2.76,10.11,0.11,-0.00,-0.11,1721199634580
-0.25,1.94,5.50,0.07,0.05,-0.24,1721199634590
1.12,-2.69,8.61,-0.03,0.13,-0.29,1721199634600
-1.07,-3.73,11.15,0.02,-0.00,-0.26,1721199634610
-2.44,3.17,10.98,0.14,0.08,-0.24,1721199634620
-0.52,4.47,10.91,0.08,0.07,-0.12,1721199634630
1.46,-0.31,11.19,0.07,0.03,-0.09,1721199634640
0.44,0.37,11.34,0.00,0.15,-0.45,1721199634650
-2.19,3.37,11.85,0.18,0.23,-0.26,1721199634665
-4.56,5.56,9.69,0.15,0.12,-0.17,1721199634669
0.48,2.20,6.51,0.08,0.26,-0.05,1721199634679
0.91,-0.66,12.84,0.07,0.01,-0.14,1721199634689
-0.03,2.97,7.69,0.15,0.06,-0.31,1721199634699
-2.00,-0.20,6.75,-0.06,0.02,-0.34,1721199634709
-2.53,1.59,10.94,0.05,0.07,-0.18,1721199634719
1.52,-0.48,12.81,-0.14,0.29,0.01,1721199634729
0.71,2.48,10.88,0.00,-0.11,-0.03,1721199634739
0.00,2.00,11.92,-0.15,0.20,-0.47,1721199634749
-1.67,0.63,13.41,0.07,-0.04,-0.29,1721199634759
-3.36,3.96,8.71,-0.00,0.18,-0.03,1721199634769
-1.23,0.54,12.91,0.09,-0.02,0.02,1721199634779
0.44,1.56,3.78,0.11,-0.02,-0.02,1721199634789
4.27,-1.97,10.53,-0.22,0.35,-0.31,1721199634799
0.92,0.77,14.33,0.06,-0.03,-0.43,1721199634809
-0.63,1.72,8.32,0.04,0.24,-0.34,1721199634819
0.39,-2.72,12.90,-0.01,0.18,-0.22,1721199634829
-0.62,3.01,11.29,0.11,-0.04,-0.14,1721199634839
1.35,1.41,5.81,0.01,0.22,-0.35,1721199634849
0.06,-5.29,8.28,-0.13,0.03,-0.45,1721199634859
-2.26,-2.67,14.45,-0.06,0.26,-0.36,1721199634869
-2.59,2.67,9.63,-0.01,0.27,-0.23,1721199634879
-2.11,3.08,10.75,-0.05,0.09,-0.08,1721199634889
1.70,-6.40,6.33,-0.19,0.23,0.12,1721199634899
3.41,1.31,16.54,-0.11,0.41,-0.26,1721199634909
1.56,1.92,9.47,0.03,0.03,-0.46,1721199634919
-2.59,0.00,9.58,-0.12,0.07,-0.39,1721199634929
-3.31,1.93,14.00,0.04,0.29,-0.11,1721199634939
-0.83,-0.54,8.28,-0.06,0.17,-0.05,1721199634949
0.56,-1.55,12.59,-0.14,0.20,-0.09,1721199634959
-0.76,3.21,8.82,0.08,0.17,-0.39,1721199634969
-2.99,-0.88,9.43,-0.03,0.16,-0.37,1721199634979
-3.79,5.42,16.42,0.13,0.25,-0.14,1721199634989
-1.62,-1.28,5.87,0.05,0.04,0.13,1721199634999
-3.51,-2.56,6.87,-0.12,0.08,-0.07,1721199635009
1.90,0.62,16.50,0.02,0.41,-0.17,1721199635019
1.43,-0.98,6.65,0.18,-0.10,-0.25,1721199635029
-3.27,1.01,14.82,0.02,0.29,-0.29,1721199635039
-2.84,1.79,3.08,0.33,-0.02,-0.04,1721199635049
-0.78,-3.01,13.25,-0.14,0.42,-0.00,1721199635059
-0.12,5.60,19.39,0.34,0.08,-0.05,1721199635069
0.77,-1.46,0.45,0.10,0.04,-0.12,1721199635079
-1.66,-4.26,11.88,-0.12,0.10,-0.21,1721199635089
-0.70,4.09,16.34,0.29,0.18,-0.06,1721199635099
1.21,-2.43,9.98,-0.01,0.18,-0.10,1721199635109
-1.97,-8.08,4.03,-0.03,-0.28,0.11,1721199635119
-2.31,5.89,17.27,0.05,0.60,-0.12,1721199635129
2.38,2.27,10.94,0.23,0.00,-0.25,1721199635139
-5.01,-0.90,1.91,0.01,-0.08,-0.25,1721199635149
-2.96,-1.06,11.55,0.03,0.46,-0.01,1721199635159
-0.62,2.35,14.49,0.07,0.10,0.16,1721199635169
-0.05,0.24,12.48,-0.03,-0.06,0.09,1721199635179
-1.23,3.56,8.16,0.10,0.12,-0.03,1721199635189
-0.59,0.04,4.77,-0.01,0.07,-0.07,1721199635199
-1.75,-1.53,11.01,-0.08,-0.03,-0.01,1721199635209
-1.05,3.32,11.49,0.14,0.09,0.05,1721199635219
1.26,1.93,5.75,0.09,0.09,-0.00,1721199635229
0.53,1.20,13.09,0.01,0.04,0.07,1721199635239
1.49,5.41,10.42,0.18,-0.01,0.10,1721199635249
0.62,2.09,5.73,-0.10,0.04,-0.01,1721199635259
-0.75,-4.48,11.83,-0.16,-0.10,-0.01,1721199635269
-0.86,0.36,17.01,0.09,0.12,0.12,1721199635279
0.68,3.86,4.47,0.31,-0.08,0.19,1721199635289
3.04,2.86,9.07,-0.04,0.25,0.08,1721199635299
0.40,3.69,8.69,0.15,-0.28,-0.10,1721199635309
-1.82,2.16,12.03,-0.08,0.24,-0.25,1721199635319
-2.32,-5.92,10.01,-0.08,-0.07,0.07,1721199635329
-5.01,2.32,9.46,-0.14,0.05,0.13,1721199635339
-0.89,3.71,17.89,-0.06,0.09,0.21,1721199635349
0.10,5.45,8.23,0.16,-0.22,0.34,1721199635359
3.95,-4.67,5.79,-0.26,0.26,0.15,1721199635369
0.18,-0.74,11.62,-0.12,-0.20,-0.14,1721199635379
-1.39,-0.31,12.59,-0.21,0.03,-0.15,1721199635389
-2.41,1.93,10.90,0.05,-0.00,0.09,1721199635399
-1.06,1.16,3.12,0.00,-0.05,0.25,1721199635409
1.12,-4.59,8.66,-0.25,-0.01,0.18,1721199635419
0.46,-3.58,18.34,-0.29,-0.02,-0.03,1721199635429
-1.27,7.51,17.28,0.06,-0.08,-0.16,1721199635439
-1.75,-4.00,-0.09,-0.12,-0.28,0.17,1721199635449
-1.68,2.97,11.72,-0.10,0.15,0.34,1721199635459
4.97,0.83,4.92,0.04,-0.04,0.13,1721199635469
1.41,-2.53,5.57,-0.31,-0.10,-0.20,1721199635479
-0.62,0.18,18.76,-0.12,-0.04,-0.26,1721199635489
-3.55,4.62,13.30,0.15,-0.23,0.11,1721199635499
0.76,1.88,8.36,-0.11,0.08,0.37,1721199635509
2.87,-1.02,11.69,-0.06,-0.13,0.05,1721199635519
0.86,1.34,10.30,0.07,-0.09,-0.30,1721199635529
0.42,-3.20,14.17,-0.12,0.12,-0.20,1721199635539
-4.31,4.11,5.23,0.23,-0.38,0.21,1721199635549
-0.17,2.98,6.67,-0.03,0.35,0.11,1721199635559
4.86,-1.39,18.48,0.08,-0.22,0.10,1721199635569
0.13,-2.79,12.00,0.02,-0.23,-0.13,1721199635579
-1.97,3.54,8.12,0.20,0.07,-0.10,1721199635589
0.61,0.11,5.74,0.00,0.14,-0.06,1721199635599
-0.05,-1.08,10.49,0.00,-0.13,0.12,1721199635609
-0.91,-1.25,7.71,0.11,-0.01,0.03,1721199635619
3.34,-0.19,14.79,-0.09,0.33,-0.16,1721199635629
1.19,-1.70,9.56,0.05,-0.30,-0.12,1721199635639
-2.33,3.86,13.52,0.12,0.16,-0.05,1721199635649
1.43,2.33,12.09,0.14,0.12,-0.05,1721199635659
0.87,-1.43,9.33,0.07,-0.06,-0.12,1721199635669
0.11,1.33,9.72,0.19,0.08,-0.07,1721199635679
1.53,-4.18,10.93,-0.14,0.28,-0.18,1721199635689
-3.55,2.33,15.89,0.20,-0.24,-0.15,1721199635699
-0.79,4.30,6.68,0.17,0.22,0.16,1721199635709
3.88,-2.83,5.72,0.01,0.13,0.14,1721199635719
2.24,2.88,14.48,0.14,0.10,-0.29,1721199635729
-0.05,1.51,9.61,0.20,0.10,-0.24,1721199635739
-3.62,-0.04,10.57,0.12,0.08,-0.11,1721199635749
-1.93,0.09,9.91,0.23,0.08,0.10,1721199635759
2.65,0.66,5.88,0.13,0.19,0.15,1721199635769
2.72,0.39,3.13,0.05,0.15,-0.22,1721199635779
-0.68,-2.15,16.82,-0.17,0.25,-0.45,1721199635789
-4.56,1.21,16.66,0.22,-0.05,-0.07,1721199635799
-2.40,2.84,5.20,-0.04,0.13,0.30,1721199635809
3.05,4.01,14.36,-0.09,0.24,0.08,1721199635819
4.94,-0.41,6.65,0.03,-0.01,-0.16,1721199635829
-1.52,1.45,9.80,-0.18,0.08,-0.43,1721199635839
-6.28,-2.15,5.63,0.03,-0.09,-0.33,1721199635849
-4.34,-1.15,10.78,-0.24,0.33,0.15,1721199635859
1.21,4.41,13.76,0.02,0.03,0.39,1721199635869
4.87,-1.52,3.28,-0.23,0.03,0.10,1721199635879
4.71,4.32,17.65,-0.21,0.40,-0.51,1721199635889
0.52,1.29,7.82,0.03,-0.10,-0.65,1721199635899
-6.61,-0.19,9.53,-0.12,0.09,-0.18,1721199635909
-1.62,-3.05,10.59,-0.19,0.24,0.28,1721199635919
1.63,2.09,17.49,-0.09,0.06,0.01,1721199635929
2.49,6.00,9.35,0.13,0.05,-0.23,1721199635939
0.49,2.97,6.35,-0.09,0.07,-0.39,1721199635949
-4.07,-5.04,2.83,-0.15,-0.12,-0.20,1721199635959
-2.97,-5.77,12.46,-0.30,0.41,0.00,1721199635969
1.95,2.67,18.67,-0.00,0.16,0.09,1721199635979
1.27,5.20,11.57,-0.05,0.08,-0.21,1721199635989
-0.93,3.07,10.03,-0.02,-0.03,-0.24,1721199635999
-3.35,0.06,6.03,-0.08,0.02,-0.17,1721199636009
-1.64,-2.09,12.25,-0.11,0.24,-0.21,1721199636019
-1.19,-3.04,9.82,0.08,-0.14,0.00,1721199636029
-3.05,3.22,13.58,-0.07,0.13,-0.07,1721199636039
-0.77,6.47,13.60,0.21,0.05,-0.02,1721199636049
0.47,-1.23,7.20,-0.01,0.09,0.03,1721199636059
-1.13,-0.04,10.82,0.07,-0.03,-0.12,1721199636069
-1.07,1.87,9.35,0.09,0.11,-0.28,1721199636079
-2.27,0.31,13.15,0.05,0.04,-0.09,1721199636089
-3.36,-4.52,6.86,0.14,-0.17,0.13,1721199636099
-2.03,0.14,8.18,0.02,0.31,0.03,1721199636109
1.65,6.38,16.95,0.24,0.06,-0.18,1721199636119
0.25,-4.24,4.86,0.16,-0.31,0.04,1721199636129
-1.89,2.00,11.28,0.14,0.32,-0.05,1721199636139
1.94,-4.76,15.24,-0.04,0.23,-0.27,1721199636149
-3.57,2.05,9.82,0.23,-0.45,-0.12,1721199636159
-2.83,0.75,7.13,-0.04,0.43,-0.18,1721199636169
0.81,-7.96,16.01,0.01,-0.15,0.22,1721199636179
0.03,4.13,10.30,0.24,0.10,0.16,1721199636189
1.76,3.30,1.13,0.12,-0.01,-0.13,1721199636199
0.25,0.77,17.04,-0.14,0.02,-0.26,1721199636209
-2.34,0.57,12.30,0.29,-0.24,-0.07,1721199636219
-1.95,-8.44,4.54,-0.16,0.07,0.20,1721199636229
-1.98,2.03,11.54,0.07,0.03,0.20,1721199636239
3.63,4.49,7.84,0.03,0.20,-0.05,1721199636249
0.11,3.28,13.53,0.09,-0.45,-0.25,1721199636259
-0.69,-3.20,13.03,0.00,0.15,0.01,1721199636269
-2.14,-0.07,6.01,0.17,-0.15,0.10,1721199636279
-2.13,4.70,9.05,-0.07,0.01,0.01,1721199636289
0.20,-0.73,7.80,0.06,-0.22,0.15,1721199636299
-0.69,-1.14,7.17,0.01,0.08,0.02,1721199636309
3.00,2.01,16.00,0.08,0.21,0.03,1721199636319
2.70,4.82,13.64,0.20,-0.18,-0.04,1721199636329
-1.55,-0.65,6.46,-0.10,-0.27,-0.08,1721199636339
-1.82,1.43,14.04,0.07,-0.02,-0.10,1721199636349
-2.25,2.79,-0.24,0.24,-0.19,-0.01,1721199636359
-1.01,-3.64,11.80,-0.37,0.37,0.02,1721199636369
-0.86,3.95,18.25,0.18,-0.11,0.13,1721199636379
1.20,-3.91,-1.57,-0.23,-0.09,0.02,1721199636389
-0.83,6.15,21.20,-0.00,0.13,-0.02,1721199636399
1.36,4.81,8.59,0.26,-0.01,0.03,1721199636409
-2.33,-5.08,6.44,-0.32,-0.39,0.06,1721199636419
-4.89,3.42,11.70,0.05,-0.12,0.09,1721199636429
2.81,-1.27,10.35,-0.19,0.39,-0.05,1721199636439
-0.07,0.09,12.78,0.11,-0.42,0.31,1721199636449
-1.87,0.20,3.50,-0.09,-0.01,0.26,1721199636459
1.26,-1.85,13.39,-0.06,0.02,0.05,1721199636469
2.57,-2.82,10.03,-0.09,-0.03,-0.23,1721199636479
-4.81,-0.21,10.75,-0.16,-0.33,-0.26,1721199636489
-6.51,-3.05,12.33,-0.23,-0.06,0.18,1721199636499
-1.98,4.54,10.93,0.02,0.02,0.42,1721199636509
3.90,-5.86,1.12,-0.35,-0.07,0.17,1721199636519
0.58,-1.06,17.52,-0.32,-0.10,-0.15,1721199636529
-2.13,6.20,13.72,0.11,-0.16,-0.08,1721199636539
-1.11,-0.85,4.81,-0.21,-0.09,0.22,1721199636549
-0.90,0.66,7.18,-0.12,-0.23,0.31,1721199636559
3.00,-2.31,10.51,-0.27,0.10,-0.01,1721199636569
3.64,0.99,20.18,-0.17,-0.05,-0.13,1721199636579
-1.32,2.05,1.07,0.12,-0.37,-0.05,1721199636589
-1.90,2.21,11.92,-0.21,0.19,0.05,1721199636599
1.27,4.21,17.82,0.28,-0.25,0.22,1721199636609
2.15,-0.53,9.24,0.03,-0.03,-0.12,1721199636619
-0.05,-2.67,7.49,0.03,-0.13,-0.26,1721199636629
-3.25,3.78,10.07,0.10,-0.04,-0.08,1721199636639
-0.99,0.17,10.96,0.12,-0.07,0.12,1721199636649
1.95,-2.46,11.79,0.11,-0.18,0.07,1721199636659
-0.50,-5.26,6.62,0.02,-0.26,-0.34,1721199636674
0.84,-8.24,8.98,-0.06,-0.24,-0.18,1721199636678
-4.03,6.98,17.15,0.33,-0.08,-0.10,1721199636688
3.07,-0.54,0.47,0.20,0.15,-0.06,1721199636698
-0.67,-2.66,10.47,-0.10,-0.06,-0.14,1721199636708
1.65,4.47,19.05,0.26,0.18,-0.33,1721199636718
0.70,-7.25,7.00,-0.09,-0.08,-0.34,1721199636728
-5.70,8.45,17.60,0.32,-0.18,-0.09,1721199636738
4.67,-5.29,2.25,0.13,0.34,-0.02,1721199636748
0.85,1.82,11.96,0.09,-0.07,-0.14,1721199636758
0.76,-2.03,9.01,0.04,0.21,-0.42,1721199636768
-2.43,2.62,15.56,0.16,0.03,-0.41,1721199636778
-2.77,-1.86,3.51,0.11,-0.00,-0.14,1721199636788
0.34,-3.23,10.66,-0.12,0.30,0.05,1721199636798
1.87,4.49,14.82,0.25,0.09,-0.10,1721199636808
2.19,-0.11,3.34,0.14,0.15,-0.40,1721199636818
-3.32,-4.71,13.06,-0.20,0.06,-0.41,1721199636828
-5.37,9.57,19.55,0.24,0.15,-0.18,1721199636838
1.22,-1.64,1.03,0.05,0.11,0.04,1721199636848
1.32,2.42,14.53,-0.07,0.27,-0.12,1721199636858
3.14,0.97,8.34,0.01,0.16,-0.35,1721199636868
-3.16,-2.55,5.23,-0.16,-0.07,-0.45,1721199636878
-4.96,1.38,15.29,-0.04,0.30,-0.24,1721199636888
-1.70,4.46,6.23,0.15,0.07,0.13,1721199636898
2.69,1.05,8.31,-0.18,0.22,0.15,1721199636908
3.28,4.04,11.97,0.06,0.03,-0.24,1721199636918
3.03,1.96,7.83,-0.14,0.26,-0.50,1721199636928
-1.36,-2.02,13.18,-0.14,-0.02,-0.33,1721199636938
-3.77,-2.00,9.06,-0.02,0.10,-0.19,1721199636948
-1.32,-3.20,7.78,-0.10,0.20,-0.22,1721199636958
-0.95,1.50,10.42,0.06,0.16,-0.05,1721199636968
1.62,0.17,8.88,-0.16,0.36,-0.14,1721199636978
-0.19,0.00,14.72,-0.21,0.07,-0.16,1721199636988
-0.43,1.30,13.24,-0.08,0.19,-0.31,1721199636998
-0.07,-2.86,6.98,-0.19,0.13,-0.31,1721199637008
-3.51,-5.48,8.66,-0.23,-0.08,-0.05,1721199637018
0.63,3.31,13.46,-0.01,0.40,0.03,1721199637028
0.81,-2.37,2.95,-0.04,-0.06,-0.25,1721199637038
-2.42,2.17,13.14,-0.25,0.50,-0.45,1721199637048
0.79,5.63,16.19,0.00,0.30,-0.27,1721199637058
-2.27,-6.12,1.70,-0.32,-0.04,-0.07,1721199637068
-1.89,2.51,12.44,-0.07,0.64,-0.18,1721199637078
3.25,4.56,14.68,-0.06,0.29,-0.23,1721199637088
-1.36,3.15,13.02,-0.05,-0.12,-0.12,1721199637098
-2.32,3.57,11.88,-0.00,0.33,-0.12,1721199637108
-0.99,-1.44,10.30,-0.04,0.19,-0.03,1721199637118
-0.57,0.32,10.06,-0.07,0.22,0.13,1721199637128
0.11,3.82,9.47,0.15,-0.00,-0.04,1721199637138
-1.72,1.86,8.92,0.17,0.01,-0.24,1721199637148
-1.05,-1.99,11.10,0.08,0.16,-0.01,1721199637158
-1.48,-1.31,12.39,0.01,0.12,0.04,1721199637168
-3.14,4.14,11.54,0.15,0.00,-0.07,1721199637178
-2.33,3.72,8.71,0.11,0.25,-0.09,1721199637188
0.40,-7.70,10.88,-0.07,0.11,0.14,1721199637198
-0.91,6.94,8.53,0.52,0.05,0.11,1721199637208
3.22,-6.23,2.62,-0.07,0.12,0.03,1721199637218
-4.97,9.98,17.51,0.11,-0.27,-0.16,1721199637228
-0.07,3.56,3.47,0.43,-0.03,-0.19,1721199637238
-2.48,-12.97,6.91,-0.22,0.00,0.08,1721199637248
-2.97,-2.00,13.57,0.21,0.15,0.11,1721199637258
-0.04,-3.55,4.94,0.06,0.05,0.01,1721199637268
-4.57,5.32,12.58,0.01,-0.26,-0.06,1721199637278
-1.29,3.10,9.55,0.22,0.11,-0.04,1721199637288
0.75,-6.81,9.24,-0.14,0.07,0.18,1721199637298
-0.67,4.70,14.55,0.25,0.07,0.17,1721199637308
0.56,7.75,1.20,0.23,0.06,0.01,1721199637318
-1.70,-1.16,9.83,-0.13,-0.10,-0.03,1721199637328
-0.64,-2.88,13.09,0.22,-0.17,0.25,1721199637338
1.11,-4.11,6.58,0.00,0.08,0.24,1721199637348
1.70,8.99,14.10,0.18,0.08,-0.03,1721199637358
0.55,2.43,5.47,0.07,-0.14,-0.13,1721199637368
-3.20,-1.33,14.37,-0.10,0.07,0.06,1721199637378
0.62,3.28,13.62,0.27,0.12,0.25,1721199637388
3.61,-0.12,7.45,-0.06,0.04,0.10,1721199637398
-0.69,0.93,17.68,-0.17,-0.24,-0.08,1721199637408
-1.05,6.35,7.84,0.40,-0.07,0.02,1721199637418
1.47,-4.91,-0.15,-0.14,0.05,0.24,1721199637428
-3.90,-7.13,15.54,-0.21,0.01,0.04,1721199637438
-2.42,3.48,18.72,0.02,0.14,-0.06,1721199637448
-1.86,4.75,4.59,0.26,-0.32,0.14,1721199637458
-1.77,-4.95,5.05,-0.36,0.02,0.35,1721199637468
-0.42,-0.96,15.68,0.05,-0.15,0.26,1721199637478
1.70,-4.18,6.44,-0.12,0.01,-0.02,1721199637488
-2.68,2.38,9.31,-0.12,-0.22,-0.12,1721199637498
-3.75,-3.05,12.50,-0.32,0.01,0.04,1721199637508
-4.15,3.54,15.47,0.00,-0.16,0.42,1721199637518
2.39,-5.24,-0.65,-0.24,-0.10,0.50,1721199637528
1.79,-1.28,19.03,-0.42,0.02,-0.01,1721199637538
-0.05,4.95,10.74,0.17,-0.47,-0.19,1721199637548
-1.81,-2.15,3.89,-0.26,0.04,-0.03,1721199637558
-5.09,1.15,12.39,-0.10,-0.29,0.34,1721199637568
0.98,-5.65,11.03,-0.30,-0.00,0.31,1721199637578
2.48,4.15,18.28,-0.06,-0.25,0.21,1721199637588
1.75,1.81,1.08,0.04,-0.26,-0.02,1721199637598
-2.90,0.64,6.43,-0.18,-0.10,-0.09,1721199637608
2.52,-1.30,18.55,-0.09,-0.04,0.18,1721199637618
2.90,6.22,12.56,0.23,-0.28,0.18,1721199637628
1.08,0.99,5.79,0.01,-0.10,-0.16,1721199637638
-0.69,2.55,12.90,-0.01,-0.11,-0.18,1721199637648
-1.79,2.14,7.99,0.14,-0.25,0.01,1721199637658
1.59,-3.35,8.86,-0.05,-0.07,0.20,1721199637668
0.40,-0.57,13.03,0.10,-0.18,-0.08,1721199637678
0.12,-1.12,9.83,0.07,-0.20,-0.10,1721199637688
0.92,-0.51,10.85,-0.08,0.00,0.02,1721199637698
0.50,6.19,15.56,0.17,-0.10,-0.02,1721199637708
1.45,3.16,4.70,0.28,-0.15,-0.09,1721199637718
2.68,-7.27,5.75,-0.12,0.10,-0.25,1721199637728
-0.53,1.17,19.72,0.12,-0.14,-0.36,1721199637738
-1.40,3.06,11.51,0.19,-0.03,-0.23,1721199637748
-2.71,-2.60,6.65,0.02,-0.21,0.06,1721199637758
3.32,0.96,6.25,0.11,0.27,0.05,1721199637768
4.77,-1.92,13.49,-0.03,0.06,-0.36,1721199637778
-3.07,2.36,12.36,0.30,-0.23,-0.62,1721199637788
-2.59,-3.45,4.40,-0.04,0.22,-0.14,1721199637798
-0.70,1.45,17.70,0.12,0.11,0.18,1721199637808
4.23,-2.05,0.61,0.23,0.00,0.02,1721199637818
3.80,-4.17,13.72,-0.20,0.26,-0.46,1721199637828
-1.73,4.08,17.73,0.31,-0.14,-0.50,1721199637838
-5.16,2.14,3.55,-0.00,0.11,-0.21,1721199637848
-1.57,0.73,12.79,-0.04,0.35,0.10,1721199637858
2.47,4.07,13.32,0.18,0.13,-0.00,1721199637868
1.45,2.50,6.46,0.09,0.03,-0.25,1721199637878
-0.92,-1.48,6.75,-0.04,0.15,-0.32,1721199637888
-1.14,2.74,12.85,0.05,0.19,-0.15,1721199637898
-1.25,-0.87,5.18,-0.01,-0.05,-0.08,1721199637908
-0.39,3.34,17.89,-0.07,0.30,-0.22,1721199637918
0.09,1.08,3.82,0.16,-0.12,-0.13,1721199637928
-1.33,2.98,12.01,-0.21,0.37,-0.14,1721199637938
-0.12,-0.62,12.06,0.11,-0.02,-0.10,1721199637948
-1.02,3.72,9.75,-0.00,0.09,-0.10,1721199637958
0.59,3.02,9.20,0.04,0.15,-0.14,1721199637968
-0.25,-2.70,5.43,-0.07,-0.09,-0.17,1721199637978
-0.74,2.33,10.34,-0.04,0.20,-0.14,1721199637988
1.23,0.99,11.55,-0.16,0.20,-0.17,1721199637998
-1.26,-4.88,7.21,-0.19,-0.13,-0.18,1721199638008
-2.61,-5.18,10.40,-0.34,0.20,-0.20,1721199638018
0.65,2.76,12.23,0.01,0.30,-0.13,1721199638028
2.60,-2.81,10.11,-0.36,0.20,-0.25,1721199638038
-2.02,-4.02,13.44,-0.12,-0.22,-0.17,1721199638048
-1.62,5.48,12.12,0.06,0.40,-0.19,1721199638058
2.49,-0.10,12.47,-0.16,-0.05,0.07,1721199638068
-1.45,-0.21,12.89,-0.20,0.05,-0.15,1721199638078
-1.71,-1.72,6.96,-0.11,0.06,-0.28,1721199638088
-2.08,-0.92,10.26,-0.19,0.10,-0.21,1721199638098
-2.97,-2.88,8.59,0.00,-0.08,-0.05,1721199638108
-1.57,0.09,9.36,-0.05,0.27,0.06,1721199638118
1.50,0.03,12.32,-0.12,0.17,0.05,1721199638128
0.58,-2.68,14.42,-0.24,0.17,-0.14,1721199638138
-0.68,4.75,12.00,0.09,0.10,-0.26,1721199638148
-1.40,3.96,7.99,0.08,0.10,-0.16,1721199638158
-3.42,-0.38,11.40,-0.03,0.06,-0.05,1721199638168
-1.20,3.70,14.92,0.16,0.23,0.06,1721199638178
-0.92,-2.58,6.83,0.20,-0.26,0.06,1721199638188
-4.07,6.93,14.43,0.12,0.27,-0.09,1721199638198
1.20,0.52,6.36,0.32,-0.10,-0.05,1721199638208
-1.65,-2.92,5.03,0.10,0.06,-0.04,1721199638218
-0.86,-0.87,14.28,0.10,0.24,-0.02,1721199638228
-0.54,3.68,11.61,0.24,-0.10,-0.07,1721199638238
-0.94,5.81,11.33,0.26,0.12,-0.05,1721199638248
0.28,-3.53,5.66,0.13,-0.05,0.00,1721199638258
-1.80,-0.17,9.98,0.16,0.06,0.07,1721199638268
2.16,1.23,15.15,0.13,0.17,0.02,1721199638278
0.59,2.66,9.31,0.29,-0.29,-0.13,1721199638288
-1.46,1.80,5.69,0.12,0.12,-0.15,1721199638298
-1.06,-1.60,11.53,0.09,0.03,-0.01,1721199638308
-3.62,0.08,10.11,0.16,-0.21,0.18,1721199638318
-1.98,-2.99,6.00,0.03,-0.03,0.13,1721199638328
-0.96,4.79,13.86,0.18,0.05,-0.02,1721199638338
0.91,-1.77,11.82,-0.02,0.00,0.05,1721199638348
-1.68,-3.17,11.47,0.05,-0.35,0.31,1721199638358
1.48,5.54,9.21,0.27,0.24,0.08,1721199638368
4.60,2.51,10.68,0.08,-0.10,0.04,1721199638378
-1.16,3.28,11.48,0.23,-0.46,0.03,1721199638388
0.08,-1.44,7.42,-0.00,0.07,-0.03,1721199638398
-1.90,1.65,11.41,0.01,-0.17,-0.14,1721199638408
-1.26,1.06,13.48,-0.05,0.04,0.01,1721199638418
-1.24,5.95,12.61,0.26,-0.11,0.19,1721199638428
1.79,3.33,2.54,0.10,-0.12,0.25,1721199638438
2.34,-3.96,6.69,-0.23,-0.11,-0.03,1721199638448
0.40,0.78,16.39,0.08,-0.19,-0.15,1721199638458
0.28,0.25,9.28,-0.01,0.01,-0.16,1721199638468
-3.24,2.02,9.77,0.05,-0.35,-0.01,1721199638478
-2.38,1.41,4.86,-0.11,-0.01,0.10,1721199638488
0.17,-2.86,11.08,-0.15,0.10,-0.06,1721199638498
-2.10,1.27,14.90,-0.03,-0.13,-0.13,1721199638508
-3.68,2.27,9.13,-0.01,-0.20,0.01,1721199638518
-3.32,-1.83,4.40,-0.14,-0.16,0.15,1721199638528
0.55,-4.29,13.40,-0.30,0.10,0.06,1721199638538
0.76,-2.10,12.30,-0.12,-0.15,-0.13,1721199638548
-1.94,0.74,11.05,-0.04,-0.27,-0.22,1721199638558
-3.25,-3.68,1.21,-0.24,-0.24,0.07,1721199638568
-2.84,2.62,16.56,-0.21,-0.04,0.13,1721199638578
3.96,-3.41,7.34,-0.07,-0.16,0.18,1721199638588
0.95,0.15,15.18,-0.28,-0.16,-0.14,1721199638598
-1.04,2.28,13.44,-0.06,-0.21,-0.22,1721199638608
-3.53,-1.21,8.64,-0.17,-0.31,0.01,1721199638618
1.57,3.21,12.44,0.05,0.20,0.18,1721199639154
3.13,1.57,12.43,0.09,0.05,0.15,1721199639159
3.82,1.45,17.30,-0.02,0.25,-0.32,1721199639169
-2.07,9.84,10.57,0.45,-0.18,-0.23,1721199639179
-2.09,1.85,-2.05,-0.08,0.21,0.06,1721199639189
-1.36,-5.95,11.22,-0.26,0.31,0.09,1721199639199
1.11,-2.57,11.14,0.12,-0.13,-0.13,1721199639209
0.07,3.40,17.81,0.02,0.30,-0.14,1721199639219
-0.30,3.99,14.89,0.40,0.01,0.04,1721199639229
-0.36,0.93,-2.80,-0.00,-0.11,0.20,1721199639239
1.55,2.17,13.01,-0.27,0.42,-0.04,1721199639249
2.92,0.06,24.09,0.09,0.20,-0.33,1721199639259
-2.91,-1.15,2.17,0.36,-0.34,-0.09,1721199639269
-4.43,1.56,-0.42,-0.22,0.31,0.18,1721199639279
3.08,-0.07,14.67,-0.14,0.05,0.17,1721199639289
2.60,-1.73,7.19,0.03,-0.12,0.07,1721199639299
1.01,5.94,14.05,0.04,0.24,-0.31,1721199639309
-1.00,-0.69,9.26,-0.09,-0.06,-0.10,1721199639319
-4.14,0.51,10.54,-0.05,-0.10,0.20,1721199639329
2.91,-2.79,6.25,-0.13,0.22,0.22,1721199639339
3.01,-0.02,18.27,-0.13,0.03,-0.13,1721199639348
0.13,3.30,13.52,0.36,-0.12,-0.22,1721199639358
-1.00,5.73,0.17,0.21,0.11,-0.11,1721199639367
-1.38,4.44,11.25,-0.29,0.27,0.05,1721199639377
-1.46,-1.50,17.80,0.01,-0.13,0.00,1721199639386
0.00,-0.67,3.69,0.12,-0.04,0.07,1721199639396
3.79,-1.63,9.37,-0.31,0.30,-0.02,1721199639405
-0.64,4.59,20.60,0.22,-0.17,-0.16,1721199639415
-0.99,3.98,4.54,0.23,0.13,-0.12,1721199639425
-1.27,-1.60,-1.32,-0.21,-0.13,0.13,1721199639435
-0.37,0.07,19.73,-0.39,0.36,-0.08,1721199639444
2.24,0.50,16.08,0.35,-0.08,-0.25,1721199639454
-0.55,0.06,1.10,0.05,-0.05,-0.23,1721199639463
-2.20,2.15,11.85,-0.04,0.20,-0.11,1721199639473
-0.48,-0.28,14.38,-0.02,0.12,-0.07,1721199639482
-0.65,0.29,12.69,0.12,-0.07,0.12,1721199639492
1.22,0.36,9.69,0.12,-0.03,0.07,1721199639502
2.11,3.10,8.27,0.05,0.09,-0.25,1721199639512
-0.08,2.81,6.00,0.00,0.00,-0.31,1721199639522
-1.19,-1.57,11.52,-0.24,0.20,-0.18,1721199639532
-2.29,-3.01,12.48,0.10,-0.08,-0.02,1721199639542
-1.62,3.04,11.67,0.09,0.11,-0.03,1721199639552
1.29,3.17,10.56,0.05,0.04,-0.08,1721199639562
0.76,4.53,8.35,0.13,-0.04,-0.15,1721199639572
1.40,-2.76,4.97,-0.24,0.23,-0.34,1721199639582
-4.29,1.00,15.02,-0.01,-0.16,-0.16,1721199639592
-2.41,3.47,10.32,0.13,0.18,0.06,1721199639602
2.09,5.50,9.95,0.09,0.15,0.08,1721199639612
1.97,0.26,0.93,-0.01,-0.18,-0.07,1721199639622
-0.37,-1.11,11.96,-0.33,0.26,-0.49,1721199639632
-2.75,1.49,24.16,0.27,-0.05,-0.30,1721199639642
-3.00,-1.86,1.72,0.02,-0.04,0.26,1721199639652
-1.82,2.48,11.40,-0.09,0.11,0.25,1721199639662
3.57,3.03,8.15,0.02,0.22,-0.24,1721199639672
2.01,-2.27,14.82,-0.05,-0.05,-0.20,1721199639682
-3.03,2.51,14.74,0.28,-0.15,-0.11,1721199639692
-1.21,4.27,6.89,0.17,0.21,0.12,1721199639702
0.24,2.96,5.52,-0.08,-0.02,0.24,1721199639712
1.68,-5.56,13.10,-0.39,0.21,-0.21,1721199639722
-2.08,-0.46,17.31,0.19,-0.24,-0.20,1721199639732
-0.26,4.10,9.54,0.09,0.33,-0.04,1721199639742
0.13,0.17,6.81,0.07,-0.15,0.11,1721199639752
-0.17,3.60,8.12,0.06,0.04,0.02,1721199639762
3.38,-2.51,5.83,-0.16,0.11,-0.15,1721199639772
-1.74,-2.60,16.08,-0.12,-0.08,-0.18,1721199639782
-3.52,0.76,10.71,0.10,0.01,0.11,1721199639792
0.27,0.36,6.82,-0.04,0.09,0.21,1721199639802
2.75,9.20,12.84,0.23,0.07,0.05,1721199639812
6.59,-5.47,6.00,-0.24,0.10,-0.15,1721199639822
-2.98,5.68,19.73,0.25,-0.27,-0.23,1721199639832
-2.35,3.90,1.99,0.13,0.15,-0.13,1721199639842
-1.25,-2.57,9.21,-0.22,0.10,0.10,1721199639852
-0.40,-8.57,12.10,-0.18,-0.06,-0.01,1721199639862
-1.86,1.42,11.82,0.20,-0.05,-0.06,1721199639872
0.50,8.97,2.69,0.22,0.19,0.07,1721199639882
4.13,1.15,10.67,-0.24,0.15,0.01,1721199639892
0.94,-2.38,16.74,0.06,-0.32,-0.14,1721199639902
-2.37,-1.74,8.37,-0.00,0.10,-0.26,1721199639912
-2.72,0.03,10.76,-0.03,0.04,-0.05,1721199639922
-1.81,4.20,4.48,0.15,-0.01,0.21,1721199639932
3.17,0.23,7.56,-0.30,0.29,0.09,1721199639942
0.68,3.68,14.52,0.11,-0.24,-0.10,1721199639952
1.86,2.09,14.16,-0.07,0.36,-0.36,1721199639962
-1.90,-0.74,15.90,0.14,-0.28,-0.23,1721199639972
-2.92,-0.92,5.80,0.07,-0.00,0.26,1721199639982
0.50,4.82,4.24,0.05,0.14,0.14,1721199639992
4.67,-2.96,14.35,-0.18,0.11,-0.38,1721199640002
-0.81,-6.52,11.93,0.04,-0.33,-0.25,1721199640012
-4.79,2.60,8.54,0.06,0.25,-0.04,1721199640022
0.48,4.03,15.54,0.04,0.30,0.14,1721199640032
1.19,4.54,12.01,0.22,-0.19,0.08,1721199640042
1.01,3.45,4.46,0.10,-0.00,-0.16,1721199640052
1.37,-5.69,9.87,-0.25,0.18,-0.30,1721199640062
-3.52,1.91,15.91,0.08,-0.05,-0.18,1721199640072
-2.45,0.31,9.38,0.05,0.09,0.01,1721199640082
-0.52,3.45,10.88,0.11,-0.09,0.19,1721199640092
3.01,-0.05,-1.83,-0.18,0.01,-0.00,1721199640102
2.23,-0.11,18.07,-0.28,0.26,-0.40,1721199640112
-0.74,-0.45,15.01,0.24,-0.03,-0.43,1721199640122
-4.69,-3.93,12.05,-0.06,-0.08,0.00,1721199640132
-2.72,7.51,9.56,0.44,-0.07,0.37,1721199640142
7.69,-1.29,-7.23,-0.23,0.38,0.08,1721199640152
2.63,-0.24,21.22,-0.34,0.05,-0.43,1721199640162
1.94,9.37,9.87,0.40,0.26,-0.78,1721199640172
-2.86,-2.33,-0.78,0.01,0.06,0.04,1721199640182
-1.54,9.45,11.84,0.16,0.22,0.41,1721199640192
7.85,-6.74,-3.28,-0.27,0.17,0.06,1721199640202
7.35,3.14,23.52,-0.31,0.02,-0.60,1721199640212
-1.07,5.58,2.85,0.54,-0.05,-0.40,1721199640222
-3.66,-1.15,-0.04,-0.33,0.30,0.05,1721199640232
7.54,3.47,18.54,-0.22,0.52,0.16,1721199640242
3.70,3.00,3.93,0.22,0.14,-0.05,1721199640252
2.50,4.49,10.28,-0.10,0.19,-0.14,1721199640262
-0.06,4.20,9.66,0.20,-0.06,-0.17,1721199640272
-1.28,-4.47,0.10,-0.15,-0.01,-0.14,1721199640282
-1.45,3.89,21.44,-0.03,0.32,-0.14,1721199640292
-0.46,-1.10,8.76,-0.02,-0.09,-0.02,1721199640302
-2.89,12.85,21.04,0.17,0.16,-0.00,1721199640312
2.93,-2.89,-7.50,-0.20,-0.01,0.09,1721199640322
-0.75,-13.10,5.88,-0.67,0.13,-0.14,1721199640332
-8.74,-14.30,29.01,0.16,-0.19,-0.23,1721199640342
-4.64,-6.54,11.25,0.59,-0.24,0.13,1721199640352
-1.31,22.28,16.19,0.62,0.49,0.29,1721199640362
4.49,22.06,-1.82,0.13,-0.13,0.25,1721199640372
3.38,-0.62,9.69,-0.88,0.24,-0.27,1721199640382
-10.74,-31.60,39.87,-0.18,0.36,-0.52,1721199640392
-6.77,-0.32,19.74,0.82,-0.21,-0.07,1721199640402
-2.83,11.79,-12.06,0.33,0.17,0.45,1721199640412
3.49,10.14,7.46,-0.26,0.25,0.15,1721199640422
4.50,-0.91,16.21,-0.14,-0.02,-0.53,1721199640432
-4.50,-15.09,15.80,-0.22,-0.47,-0.52,1721199640442
-10.34,2.80,11.99,0.31,0.04,0.01,1721199640452
-2.80,1.73,2.31,0.08,0.18,0.58,1721199640462
4.09,-2.70,22.68,-0.12,0.30,0.22,1721199640472
2.94,-1.03,25.07,0.41,-0.24,-0.18,1721199640482
-2.51,10.07,5.98,0.59,-0.02,-0.29,1721199640492
-0.30,10.55,-14.83,0.25,0.10,0.12,1721199640502
4.34,0.31,-20.37,-0.58,0.08,0.36,1721199640512
5.40,-11.64,17.14,-1.23,0.58,-0.23,1721199640522
-9.18,-5.62,59.76,0.01,-0.62,-0.87,1721199640532
-9.26,-2.58,3.81,0.68,-0.47,-0.15,1721199640542
-4.42,5.43,-5.20,0.04,0.39,0.98,1721199640552
8.13,6.03,2.36,-0.17,0.27,0.86,1721199640562
10.96,0.90,7.65,-0.27,0.03,-0.28,1721199640572
-9.16,-6.71,29.10,-0.08,0.25,-0.98,1721199640582
-10.72,-1.94,19.16,0.17,0.01,-0.49,1721199640592
-8.45,7.16,15.67,0.18,0.25,0.45,1721199640602
3.10,1.57,-3.53,0.06,-0.10,0.92,1721199640612
8.52,-3.01,4.07,-0.37,0.27,0.10,1721199640622
6.46,-6.68,15.13,-0.17,-0.09,-0.74,1721199640632
-8.59,1.44,30.51,0.21,-0.34,-0.73,1721199640642
-10.12,0.92,5.52,0.12,0.08,0.18,1721199640652
-3.89,0.54,14.64,-0.13,0.19,0.63,1721199640662
4.43,-2.26,3.88,0.02,-0.07,0.36,1721199640672
7.24,-1.56,11.54,-0.24,0.24,-0.21,1721199640682
0.55,2.67,15.72,0.15,-0.23,-0.36,1721199640692
-5.38,-1.02,3.64,-0.02,-0.12,-0.16,1721199640702
-4.53,10.03,11.85,0.11,0.25,0.19,1721199640712
3.70,0.13,6.85,-0.14,0.09,0.31,1721199640722
2.71,-3.48,16.43,-0.07,-0.07,-0.10,1721199640732
0.39,-1.29,8.93,0.06,-0.03,-0.21,1721199640742
-2.87,9.07,11.82,0.24,0.13,-0.24,1721199640752
-0.11,1.62,3.36,-0.05,-0.02,0.18,1721199640762
0.35,-5.94,11.27,-0.26,-0.02,0.17,1721199640772
0.07,-0.37,12.29,-0.05,0.08,-0.24,1721199640782
-1.58,8.77,12.92,0.29,0.06,-0.27,1721199640792
0.70,-3.26,3.08,-0.11,0.05,0.13,1721199640802
-1.45,3.84,15.06,-0.03,0.01,0.16,1721199640812
3.65,3.47,10.92,0.07,0.21,-0.13,1721199640822
0.14,-1.69,10.35,-0.14,-0.11,-0.33,1721199640832
-4.64,-0.25,12.19,0.10,-0.02,-0.21,1721199640842
-1.80,6.01,10.81,0.22,0.20,0.21,1721199640852
1.31,4.98,7.60,0.12,-0.01,0.22,1721199640862
3.37,-3.78,9.59,-0.16,0.16,-0.14,1721199640872
1.05,-7.07,20.82,-0.02,-0.02,-0.45,1721199640882
-5.17,6.73,6.25,0.46,-0.18,-0.05,1721199640892
-1.34,8.72,-3.01,0.01,0.32,0.39,1721199640902
5.02,0.51,13.62,-0.18,0.20,0.24,1721199640912
4.78,-6.87,9.79,-0.21,-0.08,-0.34,1721199640922
-3.41,4.96,25.08,0.31,0.07,-0.55,1721199640932
-3.64,1.87,-5.78,0.07,0.02,0.01,1721199640942
-3.61,6.34,6.18,-0.26,0.17,0.46,1721199640952
1.96,-2.11,17.08,0.01,-0.09,-0.02,1721199640962
2.91,-7.24,8.94,-0.04,-0.20,-0.43,1721199640972
-5.75,5.00,16.81,0.15,0.05,-0.32,1721199640982
-3.05,0.43,16.71,-0.04,0.34,0.09,1721199640992
-3.58,2.88,6.15,0.34,-0.31,0.49,1721199641002
3.95,-3.46,-5.54,-0.37,0.25,0.29,1721199641012
4.98,0.86,23.83,-0.18,0.22,-0.45,1721199641022
-4.02,-9.62,15.15,-0.02,-0.68,-0.41,1721199641032
-10.72,7.73,14.13,0.29,0.06,0.23,1721199641042
0.78,4.75,0.53,0.07,0.24,0.55,1721199641052
4.13,-1.68,9.81,-0.29,0.00,0.28,1721199641062
0.05,0.37,25.21,-0.01,-0.06,-0.26,1721199641072
-2.58,-2.22,9.53,0.18,-0.11,-0.20,1721199641082
-5.33,-0.04,5.81,0.04,-0.01,0.13,1721199641092
-0.11,3.53,5.61,0.01,0.16,0.48,1721199641102
6.45,1.41,11.09,-0.18,0.12,0.09,1721199641112
2.77,-3.34,19.41,-0.05,-0.12,-0.39,1721199641122
-5.47,-3.19,4.03,0.09,-0.22,-0.25,1721199641132
-5.63,6.34,13.69,-0.05,0.34,0.08,1721199641142
3.31,8.35,8.69,0.13,0.39,0.45,1721199641157
2.02,1.92,8.04,0.04,0.08,0.35,1721199641161
7.86,8.07,17.06,0.11,0.26,-0.08,1721199641171
1.47,-1.33,0.86,0.10,-0.53,-0.30,1721199641181
-6.86,4.02,16.21,-0.18,0.23,-0.28,1721199641191
-0.28,-1.47,12.60,0.27,-0.01,0.13,1721199641201
-0.10,-4.72,1.81,-0.09,-0.22,0.39,1721199641211
1.10,1.85,15.50,-0.15,0.23,0.14,1721199641221
3.30,1.09,5.21,0.13,-0.20,-0.16,1721199641231
1.08,5.05,15.30,-0.06,0.22,-0.24,1721199641241
-1.60,-6.44,11.26,0.03,-0.25,0.04,1721199641251
-6.35,-1.07,8.84,-0.06,-0.11,0.10,1721199641261
1.08,4.93,14.12,0.06,0.31,0.18,1721199641271
3.27,-1.93,4.69,-0.08,-0.34,0.25,1721199641281
-0.51,7.80,12.88,0.13,0.05,-0.10,1721199641291
2.19,0.44,-2.18,-0.01,-0.08,-0.16,1721199641301
2.17,8.44,14.69,-0.26,0.03,-0.11,1721199641311
0.36,3.14,10.00,0.21,0.06,0.11,1721199641321
0.91,-3.60,10.69,-0.15,-0.24,0.23,1721199641331
0.16,4.40,16.21,0.18,-0.11,0.05,1721199641341
3.61,-1.50,6.71,0.10,-0.01,-0.17,1721199641351
-2.28,-1.17,4.01,-0.04,-0.27,-0.16,1721199641361
-3.65,1.90,6.39,0.01,0.05,0.06,1721199641371
2.22,-0.43,13.65,-0.15,0.13,0.34,1721199641381
3.11,5.80,12.20,0.24,-0.28,0.17,1721199641391
1.87,-0.96,5.15,-0.14,-0.00,-0.18,1721199641401
-3.10,3.38,24.24,-0.05,-0.03,-0.16,1721199641411
-2.69,-2.26,3.82,0.24,-0.34,0.04,1721199641421
-1.84,1.44,3.71,-0.14,0.04,0.31,1721199641431
4.20,4.54,14.65,0.13,0.07,0.17,1721199641441
3.43,-2.17,6.35,-0.02,-0.28,-0.14,1721199641451
-2.78,2.26,16.05,-0.07,-0.05,-0.35,1721199641461
-1.67,-0.11,10.23,0.01,0.01,-0.05,1721199641471
-0.69,-3.70,10.98,-0.11,-0.24,0.16,1721199641481
1.95,-3.49,5.80,0.05,-0.10,0.18,1721199641491
5.17,-0.05,12.11,-0.03,0.27,-0.26,1721199641501
-0.15,2.34,14.31,0.07,-0.27,-0.25,1721199641511
-5.24,6.61,5.31,0.07,-0.18,-0.04,1721199641521
2.13,-0.39,9.68,-0.22,0.30,0.03,1721199641531
3.36,2.39,11.15,0.04,-0.16,-0.02,1721199641541
1.29,0.12,10.71,-0.06,0.00,-0.23,1721199641551
-0.91,0.02,15.69,0.11,0.01,-0.37,1721199641561
-3.36,-1.20,5.87,-0.02,-0.14,-0.02,1721199641571
-1.23,5.26,12.03,0.05,0.14,0.04,1721199641581
3.31,0.87,-0.57,-0.02,-0.02,-0.11,1721199641591
3.71,1.79,15.70,-0.28,0.13,-0.36,1721199641601
-2.33,0.62,12.99,0.29,-0.16,-0.28,1721199641611
-1.83,-1.95,7.51,-0.11,0.17,-0.07,1721199641621
-1.61,9.88,16.25,0.31,-0.00,-0.02,1721199641631
2.43,-1.02,-0.41,-0.04,-0.08,0.02,1721199641641
0.40,3.15,11.26,-0.05,-0.08,-0.15,1721199641651
3.13,-0.49,5.95,0.07,0.12,-0.34,1721199641661
-1.26,-1.66,11.35,-0.22,-0.03,-0.38,1721199641671
-3.73,3.86,19.06,0.17,-0.10,-0.13,1721199641681
-0.44,-0.17,7.02,0.03,0.07,0.02,1721199641691
0.10,6.56,12.95,0.09,0.08,-0.04,1721199641701
1.41,-1.47,7.35,-0.03,-0.03,-0.21,1721199641711
-1.12,0.02,9.14,0.07,-0.11,-0.25,1721199641721
-1.45,-2.33,11.90,-0.12,0.10,-0.12,1721199641731
-0.58,-0.75,11.74,0.10,-0.03,0.10,1721199641741
0.60,3.01,9.91,0.10,0.06,-0.21,1721199641751
-0.27,1.04,6.80,-0.14,-0.04,-0.24,1721199641761
-1.64,-0.63,14.24,-0.06,-0.00,-0.17,1721199641771
-0.84,1.78,11.21,0.19,0.09,-0.08,1721199641781
-0.19,1.39,5.57,-0.09,-0.01,-0.06,1721199641791
-1.75,6.52,6.51,0.15,-0.18,-0.01,1721199641801
2.75,-5.05,7.93,-0.44,0.34,-0.21,1721199641811
-0.96,1.90,22.64,0.18,-0.29,-0.29,1721199641821
-2.00,0.15,4.18,0.08,0.08,-0.20,1721199641831
-2.16,1.42,10.99,0.12,-0.01,0.06,1721199641841
1.66,0.54,11.91,-0.05,0.19,-0.00,1721199641851
2.00,4.16,12.09,0.19,-0.11,-0.17,1721199641861
-0.36,1.88,5.95,0.10,-0.06,-0.35,1721199641871
-1.94,-2.38,10.79,-0.13,0.06,-0.18,1721199641881
-1.18,1.64,17.78,0.09,0.11,-0.02,1721199641891
1.50,-0.87,5.19,0.11,-0.00,0.03,1721199641901
1.69,-1.16,11.06,-0.17,0.13,-0.10,1721199641911
0.54,6.09,17.10,0.37,-0.07,-0.18,1721199641921
1.20,2.82,0.61,0.10,0.04,-0.21,1721199641931
-2.98,-3.43,6.63,-0.23,-0.07,-0.27,1721199641941
-3.57,-0.51,11.14,-0.03,0.06,-0.19,1721199641951
-0.16,-1.38,19.12,-0.09,0.25,-0.05,1721199641961
-0.03,4.77,10.35,0.35,-0.11,0.08,1721199641971
1.40,-0.36,-0.41,-0.09,0.16,-0.02,1721199641981
-0.11,4.06,18.22,0.05,0.17,-0.17,1721199641991
1.09,2.04,15.50,0.16,0.00,-0.17,1721199642001
-0.33,6.33,8.13,0.32,-0.03,-0.21,1721199642011
0.20,-6.26,-1.39,-0.29,0.07,-0.22,1721199642021
-5.22,-5.51,18.18,-0.24,0.07,-0.18,1721199642031
-2.77,3.18,20.30,0.31,0.12,-0.08,1721199642041
0.88,0.54,2.83,-0.01,0.06,-0.02,1721199642051
-2.44,5.54,14.87,0.04,0.03,-0.23,1721199642061
1.78,-7.53,7.62,-0.12,0.15,-0.05,1721199642071
-1.40,4.32,8.76,0.22,-0.12,0.05,1721199642081
3.26,3.96,9.66,-0.02,0.46,-0.22,1721199642091
-1.23,2.55,14.44,0.23,-0.23,-0.25,1721199642101
-5.03,0.08,-1.28,-0.02,-0.03,-0.08,1721199642111
-0.06,-0.91,17.68,-0.30,0.55,0.05,1721199642121
1.82,0.95,13.47,0.23,-0.16,0.00,1721199642131
0.05,5.69,9.56,0.24,0.02,-0.11,1721199642141
1.48,-1.85,-0.89,-0.02,0.11,-0.20,1721199642151
-3.01,-2.05,12.03,-0.31,0.09,-0.16,1721199642161
-2.84,1.19,18.69,0.03,0.16,-0.12,1721199642171
-1.08,0.01,13.02,0.09,0.04,0.06,1721199642181
-0.95,1.66,8.92,0.20,-0.04,0.11,1721199642191
1.98,0.95,-1.11,-0.05,0.17,0.11,1721199642201
2.44,5.72,14.26,-0.21,0.31,-0.15,1721199642211
0.91,0.37,23.98,0.15,-0.11,-0.32,1721199642221
-4.10,-2.09,4.80,0.29,-0.16,-0.01,1721199642231
-2.15,0.22,1.96,-0.23,0.33,0.14,1721199642241
1.17,2.49,12.70,0.09,-0.06,0.22,1721199642251
4.19,0.78,6.91,-0.20,0.20,0.08,1721199642261
0.27,2.89,11.39,-0.02,-0.17,-0.31,1721199642271
-0.87,-1.75,10.54,-0.10,0.19,-0.22,1721199642281
-2.76,-0.16,12.23,0.06,-0.01,0.07,1721199642291
-0.97,-0.35,9.95,-0.04,0.04,0.19,1721199642301
0.93,4.54,17.54,0.14,0.02,0.18,1721199642311
2.37,2.73,6.60,0.16,0.02,0.00,1721199642321
1.64,-0.57,3.87,-0.11,0.08,-0.23,1721199642331
-1.68,0.96,10.49,0.05,-0.17,-0.15,1721199642341
-1.52,1.82,13.14,0.01,0.27,0.09,1721199642351
0.88,-2.26,6.23,0.04,-0.00,0.19,1721199642361
-0.28,0.71,14.29,-0.19,0.05,-0.06,1721199642371
0.69,0.35,15.56,0.24,-0.09,-0.11,1721199642381
-0.08,-2.31,4.15,-0.05,0.08,-0.13,1721199642391
-2.39,8.98,15.23,0.16,0.19,0.06,1721199642401
2.30,-4.95,2.54,-0.19,-0.02,0.06,1721199642411
-0.98,1.36,16.75,0.07,-0.07,0.02,1721199642421
2.34,1.14,9.03,0.08,0.23,0.01,1721199642431
0.34,2.56,11.51,0.09,-0.15,-0.02,1721199642441
-0.33,1.04,9.10,0.10,-0.03,-0.11,1721199642451
0.32,1.69,8.96,0.15,0.04,-0.07,1721199642461
0.16,-0.70,0.67,-0.13,0.02,0.03,1721199642471
-1.49,1.76,17.38,-0.22,0.29,-0.15,1721199642481
-0.49,0.39,10.14,0.07,-0.09,-0.03,1721199642491
-0.81,4.27,16.22,0.13,-0.01,0.02,1721199642501
1.68,-1.06,-0.09,-0.01,-0.13,0.02,1721199642511
-0.57,0.76,14.36,-0.24,0.21,-0.14,1721199642521
0.10,3.71,14.96,0.35,-0.06,-0.14,1721199642531
-0.40,-6.77,5.43,-0.30,0.08,-0.04,1721199642541
-5.43,3.73,16.89,0.19,-0.29,0.20,1721199642551
4.47,0.06,4.11,-0.02,0.42,0.10,1721199642561
3.96,2.65,15.46,-0.08,-0.14,-0.04,1721199642571
-1.38,3.46,7.26,0.20,-0.08,-0.26,1721199642581
-2.29,-2.08,5.78,-0.03,0.03,-0.07,1721199642591
-1.42,4.18,15.48,0.03,0.09,0.21,1721199642601
2.65,-0.28,8.20,-0.01,-0.05,0.13,1721199642611
0.17,-0.76,12.94,-0.09,-0.04,-0.24,1721199642621
-1.58,2.76,10.06,0.13,0.04,-0.16,1721199642631
0.27,-0.91,5.09,-0.14,0.01,0.14,1721199642641
0.06,4.55,14.50,0.11,-0.04,0.03,1721199642651
1.36,-1.84,6.62,-0.12,0.03,-0.16,1721199642661
-2.74,2.72,20.61,0.05,-0.09,-0.13,1721199642671
-0.65,4.49,11.20,0.24,0.07,0.06,1721199642681
1.68,-0.09,1.39,-0.09,-0.05,0.22,1721199642691
0.91,5.02,9.48,-0.09,0.02,-0.06,1721199642701
2.22,1.50,16.09,0.04,0.13,-0.43,1721199642711
-3.44,-2.66,11.40,0.10,-0.22,-0.25,1721199642721
-4.88,0.40,5.27,0.07,-0.10,0.36,1721199642731
2.37,3.89,9.73,-0.09,0.32,0.20,1721199642741
4.08,4.80,15.38,0.08,-0.14,-0.16,1721199642751
-0.08,-2.80,1.70,-0.12,-0.20,-0.36,1721199642761
-4.64,0.88,11.14,-0.10,0.08,-0.17,1721199642771
-0.83,-2.35,17.72,-0.10,0.16,0.08,1721199642781
0.49,3.88,17.80,0.31,-0.12,0.23,1721199642791
2.18,3.05,-2.55,0.12,-0.12,0.05,1721199642801
1.64,2.80,11.79,-0.12,0.19,-0.17,1721199642811
0.98,-2.27,16.01,-0.07,-0.08,-0.24,1721199642821
-4.29,-0.63,9.67,0.18,-0.34,-0.06,1721199642831
-2.35,5.79,6.06,0.00,0.24,0.02,1721199642841
2.95,-1.07,11.31,-0.13,0.05,0.14,1721199642851
0.34,0.66,11.52,0.10,-0.24,-0.04,1721199642861
0.90,0.62,8.83,-0.12,0.23,-0.24,1721199642871
-2.98,1.59,10.81,0.06,-0.26,-0.09,1721199642881
-2.05,4.26,9.80,0.04,0.05,0.15,1721199642891
3.27,-2.70,7.35,-0.06,0.01,0.11,1721199642901
1.22,0.52,12.49,-0.09,-0.08,-0.11,1721199642911
-0.09,-0.11,10.56,0.08,-0.07,-0.22,1721199642921
-1.98,0.10,10.46,-0.05,0.02,-0.13,1721199642931
-2.38,4.40,10.27,0.15,-0.06,0.07,1721199642941
2.18,-2.32,5.25,-0.17,0.05,0.17,1721199642951
1.46,3.50,14.58,0.04,-0.09,-0.07,1721199642961
0.24,2.25,11.21,-0.03,0.04,-0.31,1721199642971
-3.59,1.99,11.94,0.15,-0.19,-0.16,1721199642981
-1.14,-0.46,5.26,0.04,0.03,0.10,1721199642991
2.46,-2.57,5.35,-0.16,0.00,0.11,1721199643001
1.88,5.26,13.56,-0.01,-0.01,-0.08,1721199643011
1.40,0.42,14.58,-0.05,0.06,-0.45,1721199643021
-3.82,-0.44,14.87,0.19,-0.27,-0.26,1721199643031
-4.25,0.62,5.85,0.11,0.00,0.12,1721199643041
1.32,4.14,5.35,-0.02,0.15,0.35,1721199643051
5.82,0.15,10.40,-0.19,0.04,-0.02,1721199643061
2.09,-1.83,10.56,0.06,-0.27,-0.37,1721199643071
-2.20,0.41,13.87,0.00,0.12,-0.39,1721199643081
-2.22,3.10,11.44,0.12,0.04,-0.10,1721199643091
-0.89,1.94,10.05,-0.05,-0.02,0.03,1721199643101
0.89,1.47,9.42,0.10,-0.04,-0.01,1721199643111
2.14,0.57,8.65,-0.04,0.11,-0.09,1721199643121
1.41,-1.71,10.24,-0.03,-0.00,-0.14,1721199643131
-0.32,0.96,14.10,-0.08,0.08,-0.17,1721199643141
0.17,2.34,9.53,0.12,-0.03,-0.12,1721199643151
0.55,4.01,13.75,-0.05,0.09,-0.10,1721199643166
0.94,6.73,14.87,0.15,0.15,-0.09,1721199643170
2.41,-1.21,7.53,-0.13,0.09,-0.09,1721199643180
-0.79,-0.32,12.58,-0.08,-0.02,-0.17,1721199643190
0.62,4.10,8.45,-0.02,0.20,-0.18,1721199643200
3.69,-0.69,8.38,-0.19,0.18,-0.12,1721199643210
1.92,-1.61,15.75,-0.09,0.13,-0.29,1721199643220
-0.58,0.25,5.96,-0.13,0.11,-0.43,1721199643230
-3.13,7.13,12.22,-0.02,0.11,-0.41,1721199643240
-0.11,2.34,11.57,-0.10,0.28,-0.13,1721199643250
-3.36,-12.02,4.61,-0.14,0.06,-0.35,1721199643260
-13.58,6.74,13.45,0.28,-0.11,-0.72,1721199643270
-7.71,-2.39,12.44,-0.32,0.51,0.33,1721199643280
4.40,-1.91,18.63,0.09,-0.10,1.57,1721199643290
21.18,2.96,2.93,0.21,0.65,0.44,1721199643300
15.33,4.36,3.20,-0.02,-0.16,-1.29,1721199643310
4.49,3.01,8.88,-0.14,-0.26,-2.17,1721199643320
-16.17,-4.57,9.66,0.01,0.08,-1.29,1721199643330
-17.72,-4.54,14.33,-0.25,0.24,0.44,1721199643340
-4.03,0.88,10.85,0.10,0.24,0.92,1721199643350
8.64,0.28,0.67,-0.04,0.23,0.16,1721199643360
10.01,-3.89,12.09,-0.30,0.11,-0.56,1721199643370
1.27,2.88,16.19,0.03,0.17,-0.91,1721199643380
-5.85,1.89,13.68,0.00,0.24,-0.60,1721199643390
-8.43,-2.41,2.50,0.06,-0.11,0.13,1721199643400
-1.45,1.80,11.52,-0.19,0.52,0.44,1721199643410
6.22,0.92,12.98,-0.00,0.19,0.08,1721199643420
3.59,4.54,10.89,0.00,0.06,-0.63,1721199643430
-1.62,0.72,10.91,0.01,0.16,-0.64,1721199643440
-7.60,-3.81,8.27,-0.11,0.08,-0.10,1721199643450
-4.19,2.67,15.52,0.09,0.26,0.32,1721199643460
2.35,3.56,6.79,0.20,0.15,0.22,1721199643470
3.62,6.02,12.64,0.08,0.24,-0.16,1721199643480
2.04,-0.88,6.81,0.15,-0.04,-0.39,1721199643490
-3.33,-4.48,13.35,-0.17,0.20,-0.38,1721199643500
-3.52,-0.29,9.71,0.21,0.11,0.01,1721199643510
0.37,3.89,7.31,0.08,0.36,-0.01,1721199643520
3.40,7.51,17.43,0.25,0.40,-0.18,1721199643530
2.19,-2.90,6.16,0.15,-0.08,-0.28,1721199643540
-3.22,0.77,9.76,0.09,0.06,-0.24,1721199643550
-0.16,-0.96,8.99,0.10,0.46,-0.20,1721199643560
-2.51,-3.87,11.62,-0.09,-0.03,-0.16,1721199643570
-5.54,5.36,7.67,0.31,-0.13,-0.03,1721199643580
1.79,-3.95,3.64,-0.15,0.45,0.08,1721199643590
-0.24,3.87,15.51,0.12,0.08,-0.14,1721199643600
1.36,0.68,13.18,-0.01,0.37,-0.25,1721199643610
-3.99,-2.42,11.35,0.16,-0.23,-0.14,1721199643620
-3.40,-2.86,10.69,0.07,0.11,0.13,1721199643630
-0.19,1.01,5.37,0.22,-0.05,0.23,1721199643640
-0.30,7.23,9.79,0.01,0.16,-0.02,1721199643650
-0.93,-4.00,7.92,-0.02,-0.10,-0.16,1721199643660
-5.07,-4.97,9.24,-0.03,0.01,-0.17,1721199643670
-4.45,6.87,11.98,0.20,0.37,0.12,1721199643680
1.45,1.42,11.25,-0.11,0.14,0.25,1721199643690
-0.35,-2.16,10.83,0.06,-0.43,0.25,1721199643700
1.09,1.15,3.47,-0.02,0.26,0.09,1721199643710
3.16,4.89,16.32,-0.01,0.22,-0.18,1721199643720
-2.28,0.08,8.34,-0.05,-0.28,0.04,1721199643730
-3.70,1.75,10.68,-0.06,0.01,0.17,1721199643740
3.17,1.00,10.72,0.01,0.16,0.18,1721199643750
1.19,-1.39,5.56,-0.19,-0.28,0.07,1721199643760
-1.81,5.71,17.33,-0.03,0.08,-0.08,1721199643770
0.53,0.26,7.33,0.06,-0.06,0.14,1721199643780
-0.45,1.47,9.98,-0.13,0.04,0.04,1721199643790
-0.37,0.88,7.39,0.01,0.01,0.13,1721199643800
1.31,3.33,17.49,-0.17,0.29,0.05,1721199643810
-0.31,-1.53,7.03,0.08,-0.43,0.11,1721199643820
-2.20,1.96,10.64,-0.18,0.23,0.05,1721199643830
1.27,2.45,11.67,0.05,-0.07,0.03,1721199643840
-0.51,-1.43,7.09,-0.06,-0.13,0.03,1721199643850
-2.01,-1.10,12.26,-0.18,0.11,0.12,1721199643860
-1.96,0.32,8.82,-0.07,-0.15,0.18,1721199643870
0.32,-2.14,7.33,-0.01,-0.07,0.12,1721199643880
2.95,-0.29,12.60,-0.07,0.24,-0.01,1721199643890
-0.45,4.99,13.01,-0.02,-0.20,-0.11,1721199643900
-3.16,1.23,7.82,-0.08,-0.12,-0.16,1721199643910
-2.66,-8.80,5.95,-0.21,-0.04,-0.05,1721199643920
-1.96,1.36,10.72,-0.07,0.05,0.09,1721199643930
1.79,2.94,10.22,-0.07,-0.02,0.14,1721199643940
1.47,2.90,13.01,-0.01,-0.11,0.08,1721199643950
2.83,0.51,12.16,0.02,-0.01,-0.02,1721199643960
2.51,0.30,14.34,-0.13,-0.00,-0.12,1721199643970
-3.17,-0.39,5.66,0.01,-0.35,-0.01,1721199643980
-2.77,0.49,10.59,-0.05,0.14,-0.06,1721199643990
1.93,3.80,11.44,0.16,0.01,0.03,1721199644000
1.99,-2.15,8.85,-0.02,-0.22,0.01,1721199644010
0.39,1.43,10.02,0.11,-0.06,-0.08,1721199644020
1.45,2.83,13.33,0.05,0.25,-0.28,1721199644030
-1.96,1.71,13.45,0.25,-0.27,-0.05,1721199644040
-1.92,-4.50,3.54,0.11,-0.08,0.20,1721199644050
2.19,5.40,15.62,0.11,0.29,-0.07,1721199644060
2.77,1.32,6.67,0.09,-0.23,-0.28,1721199644070
-1.16,-2.44,14.81,0.04,-0.00,-0.28,1721199644080
-0.92,0.82,11.76,0.25,0.17,-0.17,1721199644090
-1.40,6.18,4.58,0.41,-0.06,0.02,1721199644100
1.67,-4.69,4.56,-0.10,0.24,-0.13,1721199644110
-1.53,-0.33,15.16,0.07,-0.18,-0.21,1721199644120
-0.54,-0.77,6.28,0.03,0.10,-0.02,1721199644130
2.41,3.04,20.70,0.06,0.36,-0.06,1721199644140
1.11,-0.70,2.49,0.19,-0.29,-0.10,1721199644150
-2.29,4.58,15.84,0.01,0.29,-0.32,1721199644160
1.93,-5.26,7.13,0.14,0.13,-0.15,1721199644170
-3.79,2.18,10.17,0.00,0.00,-0.07,1721199644180
-0.23,3.82,16.40,0.17,0.30,-0.00,1721199644190
2.37,-0.76,8.61,0.15,-0.05,-0.00,1721199644200
-0.16,0.73,5.35,0.10,0.17,-0.22,1721199644210
-0.07,-0.83,7.76,0.06,0.26,-0.33,1721199644220
-3.91,-0.48,9.23,-0.05,-0.07,-0.09,1721199644230
-3.33,2.03,20.42,0.08,0.22,0.04,1721199644240
1.75,1.97,4.58,0.35,-0.00,0.17,1721199644250
3.45,-0.24,8.84,-0.17,0.32,-0.14,1721199644260
-0.42,0.41,10.11,0.01,-0.09,-0.40,1721199644270
-5.72,-1.34,10.96,-0.12,0.14,-0.34,1721199644280
-2.87,-1.40,10.60,0.02,0.18,0.18,1721199644290
1.04,4.34,10.56,0.05,0.11,0.13,1721199644300
1.50,1.49,6.46,-0.14,-0.00,-0.04,1721199644310
-1.20,2.42,14.01,-0.20,0.12,-0.36,1721199644320
-0.81,-2.76,13.69,-0.04,0.09,-0.20,1721199644330
-1.90,-2.76,10.17,-0.10,-0.01,0.11,1721199644340
-0.68,7.29,6.39,0.18,0.07,0.17,1721199644350
3.97,0.14,8.15,-0.23,0.33,-0.20,1721199644360
-0.67,3.53,17.82,0.11,-0.18,-0.21,1721199644370
-1.19,-1.08,2.76,-0.00,0.08,-0.15,1721199644380
-2.68,-4.36,7.03,-0.24,-0.04,0.08,1721199644390
-1.60,2.91,15.02,-0.05,0.20,-0.06,1721199644400
3.48,6.14,8.83,0.11,0.14,0.03,1721199644410
2.09,-1.71,1.85,-0.13,-0.07,-0.11,1721199644420
-0.39,-4.70,21.89,-0.27,0.30,-0.28,1721199644430
-1.40,4.54,16.75,0.26,-0.12,-0.07,1721199644440
-1.49,6.03,-0.38,0.07,0.10,0.05,1721199644450
0.49,-5.53,5.56,-0.23,0.10,0.04,1721199644460
-0.65,-2.69,11.78,0.02,0.02,-0.02,1721199644470
-0.08,0.20,13.37,-0.18,0.27,-0.12,1721199644480
0.26,10.62,16.50,0.29,0.01,-0.00,1721199644490
1.38,-1.63,1.15,-0.08,-0.01,0.01,1721199644500
-2.80,0.48,9.81,-0.02,-0.07,-0.15,1721199644510
1.25,-3.29,11.84,0.01,0.23,-0.21,1721199644520
-0.91,0.62,12.52,0.09,-0.05,-0.08,1721199644530
-4.18,0.42,8.60,-0.08,0.03,-0.07,1721199644540
-3.11,1.28,12.14,0.08,0.01,-0.03,1721199644550
2.99,0.27,7.21,0.13,0.33,0.15,1721199644560
3.68,-4.62,10.47,-0.28,0.11,-0.04,1721199644570
-4.43,4.62,9.23,0.09,-0.39,-0.24,1721199644580
