AccX,AccY,AccZ,GyrX,GyrY,GyrZ,Time
3.76,-0.12,5.14,-0.02,0.04,0.17,1721199387139
4.76,-1.84,6.13,-0.07,0.17,0.01,1721199387144
1.34,1.57,13.07,-0.03,0.06,-0.11,1721199387154
3.12,0.26,15.58,0.07,0.23,0.09,1721199387164
1.26,0.77,7.76,0.10,0.11,0.08,1721199387174
-1.64,4.69,4.06,-0.02,0.19,-0.08,1721199387184
-1.75,3.34,11.10,-0.10,0.29,-0.03,1721199387194
-2.40,1.32,14.37,0.08,0.21,0.05,1721199387204
-4.64,0.84,8.23,0.11,0.02,0.02,1721199387214
-6.56,1.21,5.37,-0.04,-0.01,0.22,1721199387224
-4.66,-0.58,13.39,-0.03,0.14,0.50,1721199387234
-0.05,-0.45,12.28,0.12,0.08,0.42,1721199387244
0.60,-0.14,10.23,0.04,-0.03,0.12,1721199387254
-1.95,0.39,8.29,0.08,-0.10,0.03,1721199387264
-1.93,-0.57,10.05,-0.06,0.15,0.11,1721199387274
-2.08,1.23,15.50,0.11,0.04,0.09,1721199387284
-3.38,1.54,6.33,0.03,-0.16,-0.07,1721199387294
-6.90,3.04,9.18,0.01,-0.15,-0.02,1721199387304
-6.87,0.81,8.83,-0.08,-0.08,0.14,1721199387314
-8.09,2.67,12.78,0.04,-0.25,0.22,1721199387324
-8.26,2.81,4.41,0.00,-0.37,0.34,1721199387334
-4.31,-0.49,12.82,-0.08,-0.27,0.75,1721199387344
4.34,3.71,8.93,0.04,-0.08,0.96,1721199387354
8.49,5.54,13.02,-0.27,-0.02,0.05,1721199387364
-1.22,1.33,13.08,-0.04,-0.69,-0.73,1721199387374
-13.73,-3.16,8.36,-0.06,-0.48,-0.21,1721199387384
-13.29,-0.88,6.41,-0.02,-0.38,1.08,1721199387394
1.31,-1.07,7.72,-0.19,-0.11,1.42,1721199387404
9.88,2.30,11.72,-0.02,-0.38,0.66,1721199387414
9.21,2.20,12.20,-0.05,-0.26,-0.24,1721199387424
-0.23,1.10,11.25,-0.05,-0.49,-0.33,1721199387434
-6.62,-3.07,7.62,-0.08,-0.37,0.23,1721199387444
-2.66,-2.44,13.79,-0.02,-0.19,0.82,1721199387454
5.26,-0.57,10.01,0.05,-0.27,0.73,1721199387464
6.89,0.50,9.12,-0.00,-0.30,0.17,1721199387474
2.10,-1.94,8.44,-0.07,-0.45,-0.26,1721199387484
-4.90,-3.50,12.68,-0.07,-0.34,-0.06,1721199387494
-4.31,-4.49,12.10,0.11,-0.26,0.60,1721199387504
1.97,-4.73,7.69,0.00,-0.21,0.76,1721199387514
4.33,-1.55,9.61,-0.01,-0.34,0.36,1721199387524
4.23,-2.63,12.79,-0.03,-0.19,-0.03,1721199387534
1.19,-3.18,11.12,0.04,-0.28,-0.02,1721199387544
-1.12,-5.46,8.35,-0.06,-0.29,0.15,1721199387554
-1.87,-6.39,10.99,-0.00,-0.31,0.25,1721199387564
0.86,-3.71,12.22,0.07,-0.10,0.33,1721199387574
3.95,-2.21,8.44,-0.02,-0.17,0.25,1721199387584
3.81,-4.81,10.98,-0.18,-0.21,0.02,1721199387594
2.23,-2.97,19.80,0.31,-0.05,-0.14,1721199387604
2.06,3.27,-4.12,0.20,-0.20,0.01,1721199387614
-1.14,7.05,8.98,-0.33,0.01,-0.10,1721199387624
-0.76,-7.15,21.66,0.01,-0.12,-0.24,1721199387634
-0.07,-2.84,10.49,0.33,-0.33,0.05,1721199387644
1.80,7.10,0.17,0.02,0.05,0.19,1721199387654
4.69,2.25,10.89,-0.25,0.10,-0.15,1721199387664
2.18,-4.21,16.76,0.08,-0.10,-0.46,1721199387674
0.62,1.33,10.68,0.22,0.05,-0.33,1721199387684
2.25,3.54,7.18,-0.02,0.07,-0.17,1721199387694
2.40,-2.76,10.61,-0.21,0.06,-0.37,1721199387704
-1.61,-3.69,15.02,0.10,-0.08,-0.45,1721199387714
-2.26,0.56,6.85,0.10,0.06,-0.25,1721199387724
-0.45,4.94,9.51,-0.02,0.17,-0.33,1721199387734
-0.02,0.65,10.81,-0.09,0.15,-0.70,1721199387744
-4.51,-4.10,14.82,0.03,-0.22,-0.65,1721199387754
-5.39,-2.93,9.08,0.15,0.10,-0.14,1721199387764
0.23,1.22,9.74,-0.06,0.30,-0.02,1721199387774
1.25,-0.53,9.51,-0.02,-0.19,-0.33,1721199387784
-1.13,-1.10,9.67,-0.01,0.06,-0.54,1721199387794
-2.07,-0.09,10.34,0.01,0.04,-0.46,1721199387804
-1.17,-4.79,10.73,-0.15,-0.01,-0.32,1721199387814
-2.15,-2.26,15.61,0.10,-0.00,-0.30,1721199387824
-1.24,0.16,7.61,0.03,0.05,-0.30,1721199387834
-0.47,0.16,8.54,-0.13,-0.00,-0.37,1721199387844
-1.36,-3.89,11.54,0.03,-0.23,-0.49,1721199387854
-6.16,-0.14,12.27,0.01,-0.05,-0.39,1721199387864
-4.14,2.04,8.85,-0.01,-0.13,-0.17,1721199387874
-2.20,-3.08,9.46,-0.21,-0.13,-0.29,1721199387884
-4.88,-5.42,10.99,0.03,-0.32,-0.34,1721199387894
-6.53,1.16,11.00,0.08,-0.26,-0.04,1721199387904
-0.13,1.07,10.13,-0.11,0.04,0.23,1721199387914
3.17,-1.17,12.09,-0.16,-0.16,0.00,1721199387924
1.46,-1.24,12.32,-0.00,-0.31,-0.34,1721199387934
-0.73,1.16,6.46,-0.01,-0.20,-0.27,1721199387944
-0.58,2.30,7.75,-0.08,-0.17,-0.09,1721199387954
2.65,-2.19,14.97,-0.11,0.02,-0.14,1721199387964
2.28,-0.46,8.97,0.08,-0.32,-0.28,1721199387974
-0.77,3.08,8.76,-0.07,-0.10,-0.40,1721199387984
-1.99,1.13,9.86,0.05,-0.08,-0.35,1721199387994
-3.64,-1.93,8.41,-0.11,-0.13,-0.23,1721199388004
-4.44,1.60,10.39,0.10,-0.22,0.05,1721199388014
1.79,0.11,10.03,-0.13,0.03,0.15,1721199388024
2.44,0.92,13.12,-0.02,-0.31,0.06,1721199388034
1.74,0.09,9.81,-0.08,-0.16,-0.11,1721199388044
2.04,0.66,8.32,0.03,-0.12,-0.10,1721199388054
3.22,-0.33,7.81,-0.15,-0.01,-0.10,1721199388064
1.72,0.57,13.93,0.01,-0.16,-0.21,1721199388074
1.16,0.01,7.60,0.02,-0.15,-0.18,1721199388084
2.18,1.96,8.38,0.08,0.09,-0.19,1721199388094
1.08,-0.25,12.36,-0.01,0.04,-0.46,1721199388104
-6.05,1.90,12.81,0.10,-0.40,-0.33,1721199388114
-4.66,3.63,10.96,0.02,-0.01,0.36,1721199388124
6.50,4.39,13.17,-0.02,0.25,0.59,1721199388134
11.98,4.25,10.11,0.02,0.01,-0.14,1721199388144
5.68,2.37,8.07,-0.01,-0.24,-0.90,1721199388154
-4.82,2.51,7.42,0.03,-0.17,-0.77,1721199388164
-7.17,2.39,15.98,0.05,0.20,0.04,1721199388174
-0.23,3.49,13.08,0.17,0.14,0.52,1721199388184
6.35,3.56,6.41,-0.07,0.04,0.22,1721199388194
5.59,4.74,10.25,-0.06,-0.01,-0.31,1721199388204
3.09,4.37,13.13,0.09,0.21,-0.49,1721199388214
1.18,3.01,9.15,0.04,0.19,-0.22,1721199388224
0.52,2.14,5.38,-0.12,0.01,0.08,1721199388234
3.34,4.49,10.61,0.03,0.23,-0.02,1721199388244
8.58,2.69,13.82,0.00,0.49,-0.33,1721199388254
5.16,1.71,9.64,0.07,0.01,-0.49,1721199388264
-1.20,0.50,8.96,-0.04,0.36,-0.62,1721199388274
-7.92,8.19,12.49,0.12,0.10,-0.77,1721199388284
-10.41,-1.06,5.19,-0.23,0.03,-0.29,1721199388294
-3.28,-2.94,15.92,-0.09,0.34,0.88,1721199388304
12.31,3.58,7.63,0.13,0.60,0.71,1721199388314
15.03,5.78,9.11,-0.07,0.31,-0.88,1721199388324
-0.01,-1.20,12.56,0.01,-0.22,-1.77,1721199388334
-13.50,-1.44,9.41,0.09,0.19,-0.80,1721199388344
-7.97,0.35,13.03,0.00,0.57,0.52,1721199388354
3.40,-1.10,7.20,-0.07,0.21,0.28,1721199388364
3.07,4.60,8.51,0.15,0.21,-0.77,1721199388374
-0.06,-0.09,10.52,0.03,0.40,-1.03,1721199388384
-9.14,-2.26,12.36,-0.01,0.08,-0.63,1721199388394
-9.62,0.23,11.07,0.17,0.22,-0.07,1721199388404
-0.09,-0.71,11.52,0.07,0.26,0.28,1721199388414
6.06,-0.29,4.27,-0.02,0.12,0.11,1721199388424
6.70,1.90,8.62,-0.09,0.41,-0.56,1721199388434
3.06,-2.05,12.77,0.11,0.24,-0.95,1721199388444
-3.00,-3.71,10.43,0.09,0.16,-0.65,1721199388454
-5.02,-1.66,9.75,0.01,0.21,-0.24,1721199388464
0.07,-2.53,9.74,-0.07,0.36,-0.20,1721199388474
2.99,-1.76,13.82,0.03,0.26,-0.45,1721199388484
1.21,-5.26,10.41,0.07,0.22,-0.73,1721199388494
-6.09,-1.56,9.22,0.12,0.02,-0.73,1721199388504
-7.71,-2.91,8.87,0.02,0.20,-0.41,1721199388514
-4.81,-1.35,12.98,0.08,0.34,-0.09,1721199388524
0.24,-3.04,11.25,0.04,0.20,-0.09,1721199388534
-0.55,-1.17,8.29,0.03,0.02,-0.42,1721199388544
-1.87,-2.95,12.67,0.05,0.23,-0.57,1721199388554
-4.26,-4.11,5.56,0.02,0.06,-0.35,1721199388564
-5.03,-1.65,9.95,-0.06,0.12,-0.04,1721199388574
0.37,-3.15,12.41,-0.02,0.28,-0.07,1721199388584
2.40,0.19,11.85,0.10,0.13,-0.37,1721199388594
0.90,-2.64,12.99,0.03,0.17,-0.59,1721199388604
-3.96,-4.88,11.31,0.07,-0.09,-0.46,1721199388614
-2.50,-7.26,12.51,0.05,0.09,-0.05,1721199388624
-0.90,-0.43,11.04,0.09,0.21,-0.18,1721199388634
0.72,-1.47,10.30,0.02,0.23,-0.47,1721199388644
-2.04,-4.57,10.87,0.04,-0.12,-0.42,1721199388654
-3.88,-3.79,7.65,-0.07,0.09,-0.20,1721199388664
-0.94,-2.58,17.03,0.12,0.23,-0.19,1721199388674
2.78,-1.42,7.99,0.12,0.21,-0.30,1721199388684
0.44,-2.71,7.80,-0.09,0.01,-0.26,1721199388694
-2.30,-3.12,6.89,-0.03,0.02,-0.19,1721199388704
-1.37,0.03,8.17,0.03,0.23,-0.28,1721199388714
1.30,1.27,8.81,0.00,0.35,-0.35,1721199388724
2.09,0.01,12.81,-0.03,0.32,-0.28,1721199388734
2.07,-4.07,12.77,0.02,0.25,-0.21,1721199388744
0.82,-3.52,13.85,0.16,0.19,-0.29,1721199388754
-0.66,-0.90,7.27,0.13,0.14,-0.36,1721199388764
-1.34,-2.01,5.95,-0.10,0.23,-0.34,1721199388774
-1.73,-1.65,10.48,0.04,0.19,-0.26,1721199388784
-0.12,0.89,7.92,-0.01,0.47,-0.27,1721199388794
0.74,0.26,12.46,0.06,0.39,-0.37,1721199388804
-0.07,-0.54,10.08,0.12,0.31,-0.43,1721199388814
-1.73,-2.72,20.17,0.20,0.39,-0.37,1721199388824
-4.40,0.90,5.51,0.25,0.10,-0.30,1721199388834
-4.28,2.34,9.32,-0.05,0.32,-0.30,1721199388844
-3.94,-0.56,8.38,0.13,0.09,-0.22,1721199388854
-3.54,-0.74,7.76,-0.06,0.22,-0.18,1721199388864
-1.99,0.16,10.51,0.13,0.25,-0.25,1721199388874
-3.34,4.13,7.56,0.14,0.20,-0.30,1721199388884
-3.92,2.91,11.88,-0.00,0.18,-0.17,1721199388894
-0.90,0.79,13.31,0.16,0.16,-0.07,1721199388904
1.81,4.67,9.10,0.10,0.17,-0.24,1721199388914
0.66,2.97,8.15,-0.14,0.05,-0.50,1721199388924
-4.78,2.55,16.22,-0.06,0.05,-0.59,1721199388934
-6.37,4.17,9.40,0.14,0.06,-0.39,1721199388944
-6.32,6.95,7.39,-0.14,0.12,-0.35,1721199388954
-7.29,5.13,11.11,-0.12,-0.07,-0.30,1721199388964
-7.62,4.04,9.69,-0.07,0.06,-0.17,1721199388974
-5.69,4.57,12.37,-0.05,0.06,-0.12,1721199388984
-6.20,5.19,8.01,-0.00,-0.16,-0.25,1721199388994
-6.98,4.94,6.63,-0.12,-0.06,-0.12,1721199389004
-5.74,2.32,11.18,-0.13,-0.14,0.15,1721199389014
-2.76,2.79,10.74,-0.00,-0.12,0.17,1721199389024
0.82,3.29,9.47,-0.03,-0.13,-0.01,1721199389034
0.54,0.78,5.77,-0.08,-0.28,-0.09,1721199389044
-2.24,0.06,9.22,-0.12,-0.22,-0.06,1721199389054
-2.28,0.46,12.11,0.07,-0.22,-0.07,1721199389064
-1.06,-0.31,9.43,0.06,-0.24,-0.02,1721199389074
-2.02,1.47,10.26,0.09,-0.32,0.16,1721199389084
-0.49,-1.25,6.68,-0.06,-0.32,0.24,1721199389094
-0.36,-0.84,10.54,-0.06,-0.29,0.06,1721199389104
-1.25,-3.42,11.39,-0.06,-0.29,-0.06,1721199389114
-4.44,-3.25,12.65,0.03,-0.40,0.13,1721199389124
-1.30,-1.85,6.53,0.02,-0.25,0.52,1721199389134
4.97,-1.68,9.59,-0.08,-0.41,0.24,1721199389149
7.43,-3.34,14.06,-0.00,-0.19,0.04,1721199389153
4.46,-3.20,10.71,0.11,-0.39,-0.15,1721199389163
1.92,-0.13,4.23,0.01,-0.18,-0.10,1721199389173
2.18,2.77,6.61,-0.12,0.01,-0.14,1721199389183
3.82,-2.20,12.83,-0.19,0.02,-0.23,1721199389193
2.77,-6.40,20.97,0.11,-0.15,-0.16,1721199389203
0.43,-0.73,6.83,0.18,-0.29,-0.16,1721199389213
-0.64,3.48,12.94,0.01,0.11,-0.32,1721199389223
2.38,-5.31,11.71,0.02,-0.12,-0.20,1721199389233
-0.29,-4.52,8.92,-0.03,-0.06,-0.22,1721199389243
-1.37,-1.67,5.46,0.10,-0.11,-0.44,1721199389253
-3.16,-0.08,7.51,-0.04,0.04,-0.45,1721199389263
-1.99,-3.53,13.24,-0.13,0.08,-0.15,1721199389273
0.96,-0.11,18.22,0.16,0.06,-0.10,1721199389283
3.22,0.09,5.09,0.08,0.03,-0.43,1721199389293
-1.73,1.78,10.50,-0.01,-0.02,-0.72,1721199389303
-3.51,-3.27,7.49,0.03,0.02,-0.54,1721199389313
-4.38,-2.57,13.16,-0.06,0.10,-0.26,1721199389323
-2.69,0.79,16.22,0.11,0.06,-0.26,1721199389333
0.82,-1.05,13.73,0.03,0.05,-0.41,1721199389343
0.06,-1.76,8.44,0.11,-0.08,-0.54,1721199389353
-3.12,-3.24,3.60,-0.06,-0.01,-0.61,1721199389363
-5.35,-7.10,9.25,0.03,0.04,-0.49,1721199389373
-6.58,-0.32,4.22,0.10,-0.00,-0.47,1721199389383
-4.76,-0.23,7.41,-0.09,0.00,-0.32,1721199389393
-3.62,1.84,18.50,0.08,0.14,-0.27,1721199389403
-1.17,-0.47,16.41,-0.01,-0.05,-0.37,1721199389413
-3.95,0.21,8.09,-0.03,-0.25,-0.14,1721199389423
0.13,-3.21,6.06,-0.17,0.21,0.12,1721199389433
4.57,-4.15,11.73,-0.10,0.08,-0.09,1721199389443
4.51,-3.86,13.00,0.06,-0.06,-0.64,1721199389453
-1.85,-1.84,12.80,0.15,-0.04,-0.68,1721199389463
-3.52,-3.36,8.00,0.04,0.09,0.02,1721199389473
0.78,-2.67,11.80,-0.07,0.22,0.23,1721199389483
1.48,-3.26,9.74,0.01,-0.06,-0.24,1721199389493
-3.95,-3.32,12.11,-0.01,-0.08,-0.32,1721199389503
-4.23,-4.31,11.89,0.08,0.16,0.17,1721199389513
-2.47,-1.24,9.37,-0.05,-0.01,0.42,1721199389523
-0.62,-0.46,7.68,-0.16,-0.08,0.46,1721199389533
2.85,2.28,9.50,-0.10,0.18,0.57,1721199389543
7.58,1.54,7.10,-0.16,0.17,0.47,1721199389553
7.34,2.93,10.01,-0.13,0.18,0.07,1721199389563
3.95,1.63,10.33,-0.23,0.05,-0.24,1721199389573
-4.47,4.12,13.08,-0.16,-0.04,-0.13,1721199389583
-4.12,1.35,6.29,-0.36,0.09,0.36,1721199389593
-1.02,2.94,15.86,-0.33,0.20,0.60,1721199389603
2.78,2.02,9.71,-0.21,0.07,0.34,1721199389613
1.26,5.08,10.25,-0.26,0.12,0.12,1721199389623
0.73,4.79,8.53,-0.25,0.14,0.21,1721199389633
1.13,2.82,11.64,-0.28,0.17,0.29,1721199389643
2.80,3.75,11.62,-0.15,0.12,0.31,1721199389653
4.77,5.52,10.94,-0.14,0.21,0.24,1721199389663
4.26,5.90,10.27,-0.07,0.11,0.09,1721199389673
3.29,3.13,8.75,-0.09,0.22,0.01,1721199389683
1.58,5.18,9.51,0.01,0.22,0.00,1721199389693
0.36,4.47,8.86,0.01,0.17,0.03,1721199389703
0.33,2.47,12.67,0.07,0.24,0.09,1721199389713
1.17,1.23,8.58,0.17,0.17,0.15,1721199389723
1.62,0.82,10.45,-0.00,0.30,0.06,1721199389733
0.61,-0.59,11.60,0.12,0.10,-0.03,1721199389743
-0.78,-1.75,8.36,0.10,0.24,-0.13,1721199389753
-1.76,0.27,10.50,0.08,0.29,-0.12,1721199389763
-2.49,0.44,11.24,0.03,0.23,0.04,1721199389773
-1.94,-1.53,7.87,0.06,0.15,0.18,1721199389783
0.32,-2.01,9.31,-0.03,0.26,0.11,1721199389793
0.27,-2.47,11.63,0.03,0.10,0.01,1721199389803
-1.12,-3.13,8.90,0.02,0.19,-0.00,1721199389813
-1.72,-1.98,10.35,-0.02,0.20,0.06,1721199389823
-0.76,-0.54,10.83,-0.00,0.25,0.07,1721199389833
0.34,-0.82,7.58,-0.06,0.21,0.09,1721199389843
1.00,-1.07,11.26,-0.13,0.28,-0.02,1721199389853
0.62,0.74,11.36,-0.02,0.19,-0.08,1721199389863
-0.76,-1.07,8.60,-0.11,0.18,-0.13,1721199389873
-1.75,-1.67,13.68,-0.08,0.17,0.04,1721199389883
-1.93,0.11,11.00,0.05,0.13,0.12,1721199389893
-0.89,0.26,11.04,-0.08,0.33,0.01,1721199389903
-0.59,0.07,13.56,0.01,0.16,0.01,1721199389913
-1.43,-0.21,8.21,0.09,0.15,0.08,1721199389923
-1.09,2.90,11.79,0.07,0.30,0.08,1721199389933
-1.12,-0.30,9.40,0.13,0.10,0.07,1721199389943
-2.44,3.54,10.87,0.14,0.18,0.09,1721199389953
-0.40,-1.24,9.89,0.14,0.12,0.17,1721199389963
-2.26,-0.18,11.02,0.18,0.01,0.17,1721199389973
-1.85,-0.46,6.99,0.19,0.12,0.20,1721199389983
-0.69,-1.46,9.30,0.11,0.21,0.08,1721199389993
-0.24,0.97,11.34,0.26,0.10,0.09,1721199390003
-0.38,-3.35,8.57,0.07,0.14,0.14,1721199390013
-1.39,0.29,12.79,0.20,0.09,0.13,1721199390023
0.16,-0.24,9.19,0.14,0.21,0.09,1721199390033
0.12,0.37,11.20,0.16,0.10,0.09,1721199390043
-0.62,-1.28,6.16,0.12,0.06,0.14,1721199390053
-0.96,-0.36,10.96,0.06,0.21,0.09,1721199390063
0.16,-1.94,8.67,0.15,0.11,0.11,1721199390073
0.51,-0.60,12.26,0.09,0.23,0.07,1721199390083
-0.30,0.20,8.40,0.26,0.03,0.04,1721199390093
-0.36,1.75,10.16,0.10,0.29,-0.06,1721199390103
-0.40,-0.63,9.09,0.19,0.08,-0.05,1721199390113
-1.73,2.34,10.76,0.15,0.18,-0.05,1721199390123
-1.05,1.49,9.56,0.20,0.17,-0.03,1721199390133
-1.85,0.50,11.70,0.08,0.17,-0.05,1721199390143
-2.19,1.25,10.37,0.20,0.10,-0.01,1721199390153
-1.70,-1.74,7.49,0.08,0.15,0.05,1721199390163
-1.76,1.18,12.68,0.11,0.14,0.03,1721199390173
-1.59,0.94,5.85,0.17,0.07,0.02,1721199390183
-2.53,-0.97,11.47,-0.14,0.16,0.04,1721199390193
-3.39,1.81,11.31,0.15,-0.01,0.19,1721199390203
-1.41,-1.33,6.05,-0.19,0.13,0.21,1721199390213
-0.94,3.01,14.92,-0.07,0.02,0.28,1721199390223
0.65,-0.24,7.65,-0.14,-0.02,0.31,1721199390233
-0.76,1.59,11.64,-0.16,-0.04,0.27,1721199390243
0.16,2.08,9.63,-0.15,0.07,0.28,1721199390253
-0.23,2.94,12.00,-0.22,0.02,0.22,1721199390263
-0.84,-0.84,9.84,-0.24,-0.04,0.26,1721199390273
-2.20,0.31,11.46,-0.26,-0.00,0.34,1721199390283
-1.37,3.22,9.73,-0.14,0.01,0.41,1721199390293
0.28,0.00,8.77,-0.33,-0.04,0.42,1721199390303
0.22,1.31,10.38,-0.08,-0.08,0.41,1721199390313
1.64,-2.70,6.93,-0.30,0.05,0.35,1721199390323
-1.74,0.57,11.46,-0.14,-0.11,0.30,1721199390333
-1.92,-1.23,7.66,-0.14,-0.04,0.35,1721199390343
-1.47,-3.51,10.14,-0.20,-0.10,0.56,1721199390353
-0.61,0.85,8.18,-0.08,-0.07,0.57,1721199390363
1.15,0.55,9.11,-0.23,-0.01,0.39,1721199390373
-0.96,0.29,11.07,-0.18,-0.22,0.35,1721199390383
-2.19,-0.58,9.95,-0.25,-0.11,0.32,1721199390393
-2.35,0.62,10.80,-0.26,-0.14,0.46,1721199390403
-0.20,-2.71,8.45,-0.32,-0.15,0.66,1721199390413
1.07,-0.98,10.24,-0.29,-0.09,0.54,1721199390423
1.71,-1.60,10.08,-0.29,-0.16,0.32,1721199390433
0.06,0.48,11.63,-0.26,-0.16,0.30,1721199390443
-0.77,-1.43,10.29,-0.25,-0.22,0.51,1721199390453
0.10,2.22,13.20,-0.26,-0.06,0.58,1721199390463
2.68,-0.63,10.06,-0.20,-0.20,0.50,1721199390473
2.37,2.39,11.76,-0.15,-0.12,0.31,1721199390483
2.27,3.18,13.01,-0.10,-0.11,0.22,1721199390493
0.88,1.30,10.60,-0.06,-0.14,0.25,1721199390503
0.12,-2.90,9.05,-0.05,-0.14,0.27,1721199390513
-0.08,-1.83,13.48,-0.06,-0.04,0.30,1721199390523
-0.53,5.49,14.36,0.21,-0.22,0.30,1721199390533
1.67,0.19,8.20,0.08,-0.06,0.32,1721199390543
1.81,3.41,15.62,0.08,-0.01,0.16,1721199390553
1.52,-0.86,9.67,0.15,-0.16,0.10,1721199390563
0.25,-2.72,9.46,0.06,-0.01,0.11,1721199390573
-0.18,-0.11,12.87,0.33,-0.10,0.27,1721199390583
1.49,-0.31,6.82,0.24,0.01,0.24,1721199390593
2.85,1.82,12.52,0.19,-0.03,0.02,1721199390603
2.29,0.44,10.73,0.18,-0.01,-0.21,1721199390613
-1.87,0.00,10.27,0.18,-0.09,-0.08,1721199390623
-2.01,-1.35,8.60,0.19,0.08,0.20,1721199390633
0.30,-0.74,7.46,0.11,0.06,0.21,1721199390643
2.60,-1.11,10.29,0.06,0.04,0.09,1721199390653
1.91,-0.70,12.53,0.06,0.03,-0.09,1721199390663
-0.49,0.15,10.42,0.12,-0.02,-0.09,1721199390673
-0.47,-1.78,8.61,-0.02,0.12,0.04,1721199390683
-0.62,-1.95,11.04,0.04,0.00,0.07,1721199390693
-0.06,0.72,12.36,0.05,0.14,0.02,1721199390703
0.56,-0.42,10.77,0.02,0.07,0.08,1721199390713
-0.27,0.73,12.33,-0.01,0.08,0.01,1721199390723
-0.56,-0.17,9.75,0.02,0.07,-0.03,1721199390733
0.19,0.45,9.94,0.00,0.11,0.00,1721199390743
0.65,2.51,7.87,0.05,0.06,0.01,1721199390753
0.74,1.40,5.44,-0.01,0.13,-0.09,1721199390763
-1.01,-1.16,12.85,-0.21,0.11,-0.19,1721199390773
-3.04,2.36,11.55,0.15,-0.01,-0.11,1721199390783
-1.78,-0.78,7.52,-0.16,0.17,-0.03,1721199390793
-1.46,2.47,11.68,0.02,-0.03,0.16,1721199390803
1.44,0.14,6.22,-0.12,0.18,0.00,1721199390813
0.60,0.47,14.04,-0.13,0.04,-0.27,1721199390823
-0.87,-1.45,10.75,-0.05,0.00,-0.26,1721199390833
-2.69,1.60,11.90,-0.08,0.10,-0.14,1721199390843
-1.52,0.62,10.38,-0.10,0.06,0.00,1721199390853
-0.13,0.57,9.01,-0.07,0.07,0.07,1721199390863
1.81,0.72,9.04,-0.07,0.09,-0.11,1721199390873
0.99,-0.68,10.22,-0.13,0.04,-0.27,1721199390883
-1.26,-2.10,10.46,-0.12,0.04,-0.21,1721199390893
-2.27,-1.34,10.76,-0.11,0.07,-0.13,1721199390903
-1.52,0.17,11.12,-0.07,0.09,-0.01,1721199390913
-0.22,-2.57,8.88,-0.10,0.06,0.02,1721199390923
-0.60,1.48,10.30,-0.06,0.11,-0.02,1721199390933
0.05,-1.28,10.87,-0.13,0.08,-0.07,1721199390943
-1.52,-0.35,12.20,-0.11,0.05,-0.06,1721199390953
-0.57,2.33,11.20,-0.06,0.11,-0.03,1721199390963
-0.55,0.45,11.88,-0.10,0.07,0.02,1721199390973
-0.41,1.13,12.45,-0.08,0.09,0.03,1721199390983
-0.68,-0.20,9.83,-0.05,0.03,0.04,1721199390993
-1.30,1.52,9.79,0.06,0.13,-0.07,1721199391003
-0.28,2.99,10.06,0.19,0.09,0.04,1721199391013
-0.33,1.15,8.85,0.13,0.00,0.13,1721199391023
-0.17,2.17,10.93,0.17,0.15,0.09,1721199391033
0.07,-0.07,9.19,0.19,0.06,0.01,1721199391043
-1.54,-0.79,9.76,0.10,0.05,0.01,1721199391053
-2.31,-0.67,11.06,0.18,0.09,0.03,1721199391063
-1.44,-0.66,8.46,0.19,0.06,0.08,1721199391073
-0.63,-1.17,10.10,0.14,0.09,0.14,1721199391083
-0.27,-0.77,9.68,0.17,0.06,0.09,1721199391093
-0.67,-1.38,9.85,0.14,0.08,0.03,1721199391103
-1.55,-0.86,9.59,0.15,0.00,0.04,1721199391113
-1.38,0.42,9.35,0.14,0.07,0.05,1721199391123
-0.77,1.85,11.26,0.10,0.12,0.10,1721199391133
-0.35,-2.39,8.76,-0.02,-0.00,0.16,1721199391143
-1.46,-2.62,10.63,-0.02,-0.12,0.15,1721199391158
-0.47,-2.78,10.07,0.02,-0.06,0.18,1721199391162
-1.31,-1.40,9.48,-0.00,0.05,0.22,1721199391172
0.05,1.80,10.57,0.09,0.04,0.20,1721199391182
-0.09,1.69,9.74,-0.02,-0.03,0.14,1721199391192
-1.45,0.14,10.82,-0.01,-0.11,0.13,1721199391202
-1.75,-3.39,11.10,-0.08,0.02,0.17,1721199391212
-2.21,0.38,12.09,0.07,-0.11,0.26,1721199391222
-0.27,0.70,7.73,0.08,0.01,0.31,1721199391232
-0.13,2.74,10.24,0.09,-0.10,0.24,1721199391242
0.15,-0.36,9.84,0.00,-0.05,0.13,1721199391252
-0.55,0.09,12.72,0.08,-0.08,0.18,1721199391262
-0.49,0.81,10.48,0.10,-0.04,0.23,1721199391272
0.01,3.94,12.32,0.13,-0.08,0.21,1721199391282
0.88,0.81,9.77,0.11,-0.09,0.19,1721199391292
0.25,-0.64,10.04,0.05,-0.13,0.18,1721199391302
0.27,0.64,11.15,0.04,-0.04,0.13,1721199391312
0.58,2.46,10.09,0.08,-0.08,0.14,1721199391322
0.11,0.22,8.70,0.01,-0.08,0.12,1721199391332
0.02,0.91,9.32,0.03,-0.08,0.13,1721199391342
0.79,0.62,9.24,-0.01,-0.04,0.17,1721199391352
0.24,2.00,9.97,0.01,-0.11,0.12,1721199391362
-1.18,0.60,8.14,-0.05,-0.10,0.05,1721199391372
-1.99,-0.20,8.71,-0.05,-0.11,0.09,1721199391382
-1.72,-1.55,9.97,-0.14,-0.09,0.16,1721199391392
-2.49,1.54,12.58,-0.10,-0.14,0.23,1721199391402
-1.43,-0.76,9.33,-0.18,-0.16,0.20,1721199391412
-0.87,0.81,13.80,-0.15,-0.07,0.20,1721199391422
-0.47,-1.67,7.13,-0.10,-0.25,0.20,1721199391432
-0.76,0.46,11.23,-0.25,-0.07,0.17,1721199391442
0.87,0.52,9.90,-0.11,-0.20,0.16,1721199391452
-0.07,-1.24,9.89,-0.26,-0.12,0.05,1721199391462
-1.18,0.03,10.06,-0.13,-0.23,0.14,1721199391472
-0.47,-2.47,6.17,-0.24,-0.11,0.11,1721199391482
-0.89,0.97,13.01,-0.14,-0.21,0.12,1721199391492
-0.67,-1.65,8.99,-0.13,-0.16,0.14,1721199391502
-1.02,0.09,12.42,-0.22,-0.15,0.15,1721199391512
-0.56,-0.60,11.36,-0.19,-0.18,0.15,1721199391522
0.06,-0.15,11.51,-0.22,-0.16,0.13,1721199391532
0.13,-1.47,9.55,-0.11,-0.25,0.13,1721199391542
0.40,-0.14,9.13,-0.08,-0.10,0.10,1721199391552
0.74,1.32,9.96,-0.07,-0.19,0.05,1721199391562
1.86,2.48,11.37,-0.03,-0.13,0.03,1721199391572
0.50,-0.30,10.52,-0.01,-0.24,-0.06,1721199391582
-0.48,1.68,12.75,-0.04,-0.06,-0.08,1721199391592
-1.17,-1.00,10.38,0.03,-0.24,-0.05,1721199391602
0.49,0.45,11.88,0.08,-0.05,-0.00,1721199391612
1.81,-2.40,7.64,0.15,-0.19,0.07,1721199391622
1.44,1.43,11.86,0.05,0.08,-0.08,1721199391632
-0.24,0.69,8.99,0.21,-0.30,-0.26,1721199391642
-0.39,-0.06,10.06,0.12,0.04,-0.12,1721199391652
0.43,0.17,11.29,0.17,-0.12,-0.04,1721199391662
0.51,1.58,9.55,0.14,-0.05,-0.09,1721199391672
-0.18,0.21,10.44,0.13,-0.13,-0.21,1721199391682
0.34,-1.54,9.82,0.10,-0.03,-0.15,1721199391692
0.14,-3.65,10.20,0.02,-0.06,-0.08,1721199391702
-0.46,1.09,13.88,0.08,-0.02,-0.07,1721199391712
0.30,1.59,8.79,0.12,-0.11,-0.11,1721199391722
0.71,3.03,11.09,0.07,0.02,-0.16,1721199391732
1.01,-1.42,9.30,0.03,-0.06,-0.16,1721199391742
-1.44,1.28,13.37,0.05,0.00,-0.20,1721199391752
-0.82,-2.51,7.55,0.10,-0.08,-0.06,1721199391762
0.23,0.38,11.24,0.09,0.09,-0.04,1721199391772
1.50,-0.28,9.60,0.15,-0.05,-0.17,1721199391782
-0.30,0.40,10.86,0.16,0.01,-0.27,1721199391792
-1.46,1.66,11.07,0.23,0.00,-0.23,1721199391802
-1.65,1.31,10.20,0.16,0.02,-0.12,1721199391812
-0.70,2.58,9.76,0.21,0.01,-0.01,1721199391822
1.49,2.02,8.62,0.11,0.08,-0.09,1721199391832
1.75,1.92,9.67,0.10,-0.01,-0.27,1721199391842
0.85,-0.70,8.33,0.03,0.06,-0.34,1721199391852
-1.22,0.24,10.08,0.04,0.03,-0.28,1721199391862
-2.21,0.66,9.04,0.04,0.00,-0.24,1721199391872
-2.35,1.39,9.34,0.07,-0.04,-0.19,1721199391882
-1.01,1.08,9.23,-0.00,-0.01,-0.12,1721199391892
-0.06,-1.09,11.34,-0.08,0.02,-0.10,1721199391902
-0.56,-0.79,9.90,-0.07,-0.05,-0.15,1721199391912
-0.29,-0.41,10.93,-0.12,0.01,-0.23,1721199391922
0.05,-1.62,8.56,-0.07,-0.07,-0.18,1721199391932
0.70,-2.05,11.92,-0.21,0.14,-0.12,1721199391942
0.81,-2.21,12.70,-0.15,-0.04,-0.15,1721199391952
0.15,1.27,10.70,-0.14,-0.01,-0.24,1721199391962
0.09,-1.39,8.60,-0.23,-0.03,-0.21,1721199391972
-0.91,-0.69,11.69,-0.21,0.07,-0.18,1721199391982
-0.11,-0.68,9.81,-0.18,-0.02,-0.16,1721199391992
-0.87,-1.28,10.98,-0.21,-0.01,-0.17,1721199392002
-0.19,-2.03,10.30,-0.20,0.06,-0.11,1721199392012
0.05,0.37,9.81,-0.17,0.03,-0.04,1721199392022
0.80,1.95,9.93,-0.12,0.08,-0.17,1721199392032
1.46,2.52,10.38,-0.04,0.04,-0.17,1721199392042
-0.12,-1.60,9.34,-0.15,0.03,-0.24,1721199392052
-1.34,1.21,11.02,-0.08,0.03,-0.26,1721199392062
-0.20,0.81,9.44,-0.05,0.07,-0.22,1721199392072
-1.22,-0.70,11.14,-0.04,0.04,-0.19,1721199392082
-2.10,1.25,10.88,0.03,0.05,-0.24,1721199392092
-1.37,0.73,10.01,0.06,0.04,-0.21,1721199392102
-1.27,1.36,11.93,0.04,0.10,-0.12,1721199392112
-1.30,-0.03,9.02,0.09,0.01,-0.17,1721199392122
-1.03,0.46,11.78,0.03,0.09,-0.29,1721199392132
-1.12,-0.65,12.15,0.15,-0.06,-0.22,1721199392142
-1.97,0.91,9.92,0.09,0.07,-0.08,1721199392152
-0.64,0.45,9.98,0.13,0.04,-0.10,1721199392162
0.22,2.03,11.86,0.13,-0.00,-0.19,1721199392172
-0.46,-0.81,9.71,0.09,0.04,-0.24,1721199392182
-2.28,-0.07,12.36,0.04,0.04,-0.24,1721199392192
-1.76,0.72,8.68,0.13,-0.11,-0.18,1721199392202
-0.20,-3.22,10.77,0.00,0.11,-0.08,1721199392212
-1.40,1.89,10.73,0.14,-0.10,-0.15,1721199392222
0.15,-0.39,8.34,0.10,0.01,-0.24,1721199392232
-0.27,-0.27,10.94,0.09,-0.03,-0.21,1721199392242
-2.01,0.42,9.65,0.09,0.03,-0.30,1721199392252
-2.75,-0.17,11.37,0.04,-0.04,-0.20,1721199392262
-1.78,1.63,9.94,0.19,-0.03,0.02,1721199392272
-0.58,-0.43,6.75,0.08,-0.02,0.03,1721199392282
0.78,1.32,11.84,0.10,-0.05,-0.05,1721199392292
1.95,-1.85,10.63,0.15,-0.08,-0.08,1721199392302
1.11,1.71,11.40,0.14,-0.00,-0.18,1721199392312
0.09,3.19,10.60,0.21,-0.09,-0.26,1721199392322
-1.05,1.44,8.92,0.20,-0.07,-0.18,1721199392332
-1.17,0.21,8.29,0.13,0.02,-0.13,1721199392342
-1.16,1.45,8.33,0.09,-0.06,-0.09,1721199392352
-0.44,0.93,9.28,0.02,-0.01,-0.16,1721199392362
-0.63,0.14,8.77,0.03,-0.06,-0.12,1721199392372
-0.56,-0.63,10.26,-0.07,0.04,-0.10,1721199392382
-0.18,2.23,10.03,0.02,-0.06,-0.14,1721199392392
0.24,-0.50,10.19,-0.13,-0.08,-0.13,1721199392402
-0.90,1.69,15.47,-0.05,-0.02,-0.16,1721199392412
-1.19,0.77,9.02,-0.06,-0.11,-0.21,1721199392422
-1.65,1.10,11.46,-0.11,-0.04,-0.12,1721199392432
-1.63,-0.77,10.27,-0.09,-0.02,-0.10,1721199392442
-2.43,-0.38,10.33,-0.11,-0.06,-0.08,1721199392452
0.08,0.89,10.65,-0.03,-0.03,0.02,1721199392462
2.30,0.58,10.06,-0.08,0.01,-0.07,1721199392472
1.38,0.62,11.77,-0.07,0.01,-0.24,1721199392482
-1.71,2.01,9.23,-0.04,-0.17,-0.32,1721199392492
-2.04,-1.51,8.27,-0.14,-0.01,-0.15,1721199392502
-1.49,-4.88,9.81,-0.07,-0.02,-0.03,1721199392512
-0.67,-3.51,8.89,-0.13,-0.02,-0.05,1721199392522
-0.14,3.08,13.86,-0.03,-0.04,-0.15,1721199392532
2.08,1.69,9.86,0.05,-0.03,-0.15,1721199392542
-0.05,-3.56,9.66,-0.17,-0.02,-0.24,1721199392552
-2.78,2.01,12.13,0.02,-0.06,-0.29,1721199392562
-2.30,-3.40,6.63,-0.12,-0.01,-0.08,1721199392572
-0.30,-4.39,10.41,-0.03,-0.04,0.10,1721199392582
2.08,2.75,7.75,0.07,0.01,-0.09,1721199392592
3.86,0.44,10.08,-0.03,0.02,-0.30,1721199392602
0.48,0.87,12.07,0.04,-0.00,-0.42,1721199392612
-1.77,-0.21,10.16,-0.11,0.02,-0.41,1721199392622
-3.70,1.09,12.85,0.05,-0.07,-0.21,1721199392632
-0.12,-2.95,9.35,-0.05,0.14,-0.08,1721199392642
1.18,1.06,11.50,0.05,-0.01,-0.11,1721199392652
2.50,0.10,10.31,-0.01,0.10,-0.22,1721199392662
0.35,-0.69,11.80,-0.01,0.01,-0.46,1721199392672
-1.93,1.40,11.57,0.06,0.07,-0.38,1721199392682
-1.94,-1.32,9.23,0.04,0.06,-0.19,1721199392692
-1.67,-2.15,9.28,0.00,0.07,-0.06,1721199392702
-0.46,3.62,13.66,0.12,0.12,-0.19,1721199392712
1.03,-0.48,8.33,0.12,0.00,-0.23,1721199392722
-0.67,4.30,14.62,0.15,0.12,-0.19,1721199392732
0.85,3.26,10.07,0.30,0.06,-0.18,1721199392742
0.47,-2.55,10.39,0.09,0.08,-0.10,1721199392752
-1.26,5.11,11.29,0.29,0.07,-0.05,1721199392762
0.82,-1.20,3.79,0.09,0.10,-0.17,1721199392772
0.00,-0.62,14.09,0.07,0.07,-0.22,1721199392782
0.82,-0.42,7.54,0.20,0.09,-0.09,1721199392792
-0.40,-0.10,13.49,0.07,0.16,-0.24,1721199392802
0.29,1.59,11.89,0.26,0.10,-0.13,1721199392812
0.51,6.20,8.43,0.25,0.15,-0.11,1721199392822
-0.04,3.75,6.54,0.16,0.12,-0.27,1721199392832
-0.76,-1.73,9.38,0.02,0.14,-0.26,1721199392842
-1.71,-1.54,9.54,-0.01,0.08,-0.23,1721199392852
-0.63,-1.02,9.14,-0.03,0.16,-0.03,1721199392862
1.37,-0.93,9.59,-0.13,0.17,-0.15,1721199392872
1.52,0.94,13.28,-0.05,0.11,-0.31,1721199392882
-0.39,-0.03,10.68,-0.05,0.13,-0.37,1721199392892
-2.04,-1.10,11.78,-0.15,0.09,-0.21,1721199392902
-0.72,0.67,10.94,-0.10,0.11,-0.14,1721199392912
1.09,1.40,9.38,-0.06,0.15,-0.16,1721199392922
0.57,-0.44,8.01,-0.12,0.15,-0.28,1721199392932
-1.08,0.48,8.80,-0.10,0.14,-0.43,1721199392942
-1.66,-1.16,9.91,-0.20,0.15,-0.24,1721199392952
-0.66,-0.99,9.94,-0.09,0.14,-0.08,1721199392962
1.03,-0.06,7.99,-0.22,0.20,-0.27,1721199392972
-0.82,-0.17,10.11,-0.12,0.02,-0.31,1721199392982
-2.14,-0.18,9.18,-0.22,0.15,-0.29,1721199392992
-2.24,-2.61,12.78,-0.28,0.17,-0.19,1721199393002
-1.50,-2.06,15.40,-0.21,0.13,-0.03,1721199393012
-0.32,1.64,9.92,-0.14,0.13,-0.07,1721199393022
0.08,1.44,9.49,-0.21,0.09,-0.23,1721199393032
-0.16,1.28,11.57,-0.11,0.08,-0.21,1721199393042
-0.82,-1.28,7.10,-0.10,0.11,-0.10,1721199393052
-0.60,-3.18,8.32,-0.26,0.11,-0.09,1721199393062
-0.12,-0.31,17.22,-0.13,0.20,-0.13,1721199393072
-0.07,1.92,11.77,-0.02,0.01,-0.07,1721199393082
-0.19,1.16,11.82,-0.05,0.21,-0.06,1721199393092
-0.90,-0.96,11.73,0.01,0.05,-0.11,1721199393102
-1.91,1.75,10.95,0.03,0.09,-0.07,1721199393112
-0.66,-1.27,12.83,0.08,0.10,0.03,1721199393122
-1.07,1.57,9.01,0.15,0.03,0.02,1721199393132
0.46,1.37,8.97,0.14,0.18,-0.03,1721199393142
0.62,-0.01,10.72,0.14,0.07,-0.14,1721199393152
-2.14,-0.37,11.10,0.08,0.06,-0.12,1721199393167
-1.41,2.38,11.27,0.17,0.04,-0.09,1721199393171
-1.45,-1.25,5.41,0.11,0.02,-0.02,1721199393181
-1.56,-0.89,11.13,0.05,0.12,-0.05,1721199393191
-0.00,1.37,10.56,0.17,0.10,-0.15,1721199393201
-0.82,-1.37,8.53,0.02,0.07,-0.14,1721199393211
-2.01,0.07,10.64,0.10,0.04,-0.07,1721199393221
-0.49,-2.08,11.78,0.02,0.19,-0.08,1721199393231
-1.03,2.38,13.80,0.16,0.01,-0.01,1721199393241
-0.30,4.31,6.43,0.17,0.05,0.03,1721199393251
0.20,-0.51,10.74,0.02,0.05,0.01,1721199393261
0.11,-0.48,10.52,0.12,-0.02,-0.01,1721199393271
1.06,-0.76,11.01,0.01,0.15,-0.07,1721199393281
0.15,2.71,11.67,0.18,-0.04,-0.09,1721199393291
0.22,1.08,7.18,0.10,0.08,-0.05,1721199393301
0.13,2.44,11.42,0.14,0.09,-0.08,1721199393311
-0.72,3.01,8.53,0.14,0.04,-0.09,1721199393321
-1.63,1.65,11.62,0.01,0.11,-0.05,1721199393331
-1.19,1.95,9.24,0.11,-0.01,0.05,1721199393341
-0.79,0.41,8.36,-0.03,0.03,0.00,1721199393351
-0.71,-2.16,10.36,-0.01,0.00,0.01,1721199393361
-1.79,-0.35,10.25,0.02,-0.01,-0.00,1721199393371
-0.89,2.97,12.02,0.10,0.06,0.05,1721199393381
-0.06,2.29,11.43,0.06,-0.00,-0.01,1721199393391
-2.52,2.86,9.35,0.12,-0.10,-0.05,1721199393401
-2.67,-0.60,10.44,-0.08,0.07,-0.05,1721199393411
-3.19,-0.13,9.85,0.08,-0.16,0.15,1721199393421
-0.68,-0.69,8.55,-0.04,0.05,0.34,1721199393431
2.60,-0.05,8.69,0.04,-0.07,0.27,1721199393441
3.44,0.47,10.27,0.01,0.00,-0.06,1721199393451
1.32,0.09,8.40,-0.02,-0.14,-0.17,1721199393461
-1.62,0.92,9.78,-0.04,-0.02,-0.08,1721199393471
-2.72,-3.11,8.47,-0.12,-0.09,-0.00,1721199393481
-1.91,-0.77,11.89,-0.06,-0.02,0.11,1721199393491
0.13,-3.24,6.45,-0.08,-0.09,0.07,1721199393501
0.13,-0.69,13.86,-0.17,0.02,-0.04,1721199393511
0.55,0.44,9.61,-0.05,-0.13,-0.05,1721199393521
0.84,2.67,13.36,-0.04,0.04,-0.02,1721199393531
2.50,-4.28,4.53,-0.08,-0.08,0.06,1721199393541
-0.80,-1.13,13.73,-0.27,0.03,-0.12,1721199393551
0.44,-1.78,9.90,0.02,-0.09,-0.07,1721199393561
0.57,-2.22,12.10,-0.18,0.03,-0.08,1721199393571
2.47,-1.24,11.60,-0.04,-0.03,-0.06,1721199393581
0.88,2.50,14.23,-0.01,0.06,-0.20,1721199393591
-1.35,1.18,9.96,-0.00,0.00,-0.25,1721199393601
-2.48,0.55,9.78,-0.06,0.06,-0.18,1721199393611
-1.25,-2.25,9.73,0.08,-0.04,-0.05,1721199393621
1.73,-1.89,9.41,-0.03,0.19,0.02,1721199393631
1.21,5.06,10.94,0.14,0.02,-0.22,1721199393641
-0.02,1.82,9.90,-0.02,0.11,-0.37,1721199393651
-2.63,0.89,9.90,0.07,-0.02,-0.32,1721199393661
-2.31,-2.21,9.32,-0.05,0.12,-0.15,1721199393671
-0.54,-2.03,11.68,0.04,0.08,0.04,1721199393681
0.70,0.67,9.21,0.08,0.08,-0.04,1721199393691
1.51,1.56,12.11,0.06,0.12,-0.16,1721199393701
0.90,1.40,11.56,0.10,0.09,-0.25,1721199393711
-1.04,2.02,10.69,0.07,0.08,-0.26,1721199393721
-1.88,0.92,7.52,0.17,0.03,-0.09,1721199393731
-0.27,-0.52,10.00,0.06,0.22,-0.05,1721199393741
-0.16,-1.31,9.09,0.13,-0.07,-0.04,1721199393751
0.27,2.29,14.08,0.09,0.21,-0.09,1721199393761
1.19,2.56,12.11,0.22,0.06,-0.17,1721199393771
-1.69,4.98,7.67,0.16,-0.00,-0.18,1721199393781
-0.86,0.66,8.40,0.01,0.17,-0.18,1721199393791
-1.43,1.19,13.00,0.14,0.06,-0.15,1721199393801
-0.53,-0.29,6.22,0.06,0.10,-0.05,1721199393811
-0.60,1.63,10.87,0.07,0.09,-0.10,1721199393821
0.08,-0.46,10.52,0.02,0.13,-0.18,1721199393831
-0.72,2.85,16.36,0.13,0.09,-0.08,1721199393841
0.62,1.53,5.88,0.12,0.06,-0.09,1721199393851
0.05,-0.50,13.90,-0.05,0.18,-0.16,1721199393861
-0.53,2.04,8.42,0.17,-0.03,-0.14,1721199393871
-0.48,0.54,9.15,-0.02,0.21,-0.15,1721199393881
0.03,-2.12,11.23,0.10,0.05,-0.10,1721199393891
-0.06,-0.64,8.81,0.02,0.12,-0.06,1721199393901
0.26,1.41,11.54,0.04,0.16,-0.13,1721199393911
0.67,2.66,7.91,0.08,0.06,-0.19,1721199393921
-0.63,-2.61,7.68,-0.02,0.12,-0.20,1721199393931
-1.95,-0.72,9.45,0.01,0.07,-0.09,1721199393941
-0.80,2.08,11.72,0.00,0.18,-0.04,1721199393951
-0.14,-0.35,8.59,-0.03,0.05,-0.14,1721199393961
-1.11,1.66,9.89,-0.00,0.13,-0.16,1721199393971
-0.15,-4.71,6.37,-0.13,0.17,-0.10,1721199393981
-0.51,-1.22,11.25,-0.07,0.07,-0.02,1721199393991
0.85,0.13,9.40,-0.03,0.13,-0.06,1721199394001
-0.90,-0.32,10.93,-0.08,0.10,-0.22,1721199394011
-2.31,0.62,9.92,-0.04,0.04,-0.26,1721199394021
-1.69,-2.63,11.70,-0.10,0.15,-0.07,1721199394031
-1.64,1.84,11.64,-0.01,0.05,0.03,1721199394041
-0.55,1.23,8.27,0.01,0.06,0.00,1721199394051
-0.60,0.95,8.62,0.04,0.06,-0.11,1721199394061
-1.00,-2.06,9.16,-0.07,0.11,-0.16,1721199394071
-1.89,0.67,14.20,-0.03,0.05,-0.07,1721199394081
-1.03,2.01,11.57,0.01,0.09,0.04,1721199394091
-1.03,-0.79,10.12,-0.01,-0.01,0.03,1721199394101
0.04,0.52,11.31,0.05,0.07,-0.05,1721199394111
-0.13,0.40,10.53,0.04,0.06,-0.16,1721199394121
-1.73,0.67,8.00,0.11,-0.08,-0.09,1721199394131
-1.56,2.22,9.80,0.10,0.16,0.01,1721199394141
-1.56,-0.77,8.52,0.14,-0.06,0.04,1721199394151
-1.23,0.86,10.13,0.10,0.05,0.07,1721199394161
-0.23,0.83,8.43,0.18,-0.04,0.08,1721199394171
0.59,0.30,9.35,0.04,0.07,0.05,1721199394181
0.24,1.57,14.10,0.14,-0.07,-0.04,1721199394191
-2.26,2.73,9.93,0.18,-0.13,-0.04,1721199394201
-1.70,-0.52,7.98,0.14,0.01,0.16,1721199394211
0.72,0.75,11.74,0.13,0.01,0.18,1721199394221
2.29,3.19,10.62,0.21,-0.02,0.16,1721199394231
1.88,1.57,9.22,0.13,0.03,-0.05,1721199394241
-1.12,1.10,9.23,0.19,-0.12,-0.13,1721199394251
-2.96,-0.23,7.29,0.09,-0.05,0.04,1721199394261
-2.30,0.35,8.73,0.07,-0.03,0.21,1721199394271
-0.45,2.42,10.28,0.06,-0.03,0.27,1721199394281
1.23,-2.15,9.18,-0.04,-0.10,0.18,1721199394291
0.26,2.14,12.13,0.08,-0.08,0.10,1721199394301
0.05,-1.59,7.22,-0.11,-0.08,0.09,1721199394311
-0.57,3.31,14.77,-0.02,-0.09,0.16,1721199394321
0.60,0.10,9.76,-0.04,-0.05,0.19,1721199394331
-1.18,1.49,10.18,-0.06,-0.15,0.11,1721199394341
-1.30,1.14,10.27,-0.12,-0.15,0.06,1721199394351
-2.08,-0.20,10.78,-0.15,-0.13,0.15,1721199394361
-1.32,0.65,10.79,-0.12,-0.13,0.22,1721199394371
1.06,0.76,7.16,-0.08,-0.16,0.35,1721199394381
2.19,-1.09,7.85,-0.16,-0.08,0.19,1721199394391
0.98,-1.00,9.60,-0.14,-0.17,-0.03,1721199394401
-0.90,-0.61,8.11,-0.19,-0.21,0.00,1721199394411
-0.91,-0.61,11.71,-0.19,-0.09,0.09,1721199394421
0.39,-1.66,10.28,-0.15,-0.15,0.19,1721199394431
0.01,1.16,7.48,-0.14,-0.19,0.13,1721199394441
0.29,-1.20,9.45,-0.21,-0.05,-0.03,1721199394451
0.54,-6.38,9.86,-0.31,-0.17,0.06,1721199394461
-2.25,0.19,14.10,-0.14,-0.23,0.05,1721199394471
1.80,-2.90,10.30,-0.11,-0.04,0.17,1721199394481
2.66,3.98,13.86,-0.08,-0.15,0.17,1721199394491
2.52,0.78,8.55,-0.12,-0.11,-0.06,1721199394501
-0.41,4.07,16.39,-0.08,-0.09,-0.24,1721199394511
0.83,-5.85,6.35,-0.06,-0.15,-0.03,1721199394521
-1.40,3.17,10.36,0.01,-0.01,-0.03,1721199394531
1.25,1.16,10.28,0.06,-0.04,0.00,1721199394541
1.96,1.64,11.13,-0.07,-0.03,-0.18,1721199394551
0.77,-2.52,12.46,0.00,-0.10,-0.40,1721199394561
-2.39,-2.01,11.70,-0.02,-0.10,-0.20,1721199394571
-1.80,3.09,13.17,0.07,0.06,0.00,1721199394581
0.39,0.91,10.79,0.15,-0.12,0.09,1721199394591
2.26,1.59,8.93,0.12,0.08,-0.14,1721199394601
1.32,-0.88,12.21,0.10,-0.02,-0.42,1721199394611
-2.42,2.40,13.53,0.17,-0.03,-0.21,1721199394621
-1.58,2.85,8.03,0.23,0.02,-0.01,1721199394631
2.14,1.51,8.90,0.19,0.07,0.02,1721199394641
3.38,2.40,9.05,0.25,0.04,-0.26,1721199394651
1.36,-3.11,10.65,0.03,0.01,-0.50,1721199394661
-3.31,2.58,13.21,0.27,-0.02,-0.35,1721199394671
-1.62,-0.76,5.45,0.14,0.12,-0.09,1721199394681
0.19,1.53,10.54,0.15,0.02,-0.03,1721199394691
1.30,0.01,5.88,0.16,0.06,-0.25,1721199394701
-0.82,-0.52,8.81,0.04,0.09,-0.41,1721199394711
-1.54,-1.13,8.56,0.05,0.02,-0.16,1721199394721
-0.01,-1.24,9.63,0.00,0.15,0.03,1721199394731
2.56,1.42,11.33,0.02,0.15,-0.17,1721199394741
2.29,-0.17,5.82,-0.02,-0.00,-0.34,1721199394751
-0.51,-0.37,13.80,-0.14,0.16,-0.43,1721199394761
-1.36,-0.03,13.44,0.01,0.13,-0.34,1721199394771
-2.21,0.83,10.91,0.02,0.06,-0.15,1721199394781
0.17,-0.08,6.07,-0.09,0.16,-0.04,1721199394791
1.97,1.62,11.36,-0.13,0.19,-0.20,1721199394801
1.13,2.25,13.27,-0.06,0.13,-0.41,1721199394811
-1.92,0.90,6.33,-0.07,0.01,-0.40,1721199394821
-2.56,1.19,13.01,-0.18,0.26,-0.24,1721199394831
0.53,-1.75,9.32,-0.11,0.05,0.01,1721199394841
2.23,1.61,12.07,-0.24,0.25,-0.15,1721199394851
1.31,-0.18,11.59,-0.09,0.10,-0.49,1721199394861
-2.95,-1.70,9.56,-0.19,0.08,-0.53,1721199394871
-3.82,-0.17,13.35,-0.07,0.19,-0.29,1721199394881
-1.79,2.49,9.61,0.05,0.12,-0.00,1721199394891
0.99,1.47,10.64,0.01,0.29,-0.05,1721199394901
1.20,-0.11,10.55,0.10,0.10,-0.22,1721199394911
-0.20,1.85,9.37,0.05,0.25,-0.34,1721199394921
-1.14,-1.30,10.24,0.12,0.12,-0.24,1721199394931
-2.07,2.14,11.27,0.14,0.16,-0.16,1721199394941
-0.61,0.54,7.13,0.12,0.10,-0.16,1721199394951
-0.47,0.64,13.35,0.04,0.26,-0.19,1721199394961
-0.43,-0.98,7.97,0.07,0.09,-0.22,1721199394971
-2.37,-3.73,9.43,-0.07,0.12,-0.19,1721199394981
-1.61,-1.48,7.37,0.06,0.11,-0.01,1721199394991
-0.22,-1.44,9.16,-0.02,0.17,-0.16,1721199395001
-1.02,-1.30,10.12,0.04,0.09,-0.22,1721199395011
-1.71,-2.06,10.21,-0.07,0.21,-0.12,1721199395021
-2.25,-1.38,12.48,-0.11,0.16,-0.06,1721199395031
-1.89,0.35,13.20,-0.14,0.16,-0.08,1721199395041
-0.60,-1.75,13.37,-0.10,0.01,0.01,1721199395051
-1.89,2.95,8.08,-0.02,-0.01,-0.03,1721199395061
0.74,-0.57,10.93,-0.12,0.17,-0.02,1721199395071
0.25,2.40,12.98,-0.05,0.05,-0.02,1721199395081
-0.73,4.75,9.53,0.01,0.07,-0.12,1721199395091
-0.46,1.81,6.80,-0.03,0.06,-0.08,1721199395101
-0.49,-1.44,9.46,-0.02,0.02,0.01,1721199395111
-0.56,3.58,11.06,0.07,0.16,-0.04,1721199395121
0.76,3.54,7.81,0.09,-0.01,-0.07,1721199395131
-1.23,0.32,7.46,0.08,0.01,-0.09,1721199395141
-0.65,0.04,9.79,0.09,0.16,-0.12,1721199395151
-0.67,1.77,13.12,0.04,0.05,-0.02,1721199395161
-0.22,-1.36,10.17,-0.05,-0.02,0.01,1721199395176
0.27,-2.70,11.82,-0.10,0.11,-0.02,1721199395180
-0.47,1.16,11.63,0.12,-0.01,0.04,1721199395190
0.99,1.88,8.51,0.10,0.17,0.06,1721199395200
1.24,3.45,10.47,0.20,0.07,0.03,1721199395210
0.43,2.33,9.27,0.13,0.07,-0.13,1721199395220
-1.62,1.80,10.69,0.07,0.03,-0.11,1721199395230
-2.55,1.14,10.87,-0.01,0.04,-0.06,1721199395240
-1.93,1.75,10.05,0.02,0.09,0.00,1721199395250
-1.28,-0.48,10.17,-0.06,0.04,0.09,1721199395260
-0.90,-1.22,8.81,0.07,-0.02,0.05,1721199395270
0.37,-0.60,6.12,-0.00,0.10,0.04,1721199395280
-0.01,0.38,10.91,0.04,0.01,0.09,1721199395290
-0.26,-1.34,9.12,-0.07,0.10,-0.02,1721199395300
-1.92,0.89,13.50,0.00,-0.04,-0.02,1721199395310
-0.72,0.85,10.37,-0.07,0.05,0.14,1721199395320
0.73,-1.89,11.27,-0.14,0.03,0.11,1721199395330
-0.09,-3.33,10.25,-0.12,-0.00,-0.02,1721199395340
-1.11,-0.86,9.73,-0.10,0.02,-0.15,1721199395350
-1.89,-2.86,6.58,0.04,-0.06,0.13,1721199395360
0.85,-1.28,14.82,-0.13,0.19,0.24,1721199395370
1.97,6.63,12.57,0.16,-0.08,0.17,1721199395380
0.98,-0.52,10.97,-0.21,0.08,-0.11,1721199395390
-3.08,5.33,15.50,0.04,-0.12,-0.16,1721199395400
-0.86,-4.92,2.53,-0.05,0.02,0.21,1721199395410
0.20,-0.43,12.75,-0.04,0.10,0.26,1721199395420
3.82,-3.58,3.26,-0.02,-0.00,0.09,1721199395430
1.28,-1.14,13.51,-0.16,0.09,-0.14,1721199395440
-0.37,-1.68,9.80,-0.01,-0.09,-0.21,1721199395450
-2.49,0.51,11.46,-0.06,0.12,-0.04,1721199395460
-1.73,-0.55,9.54,0.06,-0.06,0.15,1721199395470
0.24,-0.02,12.97,-0.04,0.14,0.17,1721199395480
0.68,2.55,11.02,0.17,-0.04,0.04,1721199395490
0.21,-0.82,7.42,0.04,0.06,0.04,1721199395500
-0.30,1.75,10.02,0.20,0.02,0.04,1721199395510
1.25,6.53,8.19,0.22,0.14,0.12,1721199395520
1.18,1.05,8.12,0.11,-0.02,0.10,1721199395530
0.62,-4.70,10.84,-0.06,0.12,-0.09,1721199395540
-1.84,-0.53,16.76,0.01,-0.05,-0.02,1721199395550
-1.55,6.54,10.69,0.22,-0.00,0.28,1721199395560
2.16,-4.93,7.06,0.03,0.10,0.25,1721199395570
1.38,2.99,10.89,0.27,-0.05,0.03,1721199395580
-0.58,4.32,4.45,0.23,0.06,-0.20,1721199395590
-2.75,1.37,11.67,0.08,0.04,0.00,1721199395600
-2.09,-0.41,11.16,0.11,0.00,0.28,1721199395610
0.34,-0.98,18.98,-0.04,0.11,0.25,1721199395620
2.37,3.05,13.70,0.24,-0.10,0.01,1721199395630
1.66,0.39,10.82,0.00,0.10,-0.19,1721199395640
-1.08,1.23,15.31,0.18,-0.02,-0.14,1721199395650
-2.38,3.53,5.17,0.29,-0.01,-0.01,1721199395660
-0.26,1.49,7.02,0.15,0.15,0.09,1721199395670
1.67,-1.34,4.90,0.15,0.01,0.09,1721199395680
0.84,1.92,13.30,0.05,0.13,-0.10,1721199395690
1.26,2.24,6.91,0.23,-0.02,-0.11,1721199395700
0.10,0.34,6.14,-0.01,0.08,-0.15,1721199395710
-0.61,0.14,9.79,0.07,0.11,-0.13,1721199395720
-0.67,-2.81,7.85,-0.10,0.06,-0.11,1721199395730
-2.14,-0.26,10.54,-0.01,0.00,-0.02,1721199395740
0.43,-3.98,9.03,-0.22,0.24,-0.03,1721199395750
-0.66,1.62,18.17,-0.06,-0.02,-0.06,1721199395760
-0.16,1.07,6.56,0.02,0.02,-0.06,1721199395770
0.07,-2.31,8.81,-0.32,0.10,-0.05,1721199395780
0.45,-0.65,12.30,-0.11,0.02,-0.05,1721199395790
1.51,-2.23,6.71,-0.25,0.11,-0.16,1721199395800
-1.58,-0.41,9.73,-0.12,-0.03,-0.20,1721199395810
-2.50,-3.76,9.65,-0.27,0.19,-0.21,1721199395820
-2.21,1.35,15.53,-0.14,0.00,0.07,1721199395830
-0.17,0.34,9.80,-0.21,0.05,0.05,1721199395840
0.56,-1.65,13.67,-0.20,-0.00,-0.09,1721199395850
-1.13,-1.76,9.87,-0.10,-0.06,-0.12,1721199395860
-1.47,0.45,11.48,-0.16,0.05,-0.09,1721199395870
-1.38,0.44,11.32,-0.07,-0.03,-0.07,1721199395880
-1.21,-0.91,10.52,-0.14,0.01,-0.05,1721199395890
-1.12,-0.24,10.47,-0.04,0.02,-0.00,1721199395900
-0.90,-0.79,9.74,-0.05,0.01,0.03,1721199395910
0.32,1.55,12.16,0.04,0.06,0.06,1721199395920
1.74,1.56,11.77,0.10,0.03,-0.04,1721199395930
-0.35,2.94,10.82,0.14,-0.11,-0.06,1721199395940
-1.53,1.50,11.05,0.08,0.08,0.01,1721199395950
0.00,3.61,14.06,0.15,0.06,0.02,1721199395960
0.21,2.88,9.00,0.13,-0.02,-0.00,1721199395970
-0.52,0.78,8.66,0.12,-0.07,-0.06,1721199395980
-1.29,0.96,10.64,0.19,0.01,-0.06,1721199395990
0.42,1.22,9.60,0.20,0.11,-0.04,1721199396000
0.98,1.43,10.56,0.18,-0.02,0.03,1721199396010
0.45,0.00,10.06,0.13,0.01,-0.09,1721199396020
0.25,2.26,11.75,0.23,0.04,-0.16,1721199396030
0.52,1.27,7.97,0.22,-0.01,-0.14,1721199396040
-1.25,1.47,7.10,0.16,0.03,-0.14,1721199396050
-1.61,1.56,10.47,0.10,0.16,-0.19,1721199396060
-1.44,-0.03,9.56,0.10,-0.01,-0.03,1721199396070
-1.50,-0.92,9.63,0.05,0.01,0.07,1721199396080
-0.07,0.70,9.83,0.06,0.02,0.05,1721199396090
1.10,-0.33,7.23,0.01,0.01,-0.02,1721199396100
0.65,0.58,9.39,-0.00,0.01,-0.10,1721199396110
-0.70,0.71,7.26,0.03,0.02,-0.12,1721199396120
-2.29,2.98,11.11,-0.03,0.04,-0.07,1721199396130
-0.38,1.65,9.81,-0.03,-0.00,0.07,1721199396140
0.44,0.01,7.89,-0.18,0.02,-0.02,1721199396150
-0.17,-0.05,11.24,-0.29,0.06,-0.23,1721199396160
-1.87,-3.39,11.67,-0.24,-0.02,-0.18,1721199396170
-3.17,-3.16,10.51,-0.23,0.00,-0.06,1721199396180
-0.94,-0.48,9.02,-0.14,0.07,0.06,1721199396190
1.75,-1.18,13.28,-0.29,0.16,-0.09,1721199396200
-0.18,-0.91,14.67,-0.17,-0.11,-0.26,1721199396210
-2.00,0.35,10.76,-0.17,0.04,-0.19,1721199396220
-1.76,-1.38,10.85,-0.18,0.03,-0.10,1721199396230
-2.20,1.31,11.53,-0.06,-0.04,0.02,1721199396240
-0.16,0.04,7.78,-0.05,0.03,0.00,1721199396250
0.01,-1.40,9.28,-0.03,0.02,-0.11,1721199396260
-0.97,0.68,9.43,0.00,0.03,-0.11,1721199396270
-0.96,0.74,11.02,0.00,0.03,-0.03,1721199396280
-0.57,4.52,10.80,0.12,0.03,0.06,1721199396290
1.17,2.28,8.04,0.07,0.01,0.03,1721199396300
0.41,-1.78,9.21,0.03,-0.03,-0.07,1721199396310
0.56,-2.14,7.65,0.03,0.08,-0.07,1721199396320
0.95,-0.32,8.73,0.06,0.09,-0.06,1721199396330
-0.24,-2.58,10.39,-0.11,0.05,-0.12,1721199396340
1.33,0.73,17.92,0.05,0.13,-0.02,1721199396350
0.89,-0.92,10.29,0.04,-0.03,-0.12,1721199396360
-0.73,3.85,16.52,-0.01,0.18,-0.22,1721199396370
-2.31,-0.11,9.59,0.13,-0.01,-0.12,1721199396380
-2.95,2.13,10.27,0.09,0.16,0.08,1721199396390
1.70,-0.40,8.94,0.14,0.13,0.20,1721199396400
1.87,0.96,12.31,0.10,0.05,-0.02,1721199396410
1.88,2.23,8.19,0.20,0.13,-0.20,1721199396420
-0.16,2.13,7.31,0.16,0.07,-0.18,1721199396430
-1.06,-1.21,9.13,0.15,0.17,-0.13,1721199396440
-1.44,0.85,9.30,0.23,0.13,-0.04,1721199396450
-0.98,1.17,7.93,0.15,0.12,0.02,1721199396460
0.40,2.38,10.71,0.12,0.18,0.01,1721199396470
0.41,-0.87,9.11,0.11,0.05,-0.12,1721199396480
-1.36,1.51,9.94,0.19,0.11,-0.02,1721199396490
-0.23,-2.07,2.92,0.06,0.12,0.01,1721199396500
-0.79,-0.99,15.72,-0.11,0.17,-0.03,1721199396510
-0.07,-0.72,14.31,0.07,0.07,0.01,1721199396520
-0.92,2.63,14.21,0.12,0.07,-0.03,1721199396530
1.18,2.06,9.14,0.09,0.19,0.03,1721199396540
0.70,1.29,9.44,-0.00,0.11,-0.04,1721199396550
-1.58,0.64,7.57,0.09,0.05,-0.10,1721199396560
-2.36,1.58,5.85,0.04,0.16,-0.06,1721199396570
-1.23,-1.93,6.98,-0.04,0.08,0.18,1721199396580
0.11,2.89,15.17,0.05,0.14,0.15,1721199396590
2.48,0.43,7.95,0.03,0.04,0.06,1721199396600
0.04,3.50,14.36,-0.03,0.04,-0.10,1721199396610
-0.14,0.28,9.94,0.00,0.07,-0.06,1721199396620
-1.85,-0.28,9.00,0.01,0.01,-0.03,1721199396630
-0.73,-0.70,7.94,-0.02,0.11,-0.00,1721199396640
-1.24,0.78,10.64,-0.02,0.07,-0.00,1721199396650
-2.04,0.91,8.58,0.00,-0.04,0.01,1721199396660
-1.06,0.52,11.33,-0.05,0.12,0.08,1721199396670
1.71,-3.75,8.74,-0.08,0.06,0.07,1721199396680
-0.21,-1.27,11.75,-0.11,-0.02,0.06,1721199396690
-0.71,-0.64,10.51,-0.06,0.07,-0.16,1721199396700
-1.09,-2.60,10.24,-0.05,0.01,-0.08,1721199396710
-1.50,1.47,10.76,0.08,0.03,0.10,1721199396720
-0.32,2.43,9.39,-0.02,0.08,0.14,1721199396730
-0.97,0.46,8.95,-0.04,-0.06,0.08,1721199396740
1.65,-1.94,12.50,-0.16,0.20,-0.01,1721199396750
0.79,-3.90,9.07,-0.03,-0.14,0.02,1721199396760
-1.67,-0.98,6.25,-0.11,0.04,-0.07,1721199396770
-1.19,1.00,12.49,-0.08,0.13,-0.06,1721199396780
-1.40,0.77,10.55,-0.05,-0.05,0.02,1721199396790
-2.36,2.75,10.53,-0.09,-0.08,0.06,1721199396800
-0.06,-1.81,9.66,-0.14,0.09,0.04,1721199396810
-0.54,-0.15,11.64,-0.11,-0.08,0.11,1721199396820
-1.30,0.62,8.21,-0.15,-0.07,0.01,1721199396830
-0.28,0.21,11.94,-0.12,0.01,0.06,1721199396840
0.11,0.14,10.26,-0.10,-0.05,0.01,1721199396850
-0.46,0.96,10.15,-0.14,-0.03,0.00,1721199396860
-0.79,1.98,11.22,-0.09,-0.07,0.01,1721199396870
0.07,0.32,14.06,-0.18,0.05,0.05,1721199396880
-1.02,3.64,12.13,0.07,-0.13,0.04,1721199396890
-0.07,-0.87,5.62,-0.10,-0.00,0.02,1721199396900
-0.23,0.93,12.92,0.01,-0.07,0.07,1721199396910
0.93,1.79,7.28,0.05,-0.02,0.04,1721199396920
0.58,2.28,11.47,0.05,-0.01,-0.05,1721199396930
-0.11,-0.62,8.73,0.02,-0.09,-0.08,1721199396940
-1.35,1.36,17.06,-0.01,0.01,-0.05,1721199396950
-1.22,4.97,14.11,0.12,-0.06,-0.00,1721199396960
-0.60,3.93,11.67,0.05,-0.07,0.08,1721199396970
-0.01,2.05,8.15,0.15,-0.11,0.12,1721199396980
0.58,0.35,7.90,0.06,0.00,0.01,1721199396990
-0.81,-1.98,7.08,0.03,-0.14,0.00,1721199397000
-1.60,0.13,9.84,0.02,0.02,-0.03,1721199397010
0.05,-1.64,11.21,0.00,-0.10,0.06,1721199397020
-1.31,3.65,11.78,0.15,-0.19,0.19,1721199397030
-0.00,3.97,11.45,0.10,0.08,0.10,1721199397040
0.59,1.10,13.35,0.07,-0.16,0.01,1721199397050
-0.86,0.27,11.50,0.05,-0.19,0.06,1721199397060
-0.96,1.00,7.54,0.04,-0.05,0.06,1721199397070
-0.67,-1.07,10.21,-0.08,-0.13,-0.00,1721199397080
-0.66,-0.73,12.46,0.04,-0.18,0.11,1721199397090
-0.87,-0.37,7.50,-0.02,-0.13,0.14,1721199397100
0.27,0.28,9.42,-0.04,-0.16,0.08,1721199397110
1.54,-2.35,9.38,-0.06,-0.10,0.02,1721199397120
-1.10,0.83,5.99,0.10,0.01,-0.26,1721199397659
-0.07,-0.15,9.33,0.01,0.03,-0.19,1721199397664
-2.07,-0.96,10.32,0.05,0.02,-0.25,1721199397673
-0.70,-2.90,6.70,-0.08,0.07,-0.29,1721199397683
-0.57,-1.62,12.89,-0.12,0.12,-0.19,1721199397692
-0.09,1.56,10.50,-0.03,0.03,-0.20,1721199397702
-0.78,-1.96,11.76,-0.07,0.01,-0.18,1721199397711
-1.69,2.26,10.89,0.10,0.01,-0.20,1721199397721
0.56,1.10,10.45,0.01,0.16,-0.24,1721199397731
-0.81,-2.11,9.35,0.01,-0.13,-0.15,1721199397741
-1.54,5.18,11.79,0.16,0.14,-0.15,1721199397751
0.24,-0.31,6.37,0.14,0.05,-0.18,1721199397761
-2.43,-0.69,6.72,0.08,-0.03,-0.17,1721199397771
-0.72,1.52,11.83,0.05,0.26,-0.19,1721199397781
1.28,4.96,13.84,0.13,-0.03,-0.20,1721199397791
-0.63,4.16,8.25,0.16,0.01,-0.22,1721199397801
-1.68,-0.50,6.00,0.03,0.07,-0.31,1721199397811
-1.76,-5.18,15.15,-0.14,0.07,-0.21,1721199397821
-1.14,2.19,18.04,0.13,0.02,-0.01,1721199397831
1.63,2.20,7.62,0.07,0.05,-0.13,1721199397841
1.69,3.28,10.81,0.13,0.14,-0.34,1721199397851
-0.16,-0.22,7.77,0.07,0.05,-0.37,1721199397861
-4.50,2.14,11.61,0.03,-0.03,-0.26,1721199397871
-2.31,-0.59,11.49,0.04,0.10,0.00,1721199397881
0.52,1.90,9.88,0.19,0.03,0.14,1721199397890
3.07,1.86,6.16,0.11,0.13,0.01,1721199397900
2.05,1.68,10.58,0.09,0.10,-0.25,1721199397910
0.23,1.99,11.05,0.03,0.15,-0.36,1721199397920
-1.54,3.69,10.76,0.08,0.05,-0.20,1721199397930
-1.81,0.01,9.26,-0.03,0.11,-0.08,1721199397940
-1.51,2.04,8.64,0.01,0.03,-0.07,1721199397950
0.69,-1.36,6.15,-0.14,0.10,-0.11,1721199397960
0.13,-2.96,10.94,-0.11,0.07,-0.16,1721199397970
-1.07,-2.29,10.12,-0.09,0.12,-0.18,1721199397980
-0.90,0.12,13.44,-0.01,0.12,-0.17,1721199397990
-0.47,0.74,12.56,0.01,0.12,-0.09,1721199398000
-1.66,1.08,8.46,0.02,-0.01,-0.12,1721199398009
-2.13,0.06,13.61,-0.21,0.22,-0.29,1721199398019
-1.63,-1.79,17.53,0.03,-0.02,-0.08,1721199398029
-1.46,0.31,7.58,0.07,-0.00,0.13,1721199398039
1.54,1.60,6.80,-0.03,0.19,0.01,1721199398048
2.26,1.89,9.87,-0.02,0.07,-0.21,1721199398058
0.37,2.36,8.65,0.06,0.06,-0.28,1721199398067
-1.29,-1.80,8.16,-0.05,0.12,-0.18,1721199398077
-1.99,1.34,11.03,0.06,0.07,-0.11,1721199398086
0.02,2.81,8.84,0.08,0.10,-0.03,1721199398096
1.01,4.51,10.62,0.08,0.13,-0.01,1721199398105
1.07,0.66,6.87,-0.03,0.06,-0.22,1721199398115
-1.88,-0.20,10.75,-0.08,0.10,-0.30,1721199398125
-1.99,-0.57,12.45,-0.07,0.18,-0.14,1721199398135
-1.84,-2.69,11.60,-0.08,-0.02,0.08,1721199398145
0.29,2.43,11.81,0.07,0.12,0.12,1721199398155
4.47,-1.40,12.04,-0.13,0.27,-0.18,1721199398165
0.34,2.68,14.12,0.12,-0.15,-0.28,1721199398175
-0.95,1.15,8.33,-0.03,0.29,-0.31,1721199398185
-2.27,2.47,11.60,0.14,0.04,-0.15,1721199398195
-2.63,1.13,5.33,0.07,0.04,0.05,1721199398205
0.09,1.21,9.43,0.05,0.26,0.01,1721199398215
1.82,-0.12,9.94,0.03,0.10,-0.14,1721199398225
-0.80,3.56,13.43,0.02,0.10,-0.24,1721199398235
-1.09,1.19,8.81,0.12,0.07,-0.19,1721199398245
-1.81,1.53,11.42,0.02,0.18,-0.08,1721199398255
-0.98,-1.75,4.81,0.09,-0.01,0.03,1721199398265
-1.10,0.96,13.33,-0.04,0.32,-0.03,1721199398275
0.20,1.94,8.98,0.15,-0.02,-0.08,1721199398285
-1.33,2.53,9.42,0.04,0.11,-0.04,1721199398295
-0.64,1.41,7.58,0.11,0.12,0.04,1721199398305
-0.72,-0.44,8.53,-0.05,0.10,0.00,1721199398315
-1.54,0.23,14.05,-0.06,0.05,-0.02,1721199398325
-0.16,-0.01,12.50,0.08,0.03,0.04,1721199398335
0.59,1.81,11.00,0.08,0.11,0.03,1721199398345
1.14,0.26,11.98,0.04,0.07,-0.08,1721199398355
-1.40,2.90,13.33,0.11,-0.02,-0.12,1721199398365
-1.75,1.79,7.17,0.10,0.03,-0.03,1721199398375
-2.05,0.43,9.94,0.03,0.12,-0.00,1721199398385
-0.69,-0.28,9.24,0.07,0.02,0.08,1721199398395
-0.69,1.38,8.26,0.07,-0.00,0.13,1721199398405
0.60,1.92,9.07,-0.01,0.13,0.02,1721199398415
0.93,-0.40,8.49,-0.01,-0.01,-0.03,1721199398425
-1.00,-0.11,11.75,-0.04,0.01,-0.05,1721199398435
-0.57,1.33,10.99,0.06,0.02,0.05,1721199398445
0.05,-0.96,9.44,-0.08,0.04,0.07,1721199398455
-0.96,1.08,14.15,0.01,0.01,-0.01,1721199398465
-0.24,-1.19,9.36,-0.06,0.05,0.02,1721199398475
-0.81,-0.97,11.55,-0.05,-0.06,0.03,1721199398485
-0.55,1.01,9.51,0.01,0.01,0.02,1721199398495
-0.16,1.87,8.76,-0.01,0.02,-0.00,1721199398505
-0.58,2.75,7.66,0.05,-0.06,0.05,1721199398515
-0.16,0.01,7.98,-0.06,0.00,0.09,1721199398525
-0.16,0.84,10.02,-0.06,-0.06,0.01,1721199398535
0.11,-0.57,11.33,-0.17,0.04,-0.07,1721199398545
-0.88,1.07,12.50,-0.11,-0.11,-0.06,1721199398555
-1.17,1.11,10.41,-0.11,-0.06,0.01,1721199398565
-0.55,-1.21,10.63,-0.22,-0.00,0.01,1721199398575
-0.63,-0.31,13.05,-0.12,-0.06,-0.04,1721199398585
-0.63,0.15,10.18,-0.17,-0.05,-0.00,1721199398595
-1.04,3.15,9.73,0.01,-0.13,0.11,1721199398605
1.32,0.50,8.30,-0.18,0.06,0.10,1721199398615
1.12,2.10,12.53,-0.04,-0.13,-0.00,1721199398625
1.24,-0.78,10.35,-0.17,0.02,-0.13,1721199398635
-0.44,1.92,12.33,-0.04,-0.11,-0.07,1721199398645
-1.16,3.02,9.26,-0.02,-0.02,-0.03,1721199398655
-0.07,1.21,8.43,-0.05,-0.03,0.02,1721199398665
0.23,0.10,8.47,-0.02,-0.06,-0.03,1721199398675
0.35,0.61,13.36,-0.14,0.07,-0.15,1721199398685
-0.27,2.34,10.71,0.04,-0.16,-0.06,1721199398695
-0.48,1.13,7.28,-0.07,0.07,-0.06,1721199398705
-0.12,0.85,9.91,0.05,-0.04,-0.09,1721199398715
0.21,-0.16,9.91,-0.03,0.02,-0.04,1721199398725
-0.33,4.62,12.29,0.06,-0.01,-0.13,1721199398735
0.02,1.70,8.70,-0.04,0.00,-0.19,1721199398745
-1.81,-0.79,11.06,-0.07,-0.13,-0.13,1721199398755
-1.34,1.17,12.81,-0.04,0.11,-0.12,1721199398765
-0.05,-1.58,9.74,-0.09,-0.09,-0.01,1721199398775
-0.74,3.56,12.52,0.00,-0.05,-0.04,1721199398785
2.41,1.78,9.89,0.02,0.08,-0.10,1721199398795
1.32,1.76,11.14,-0.02,-0.02,-0.20,1721199398805
-0.49,3.44,10.77,0.05,-0.02,-0.24,1721199398815
-0.57,2.58,11.01,0.03,0.07,-0.21,1721199398825
-0.72,2.44,9.79,0.15,-0.00,-0.19,1721199398835
-0.80,1.41,8.49,0.09,0.13,-0.21,1721199398845
-1.25,0.60,9.00,0.13,-0.02,-0.16,1721199398855
-2.28,1.63,9.68,0.17,0.05,-0.06,1721199398865
-0.60,0.37,8.85,0.16,0.02,-0.00,1721199398875
-1.39,2.97,12.83,0.24,0.01,-0.12,1721199398885
-1.20,2.35,10.66,0.20,0.03,-0.09,1721199398895
-3.29,-0.19,10.25,0.19,-0.18,0.06,1721199398905
-2.29,-1.69,10.61,0.16,-0.02,0.17,1721199398915
0.61,1.58,10.56,0.20,0.02,0.28,1721199398925
1.96,1.72,9.15,0.16,-0.08,0.01,1721199398935
0.29,-3.24,5.86,0.12,-0.16,-0.25,1721199398945
-3.32,-2.48,5.64,0.00,-0.11,-0.18,1721199398955
-1.40,-1.04,12.09,-0.01,-0.04,0.07,1721199398965
2.30,-13.29,9.59,0.03,-0.32,0.62,1721199398975
-0.49,7.43,5.78,-0.08,0.34,-0.11,1721199398985
0.16,-4.27,17.52,-0.24,-0.29,-0.67,1721199398995
0.15,-5.05,11.54,0.02,-0.17,-0.15,1721199399005
-3.48,-0.60,7.56,-0.25,0.06,0.08,1721199399015
-1.86,2.94,16.63,-0.13,0.06,0.19,1721199399025
2.08,0.81,8.43,-0.11,-0.09,0.02,1721199399035
0.08,-2.94,7.01,-0.14,-0.23,-0.17,1721199399045
0.68,-0.64,10.15,-0.13,0.03,0.05,1721199399055
1.75,1.51,10.27,-0.13,-0.04,-0.02,1721199399065
1.75,2.01,10.52,-0.00,-0.06,-0.08,1721199399075
1.70,1.10,8.84,-0.07,0.06,-0.35,1721199399085
-1.80,1.48,8.22,0.08,-0.18,-0.38,1721199399095
-2.93,-1.48,13.62,-0.08,0.26,-0.22,1721199399105
-2.40,4.44,14.82,0.12,-0.02,-0.05,1721199399115
-1.82,-2.88,6.30,-0.06,-0.08,-0.07,1721199399125
-0.22,1.44,13.12,0.09,0.03,-0.21,1721199399135
3.76,-0.59,9.36,-0.08,0.14,-0.29,1721199399145
-1.94,6.70,16.38,0.17,-0.10,-0.35,1721199399155
-1.41,-2.87,4.87,-0.02,0.11,-0.33,1721199399165
-2.44,0.41,13.96,0.08,-0.01,-0.14,1721199399175
0.96,-1.67,5.69,-0.02,0.11,-0.04,1721199399185
0.29,4.20,13.77,0.05,0.04,-0.18,1721199399195
1.31,1.36,6.64,0.01,0.11,-0.32,1721199399205
-0.95,0.96,9.62,0.03,0.01,-0.27,1721199399215
-0.67,-0.06,9.48,-0.06,0.17,-0.19,1721199399225
-0.48,-0.49,12.49,-0.10,0.09,-0.11,1721199399235
0.91,2.08,8.96,0.00,0.05,-0.08,1721199399245
2.53,-0.65,11.79,-0.13,0.25,-0.32,1721199399255
0.34,2.29,10.87,0.11,0.03,-0.43,1721199399265
-1.72,1.52,7.34,-0.04,0.21,-0.39,1721199399275
-2.16,2.99,15.20,0.04,0.20,-0.24,1721199399285
-0.85,4.55,9.71,0.08,0.15,-0.13,1721199399295
0.68,-0.06,6.98,-0.06,0.23,-0.16,1721199399305
1.21,-0.38,9.57,-0.09,0.22,-0.34,1721199399315
-0.27,0.83,10.76,-0.06,0.15,-0.40,1721199399325
-1.92,-0.29,11.11,-0.02,0.15,-0.28,1721199399335
-2.23,4.51,13.06,0.04,0.27,-0.26,1721199399345
-1.36,0.97,9.39,0.00,0.10,-0.16,1721199399355
-1.14,4.05,9.97,0.01,0.13,-0.16,1721199399365
1.49,-1.73,8.32,-0.11,0.19,-0.15,1721199399375
0.29,-1.23,14.93,-0.05,0.10,-0.21,1721199399385
-0.40,1.42,5.50,0.07,0.12,-0.26,1721199399395
-1.36,-1.49,13.52,-0.05,0.31,-0.27,1721199399405
-1.80,3.00,9.98,0.20,0.12,-0.08,1721199399415
-1.12,-1.24,7.76,-0.13,0.27,-0.10,1721199399425
-0.89,0.97,11.54,0.09,-0.01,-0.01,1721199399435
1.90,-4.53,11.15,-0.17,0.34,-0.08,1721199399445
-1.26,0.05,10.77,-0.01,-0.18,-0.14,1721199399455
-2.56,1.21,8.96,-0.15,0.28,-0.23,1721199399465
-2.16,-2.26,12.07,-0.02,0.09,-0.17,1721199399475
-2.45,-1.56,6.45,-0.09,0.08,0.10,1721199399485
-1.12,-1.78,11.54,-0.08,0.22,0.12,1721199399495
0.43,1.81,9.63,-0.02,0.12,0.05,1721199399505
1.00,-2.45,11.77,-0.19,0.06,0.04,1721199399515
-0.79,3.01,14.75,0.05,0.05,-0.10,1721199399525
-0.09,-1.15,4.17,-0.02,-0.02,0.01,1721199399535
-2.30,0.19,11.87,0.02,0.11,0.06,1721199399545
-0.25,-0.88,7.36,-0.02,0.08,0.08,1721199399555
-0.97,0.39,13.02,-0.04,0.02,-0.01,1721199399565
-0.28,3.88,7.43,0.17,0.02,-0.03,1721199399575
0.43,-3.47,8.60,-0.05,0.09,0.02,1721199399585
-0.73,-1.13,12.94,0.09,-0.05,0.03,1721199399595
0.18,5.83,11.67,0.15,0.12,-0.01,1721199399605
-0.46,3.77,7.96,0.25,-0.07,-0.02,1721199399615
-1.11,1.83,7.46,0.10,0.08,0.00,1721199399625
-1.01,-0.59,13.80,0.11,0.08,-0.03,1721199399635
-0.07,1.15,10.97,0.07,-0.05,0.03,1721199399645
-0.39,3.71,13.03,0.12,0.00,0.07,1721199399655
0.91,-1.38,9.64,0.07,0.09,-0.02,1721199399670
0.78,0.26,12.16,0.09,0.10,-0.07,1721199399674
-1.08,1.50,8.00,0.16,-0.10,-0.11,1721199399684
-2.29,2.58,14.76,0.09,0.17,-0.01,1721199399694
-0.44,1.44,8.72,0.28,-0.07,0.25,1721199399704
1.89,0.26,7.38,0.15,0.08,0.25,1721199399714
4.29,0.75,9.28,0.19,0.10,-0.03,1721199399724
1.41,1.75,11.62,0.06,0.06,-0.34,1721199399734
-2.81,1.32,11.02,0.15,-0.05,-0.20,1721199399744
-2.53,-0.36,9.08,0.12,0.10,-0.01,1721199399754
-1.72,-0.13,6.97,0.09,0.05,0.15,1721199399764
-0.26,1.46,8.55,-0.02,0.11,0.05,1721199399774
1.07,0.72,9.59,0.02,0.02,-0.14,1721199399784
-1.54,-2.83,9.08,-0.06,0.00,-0.07,1721199399794
-3.09,1.03,11.04,0.04,0.03,0.01,1721199399804
-0.50,1.15,6.46,-0.06,-0.01,0.10,1721199399814
1.17,2.75,8.88,-0.09,0.07,0.05,1721199399824
0.27,-1.52,9.06,-0.20,-0.02,-0.19,1721199399834
-2.84,-4.93,11.40,-0.21,-0.01,-0.11,1721199399844
-3.26,-1.94,9.86,-0.14,-0.04,0.10,1721199399854
-0.34,-1.40,8.61,-0.23,0.04,0.21,1721199399864
2.65,-1.88,14.08,-0.23,0.03,0.07,1721199399874
1.47,-0.67,13.66,-0.09,-0.09,-0.14,1721199399884
-0.37,0.49,12.82,-0.16,-0.01,-0.07,1721199399894
-1.45,1.75,11.35,-0.10,-0.04,-0.07,1721199399904
-0.43,-1.55,12.25,-0.16,-0.01,0.02,1721199399914
-0.09,0.59,8.47,-0.01,-0.06,0.08,1721199399924
0.85,-0.78,11.35,-0.11,0.08,-0.05,1721199399934
0.43,3.94,11.16,0.13,0.05,-0.09,1721199399944
-0.62,-1.25,8.97,-0.13,0.06,-0.12,1721199399954
-2.40,4.94,13.15,0.08,-0.05,-0.01,1721199399964
0.38,-1.09,7.31,-0.04,0.08,0.11,1721199399974
1.24,-1.20,12.60,0.01,0.05,0.03,1721199399984
1.00,0.49,7.02,0.02,-0.00,-0.13,1721199399994
0.30,2.05,9.63,0.04,0.14,-0.16,1721199400004
-0.25,1.17,9.91,0.08,0.10,-0.18,1721199400014
-1.71,0.38,8.02,0.02,-0.00,-0.07,1721199400024
-1.48,-1.14,11.05,-0.07,0.09,-0.01,1721199400034
-0.25,1.94,10.51,0.00,0.04,-0.03,1721199400044
0.64,-1.92,11.41,-0.14,0.09,-0.07,1721199400054
-0.49,3.85,14.46,0.13,0.06,-0.14,1721199400064
-0.08,-0.58,4.92,0.03,0.06,-0.01,1721199400074
-1.01,1.55,11.29,0.01,0.08,-0.02,1721199400084
0.34,2.18,10.75,0.14,0.13,-0.11,1721199400094
0.60,-2.84,7.03,0.00,0.03,-0.04,1721199400104
-3.04,5.80,11.95,0.21,0.04,-0.11,1721199400114
0.14,1.40,8.62,0.07,0.20,0.03,1721199400124
0.12,5.52,15.12,0.17,0.01,0.10,1721199400134
1.20,0.23,5.04,0.10,0.14,-0.07,1721199400144
-0.39,-1.68,12.63,-0.07,0.14,-0.16,1721199400154
-0.95,-0.64,9.51,0.07,0.01,-0.10,1721199400164
-1.26,2.09,11.68,0.04,0.18,-0.02,1721199400174
1.50,1.87,9.80,0.10,0.15,0.02,1721199400184
1.00,-1.57,12.97,-0.01,0.09,-0.07,1721199400194
-0.14,0.03,14.03,0.06,0.16,-0.18,1721199400204
-1.74,4.86,12.40,0.08,0.09,-0.16,1721199400214
-1.38,1.73,7.82,0.08,0.05,-0.04,1721199400224
-0.34,-0.23,9.40,0.07,0.14,-0.03,1721199400234
-0.33,-1.81,8.32,0.05,0.08,-0.05,1721199400244
-0.64,2.59,9.54,0.01,0.11,-0.05,1721199400254
-0.13,2.23,13.21,0.03,0.18,-0.09,1721199400264
-0.13,-0.88,8.37,0.07,0.04,0.03,1721199400274
-0.35,-1.32,8.85,-0.02,0.13,0.03,1721199400284
-0.06,1.16,10.39,0.03,0.13,-0.07,1721199400294
0.25,-0.56,7.29,-0.13,0.06,-0.08,1721199400304
-0.90,0.49,10.87,0.01,0.05,-0.12,1721199400314
-0.89,-3.37,4.87,-0.12,0.13,-0.12,1721199400324
-2.70,0.82,10.71,-0.07,0.04,0.08,1721199400334
-0.52,-2.33,6.09,-0.19,0.09,0.09,1721199400344
0.24,-0.17,16.04,-0.18,0.13,0.03,1721199400354
1.30,-2.89,7.95,-0.18,0.00,-0.09,1721199400364
-3.25,0.23,14.56,-0.18,-0.07,-0.03,1721199400374
-2.09,-1.17,12.10,-0.13,0.12,0.03,1721199400384
-0.63,0.29,9.94,-0.13,-0.07,0.11,1721199400394
-0.68,-0.01,10.08,-0.12,0.08,0.07,1721199400404
-0.07,0.90,14.80,-0.09,0.12,-0.02,1721199400414
-1.99,1.21,10.44,-0.01,-0.15,0.05,1721199400424
-1.37,1.88,8.82,-0.03,0.10,0.17,1721199400434
1.59,-1.78,10.91,-0.05,0.08,0.08,1721199400444
0.06,3.13,10.51,0.05,-0.12,-0.04,1721199400454
0.37,0.77,8.87,0.06,0.06,-0.06,1721199400464
-1.57,-1.37,10.43,0.09,-0.08,-0.02,1721199400474
-1.43,2.86,11.88,0.15,0.15,0.05,1721199400484
-0.19,0.02,12.26,0.11,0.09,0.06,1721199400494
-0.70,3.50,11.59,0.23,-0.10,0.11,1721199400504
1.29,0.83,9.97,0.13,0.09,0.04,1721199400514
1.23,1.80,11.44,0.21,-0.07,-0.08,1721199400524
-0.17,2.81,9.56,0.15,0.02,-0.17,1721199400534
-1.99,0.96,7.60,0.14,-0.10,-0.09,1721199400544
-2.03,-3.02,9.32,-0.00,0.07,0.04,1721199400554
-0.41,-0.57,12.87,0.06,0.02,0.02,1721199400564
1.05,1.97,10.50,0.06,0.06,-0.06,1721199400574
1.63,2.70,12.03,0.18,0.04,-0.04,1721199400584
0.83,1.39,8.61,0.12,-0.00,-0.03,1721199400594
-0.96,0.32,9.90,0.07,-0.06,-0.12,1721199400604
-0.12,1.67,10.84,0.13,0.08,-0.06,1721199400614
1.11,-1.32,5.22,0.05,0.00,0.03,1721199400624
-1.42,0.01,11.99,-0.03,0.06,-0.05,1721199400634
-0.29,1.24,7.06,0.15,-0.03,-0.01,1721199400644
0.29,-0.79,10.78,-0.13,0.21,-0.03,1721199400654
-0.79,2.21,11.85,0.12,-0.07,-0.06,1721199400664
0.31,-0.51,11.56,-0.13,0.22,-0.12,1721199400674
-1.96,4.09,10.58,0.16,-0.10,-0.05,1721199400684
-0.92,-0.06,7.38,-0.13,0.19,-0.03,1721199400694
-0.85,1.90,11.47,0.12,-0.03,0.04,1721199400704
-0.20,-2.22,9.33,-0.14,0.12,-0.07,1721199400714
-0.47,1.07,10.04,0.06,-0.07,-0.05,1721199400724
-0.33,-0.59,10.20,-0.16,0.16,-0.12,1721199400734
-2.06,0.18,13.40,-0.00,-0.11,-0.06,1721199400744
-1.90,-2.40,7.15,-0.05,0.01,0.12,1721199400754
-0.26,0.86,16.68,-0.09,0.15,0.10,1721199400764
0.53,0.85,8.27,0.06,-0.13,-0.01,1721199400774
-1.13,1.00,12.85,-0.14,0.12,-0.16,1721199400784
-1.03,1.30,9.76,0.13,-0.06,0.02,1721199400794
-0.96,-3.06,7.27,-0.13,0.06,0.14,1721199400804
-0.61,1.49,11.93,0.12,-0.05,0.16,1721199400814
1.39,1.71,7.52,-0.05,0.09,0.04,1721199400824
0.18,1.03,12.85,0.06,-0.06,-0.11,1721199400834
-0.55,-2.59,8.44,0.03,0.02,0.05,1721199400844
-1.00,-0.73,10.49,0.01,0.06,0.12,1721199400854
0.49,-1.62,10.02,-0.01,0.00,0.20,1721199400864
0.70,1.11,12.44,0.04,0.08,0.05,1721199400874
0.11,0.37,9.15,0.03,-0.05,0.02,1721199400884
-0.70,3.14,14.08,0.01,0.08,-0.04,1721199400894
-0.41,-0.43,9.38,0.07,-0.04,0.02,1721199400904
-1.32,-1.10,10.28,-0.04,0.05,0.05,1721199400914
-0.63,2.74,8.63,0.12,0.07,0.09,1721199400924
0.70,0.16,6.46,-0.00,0.09,0.03,1721199400934
0.87,-0.34,11.84,0.07,-0.03,0.00,1721199400944
0.04,1.09,7.05,0.10,0.00,-0.10,1721199400954
-1.28,1.47,12.04,0.04,0.07,0.04,1721199400964
-0.99,4.32,9.08,0.17,-0.00,0.10,1721199400974
0.39,-3.51,8.83,0.04,0.02,0.06,1721199400984
0.77,1.19,12.64,0.21,0.13,-0.00,1721199400994
-0.21,4.81,7.32,0.19,0.02,-0.03,1721199401004
-2.34,4.45,14.57,0.07,0.02,-0.02,1721199401014
-0.74,-0.40,14.47,0.08,0.01,0.05,1721199401024
-0.58,-0.45,10.17,0.09,-0.01,0.03,1721199401034
-0.56,1.87,11.04,0.10,0.10,0.02,1721199401044
-1.44,-0.02,9.92,0.08,-0.05,-0.09,1721199401054
-2.27,2.72,8.88,0.20,-0.01,0.06,1721199401064
0.67,-0.44,8.57,0.08,0.18,0.12,1721199401074
0.95,0.82,10.32,0.14,-0.10,0.12,1721199401084
1.61,1.20,9.93,0.05,0.10,0.01,1721199401094
0.85,0.61,6.60,0.10,-0.06,-0.10,1721199401104
-1.59,-0.53,7.30,-0.01,0.06,-0.13,1721199401114
-1.53,-2.15,11.23,-0.02,0.04,0.04,1721199401124
-1.01,-0.13,9.86,-0.00,-0.05,0.11,1721199401134
0.75,3.94,13.74,-0.01,0.09,0.01,1721199401144
1.81,-0.08,7.93,-0.02,-0.03,-0.04,1721199401154
-0.49,1.72,11.52,-0.06,-0.01,-0.10,1721199401164
0.22,-0.19,9.14,-0.06,0.06,-0.02,1721199401174
0.08,-1.52,6.93,-0.14,-0.02,0.01,1721199401184
-0.06,-1.13,12.84,-0.21,0.06,-0.19,1721199401194
-0.65,-0.18,10.35,-0.02,-0.06,-0.10,1721199401204
-2.07,4.26,7.89,-0.03,0.05,0.03,1721199401214
-0.80,-1.75,5.11,-0.26,0.03,0.10,1721199401224
-1.41,-0.76,14.74,-0.26,-0.00,0.05,1721199401234
1.84,-3.70,15.42,-0.41,0.07,-0.05,1721199401244
-0.97,2.18,13.92,-0.06,-0.23,-0.17,1721199401254
-0.14,-1.79,10.52,-0.28,0.16,-0.01,1721199401264
-1.23,0.78,13.24,0.03,-0.09,0.11,1721199401274
-0.04,2.32,8.63,-0.12,0.03,0.03,1721199401284
-0.29,5.73,13.24,0.08,-0.10,-0.07,1721199401294
0.04,-3.56,4.13,-0.07,-0.07,-0.10,1721199401304
-1.83,1.45,11.63,0.07,-0.06,0.09,1721199401314
1.62,-3.36,3.11,-0.04,0.03,0.03,1721199401324
-0.42,1.51,11.88,0.02,-0.06,-0.10,1721199401334
0.07,-0.48,8.99,0.11,0.03,-0.20,1721199401344
-2.35,4.69,12.87,0.14,-0.04,-0.08,1721199401354
-1.62,-2.94,7.63,0.00,-0.01,0.11,1721199401364
-1.17,-0.11,16.93,-0.03,0.13,0.02,1721199401374
0.37,-0.91,8.83,0.01,-0.18,0.02,1721199401384
-1.03,1.94,10.93,-0.00,-0.03,-0.05,1721199401394
1.21,1.73,13.20,0.08,0.14,-0.08,1721199401404
-0.84,2.21,11.52,0.09,-0.20,-0.11,1721199401414
-2.33,1.01,6.35,0.08,-0.08,-0.02,1721199401424
0.41,-0.68,10.65,0.01,0.15,0.07,1721199401434
1.91,-0.34,14.44,0.06,-0.06,-0.05,1721199401444
-0.11,1.75,8.02,0.14,-0.16,-0.09,1721199401454
-0.04,4.56,11.29,0.13,0.12,-0.17,1721199401464
0.66,-1.11,11.40,0.08,-0.03,-0.15,1721199401474
-3.17,1.05,9.75,0.18,-0.21,0.03,1721199401484
0.01,-0.08,7.66,0.09,0.16,0.02,1721199401494
2.09,2.42,9.97,0.24,-0.04,0.03,1721199401504
1.56,0.14,8.52,0.06,0.05,-0.13,1721199401514
-0.85,5.87,12.35,0.24,-0.03,-0.21,1721199401524
-0.93,-0.82,8.94,-0.02,0.09,-0.16,1721199401534
-2.60,2.08,16.57,0.13,-0.05,-0.07,1721199401544
-0.40,-0.78,5.86,0.07,-0.04,0.07,1721199401554
-0.44,2.04,6.45,0.06,-0.07,0.10,1721199401564
1.73,-3.13,8.71,-0.17,0.14,-0.15,1721199401574
-0.72,0.35,12.46,0.03,-0.20,-0.10,1721199401584
-1.44,0.44,10.09,-0.07,0.12,-0.14,1721199401594
-2.10,-1.37,9.58,-0.08,-0.10,-0.10,1721199401604
-2.84,4.23,12.87,-0.03,-0.08,0.07,1721199401614
0.68,1.54,6.97,0.01,-0.01,0.10,1721199401624
1.02,-1.83,11.09,-0.14,-0.02,-0.07,1721199401634
-0.94,-0.07,9.91,-0.06,-0.16,-0.20,1721199401644
-2.50,0.97,12.51,-0.12,-0.01,-0.10,1721199401654
-0.88,1.63,11.58,-0.02,-0.01,0.08,1721199401664
1.39,-1.90,9.30,-0.13,0.00,0.02,1721199401679
0.37,0.05,10.45,-0.07,-0.01,-0.07,1721199401683
0.09,-1.26,10.75,-0.17,-0.09,-0.17,1721199401693
-2.46,2.16,12.05,-0.01,-0.14,-0.02,1721199401703
-0.49,-1.08,9.52,-0.12,0.05,0.14,1721199401713
-0.03,-1.08,6.96,0.01,-0.17,0.00,1721199401723
2.01,-10.13,5.13,-0.25,0.05,-0.18,1721199401733
-0.53,-4.18,12.00,-0.04,-0.13,-0.14,1721199401743
-1.99,14.83,19.20,-0.00,0.09,-0.07,1721199401753
-0.97,24.12,15.74,0.33,-0.13,0.12,1721199401763
0.55,-31.00,-1.74,-0.49,-0.20,-0.00,1721199401773
-2.58,-7.81,26.80,-0.20,0.45,-0.45,1721199401783
1.73,19.59,6.73,0.01,-0.24,0.22,1721199401793
-5.03,4.21,13.81,0.01,-0.25,0.42,1721199401803
4.84,5.35,6.34,0.44,0.16,0.05,1721199401813
6.22,0.47,6.93,-0.17,0.20,-0.51,1721199401823
-4.47,-3.34,16.47,-0.13,-0.55,-0.74,1721199401833
-8.84,2.67,8.84,0.08,0.11,-0.06,1721199401843
-3.00,-2.53,3.92,0.02,0.07,0.77,1721199401853
4.87,-3.80,9.05,0.05,0.06,0.45,1721199401863
8.25,5.09,9.66,0.07,-0.08,-0.29,1721199401873
2.56,1.29,11.84,-0.30,-0.09,-0.81,1721199401883
-7.69,5.89,19.95,0.08,-0.23,-0.47,1721199401893
-5.36,-3.86,3.09,0.07,0.14,0.25,1721199401903
0.17,-3.85,7.06,0.01,0.00,0.45,1721199401913
5.17,0.62,11.74,-0.07,0.13,-0.04,1721199401923
2.00,5.62,16.02,-0.03,-0.12,-0.51,1721199401933
-2.87,4.46,10.41,0.11,-0.03,-0.41,1721199401943
-3.64,0.62,7.41,0.25,0.01,-0.01,1721199401953
0.70,4.60,-12.59,0.38,-0.02,0.32,1721199401963
8.01,-16.98,-5.22,-0.79,0.21,0.21,1721199401973
-6.52,-14.45,78.45,-0.94,0.36,-1.00,1721199401983
-8.58,44.21,24.37,1.88,-0.87,-0.98,1721199401993
-3.12,-22.61,-47.64,0.55,0.16,0.83,1721199402003
-0.05,-19.20,45.63,-0.39,0.65,0.62,1721199402013
14.54,7.81,19.28,1.30,-0.59,-0.24,1721199402023
4.30,-25.83,0.87,-0.15,0.20,-0.41,1721199402033
-8.61,-13.54,17.09,-0.22,0.28,-0.61,1721199402043
-16.52,-9.66,11.74,0.39,0.01,-0.18,1721199402053
-6.05,-1.91,8.62,0.21,0.02,0.34,1721199402063
6.01,2.62,8.40,0.04,0.46,0.17,1721199402073
5.52,1.23,13.56,0.11,-0.21,-0.21,1721199402083
0.40,-4.31,5.52,-0.04,-0.14,-0.54,1721199402093
-4.61,1.62,15.80,-0.08,0.17,-0.55,1721199402103
-4.23,2.94,11.21,0.07,0.07,-0.23,1721199402113
-3.96,-3.96,7.29,-0.07,-0.08,0.12,1721199402123
-1.00,1.95,12.33,0.16,0.19,0.19,1721199402133
4.70,-2.08,6.29,-0.09,0.07,0.00,1721199402143
2.15,3.16,13.76,0.01,-0.05,-0.26,1721199402153
0.36,-2.09,5.51,0.03,0.02,-0.45,1721199402163
-5.05,0.14,10.53,0.00,-0.05,-0.26,1721199402173
-3.44,-3.12,6.33,0.02,0.10,0.00,1721199402183
0.67,-1.41,12.65,-0.13,0.11,0.18,1721199402193
2.66,2.45,10.94,0.06,-0.00,-0.06,1721199402203
0.72,1.97,9.28,-0.06,-0.01,-0.28,1721199402213
-1.88,1.57,10.85,0.03,0.01,-0.27,1721199402223
-2.21,-1.53,7.34,-0.13,0.01,-0.04,1721199402233
-1.07,-2.04,11.66,-0.13,0.07,0.01,1721199402243
0.36,-0.99,10.55,-0.12,0.06,-0.09,1721199402253
-0.77,0.22,11.02,-0.03,-0.05,-0.13,1721199402263
-0.63,1.50,9.66,-0.02,0.12,-0.13,1721199402273
-0.30,1.23,12.21,-0.04,-0.02,-0.10,1721199402283
-0.76,0.84,10.87,-0.06,-0.03,-0.10,1721199402293
0.89,1.54,10.30,-0.07,0.06,-0.11,1721199402303
-0.46,-0.40,9.69,-0.00,-0.07,-0.17,1721199402313
-1.42,2.97,9.94,-0.00,0.09,-0.17,1721199402323
-1.62,0.99,9.42,-0.01,-0.09,-0.10,1721199402333
-0.69,-0.48,11.83,-0.09,0.04,-0.06,1721199402343
0.89,1.50,11.02,0.07,-0.00,-0.06,1721199402353
0.57,0.95,8.77,0.04,0.02,-0.12,1721199402363
0.99,2.08,9.22,0.13,0.03,-0.09,1721199402373
0.73,2.00,9.10,0.09,-0.02,-0.15,1721199402383
0.28,0.67,9.73,0.08,-0.02,-0.16,1721199402393
-1.05,0.48,10.58,0.04,0.08,-0.22,1721199402403
-2.04,-0.01,9.92,-0.01,-0.03,-0.17,1721199402413
-2.01,-0.72,8.53,-0.04,-0.00,0.03,1721199402423
0.85,3.31,9.18,0.10,0.13,-0.08,1721199402433
1.94,-3.02,9.13,-0.18,0.07,-0.23,1721199402443
-2.59,2.98,21.47,0.01,-0.11,-0.24,1721199402453
-1.89,0.93,8.49,0.03,0.01,-0.15,1721199402463
-2.32,3.03,9.11,0.04,-0.04,-0.01,1721199402473
1.23,-0.53,10.41,0.00,0.15,-0.04,1721199402483
0.94,-1.96,9.78,0.04,0.01,-0.11,1721199402493
-2.06,3.60,8.14,0.05,-0.07,-0.30,1721199402503
-1.52,1.85,10.10,0.05,0.10,-0.17,1721199402513
-1.40,0.77,10.49,0.00,-0.01,-0.03,1721199402523
-0.66,0.71,9.18,-0.02,-0.04,-0.06,1721199402533
0.82,-2.80,11.33,-0.11,0.13,-0.14,1721199402543
-0.89,2.43,13.09,-0.01,-0.03,-0.18,1721199402553
-0.28,0.01,9.43,-0.03,-0.01,-0.06,1721199402563
0.92,-1.79,10.38,-0.09,0.10,-0.10,1721199402573
0.49,-0.76,10.12,-0.04,0.03,-0.25,1721199402583
-1.92,-0.49,9.32,-0.09,-0.02,-0.23,1721199402593
-2.46,-1.32,7.79,-0.07,0.03,-0.04,1721199402603
-1.35,-1.98,13.89,-0.16,0.17,0.01,1721199402613
0.19,1.94,11.27,-0.04,-0.04,-0.02,1721199402623
-0.22,0.67,10.72,-0.13,0.11,-0.16,1721199402633
-0.76,-2.38,8.22,-0.10,-0.00,-0.17,1721199402643
-0.03,-3.08,12.16,-0.12,0.12,-0.06,1721199402653
0.98,0.40,5.95,0.01,-0.01,0.04,1721199402663
1.59,0.07,11.26,-0.17,0.20,-0.13,1721199402673
1.00,2.81,13.26,0.03,-0.07,-0.29,1721199402683
-1.35,0.91,7.35,-0.07,0.10,-0.24,1721199402693
-3.07,-5.47,12.63,-0.13,0.08,-0.15,1721199402703
-3.27,0.83,8.81,0.01,0.02,0.02,1721199402713
1.87,1.97,12.27,-0.05,0.24,0.09,1721199402723
2.58,2.83,13.06,0.10,-0.02,-0.12,1721199402733
0.63,2.37,9.33,0.03,0.13,-0.23,1721199402743
-1.75,1.41,13.25,0.01,0.06,-0.30,1721199402753
-3.07,2.89,7.51,0.11,-0.00,-0.12,1721199402763
-0.44,0.81,12.03,0.03,0.25,0.09,1721199402773
1.24,-0.13,8.83,0.20,-0.05,0.00,1721199402783
1.30,0.50,11.41,0.09,0.22,-0.13,1721199402793
0.57,2.93,10.50,0.19,0.05,-0.25,1721199402803
-2.12,1.38,13.19,0.10,0.07,-0.17,1721199402813
-2.81,3.28,9.64,0.35,0.03,-0.01,1721199402823
0.71,0.10,6.89,0.22,0.24,0.05,1721199402833
1.02,-1.08,9.46,0.19,-0.04,0.04,1721199402843
0.16,3.69,15.37,0.14,0.20,-0.18,1721199402853
-0.09,-0.34,12.33,0.19,0.01,-0.17,1721199402863
-1.30,2.94,6.83,0.30,0.02,-0.00,1721199402873
1.14,-0.89,6.72,0.14,0.23,-0.06,1721199402883
0.41,3.14,10.41,0.22,0.03,-0.14,1721199402893
-1.01,2.67,6.86,0.18,0.11,-0.18,1721199402903
-1.73,-2.63,9.62,0.01,0.13,-0.11,1721199402913
-1.15,-0.86,13.19,0.07,0.07,0.10,1721199402923
2.02,1.85,6.56,0.04,0.12,0.12,1721199402933
2.80,2.69,8.94,-0.02,0.10,-0.09,1721199402943
2.37,-1.29,9.31,-0.03,0.10,-0.29,1721199402953
-0.74,-2.73,6.90,-0.01,0.03,-0.30,1721199402963
-3.01,-1.10,10.11,-0.14,0.19,-0.12,1721199402973
-1.27,-0.88,13.20,-0.08,0.13,0.08,1721199402983
0.51,0.18,8.80,-0.08,0.05,-0.01,1721199402993
1.29,3.48,13.02,-0.10,0.13,-0.10,1721199403003
0.96,1.97,10.86,-0.06,0.13,-0.21,1721199403013
-1.40,-0.56,9.44,-0.17,0.04,-0.12,1721199403023
-1.78,-3.03,9.48,-0.14,0.17,-0.16,1721199403033
-1.68,-2.81,10.42,-0.21,0.12,-0.12,1721199403043
-1.36,0.19,10.44,-0.01,0.08,-0.03,1721199403053
-0.40,-0.67,8.46,-0.14,0.19,-0.04,1721199403063
-1.55,5.34,15.03,0.03,0.06,0.05,1721199403073
-0.19,-1.43,7.35,-0.09,0.04,-0.02,1721199403083
-1.42,1.37,12.39,0.05,0.06,-0.09,1721199403093
1.75,-2.69,3.90,-0.09,0.10,-0.05,1721199403103
-1.34,0.56,12.79,-0.02,0.03,-0.12,1721199403113
-0.12,-3.69,7.78,-0.06,0.15,-0.19,1721199403123
-3.93,1.60,14.64,-0.01,0.02,-0.09,1721199403133
-2.64,0.77,7.39,0.00,-0.00,0.02,1721199403143
-0.10,-0.97,13.76,-0.03,0.20,0.16,1721199403153
1.61,1.76,8.68,0.07,-0.03,0.02,1721199403163
1.53,-0.42,11.34,-0.07,0.20,-0.19,1721199403173
0.01,2.99,13.01,0.09,0.02,-0.17,1721199403183
-1.74,0.90,9.72,-0.04,0.06,-0.15,1721199403193
-2.70,1.06,11.13,0.09,-0.06,-0.00,1721199403203
-0.32,0.34,6.77,0.04,0.21,0.02,1721199403213
0.50,-1.90,10.23,-0.05,-0.02,-0.07,1721199403223
-1.27,0.23,15.06,-0.05,0.06,-0.18,1721199403233
-1.31,1.31,11.46,0.12,0.03,-0.13,1721199403243
-0.99,-0.29,11.58,0.02,0.11,0.04,1721199403253
-1.22,1.02,10.27,0.21,-0.02,0.07,1721199403263
1.15,2.91,7.39,0.21,0.14,0.02,1721199403273
2.03,1.82,6.74,0.27,0.02,-0.06,1721199403283
-0.48,1.54,9.06,0.22,0.03,-0.13,1721199403293
-1.08,4.44,10.99,0.30,0.11,-0.07,1721199403303
-0.22,-1.41,9.31,0.08,0.07,-0.02,1721199403313
-2.22,0.79,13.17,0.14,0.01,-0.01,1721199403323
-0.42,-0.11,8.87,0.11,0.11,0.01,1721199403333
-0.62,3.30,10.53,0.21,0.01,0.04,1721199403343
0.39,-0.55,5.77,0.15,0.07,0.06,1721199403353
-0.19,2.11,9.79,0.16,0.01,0.02,1721199403363
0.42,0.02,8.00,0.07,0.11,-0.02,1721199403373
-1.12,1.33,13.37,0.05,0.02,-0.04,1721199403383
-1.98,-1.28,7.63,0.02,-0.07,0.06,1721199403393
-2.20,2.63,12.96,0.05,0.07,0.14,1721199403403
1.37,-3.15,7.81,-0.12,0.03,0.14,1721199403413
-0.29,2.41,14.36,-0.01,-0.10,0.02,1721199403423
1.09,-2.93,5.07,-0.11,0.01,-0.00,1721199403433
-2.00,0.66,15.38,-0.05,-0.02,-0.00,1721199403443
-1.12,-0.19,8.01,0.02,-0.01,0.06,1721199403453
-0.77,0.89,13.26,-0.05,-0.00,0.14,1721199403463
0.38,2.31,9.77,0.06,-0.07,0.05,1721199403473
0.22,0.58,10.01,-0.02,0.00,0.05,1721199403483
-1.61,1.26,6.96,0.09,-0.09,0.06,1721199403493
-1.72,-2.64,6.57,-0.08,-0.02,0.12,1721199403503
-1.08,1.05,9.32,0.00,-0.02,0.23,1721199403513
1.39,-2.16,10.09,-0.15,-0.00,0.16,1721199403523
0.25,-1.03,15.00,-0.14,-0.11,0.09,1721199403533
-0.48,1.44,8.00,0.01,-0.12,0.03,1721199403543
0.32,-1.19,8.75,-0.11,-0.02,0.09,1721199403553
-0.44,-1.60,8.59,-0.01,-0.09,0.23,1721199403563
-0.93,-0.19,10.26,-0.11,-0.05,0.08,1721199403573
1.02,-1.10,9.73,-0.06,-0.05,0.09,1721199403583
0.37,-0.70,12.11,-0.10,-0.12,0.09,1721199403593
-0.17,1.74,10.91,-0.08,-0.08,0.09,1721199403603
-1.87,2.24,9.33,-0.12,-0.10,0.04,1721199403613
-0.70,-3.37,10.15,-0.18,-0.04,0.05,1721199403623
-0.75,-2.09,12.89,-0.12,-0.15,0.10,1721199403633
-0.28,1.58,12.70,-0.09,-0.07,0.12,1721199403643
0.96,3.90,13.71,-0.02,-0.06,0.14,1721199403653
1.16,4.32,9.10,0.09,-0.14,-0.03,1721199403663
0.85,-2.12,8.79,0.05,-0.03,-0.02,1721199403673
-0.86,1.00,9.26,0.06,-0.07,-0.02,1721199403688
-0.92,2.89,9.90,0.09,-0.03,0.10,1721199403692
1.18,2.01,8.98,0.14,-0.07,0.19,1721199403702
2.27,1.97,8.96,0.05,-0.05,-0.02,1721199403712
1.42,-0.76,13.15,0.00,-0.09,-0.24,1721199403722
-1.93,0.64,12.96,0.04,-0.09,-0.28,1721199403732
-3.12,0.14,10.88,0.06,-0.09,0.01,1721199403742
-0.77,2.05,11.40,0.13,-0.04,0.19,1721199403752
2.36,2.51,10.30,0.18,-0.03,-0.01,1721199403762
1.90,1.75,9.62,0.09,-0.06,-0.31,1721199403772
-1.65,3.18,11.77,0.10,-0.10,-0.25,1721199403782
-1.19,-4.65,8.48,-0.09,0.01,-0.09,1721199403792
-1.16,-0.27,8.82,0.05,-0.11,0.03,1721199403802
2.61,-1.65,6.56,-0.14,0.13,-0.03,1721199403812
1.39,1.29,12.38,-0.03,-0.11,-0.28,1721199403822
-1.65,3.48,13.60,-0.05,-0.00,-0.39,1721199403832
-2.63,0.68,7.33,-0.03,-0.12,-0.10,1721199403842
-0.93,2.31,13.71,-0.15,0.06,0.02,1721199403852
3.42,-3.22,7.90,-0.10,-0.05,-0.05,1721199403862
1.24,-1.26,9.65,-0.16,-0.06,-0.36,1721199403872
0.38,-1.55,13.19,-0.12,0.13,-0.38,1721199403882
-2.18,4.82,11.09,0.07,-0.10,-0.30,1721199403892
-2.54,4.30,7.37,0.03,0.05,-0.08,1721199403902
0.91,-0.53,11.64,-0.11,0.16,-0.09,1721199403912
1.59,-4.61,11.19,-0.13,-0.09,-0.21,1721199403922
0.74,-0.58,13.40,-0.09,0.06,-0.21,1721199403932
0.72,3.06,11.30,-0.01,0.07,-0.28,1721199403942
-1.84,2.68,9.37,0.08,0.00,-0.32,1721199403952
-2.11,-1.78,9.50,-0.06,0.09,-0.33,1721199403962
-2.46,1.76,11.54,0.08,-0.02,-0.08,1721199403972
0.23,1.72,10.57,-0.03,0.17,-0.01,1721199403982
1.07,3.69,13.72,0.08,-0.01,-0.11,1721199403992
0.47,-1.54,8.15,-0.00,0.04,-0.29,1721199404002
-1.47,-0.96,12.13,-0.04,0.08,-0.30,1721199404012
-1.66,-1.21,10.94,0.05,0.03,-0.18,1721199404022
0.09,3.09,7.23,0.07,0.00,-0.10,1721199404032
2.07,0.21,7.51,0.09,0.10,-0.15,1721199404042
-0.10,1.06,9.75,-0.00,0.06,-0.29,1721199404052
-2.23,-3.70,10.66,-0.17,0.04,-0.32,1721199404062
-3.26,-4.76,11.78,-0.21,0.00,-0.22,1721199404072
-0.59,0.13,12.50,-0.12,0.07,-0.00,1721199404082
0.79,0.98,8.19,0.03,0.03,-0.03,1721199404092
0.33,3.99,5.59,0.04,0.02,-0.22,1721199404102
-0.10,-1.96,9.28,-0.19,0.16,-0.31,1721199404112
-1.69,-0.50,16.87,-0.19,0.07,-0.28,1721199404122
-2.79,0.88,13.82,-0.13,0.03,-0.14,1721199404132
-2.75,2.31,6.40,0.03,-0.01,0.03,1721199404142
0.80,-3.42,4.77,-0.04,0.10,0.19,1721199404152
3.63,2.88,11.38,0.08,0.18,-0.09,1721199404162
3.18,5.61,11.63,0.11,0.07,-0.46,1721199404172
-2.24,3.18,10.37,0.05,-0.02,-0.52,1721199404182
-4.97,0.62,6.65,0.10,-0.00,-0.15,1721199404192
-2.90,-0.47,9.90,-0.03,0.23,0.12,1721199404202
1.57,0.61,18.22,-0.01,0.12,0.10,1721199404212
3.06,4.60,15.05,0.18,-0.02,-0.12,1721199404222
2.44,-0.50,9.22,0.09,0.06,-0.32,1721199404232
-1.64,4.33,10.89,0.25,0.03,-0.32,1721199404242
-1.50,-1.02,10.18,0.11,0.21,-0.21,1721199404252
-3.72,-2.27,10.09,0.16,-0.11,0.06,1721199404262
-1.93,1.32,10.77,0.19,0.17,0.00,1721199404272
1.71,1.28,11.90,0.20,0.13,-0.05,1721199404282
-0.15,4.01,9.30,0.21,-0.09,-0.04,1721199404292
-0.70,5.86,13.34,0.20,0.19,-0.22,1721199404302
-0.76,-0.71,8.25,0.19,0.02,-0.15,1721199404312
-3.58,-3.27,9.97,0.00,0.04,-0.02,1721199404322
-2.76,-1.92,9.45,0.08,-0.03,0.18,1721199404332
0.67,0.62,7.12,0.03,0.11,0.22,1721199404342
4.14,-3.13,9.22,-0.12,0.12,-0.02,1721199404352
1.00,0.78,10.94,0.08,-0.19,-0.12,1721199404362
-0.73,0.79,8.42,-0.08,0.13,-0.22,1721199404372
-2.85,2.73,9.94,0.08,-0.07,-0.06,1721199404382
-2.85,-0.05,5.65,-0.09,0.05,0.18,1721199404392
-1.63,-2.29,9.38,-0.08,0.01,0.12,1721199404402
0.97,-2.76,9.97,-0.13,0.09,0.08,1721199404412
0.91,0.56,12.40,-0.04,-0.03,0.01,1721199404422
1.08,-2.80,6.98,-0.22,-0.05,-0.03,1721199404432
-1.36,3.96,14.91,-0.09,-0.01,-0.07,1721199404442
0.64,-0.12,11.78,-0.13,0.05,-0.07,1721199404452
-1.44,-4.61,6.56,-0.13,-0.20,0.07,1721199404462
-1.64,0.74,10.12,-0.22,0.11,0.03,1721199404472
0.42,2.34,12.11,-0.03,-0.01,0.01,1721199404482
0.68,0.27,6.20,-0.09,-0.08,0.08,1721199404492
-0.71,1.55,9.15,-0.02,0.02,0.02,1721199404502
0.28,-3.20,6.93,-0.18,-0.03,-0.03,1721199404512
-2.21,-1.81,17.44,-0.24,-0.06,-0.09,1721199404522
-2.54,0.96,15.82,-0.10,-0.14,0.13,1721199404532
-0.80,5.95,14.86,0.01,0.04,0.29,1721199404542
2.16,3.55,9.91,0.09,-0.07,0.15,1721199404552
1.22,2.38,12.67,0.11,-0.05,-0.16,1721199404562
0.11,3.80,9.37,0.24,-0.03,-0.17,1721199404572
-1.18,1.41,8.07,0.23,-0.07,0.04,1721199404582
-0.14,-0.82,9.16,0.24,0.01,0.12,1721199404592
2.04,1.74,5.34,0.27,-0.07,0.01,1721199404602
1.25,0.93,11.37,0.11,-0.01,-0.18,1721199404612
-1.58,2.91,11.82,0.29,-0.10,-0.21,1721199404622
-2.55,2.17,9.37,0.20,-0.03,-0.02,1721199404632
-1.66,1.53,9.29,0.26,-0.08,0.14,1721199404642
1.35,-3.80,7.15,0.06,-0.01,0.08,1721199404652
0.97,0.95,15.10,0.09,-0.10,-0.07,1721199404662
0.97,1.38,8.17,0.13,-0.10,-0.10,1721199404672
-0.39,1.11,11.02,0.10,-0.05,-0.13,1721199404682
0.40,-0.00,10.27,0.10,-0.04,-0.07,1721199404692
0.61,-0.33,7.51,0.01,-0.06,-0.05,1721199404702
0.91,0.23,9.47,-0.01,0.05,-0.14,1721199404712
0.59,-2.15,8.39,-0.11,-0.05,-0.24,1721199404722
-1.82,2.48,14.10,0.08,-0.09,-0.11,1721199404732
1.46,-0.76,6.91,-0.08,0.10,-0.04,1721199404742
0.09,2.32,11.48,-0.05,-0.08,-0.14,1721199404752
0.51,-1.73,9.69,-0.17,0.03,-0.14,1721199404762
0.05,-0.27,12.40,-0.07,-0.06,-0.17,1721199404772
-0.66,1.78,8.08,0.04,-0.04,-0.16,1721199404782
0.60,-4.05,4.94,-0.24,0.02,-0.05,1721199404792
-0.37,3.03,15.98,-0.06,0.03,-0.16,1721199404802
1.98,-2.67,8.26,-0.16,-0.01,-0.21,1721199404812
-1.31,6.29,14.30,0.02,-0.07,-0.22,1721199404822
0.34,-0.88,6.68,-0.12,0.13,-0.25,1721199404832
-1.90,2.32,15.37,-0.05,-0.07,-0.09,1721199404842
0.76,-0.87,5.07,-0.09,0.09,-0.16,1721199404852
-0.67,0.31,15.59,-0.18,-0.02,-0.35,1721199404862
-1.56,3.13,10.88,0.09,-0.06,-0.32,1721199404872
-1.47,-1.89,9.27,-0.14,0.07,-0.21,1721199404882
-2.19,0.45,13.86,0.01,-0.09,-0.04,1721199404892
-0.84,-0.86,7.48,-0.09,0.04,-0.10,1721199404902
-0.71,-2.02,13.14,-0.09,-0.05,-0.14,1721199404912
0.51,1.33,12.26,0.08,0.01,-0.17,1721199404922
0.32,1.74,6.57,0.09,-0.06,-0.14,1721199404932
-0.88,0.07,6.67,0.07,-0.03,-0.18,1721199404942
0.24,-4.38,9.46,-0.06,0.09,-0.13,1721199404952
-0.65,2.26,16.05,0.08,-0.01,-0.21,1721199404962
0.05,0.31,6.86,0.09,-0.09,-0.19,1721199404972
-1.03,1.54,11.81,0.02,-0.01,-0.20,1721199404982
-0.23,1.24,6.79,0.19,-0.11,-0.09,1721199404992
0.22,0.04,10.53,-0.04,0.15,-0.20,1721199405002
-0.74,-1.16,7.98,0.18,-0.31,-0.19,1721199405012
-0.62,1.49,9.93,0.07,0.20,-0.13,1721199405022
1.34,2.45,8.98,0.18,-0.03,-0.16,1721199405032
-0.90,-0.22,9.73,-0.06,-0.02,-0.25,1721199405042
-1.23,-2.63,13.48,-0.01,-0.03,-0.34,1721199405052
-1.29,0.32,13.24,0.08,0.01,-0.17,1721199405062
-0.02,7.38,12.96,0.26,0.17,-0.05,1721199405072
2.17,-1.47,6.35,0.10,-0.11,-0.19,1721199405082
-2.15,5.70,13.67,0.20,-0.10,-0.34,1721199405092
0.75,-2.48,4.90,0.21,-0.05,-0.23,1721199405102
-1.93,-0.53,16.23,0.01,0.06,-0.26,1721199405112
-1.76,2.93,9.55,0.29,-0.11,-0.13,1721199405122
0.08,2.26,11.02,0.13,0.15,-0.15,1721199405132
-0.28,1.50,6.97,0.33,-0.12,-0.13,1721199405142
-0.49,2.61,9.32,0.17,0.20,-0.21,1721199405152
0.32,-1.99,11.09,0.16,-0.04,-0.16,1721199405162
-1.96,5.30,10.12,0.20,-0.05,-0.17,1721199405172
0.16,-1.52,5.70,0.06,-0.01,-0.16,1721199405182
0.13,-3.22,9.39,-0.03,-0.05,-0.14,1721199405192
-1.13,0.58,8.08,0.03,-0.00,-0.24,1721199405202
-1.51,0.28,11.21,-0.12,0.01,-0.18,1721199405212
-0.67,-0.29,11.19,-0.01,-0.06,0.02,1721199405222
-0.46,-0.84,7.64,-0.13,0.01,-0.13,1721199405232
-0.31,-4.42,7.17,-0.24,-0.07,-0.25,1721199405242
-1.38,-2.02,10.86,-0.19,-0.07,-0.14,1721199405252
-0.19,0.70,11.98,-0.16,0.07,-0.06,1721199405262
-0.11,1.06,10.53,-0.06,-0.15,-0.04,1721199405272
0.70,-1.44,9.62,-0.15,0.03,-0.13,1721199405282
0.21,2.83,12.08,-0.13,-0.02,-0.27,1721199405292
-1.03,2.09,12.08,-0.13,-0.10,-0.15,1721199405302
-0.73,1.10,11.40,-0.11,0.06,-0.03,1721199405312
0.83,-2.36,9.69,-0.10,-0.05,-0.10,1721199405322
0.79,-2.81,8.91,-0.21,-0.03,-0.23,1721199405332
-0.56,1.68,11.17,-0.07,-0.06,-0.36,1721199405342
-0.46,-1.94,9.07,-0.13,-0.02,-0.17,1721199405352
-1.54,1.76,12.31,0.04,0.01,-0.03,1721199405362
0.03,-2.28,7.54,-0.06,0.04,-0.00,1721199405372
-1.47,3.06,14.57,-0.06,0.03,-0.29,1721199405382
0.10,-1.35,10.06,-0.06,-0.14,-0.22,1721199405392
0.16,0.78,13.26,-0.01,0.08,-0.07,1721199405402
1.30,0.34,8.06,0.06,-0.02,-0.22,1721199405412
-0.53,0.79,12.59,0.02,0.06,-0.33,1721199405422
-0.80,-0.77,9.77,0.05,0.00,-0.34,1721199405432
-2.90,3.17,16.36,0.08,0.04,-0.21,1721199405442
-0.61,0.20,7.57,0.12,-0.03,-0.03,1721199405452
-0.36,0.85,10.64,0.09,0.06,-0.20,1721199405462
0.41,1.11,3.12,0.17,-0.03,-0.35,1721199405472
-3.30,2.85,10.27,0.03,0.03,-0.37,1721199405482
-2.09,-2.10,10.10,0.06,0.00,-0.10,1721199405492
-1.43,1.82,10.88,0.09,-0.02,-0.04,1721199405502
1.53,-0.72,6.87,0.01,-0.01,-0.15,1721199405512
0.62,0.53,13.32,-0.08,-0.03,-0.31,1721199405522
-1.55,2.04,15.19,0.08,-0.07,-0.31,1721199405532
-1.47,1.46,13.36,0.12,-0.00,-0.14,1721199405542
-0.28,2.28,7.98,0.14,-0.03,-0.12,1721199405552
0.76,1.67,9.99,0.02,0.04,-0.15,1721199405562
1.54,-1.29,9.20,-0.01,0.05,-0.25,1721199405572
0.08,1.20,11.73,0.12,-0.02,-0.32,1721199405582
-0.39,2.91,4.79,0.19,-0.03,-0.20,1721199405592
0.02,2.06,10.50,-0.00,0.15,-0.28,1721199405602
-1.67,3.61,10.99,0.13,-0.08,-0.37,1721199405612
-3.28,2.58,8.94,-0.07,0.01,-0.30,1721199405622
-3.07,0.97,10.90,0.03,-0.07,-0.18,1721199405632
-1.69,-0.07,11.28,-0.05,0.02,-0.14,1721199405642
-1.93,3.00,10.91,0.06,-0.14,-0.13,1721199405652
-2.33,2.49,8.64,-0.12,-0.02,-0.33,1721199405662
-3.26,4.20,14.52,0.06,-0.13,-0.28,1721199405672
-3.46,-2.89,9.60,0.00,-0.12,-0.11,1721199405682
-1.47,-2.11,3.37,-0.01,-0.25,0.06,1721199405697
0.59,-1.25,7.41,-0.09,0.01,0.08,1721199405701
-0.31,0.44,14.02,0.02,-0.29,-0.17,1721199405711
-2.16,-0.77,8.25,0.11,-0.19,-0.30,1721199405721
-3.80,1.35,12.87,0.12,-0.18,-0.15,1721199405731
-3.74,0.74,7.35,0.11,-0.29,0.13,1721199405741
-0.42,3.04,12.03,0.08,-0.16,0.25,1721199405751
3.53,1.83,9.11,0.16,-0.20,0.08,1721199405761
3.15,2.45,11.27,0.08,-0.19,-0.24,1721199405771
0.61,2.19,13.56,0.25,-0.27,-0.30,1721199405781
-0.36,5.49,10.43,0.25,-0.18,-0.13,1721199405791
1.82,4.59,6.14,0.14,-0.17,-0.02,1721199405801
2.59,4.58,5.32,0.06,-0.19,-0.16,1721199405811
2.94,1.92,6.87,-0.07,-0.13,-0.32,1721199405821
1.48,1.34,15.33,0.07,-0.16,-0.35,1721199405831
0.27,-0.55,13.77,0.15,-0.17,-0.22,1721199405841
1.69,4.36,6.44,0.15,-0.20,-0.08,1721199405851
5.64,0.42,6.95,-0.18,0.08,-0.22,1721199405861
2.64,-4.04,13.96,-0.08,-0.17,-0.52,1721199405871
-2.86,-0.03,7.51,0.08,-0.24,-0.64,1721199405881
-4.18,0.37,15.62,-0.00,0.08,-0.32,1721199405891
-2.25,2.82,11.10,0.17,-0.13,0.12,1721199405901
2.08,5.31,2.51,-0.22,0.01,-0.06,1721199405911
1.54,-0.04,9.70,-0.25,-0.09,-0.47,1721199405921
-2.64,-8.36,18.78,-0.08,0.01,-0.65,1721199405931
-5.45,-1.64,11.53,0.41,-0.31,-0.18,1721199405941
-3.55,11.24,-1.51,-0.01,-0.20,0.29,1721199405951
2.68,5.77,5.79,-0.58,0.09,0.19,1721199405961
3.58,-6.87,24.07,-0.17,-0.31,-0.38,1721199405971
-1.52,-6.57,12.17,0.18,-0.36,-0.57,1721199405981
-6.03,3.88,4.14,0.02,-0.27,0.00,1721199405991
1.14,2.74,7.75,-0.14,0.07,0.39,1721199406001
6.89,-2.27,13.77,-0.06,-0.02,-0.01,1721199406011
4.22,-3.15,8.82,0.08,-0.34,-0.60,1721199406021
-5.35,-0.06,8.48,0.01,-0.33,-0.67,1721199406031
-8.14,-0.04,18.60,0.01,-0.09,0.07,1721199406041
-0.17,-0.52,14.98,0.14,-0.14,0.87,1721199406051
7.58,1.48,-4.65,0.00,-0.20,0.53,1721199406061
9.04,5.59,5.16,-0.04,0.19,-0.65,1721199406071
1.02,-3.41,15.48,-0.13,-0.37,-1.02,1721199406081
-10.56,-3.17,17.36,0.16,-0.46,0.01,1721199406091
-3.91,1.30,6.56,0.22,0.06,0.96,1721199406101
9.61,4.12,3.67,-0.11,0.07,0.70,1721199406111
11.57,0.91,11.59,-0.22,-0.15,-0.26,1721199406121
2.58,-0.74,18.93,-0.01,-0.45,-0.75,1721199406131
-3.28,-1.72,17.75,0.20,-0.17,-0.17,1721199406141
0.24,1.67,18.34,0.22,0.07,0.60,1721199406151
8.56,9.67,1.54,0.28,0.03,0.54,1721199406161
17.53,9.08,-13.76,-0.44,0.04,-0.34,1721199406171
3.04,-4.89,8.81,-0.44,-0.21,-1.15,1721199406181
-9.05,-9.82,25.35,0.34,-0.50,-0.90,1721199406191
-12.01,0.77,9.77,0.48,-0.05,0.48,1721199406201
0.02,8.82,7.82,0.01,0.10,1.36,1721199406211
13.03,3.14,7.99,-0.18,0.08,0.50,1721199406221
9.71,0.03,10.40,0.10,-0.28,-0.88,1721199406231
-2.38,-4.33,7.67,0.10,-0.28,-1.14,1721199406241
-12.45,1.03,5.09,0.05,-0.28,-0.07,1721199406251
-4.12,-1.56,10.79,-0.20,0.07,1.03,1721199406261
8.20,4.98,17.72,0.08,0.14,0.80,1721199406271
14.38,-1.56,11.73,-0.02,-0.07,-0.25,1721199406281
2.25,1.17,8.93,0.11,-0.62,-0.73,1721199406291
-5.44,4.59,3.20,0.08,0.03,-0.33,1721199406301
-0.17,1.88,14.62,-0.17,0.27,0.40,1721199406311
4.81,-2.65,10.20,-0.04,-0.38,0.68,1721199406321
8.12,-0.91,6.15,-0.06,0.10,0.21,1721199406331
8.91,2.64,7.79,0.10,0.05,-0.37,1721199406341
5.76,-2.66,13.38,-0.20,0.01,-0.59,1721199406351
0.21,-3.37,18.23,0.12,-0.14,-0.13,1721199406361
1.27,-1.99,11.66,0.08,0.23,0.26,1721199406371
5.72,3.80,9.12,0.12,0.16,0.13,1721199406381
6.50,2.14,7.99,-0.10,0.07,-0.26,1721199406391
1.07,-2.86,17.87,0.05,0.18,-0.46,1721199406401
-3.10,-2.19,8.39,0.23,-0.03,-0.30,1721199406411
-4.52,6.01,7.52,0.13,0.08,0.02,1721199406421
-0.80,2.16,8.03,-0.24,0.17,0.18,1721199406431
-3.22,-2.03,10.41,-0.20,-0.29,0.09,1721199406441
-4.03,0.40,17.69,0.40,0.09,-0.01,1721199406451
2.04,3.92,-1.53,0.15,0.09,0.15,1721199406461
-0.53,8.42,5.51,-0.23,-0.12,0.10,1721199406471
0.82,4.29,19.50,0.05,-0.09,-0.17,1721199406481
0.55,3.24,11.94,0.18,-0.05,-0.01,1721199406491
-0.01,1.08,1.64,-0.06,-0.26,0.20,1721199406501
-0.95,2.60,5.48,-0.12,-0.13,0.03,1721199406511
1.09,0.57,22.85,-0.06,-0.02,0.11,1721199406521
2.82,8.12,6.12,0.32,-0.39,0.57,1721199406531
5.84,9.47,2.87,-0.04,0.24,0.26,1721199406541
7.95,1.04,11.73,-0.01,-0.07,-0.30,1721199406551
1.89,-0.34,15.90,0.04,-0.28,-0.33,1721199406561
-0.13,11.29,12.71,0.31,-0.06,0.33,1721199406571
9.37,8.12,10.64,-0.09,0.42,0.46,1721199406581
12.37,5.07,7.64,0.10,-0.17,-0.15,1721199406591
7.85,0.11,8.49,-0.15,0.12,-0.86,1721199406601
-3.32,10.76,11.35,0.29,-0.14,-0.67,1721199406611
-3.60,4.05,1.45,-0.33,0.11,-0.12,1721199406621
1.77,3.22,17.32,0.04,0.01,0.18,1721199406631
6.96,0.95,9.05,-0.05,0.28,-0.11,1721199406641
0.06,9.88,9.86,-0.02,-0.09,-0.46,1721199406651
-1.24,5.00,4.99,-0.20,0.26,-0.59,1721199406661
-0.24,0.86,10.76,-0.03,0.21,-0.27,1721199406671
-0.96,-1.99,6.88,-0.16,0.01,-0.08,1721199406681
-0.86,6.15,14.88,0.12,0.10,-0.03,1721199406691
7.89,6.69,13.33,-0.03,0.49,0.01,1721199406701
8.65,-0.05,11.25,-0.12,0.16,-0.21,1721199406711
2.78,-3.22,5.82,-0.00,0.08,-0.51,1721199406721
0.50,4.53,12.49,0.02,0.49,-0.44,1721199406731
2.64,5.03,4.42,0.03,0.14,-0.08,1721199406741
3.86,1.69,13.56,-0.20,0.44,-0.24,1721199406751
4.36,3.77,21.94,0.37,0.24,-0.44,1721199406761
4.29,3.94,5.73,0.16,0.52,-0.45,1721199406771
1.32,3.34,2.64,-0.02,0.25,-0.40,1721199406781
-0.32,-5.15,0.74,-0.27,0.38,-0.57,1721199406791
-3.71,-3.77,24.28,0.08,0.29,-0.59,1721199406801
-5.71,0.77,13.70,0.38,0.21,-0.28,1721199406811
-4.71,7.36,0.73,-0.08,0.17,0.12,1721199406821
-0.21,2.61,8.80,-0.28,0.40,-0.02,1721199406831
1.04,-1.68,9.92,-0.09,0.19,-0.41,1721199406841
-4.03,2.80,16.93,0.11,0.18,-0.51,1721199406851
-4.57,5.50,2.74,0.17,0.05,-0.07,1721199406861
-0.10,5.32,9.98,-0.27,0.42,0.08,1721199406871
2.24,0.78,12.57,-0.04,0.04,-0.12,1721199406881
-1.35,6.40,11.33,-0.00,-0.06,-0.33,1721199406891
-1.81,9.07,6.43,-0.03,0.18,-0.23,1721199406901
-0.27,2.15,8.50,-0.18,0.23,-0.13,1721199406911
-1.87,3.22,11.28,0.11,-0.11,-0.15,1721199406921
-1.28,5.82,9.83,0.03,0.15,-0.18,1721199406931
0.65,6.45,11.86,0.03,0.08,0.02,1721199406941
0.91,6.27,8.99,-0.10,0.01,-0.07,1721199406951
-0.01,4.39,15.18,0.02,0.13,-0.31,1721199406961
0.33,1.72,7.64,0.03,-0.09,-0.19,1721199406971
-0.23,3.94,8.73,0.01,0.05,0.09,1721199406981
2.95,2.73,6.99,-0.02,0.21,-0.02,1721199406991
2.61,2.07,14.75,-0.06,0.05,-0.17,1721199407001
1.27,4.85,11.40,0.19,-0.07,-0.00,1721199407011
3.97,1.75,13.35,-0.10,0.36,0.00,1721199407021
3.21,3.51,6.42,0.26,-0.16,-0.10,1721199407031
3.18,2.81,6.43,-0.19,0.37,-0.25,1721199407041
2.51,2.55,13.94,0.03,-0.02,-0.19,1721199407051
2.09,1.95,8.53,-0.01,0.17,-0.16,1721199407061
1.63,3.26,12.90,0.15,0.28,-0.17,1721199407071
1.07,4.06,5.88,-0.00,0.10,-0.21,1721199407081
-0.36,5.54,12.78,-0.08,0.16,-0.13,1721199407091
2.23,1.89,10.29,-0.05,0.28,-0.02,1721199407101
2.36,4.74,11.82,0.10,0.28,-0.08,1721199407111
3.39,2.03,0.69,-0.06,0.24,-0.15,1721199407121
1.28,4.67,13.14,-0.15,0.35,-0.15,1721199407131
3.49,6.84,10.68,0.11,0.35,0.02,1721199407141
6.47,5.97,16.05,-0.04,0.64,-0.10,1721199407151
6.67,1.17,9.62,0.16,0.26,-0.42,1721199407161
2.08,3.58,4.48,-0.06,0.36,-0.62,1721199407171
0.04,5.27,13.56,0.03,0.57,-0.41,1721199407181
1.81,-0.90,13.28,-0.02,0.57,-0.29,1721199407191
-3.00,-0.04,8.69,0.07,0.15,-0.49,1721199407201
-7.53,4.19,7.35,-0.08,0.41,-0.62,1721199407211
-7.82,9.23,13.26,-0.11,0.43,-0.23,1721199407221
-5.40,3.84,14.55,-0.14,0.33,0.12,1721199407231
-3.52,-0.20,5.06,-0.03,0.12,0.04,1721199407241
-4.12,2.36,9.95,-0.04,0.27,-0.15,1721199407251
-3.84,5.55,9.51,-0.08,0.14,0.01,1721199407261
-3.61,4.20,10.93,-0.21,-0.02,0.21,1721199407271
0.69,-0.34,11.88,-0.05,0.01,0.17,1721199407281
3.63,-1.01,9.41,-0.03,0.09,-0.11,1721199407291
4.41,1.86,11.03,0.17,0.08,-0.18,1721199407301
6.47,4.53,5.21,0.06,0.36,-0.24,1721199407311
4.78,2.72,8.77,-0.03,0.22,-0.65,1721199407321
-4.65,4.55,6.84,0.04,-0.04,-1.09,1721199407331
-11.76,3.44,9.05,-0.18,-0.05,-0.85,1721199407341
-12.70,-0.18,22.59,0.01,0.00,0.07,1721199407351
-3.83,1.01,11.98,0.24,0.07,0.67,1721199407361
3.11,6.26,5.23,0.03,0.02,0.23,1721199407371
3.36,8.12,8.42,0.05,0.02,-0.34,1721199407381
0.84,4.09,8.32,-0.07,0.01,-0.17,1721199407391
1.11,-0.37,9.86,-0.05,0.08,0.22,1721199407401
1.64,2.97,9.68,0.08,-0.05,-0.10,1721199407411
-0.07,6.15,8.06,0.02,-0.04,-0.40,1721199407421
0.49,5.29,13.69,-0.03,0.12,0.05,1721199407431
6.29,3.71,11.37,0.03,0.21,0.36,1721199407441
8.42,5.81,10.20,0.12,0.18,-0.34,1721199407451
4.12,5.05,6.64,0.09,0.10,-0.98,1721199407461
-4.13,1.31,7.62,-0.14,0.12,-0.43,1721199407471
-4.58,-0.40,12.08,-0.03,0.22,0.19,1721199407481
3.23,-3.00,13.87,0.08,0.41,0.23,1721199407491
5.71,0.74,11.06,0.19,0.08,0.04,1721199407501
7.71,2.21,6.26,-0.04,0.49,-0.19,1721199407511
6.34,3.16,12.86,-0.07,0.37,-0.45,1721199407521
4.24,0.72,11.53,0.09,0.46,-0.53,1721199407531
3.06,-1.64,8.75,0.05,0.51,-0.43,1721199407541
1.83,0.40,4.30,0.07,0.39,-0.27,1721199407551
3.14,1.27,9.28,-0.09,0.76,-0.57,1721199407561
-0.37,-0.69,16.31,0.03,0.31,-0.82,1721199407571
-5.60,0.50,11.93,0.14,0.36,-0.57,1721199407581
-4.46,0.03,13.09,0.03,0.66,-0.22,1721199407591
-2.82,-0.05,4.66,0.06,0.27,-0.29,1721199407601
-3.86,0.66,11.01,-0.10,0.50,-0.46,1721199407611
-3.38,-0.41,9.18,0.13,0.36,-0.28,1721199407621
-2.61,1.16,11.72,-0.01,0.42,-0.13,1721199407631
