AccX,AccY,AccZ,GyrX,GyrY,GyrZ,Time
-4.00,2.09,12.23,0.02,-0.14,-0.30,1721200822135
-0.62,4.07,13.46,0.10,0.10,-0.42,1721200822140
-5.11,3.88,7.17,-0.06,-0.14,-0.64,1721200822150
-6.04,2.89,11.40,0.07,-0.05,-0.31,1721200822160
-2.41,0.73,8.66,-0.02,0.00,-0.02,1721200822170
-2.22,2.00,8.04,-0.04,-0.33,-0.04,1721200822180
-1.19,3.90,10.95,-0.08,-0.01,-0.37,1721200822190
-2.24,3.06,6.63,0.03,0.04,-0.44,1721200822200
-3.04,2.54,12.33,-0.15,-0.01,-0.38,1721200822210
-3.57,0.79,9.30,0.03,-0.29,-0.16,1721200822220
-2.67,6.89,12.18,0.08,0.05,-0.03,1721200822230
0.96,3.34,4.89,-0.08,-0.15,-0.25,1721200822240
-4.01,5.39,13.27,-0.02,-0.37,-0.38,1721200822250
-5.04,5.20,9.34,-0.05,-0.14,-0.21,1721200822260
-5.20,3.78,12.67,-0.06,-0.32,-0.14,1721200822270
-2.88,4.25,9.54,-0.02,-0.31,-0.09,1721200822280
9.53,-5.17,25.87,-0.20,0.03,0.58,1721200822290
14.11,-1.43,0.38,0.09,-0.61,-0.17,1721200822300
8.83,-2.61,8.98,-0.44,0.49,-1.52,1721200822310
-17.50,-7.76,19.79,0.18,-0.76,-1.82,1721200822320
-26.60,-6.58,-0.44,0.18,-0.17,-0.32,1721200822330
-17.91,-0.97,10.97,-0.32,-0.07,1.19,1721200822340
1.29,4.17,18.32,-0.06,-0.10,1.67,1721200822350
19.02,-5.20,15.29,-0.36,-0.07,1.04,1721200822360
14.54,-2.29,7.60,-0.07,-0.21,-0.04,1721200822370
15.06,-5.78,0.11,-0.38,-0.06,-1.14,1721200822380
-3.80,3.21,16.23,-0.37,-0.85,-1.25,1721200822390
-16.17,8.60,22.27,-0.04,0.05,-0.78,1721200822400
-12.12,-1.61,6.13,-0.20,-0.27,0.07,1721200822410
-3.62,-4.52,8.88,-0.24,-0.01,0.67,1721200822420
7.52,-3.38,13.48,-0.22,0.11,0.37,1721200822430
6.85,1.58,17.25,0.02,-0.26,-0.25,1721200822440
1.46,-0.19,6.83,0.20,-0.27,-0.36,1721200822450
-0.01,-3.55,8.63,-0.12,0.12,-0.38,1721200822460
-3.28,0.44,17.24,0.11,-0.27,-0.09,1721200822470
0.22,2.35,13.02,-0.02,0.07,0.21,1721200822480
3.79,6.13,11.65,0.26,-0.07,0.04,1721200822490
6.10,-3.15,4.49,0.11,-0.02,-0.29,1721200822500
1.41,-0.89,11.62,0.18,-0.03,-0.55,1721200822510
-2.54,-0.76,13.27,0.22,-0.02,-0.40,1721200822520
-2.94,3.28,13.56,0.26,0.06,-0.03,1721200822530
1.87,-0.88,8.88,0.08,0.12,0.10,1721200822540
2.08,0.27,8.24,0.25,-0.05,-0.16,1721200822550
3.60,-3.17,7.07,0.09,0.19,-0.39,1721200822560
1.58,1.26,15.32,0.19,0.11,-0.31,1721200822570
0.60,2.00,10.27,0.20,0.12,-0.24,1721200822580
-0.35,0.69,5.47,0.12,0.02,-0.22,1721200822590
0.42,0.03,13.11,-0.06,0.34,-0.49,1721200822600
-1.66,-1.94,10.07,0.24,-0.17,-0.38,1721200822610
-1.75,-1.66,6.43,0.07,0.21,-0.30,1721200822620
1.81,-0.00,11.47,0.14,0.29,-0.29,1721200822630
0.95,0.15,7.92,0.07,0.16,-0.42,1721200822640
-2.08,-3.09,10.50,0.08,0.05,-0.48,1721200822650
-2.75,0.23,8.98,0.13,0.14,-0.24,1721200822660
0.32,2.76,10.64,0.01,0.34,-0.21,1721200822670
2.11,-0.03,13.74,0.08,0.24,-0.42,1721200822680
-0.88,1.76,10.35,0.27,0.08,-0.46,1721200822690
-1.66,-0.44,9.05,0.05,0.21,-0.45,1721200822700
-2.34,0.96,11.70,0.22,0.07,-0.30,1721200822710
-0.34,-0.06,10.73,0.07,0.29,-0.29,1721200822720
-0.57,-1.54,7.99,0.13,0.07,-0.22,1721200822730
-1.26,0.79,10.47,0.02,0.26,-0.29,1721200822740
-0.67,-0.47,4.39,0.04,0.13,-0.26,1721200822750
-1.82,2.92,14.69,-0.09,0.33,-0.27,1721200822760
-0.12,0.96,14.48,0.16,0.18,-0.13,1721200822770
0.23,3.82,9.99,0.23,0.17,0.01,1721200822780
1.39,-2.75,5.78,-0.17,0.25,-0.13,1721200822790
-2.04,3.56,16.29,0.06,0.02,-0.14,1721200822800
0.24,1.25,6.70,-0.04,0.28,-0.06,1721200822810
1.65,-0.55,13.46,-0.04,0.24,-0.04,1721200822820
0.76,0.74,12.13,0.06,0.19,-0.07,1721200822830
0.96,1.95,5.76,0.11,0.25,-0.03,1721200822840
2.26,1.23,10.52,-0.11,0.35,-0.07,1721200822850
1.40,2.11,13.58,0.05,0.21,-0.06,1721200822860
0.63,1.22,7.04,0.03,0.22,-0.11,1721200822870
-0.34,1.30,8.51,-0.04,0.27,-0.15,1721200822880
0.42,0.86,11.10,-0.12,0.31,-0.14,1721200822890
0.26,2.19,10.97,0.02,0.24,-0.11,1721200822900
1.04,-0.50,6.58,-0.02,0.40,-0.15,1721200822910
-0.79,-1.19,14.95,-0.19,0.55,-0.68,1721200822920
-13.19,1.38,10.22,0.04,-0.37,-0.44,1721200822930
-11.05,-3.08,12.94,-0.44,0.45,0.60,1721200822940
8.62,-3.09,14.45,0.19,0.38,1.31,1721200822950
16.88,0.71,-1.61,0.13,0.28,0.33,1721200822960
11.03,4.08,6.60,-0.27,0.41,-1.39,1721200822970
-7.63,-4.03,20.49,-0.22,0.09,-1.83,1721200822980
-16.40,-9.22,17.31,-0.28,0.05,-0.74,1721200822990
-15.02,-0.48,8.07,0.01,0.33,0.54,1721200823000
-0.54,-4.49,5.92,-0.35,0.54,0.78,1721200823010
3.49,2.80,16.95,-0.06,0.12,0.13,1721200823020
4.02,-1.91,5.92,0.01,0.18,-0.49,1721200823030
-1.45,-1.16,9.60,-0.34,0.34,-0.60,1721200823040
-5.15,-0.23,14.29,-0.14,0.16,-0.22,1721200823050
-3.40,1.38,12.03,-0.06,0.22,0.19,1721200823060
-0.22,4.13,9.13,0.07,0.13,0.22,1721200823070
2.26,-2.40,7.07,-0.09,0.18,0.03,1721200823080
-0.87,-2.48,10.48,-0.06,0.04,-0.23,1721200823090
-3.39,3.18,15.81,0.02,0.35,-0.23,1721200823100
-5.87,0.01,10.02,0.02,0.01,0.09,1721200823110
-5.86,3.77,17.33,0.04,0.19,0.38,1721200823120
0.14,-0.50,6.87,0.24,-0.04,0.62,1721200823130
2.22,-3.23,8.96,-0.17,0.20,0.49,1721200823140
2.23,6.05,13.29,0.25,-0.02,0.07,1721200823150
-1.40,-0.39,3.77,0.03,-0.12,-0.11,1721200823160
-6.27,-2.00,13.06,-0.01,0.01,0.08,1721200823170
-1.54,-4.29,10.35,0.07,0.24,0.58,1721200823180
-0.43,-3.23,7.16,0.02,-0.02,0.64,1721200823190
1.23,2.50,10.22,0.07,0.08,0.35,1721200823200
0.94,0.47,10.41,0.16,-0.19,0.19,1721200823210
-2.66,-1.80,7.74,0.06,-0.25,0.36,1721200823220
-4.04,-5.90,9.59,-0.10,-0.02,0.52,1721200823230
-2.36,-2.22,14.74,-0.01,-0.00,0.57,1721200823240
0.42,2.68,6.20,-0.04,0.03,0.50,1721200823250
1.36,-2.01,9.45,-0.14,-0.08,0.45,1721200823260
-0.71,2.44,13.91,0.03,-0.06,0.58,1721200823270
1.00,-3.00,7.24,-0.11,-0.10,0.73,1721200823280
0.59,1.18,14.26,0.00,-0.29,0.74,1721200823290
3.14,2.78,7.66,0.20,-0.08,0.49,1721200823300
2.18,-7.26,4.40,-0.29,-0.14,0.23,1721200823310
-3.89,5.88,19.41,0.03,-0.10,0.10,1721200823320
-2.51,2.60,5.50,0.05,-0.05,0.26,1721200823330
-3.56,-3.11,8.67,-0.29,-0.19,0.62,1721200823340
0.97,6.49,19.78,0.15,0.08,0.70,1721200823350
5.32,1.06,4.28,0.07,-0.17,0.40,1721200823360
0.95,0.85,13.68,-0.29,-0.15,0.07,1721200823370
0.67,6.22,15.24,0.27,-0.06,-0.07,1721200823380
-1.17,-4.56,3.75,-0.12,-0.17,0.05,1721200823390
-5.17,3.68,11.60,0.16,-0.31,0.43,1721200823400
3.82,0.02,5.74,-0.01,0.23,0.51,1721200823410
3.12,5.71,13.93,0.11,-0.31,0.15,1721200823420
1.71,0.09,3.89,-0.09,-0.06,-0.21,1721200823430
-2.93,4.09,18.36,-0.13,-0.03,-0.25,1721200823440
-5.49,0.64,6.66,0.06,-0.24,0.13,1721200823450
-3.57,0.01,8.40,-0.19,-0.03,0.46,1721200823460
2.04,1.97,12.63,-0.05,-0.04,0.35,1721200823470
3.21,1.48,9.00,-0.04,-0.23,0.02,1721200823480
-1.33,1.37,12.51,-0.16,-0.17,-0.09,1721200823490
-4.37,0.36,10.28,-0.10,-0.21,0.03,1721200823500
-2.87,0.08,11.48,-0.14,-0.08,0.22,1721200823510
-0.05,-2.43,8.47,-0.02,-0.29,0.32,1721200823520
-0.92,-1.85,7.48,-0.04,-0.13,0.27,1721200823530
0.11,0.72,12.80,-0.11,-0.09,0.20,1721200823540
0.70,-0.34,9.08,-0.04,-0.37,0.29,1721200823550
2.48,-0.16,13.47,-0.15,-0.03,0.19,1721200823560
3.69,-1.12,6.38,0.02,-0.28,0.19,1721200823570
-0.35,-3.43,7.63,-0.25,-0.12,0.09,1721200823580
-2.57,2.25,15.98,0.00,-0.14,0.04,1721200823590
-0.35,-2.57,4.63,-0.04,-0.24,0.24,1721200823600
-0.71,-1.00,12.56,-0.21,0.00,0.19,1721200823610
0.77,0.36,12.69,0.01,-0.25,0.08,1721200823620
2.84,-4.17,9.05,-0.27,-0.00,0.17,1721200823630
-0.35,2.21,10.85,0.04,-0.24,0.09,1721200823640
0.41,-4.72,5.44,-0.13,-0.14,-0.09,1721200823650
-0.78,1.06,15.85,-0.13,-0.07,-0.11,1721200823660
1.25,-0.59,10.92,-0.05,-0.11,0.01,1721200823670
1.25,2.16,11.11,-0.06,0.01,-0.07,1721200823680
1.35,-4.11,8.44,-0.10,-0.12,-0.17,1721200823690
1.13,-2.75,15.03,-0.09,0.06,-0.19,1721200823700
-0.65,3.01,8.63,0.25,-0.16,-0.06,1721200823710
1.92,-4.04,5.81,-0.14,0.15,-0.11,1721200823720
0.03,5.22,19.58,0.23,-0.13,-0.12,1721200823730
1.99,-4.67,3.34,0.06,0.03,-0.20,1721200823740
-2.00,0.63,13.02,-0.10,0.07,-0.38,1721200823750
0.07,5.49,10.97,0.31,0.06,-0.28,1721200823760
-0.01,-3.94,5.20,0.02,0.00,-0.09,1721200823770
-0.06,2.94,14.03,0.25,0.12,-0.11,1721200823780
1.42,-3.10,6.82,0.15,-0.00,-0.32,1721200823790
-1.66,-2.26,14.13,0.05,-0.01,-0.28,1721200823800
-1.26,-2.04,8.93,0.22,0.04,-0.13,1721200823810
-0.34,-1.61,10.47,0.09,0.06,-0.07,1721200823820
1.40,-2.36,10.73,0.13,0.03,-0.17,1721200823830
0.02,-2.51,8.54,0.08,0.11,-0.33,1721200823840
-1.95,0.84,11.47,0.14,0.06,-0.18,1721200823850
-0.67,3.22,13.39,0.14,0.17,0.03,1721200823860
1.18,0.25,5.84,0.21,0.03,-0.00,1721200823870
1.57,-3.55,9.74,-0.03,0.12,-0.14,1721200823880
-0.21,2.07,13.07,0.17,0.08,-0.28,1721200823890
0.05,-1.82,9.76,-0.00,0.11,-0.14,1721200823900
-0.41,2.53,10.85,0.21,0.09,-0.02,1721200823910
2.02,-3.24,6.98,0.01,0.21,-0.06,1721200823920
-0.19,1.10,13.12,0.07,0.09,-0.19,1721200823930
-2.06,0.03,8.90,0.13,0.03,-0.22,1721200823940
-2.32,-0.43,11.17,0.08,0.16,-0.06,1721200823950
0.15,-3.04,10.50,0.09,0.11,0.12,1721200823960
1.52,3.76,10.42,0.22,0.15,-0.01,1721200823970
2.43,1.46,7.03,-0.01,0.22,-0.28,1721200823980
-1.28,4.30,11.89,0.12,0.06,-0.25,1721200823990
-0.41,-3.21,7.34,-0.11,0.22,-0.17,1721200824000
-2.61,0.15,12.91,0.02,0.02,-0.10,1721200824010
-2.00,4.64,11.33,0.04,0.13,-0.11,1721200824020
-0.11,2.18,7.48,-0.02,0.04,-0.08,1721200824030
-1.56,-3.04,7.41,-0.25,-0.01,-0.12,1721200824040
-3.41,1.56,14.50,-0.07,0.16,-0.17,1721200824050
0.91,1.33,9.50,-0.04,0.20,0.02,1721200824060
1.30,0.30,11.29,-0.21,0.03,-0.01,1721200824070
0.56,1.38,6.22,0.02,-0.06,-0.08,1721200824080
2.35,-2.46,10.34,-0.28,0.29,-0.21,1721200824090
0.16,1.96,16.20,-0.03,-0.07,-0.23,1721200824100
-2.33,-3.86,3.67,-0.16,-0.03,-0.17,1721200824110
-2.44,1.23,16.05,-0.28,0.26,-0.17,1721200824120
0.07,-4.49,5.14,-0.05,-0.02,-0.05,1721200824130
-1.81,-2.56,13.82,-0.22,-0.12,-0.17,1721200824145
0.40,3.65,16.25,-0.02,-0.14,-0.12,1721200824149
-2.23,-0.96,0.98,-0.09,-0.12,-0.12,1721200824159
-1.42,-2.39,13.14,-0.25,0.26,-0.11,1721200824169
0.66,3.97,13.86,0.05,-0.00,-0.08,1721200824179
0.64,-2.47,5.09,-0.21,0.00,-0.17,1721200824189
-1.46,-0.99,14.98,-0.15,0.18,-0.16,1721200824199
0.61,-1.62,8.33,-0.02,0.26,-0.11,1721200824209
-2.60,-1.19,12.34,-0.20,0.08,-0.13,1721200824219
-3.70,4.97,11.94,0.13,0.07,-0.12,1721200824229
-1.06,-0.88,8.62,-0.03,0.06,-0.06,1721200824239
-0.93,5.26,16.64,0.15,0.02,-0.07,1721200824249
-0.87,0.20,3.04,0.36,-0.07,-0.01,1721200824259
1.20,-4.88,12.15,-0.25,0.39,-0.12,1721200824269
-1.40,5.09,18.13,0.36,-0.43,-0.06,1721200824279
-2.34,-6.84,-3.30,0.05,0.09,-0.00,1721200824289
-1.20,-0.08,18.64,-0.04,0.40,-0.15,1721200824299
-2.04,3.59,9.70,0.50,-0.30,-0.11,1721200824309
-2.93,-4.66,8.14,-0.21,0.23,-0.07,1721200824319
-3.48,6.27,16.64,0.37,-0.27,0.03,1721200824329
0.32,-12.63,0.48,-0.12,0.10,0.07,1721200824339
-0.53,0.88,15.30,0.09,0.08,0.06,1721200824349
2.69,-3.42,5.80,0.16,-0.06,-0.04,1721200824359
-0.42,5.21,17.67,0.12,0.06,-0.09,1721200824369
-0.66,-3.08,5.29,0.23,-0.19,-0.04,1721200824379
-2.52,3.90,14.31,-0.06,0.38,-0.11,1721200824389
0.00,3.78,11.50,0.25,-0.14,-0.06,1721200824399
-2.28,1.27,10.07,-0.02,-0.10,0.06,1721200824409
-1.11,-1.84,6.76,0.23,-0.32,0.21,1721200824419
0.69,-3.65,9.02,-0.06,0.08,0.13,1721200824429
0.54,5.18,13.07,0.22,-0.12,0.01,1721200824439
0.62,0.90,10.24,-0.05,0.11,-0.12,1721200824449
-2.81,2.57,13.44,0.18,-0.21,-0.07,1721200824459
-1.92,-1.38,2.58,0.16,-0.07,0.15,1721200824469
1.40,-2.41,14.46,-0.05,0.17,0.24,1721200824479
1.98,6.71,12.21,0.33,-0.26,0.08,1721200824489
1.08,-0.44,3.92,-0.11,-0.03,-0.13,1721200824499
-1.45,4.34,16.41,0.15,-0.11,-0.15,1721200824509
0.19,-2.55,2.35,0.04,-0.08,0.10,1721200824519
-1.67,0.22,14.04,-0.24,0.02,0.12,1721200824529
-0.09,7.61,12.52,0.30,-0.03,0.02,1721200824539
1.98,-4.66,3.44,-0.30,0.02,-0.04,1721200824549
-2.45,-1.12,20.24,-0.11,-0.34,-0.02,1721200824559
-2.36,3.00,3.51,0.21,-0.23,0.12,1721200824569
1.43,-0.59,13.14,-0.33,0.35,0.04,1721200824579
-1.87,1.83,12.95,0.21,-0.40,0.10,1721200824589
-1.48,-4.50,3.54,-0.37,0.16,-0.07,1721200824599
-1.90,7.38,18.10,0.18,-0.18,0.12,1721200824609
2.10,-3.18,2.43,-0.29,0.05,0.27,1721200824619
-0.27,1.52,20.66,-0.07,-0.15,0.07,1721200824629
1.07,-2.24,2.41,0.07,-0.29,-0.08,1721200824639
1.42,-0.76,11.45,-0.20,0.06,-0.02,1721200824649
0.58,1.49,9.07,0.10,-0.22,-0.03,1721200824659
-0.30,-2.92,9.52,-0.28,-0.03,-0.03,1721200824669
-3.15,-2.72,5.98,-0.01,-0.29,0.07,1721200824679
-1.05,-4.04,13.85,-0.41,0.21,0.07,1721200824689
-1.88,1.76,13.67,0.02,-0.41,0.22,1721200824699
1.24,-6.72,4.87,-0.44,0.02,0.14,1721200824709
1.18,2.01,17.45,-0.03,-0.21,0.05,1721200824719
3.75,5.40,2.64,0.05,0.10,-0.19,1721200824729
1.58,-2.61,14.83,-0.32,-0.16,-0.29,1721200824739
-2.12,7.45,15.58,0.19,-0.06,-0.05,1721200824749
0.03,-10.36,1.43,-0.25,-0.13,0.09,1721200824759
-1.64,1.31,17.96,-0.17,0.10,0.06,1721200824769
2.75,1.98,8.21,0.10,-0.23,0.01,1721200824779
1.72,1.83,8.54,0.03,-0.02,-0.22,1721200824789
1.14,-2.76,11.24,0.03,-0.07,-0.38,1721200824799
-2.22,-0.83,12.00,0.03,-0.04,-0.27,1721200824809
-0.24,-6.23,5.99,-0.02,-0.01,0.03,1721200824819
-1.21,1.91,18.71,0.09,0.01,-0.07,1721200824829
2.69,4.34,6.68,0.47,-0.09,0.03,1721200824839
1.73,-4.42,7.64,-0.05,0.05,-0.33,1721200824849
-1.50,5.91,17.65,0.30,-0.01,-0.52,1721200824859
-0.35,-9.00,5.46,-0.10,0.02,-0.17,1721200824869
-2.94,9.70,23.30,0.32,0.03,0.00,1721200824879
4.31,-6.01,-5.67,0.30,-0.13,0.13,1721200824889
2.49,-0.45,15.44,-0.17,0.47,-0.31,1721200824899
5.26,5.21,6.18,0.47,0.00,-0.60,1721200824909
-2.56,-1.66,11.74,-0.06,0.26,-0.36,1721200824919
-2.34,7.74,15.71,0.42,-0.03,-0.03,1721200824929
1.02,-3.86,3.65,0.12,0.18,-0.03,1721200824939
0.86,-0.06,13.73,0.15,0.11,-0.24,1721200824949
-0.22,0.09,7.64,0.17,0.02,-0.45,1721200824959
-2.56,2.42,8.92,0.18,0.07,-0.28,1721200824969
0.70,-0.63,15.45,0.08,0.31,-0.16,1721200824979
0.23,1.45,6.55,0.38,-0.11,-0.09,1721200824989
1.22,0.85,6.30,-0.05,0.33,-0.30,1721200824999
-0.32,5.55,14.99,0.15,0.04,-0.36,1721200825009
-0.97,-0.58,3.05,-0.10,0.03,-0.30,1721200825019
-2.31,-0.86,16.34,-0.20,0.25,-0.37,1721200825029
-2.74,-4.18,6.26,0.06,-0.12,-0.26,1721200825039
-3.41,2.38,14.02,-0.15,0.31,-0.18,1721200825049
1.38,5.65,10.65,0.22,0.08,0.06,1721200825059
3.69,-2.74,5.91,-0.28,0.14,-0.10,1721200825069
-0.79,1.24,14.62,-0.03,-0.08,-0.51,1721200825079
-2.21,-2.03,4.21,-0.08,0.02,-0.49,1721200825089
-2.40,1.59,14.99,-0.18,0.21,-0.15,1721200825099
0.58,-1.79,2.66,-0.02,-0.07,0.07,1721200825109
1.60,-5.32,8.37,-0.40,0.24,-0.21,1721200825119
1.80,2.62,13.28,0.05,0.09,-0.48,1721200825129
0.55,-6.03,5.74,-0.46,0.20,-0.47,1721200825139
-4.49,2.29,16.87,-0.15,-0.03,-0.19,1721200825149
-1.13,-4.96,7.98,-0.30,0.22,-0.14,1721200825159
-3.57,5.91,14.04,0.00,-0.06,-0.16,1721200825169
2.24,-0.60,3.21,-0.15,0.23,-0.06,1721200825179
0.48,-2.72,10.98,-0.20,0.05,-0.14,1721200825189
-0.18,2.28,13.73,-0.08,0.24,-0.20,1721200825199
-1.41,-0.40,11.37,-0.07,0.04,-0.12,1721200825209
-3.55,-2.85,10.67,-0.21,0.04,-0.22,1721200825219
-1.42,5.83,13.00,0.16,0.13,-0.19,1721200825229
-0.10,-3.22,4.90,0.02,-0.00,-0.07,1721200825239
-1.43,0.36,16.56,-0.06,0.10,-0.03,1721200825249
-1.71,-2.11,9.62,0.15,-0.12,-0.04,1721200825259
-2.61,0.19,8.41,0.03,0.29,-0.07,1721200825269
2.31,1.61,16.44,0.01,0.33,-0.00,1721200825279
-0.11,-2.19,10.01,0.16,-0.39,0.05,1721200825289
-0.66,2.18,11.42,0.08,0.30,-0.16,1721200825299
-0.11,-0.55,9.05,0.39,-0.22,-0.08,1721200825309
-1.92,0.95,11.26,0.01,0.25,0.06,1721200825319
-1.62,0.54,12.36,0.20,-0.13,0.15,1721200825329
-0.91,-5.90,6.59,-0.06,0.00,0.03,1721200825339
-0.41,2.22,14.34,0.07,0.14,-0.16,1721200825349
-0.47,1.36,5.03,0.20,-0.16,-0.10,1721200825359
-0.93,1.00,10.40,0.01,0.14,-0.03,1721200825369
0.33,-0.17,12.38,0.17,-0.05,0.09,1721200825379
-0.40,1.25,8.31,0.12,-0.03,-0.01,1721200825389
0.30,0.01,13.49,-0.05,0.03,-0.11,1721200825399
-1.60,4.59,12.44,0.21,-0.15,-0.04,1721200825409
-0.13,0.52,8.06,0.03,0.16,0.03,1721200825419
0.80,1.16,12.61,0.15,-0.16,-0.01,1721200825429
1.64,4.71,9.78,0.16,-0.04,0.08,1721200825439
0.04,3.63,9.29,0.17,-0.17,0.00,1721200825449
-0.92,-0.08,9.95,0.03,-0.03,-0.16,1721200825459
-0.55,-1.38,8.59,0.08,-0.12,0.00,1721200825469
-1.45,-1.84,9.46,-0.09,-0.02,-0.04,1721200825479
-1.45,5.69,12.52,0.16,0.02,-0.01,1721200825489
2.40,2.29,8.31,0.02,0.13,-0.01,1721200825499
1.48,2.69,9.81,0.06,-0.17,-0.05,1721200825509
-0.37,-2.13,8.06,-0.03,-0.07,-0.16,1721200825519
-2.27,-1.30,14.71,0.00,-0.08,-0.11,1721200825529
-1.24,2.61,6.53,0.25,-0.13,0.13,1721200825539
1.61,0.18,10.78,-0.19,0.22,-0.07,1721200825549
-1.00,5.65,12.71,0.29,-0.31,-0.13,1721200825559
-0.07,-4.19,5.56,-0.30,0.24,-0.23,1721200825569
-3.74,-0.84,16.85,-0.04,-0.22,-0.16,1721200825579
-0.96,-4.02,7.11,-0.08,0.01,-0.01,1721200825589
1.79,-1.53,12.26,0.01,0.01,0.01,1721200825599
3.32,-2.05,7.02,0.09,-0.06,-0.05,1721200825609
-0.77,0.36,12.48,-0.13,0.01,-0.30,1721200825619
-2.53,2.85,11.90,-0.02,-0.06,-0.48,1721200825629
-1.40,-0.97,10.70,-0.05,0.04,-0.25,1721200825639
0.32,-6.11,13.30,-0.06,0.23,-0.05,1721200825649
-1.62,-5.30,7.37,-0.03,-0.19,0.13,1721200825659
-1.64,6.09,12.08,0.03,0.08,-0.14,1721200825669
4.24,-0.50,10.71,-0.10,0.17,-0.33,1721200825679
-1.29,0.35,11.96,0.06,-0.26,-0.37,1721200825689
0.92,-9.17,9.16,-0.26,0.36,-0.31,1721200825699
-1.23,4.61,16.23,0.27,-0.09,-0.05,1721200825709
0.54,1.05,6.88,0.01,0.23,-0.18,1721200825719
-0.48,3.64,16.55,0.18,0.04,-0.29,1721200825729
-0.11,-2.68,2.00,0.06,-0.07,-0.30,1721200825739
-0.02,-4.00,16.63,-0.06,0.21,-0.23,1721200825749
-1.03,3.81,12.99,0.33,-0.06,-0.13,1721200825759
-1.12,-0.62,5.74,-0.01,0.14,-0.10,1721200825769
-1.12,0.09,11.05,0.04,0.09,-0.32,1721200825779
-1.06,-0.95,9.17,0.13,0.05,-0.19,1721200825789
-0.91,-1.47,11.91,-0.01,0.20,-0.10,1721200825799
-0.96,1.19,7.76,0.18,-0.05,0.02,1721200825809
1.68,1.01,11.78,0.01,0.37,-0.14,1721200825819
-0.13,-1.28,10.88,0.22,-0.12,-0.17,1721200825829
0.16,-0.85,12.02,0.04,0.27,-0.07,1721200825839
0.61,4.97,10.20,0.34,0.02,-0.09,1721200825849
0.65,1.14,5.14,0.07,0.18,-0.21,1721200825859
-0.58,0.68,14.13,0.15,0.13,-0.20,1721200825869
-0.49,-4.12,5.56,0.03,0.14,-0.11,1721200825879
-1.73,4.63,17.35,0.14,0.24,-0.05,1721200825889
1.53,1.23,4.25,0.21,0.11,-0.08,1721200825899
2.62,-0.13,11.71,0.01,0.27,-0.17,1721200825909
2.93,3.53,12.08,0.20,0.21,-0.31,1721200825919
-0.45,2.13,7.38,0.10,0.17,-0.37,1721200825929
-4.00,0.17,13.13,-0.12,0.26,-0.41,1721200825939
-4.22,0.72,10.21,0.14,0.08,-0.07,1721200825949
0.54,-1.91,11.11,-0.12,0.32,0.04,1721200825959
1.04,2.89,5.94,0.18,-0.06,-0.08,1721200825969
-0.12,-0.89,9.99,-0.28,0.40,-0.32,1721200825979
-3.47,4.31,10.94,0.27,0.01,-0.17,1721200825989
1.91,-5.98,4.08,-0.34,0.36,-0.03,1721200825999
1.41,1.25,23.34,-0.05,0.02,-0.10,1721200826009
0.06,-2.84,0.13,0.15,0.02,-0.17,1721200826019
-2.28,-0.47,14.47,-0.26,0.50,-0.30,1721200826029
-2.21,-1.70,7.48,0.12,-0.05,-0.03,1721200826039
0.78,-0.29,13.36,-0.28,0.46,-0.06,1721200826049
2.65,1.24,13.06,0.20,-0.03,0.07,1721200826059
0.45,-2.61,4.08,-0.27,0.28,-0.20,1721200826069
-3.86,1.93,14.07,0.03,-0.02,-0.32,1721200826079
-1.65,-1.80,4.93,-0.09,0.13,-0.05,1721200826089
-2.54,-0.77,12.00,-0.09,0.02,0.13,1721200826099
-1.41,-6.25,8.77,-0.19,0.22,0.04,1721200826109
-0.57,2.15,16.01,0.03,0.22,-0.07,1721200826119
-0.75,-6.77,-0.24,-0.06,-0.09,-0.05,1721200826129
-0.44,3.17,19.96,-0.01,0.74,-0.03,1721200826139
1.65,-2.45,7.69,-0.03,0.61,0.11,1721200826154
-6.50,5.16,9.40,-0.10,0.27,-0.04,1721200826158
0.25,-2.61,10.36,0.08,0.05,-0.02,1721200826168
0.04,-4.23,9.93,-0.10,-0.01,0.20,1721200826178
0.81,6.06,10.92,0.21,0.19,0.15,1721200826188
2.94,-2.68,12.29,-0.12,0.24,-0.06,1721200826198
-4.74,2.84,6.31,0.20,-0.53,-0.03,1721200826208
1.00,-2.62,11.93,-0.12,0.70,-0.00,1721200826218
-0.13,0.12,15.55,0.13,-0.50,0.25,1721200826228
-5.66,4.83,1.43,0.02,0.06,0.07,1721200826238
1.16,-1.53,10.73,0.03,0.28,-0.09,1721200826248
-1.34,-5.79,6.79,-0.00,-0.26,0.07,1721200826258
-2.48,6.17,14.71,0.13,0.26,0.04,1721200826268
2.27,2.45,10.17,0.13,0.12,-0.03,1721200826278
-1.53,3.53,14.00,0.12,-0.14,0.05,1721200826288
-0.96,-0.87,3.44,0.14,-0.05,0.11,1721200826298
-0.05,2.52,14.87,0.07,0.17,0.03,1721200826308
-0.28,4.57,4.87,0.29,-0.31,0.13,1721200826318
-0.69,-0.96,10.56,-0.13,0.14,-0.02,1721200826328
-0.85,-0.61,10.00,0.24,-0.14,-0.04,1721200826338
-0.75,-0.64,11.32,-0.08,0.30,-0.04,1721200826348
-2.97,3.42,9.38,0.12,-0.32,0.12,1721200826358
-2.25,3.29,7.43,-0.02,0.19,0.13,1721200826368
1.27,0.63,9.72,0.04,-0.04,0.11,1721200826378
0.89,-0.60,9.26,0.02,-0.11,0.09,1721200826388
1.64,1.80,11.78,-0.03,0.20,-0.11,1721200826398
-0.48,-0.49,14.07,-0.02,-0.00,-0.13,1721200826408
-5.47,2.42,8.45,0.13,-0.27,0.22,1721200826418
-0.08,0.08,8.43,-0.13,0.28,0.40,1721200826428
2.28,-2.15,14.95,-0.13,-0.10,0.21,1721200826438
-0.23,0.52,10.41,-0.01,-0.19,-0.11,1721200826448
-1.29,-2.08,9.63,-0.22,-0.04,-0.12,1721200826458
-0.21,1.97,11.35,0.03,-0.01,0.28,1721200826468
1.17,-2.59,7.31,-0.19,0.09,0.13,1721200826478
-2.15,1.20,11.85,0.00,-0.25,-0.15,1721200826488
0.35,-6.66,5.16,-0.19,0.01,-0.00,1721200826498
-2.61,4.94,18.74,0.12,-0.02,0.15,1721200826508
0.52,-5.67,4.61,-0.15,0.00,0.10,1721200826518
-1.44,-3.06,12.57,-0.08,-0.21,0.07,1721200826528
0.01,0.25,12.37,-0.05,0.21,0.03,1721200826538
0.38,-0.41,8.57,-0.05,-0.12,0.11,1721200826548
1.76,0.28,7.47,-0.08,0.02,0.03,1721200826558
2.02,1.14,14.63,-0.02,0.08,-0.25,1721200826568
-1.66,-3.17,10.17,0.04,-0.12,-0.09,1721200826578
-2.56,1.09,11.61,-0.08,0.07,-0.00,1721200826588
0.79,-2.35,8.36,-0.08,-0.02,0.05,1721200826598
-3.03,4.35,12.16,-0.01,-0.05,-0.01,1721200826608
0.20,-2.46,6.08,-0.08,0.05,0.03,1721200826618
0.78,-5.44,12.07,-0.15,0.07,-0.03,1721200826628
-0.51,4.36,12.04,0.06,0.10,-0.05,1721200826638
-0.45,4.05,10.24,0.06,-0.03,0.01,1721200826648
0.58,3.34,14.75,0.06,0.13,0.14,1721200826658
2.23,-0.23,6.81,0.08,-0.03,0.07,1721200826668
-0.26,-0.06,12.17,-0.01,0.01,-0.10,1721200826678
-0.70,2.35,13.08,0.12,0.00,-0.02,1721200826688
-2.10,3.63,6.41,0.23,-0.06,0.08,1721200826698
1.41,-0.31,10.14,0.05,0.25,0.12,1721200826708
1.31,-0.22,9.78,0.14,-0.09,-0.02,1721200826718
-0.19,2.09,7.68,0.09,0.10,-0.11,1721200826728
0.14,-1.91,11.90,-0.07,0.09,-0.10,1721200826738
-0.75,2.88,11.14,0.27,0.00,0.05,1721200826748
1.78,0.95,9.97,-0.08,0.28,-0.03,1721200826758
-0.54,3.09,12.55,0.15,-0.13,-0.13,1721200826768
-0.70,3.08,8.88,0.00,0.28,-0.29,1721200826778
-1.07,-2.42,11.56,-0.05,0.07,-0.08,1721200826788
-3.23,4.44,9.48,0.12,0.05,0.08,1721200826798
1.22,-0.10,10.80,-0.05,0.26,0.02,1721200826808
0.86,-3.47,8.95,0.04,-0.15,-0.10,1721200826818
-0.16,5.65,13.82,0.04,0.27,-0.14,1721200826828
0.34,1.20,6.28,0.04,0.02,-0.10,1721200826838
-2.94,-2.34,10.82,-0.14,-0.06,-0.09,1721200826848
0.34,-0.47,10.30,0.05,0.15,0.03,1721200826858
1.90,-1.18,10.07,-0.17,0.14,-0.02,1721200826868
-1.65,-0.13,6.87,-0.00,-0.13,-0.15,1721200826878
0.76,-1.28,14.47,-0.28,0.50,-0.20,1721200826888
-1.60,2.41,10.48,0.17,-0.15,-0.16,1721200826898
-0.35,-4.26,10.31,-0.36,0.28,-0.05,1721200826908
0.14,-0.09,15.40,0.02,-0.03,0.12,1721200826918
2.40,1.07,7.12,-0.14,0.20,0.04,1721200826928
0.34,-1.47,11.74,-0.12,-0.17,-0.21,1721200826938
-2.62,-0.35,13.02,0.00,0.08,-0.17,1721200826948
-3.03,-4.20,8.04,-0.16,0.08,0.02,1721200826958
-2.26,4.28,14.94,0.09,0.06,0.10,1721200826968
0.63,-6.21,0.76,-0.10,-0.07,0.09,1721200826978
-2.15,0.40,16.32,-0.18,0.16,-0.11,1721200826988
0.81,-0.38,3.82,0.09,-0.03,-0.09,1721200826998
-0.49,-4.32,14.85,-0.36,0.33,-0.18,1721200827008
-2.51,2.63,14.23,0.18,-0.15,-0.12,1721200827018
-1.18,0.34,8.61,-0.17,0.18,0.08,1721200827028
-1.70,4.88,12.85,0.28,-0.11,0.18,1721200827038
2.51,-6.63,4.18,-0.07,0.10,0.06,1721200827048
0.78,5.62,13.34,0.25,-0.18,-0.13,1721200827058
2.11,-1.12,6.58,0.02,0.22,-0.23,1721200827068
-4.28,4.75,16.04,0.17,-0.15,-0.28,1721200827078
-3.60,-2.11,10.45,0.01,0.24,-0.17,1721200827088
-4.98,-0.30,7.36,0.19,-0.21,0.27,1721200827098
1.87,-0.44,10.61,0.07,0.52,0.21,1721200827108
5.35,5.69,12.27,0.35,-0.07,-0.06,1721200827118
1.96,2.00,8.61,0.11,-0.02,-0.25,1721200827128
-0.45,0.45,17.49,0.11,0.07,-0.43,1721200827138
-2.54,4.51,8.22,0.34,-0.11,-0.25,1721200827148
-3.16,-0.42,11.07,-0.18,0.24,-0.09,1721200827158
-2.35,3.74,12.52,0.29,-0.14,0.13,1721200827168
0.50,-4.89,1.68,-0.14,0.20,0.01,1721200827178
-2.64,7.47,15.31,0.25,0.03,-0.14,1721200827188
4.14,-2.17,9.43,-0.07,0.28,0.02,1721200827198
-0.28,4.22,17.72,0.13,-0.39,0.10,1721200827208
-0.94,2.26,2.15,0.11,0.18,-0.01,1721200827218
-0.49,1.14,14.50,-0.06,0.09,-0.15,1721200827228
-2.99,1.35,10.94,0.15,-0.09,-0.01,1721200827238
-3.62,-3.62,2.30,-0.17,-0.03,0.08,1721200827248
-1.30,1.06,15.07,-0.05,0.19,-0.04,1721200827258
0.35,-3.01,12.12,-0.04,0.01,0.07,1721200827268
-2.41,4.55,9.00,0.13,-0.17,0.18,1721200827278
3.56,-2.25,8.54,-0.07,0.19,0.00,1721200827288
-0.29,-5.08,11.76,-0.17,-0.20,-0.02,1721200827298
-5.09,2.40,14.32,-0.01,0.01,-0.16,1721200827308
-1.41,-7.29,3.07,-0.15,-0.11,0.24,1721200827318
-2.74,1.86,15.78,-0.04,0.03,0.39,1721200827328
3.76,1.79,9.21,0.05,-0.00,0.17,1721200827338
1.28,2.29,8.34,-0.12,-0.15,-0.20,1721200827348
-2.36,-4.78,11.25,-0.07,-0.15,0.01,1721200827358
-1.94,-4.44,10.52,-0.18,0.16,0.19,1721200827368
-0.57,3.11,12.50,0.07,-0.12,0.36,1721200827378
1.23,-2.98,3.87,-0.20,-0.13,0.17,1721200827388
0.97,0.37,17.04,-0.11,-0.09,0.14,1721200827398
0.53,4.54,8.19,-0.03,0.01,0.02,1721200827408
-1.72,-3.21,10.63,-0.13,-0.15,0.03,1721200827418
-0.39,-1.39,12.78,-0.05,0.08,0.28,1721200827428
0.62,3.06,7.06,0.02,-0.01,0.31,1721200827438
0.47,0.10,12.22,-0.10,0.00,0.10,1721200827448
0.96,4.27,10.58,0.07,-0.09,0.17,1721200827458
1.28,4.00,12.58,-0.06,0.14,0.06,1721200827468
0.55,-0.88,11.37,0.03,-0.23,0.03,1721200827478
-1.62,-1.14,6.04,0.11,-0.11,0.09,1721200827488
-0.24,0.04,10.66,0.02,0.07,0.15,1721200827498
0.98,5.37,11.51,0.27,-0.08,0.22,1721200827508
1.40,-5.44,7.57,-0.14,-0.04,0.06,1721200827518
-1.17,0.74,15.41,0.14,-0.17,0.07,1721200827528
1.33,3.94,9.86,0.01,0.08,0.06,1721200827538
0.10,5.45,10.67,0.15,-0.17,0.08,1721200827548
1.53,-3.29,4.92,-0.12,0.02,0.05,1721200827558
0.22,4.61,17.82,0.19,0.07,-0.10,1721200827568
0.88,-5.95,-0.54,-0.23,-0.20,0.00,1721200827578
-3.37,9.40,21.30,0.13,0.06,0.01,1721200827588
5.09,-7.76,0.94,-0.10,-0.00,0.11,1721200827598
-1.63,-1.03,19.52,-0.09,-0.09,-0.05,1721200827608
-0.07,5.07,4.29,0.08,0.07,-0.16,1721200827618
-1.88,0.49,17.73,-0.33,0.03,-0.11,1721200827628
-2.02,-0.03,11.27,0.21,-0.25,0.08,1721200827638
0.78,-4.23,4.76,-0.18,0.16,0.02,1721200827648
-0.96,3.47,12.12,0.12,-0.21,0.18,1721200827658
3.50,-1.38,8.83,-0.22,0.19,-0.05,1721200827668
-0.28,0.62,14.21,0.05,-0.29,-0.32,1721200827678
-1.29,-1.13,7.10,-0.06,0.11,-0.31,1721200827688
-1.41,-3.53,10.67,-0.13,-0.09,0.02,1721200827698
-4.35,2.18,12.90,0.05,-0.18,0.08,1721200827708
2.72,-2.12,9.09,-0.05,0.13,0.10,1721200827718
-0.28,-4.59,4.34,-0.07,-0.33,-0.15,1721200827728
-5.08,1.69,10.79,-0.05,0.12,-0.23,1721200827738
2.68,-6.74,10.98,-0.22,0.19,-0.11,1721200827748
-4.11,4.03,15.73,0.05,-0.32,-0.11,1721200827758
-1.51,-0.44,3.71,0.04,0.08,-0.01,1721200827768
1.08,-5.47,17.88,-0.13,0.17,0.10,1721200827778
1.37,2.71,10.37,0.17,-0.24,-0.05,1721200827788
2.72,-3.92,6.17,-0.13,0.05,-0.16,1721200827798
-2.21,8.99,19.29,0.25,-0.11,-0.38,1721200827808
-0.86,-5.59,-0.06,-0.09,-0.21,-0.19,1721200827818
-4.61,4.86,15.24,0.11,0.02,-0.21,1721200827828
1.69,-5.04,6.89,-0.03,0.07,-0.14,1721200827838
-1.82,3.79,12.02,0.03,-0.25,-0.21,1721200827848
-1.30,0.87,6.15,0.17,0.17,-0.09,1721200827858
1.00,-4.28,7.77,-0.10,-0.01,-0.13,1721200827868
-0.33,2.74,14.54,0.13,-0.06,-0.27,1721200827878
0.72,4.87,10.11,0.17,0.17,-0.37,1721200827888
-3.72,2.87,12.52,0.03,-0.15,-0.29,1721200827898
-4.32,-1.08,5.05,0.14,-0.10,0.02,1721200827908
0.26,-4.13,9.70,0.02,0.19,0.05,1721200827918
1.32,6.93,10.45,0.23,-0.18,-0.12,1721200827928
1.16,2.76,8.05,-0.02,0.06,-0.26,1721200827938
-2.33,4.59,15.49,0.19,-0.12,-0.38,1721200827948
-2.34,-2.93,6.41,0.09,-0.05,-0.18,1721200827958
-2.03,3.29,8.16,0.07,-0.02,-0.01,1721200827968
0.93,2.28,13.80,0.02,0.12,-0.12,1721200827978
0.02,-1.96,9.16,0.07,-0.20,-0.06,1721200827988
-0.98,6.18,14.94,0.21,0.05,-0.14,1721200827998
1.62,1.41,4.12,0.09,-0.08,-0.10,1721200828008
-2.77,3.02,10.13,-0.17,-0.10,-0.25,1721200828018
-0.88,-0.07,8.54,0.01,-0.09,-0.26,1721200828028
-1.44,-6.16,9.58,-0.18,0.03,-0.22,1721200828038
-3.26,-5.24,9.29,-0.03,-0.15,0.04,1721200828048
-2.07,2.94,10.64,-0.07,0.23,0.05,1721200828058
2.94,-2.52,12.51,-0.12,-0.05,-0.10,1721200828068
0.29,3.53,10.54,-0.01,-0.16,-0.09,1721200828078
-0.91,-0.16,8.24,-0.18,0.16,-0.23,1721200828088
-1.21,-4.80,10.79,-0.05,-0.19,-0.06,1721200828098
0.16,0.75,8.21,-0.18,0.18,-0.01,1721200828108
3.56,-4.11,13.20,-0.12,0.04,0.09,1721200828118
-1.37,4.57,9.57,-0.12,-0.06,-0.28,1721200828128
-0.67,0.14,12.09,-0.14,-0.01,-0.35,1721200828138
-0.60,-1.52,13.00,-0.13,0.17,-0.13,1721200828148
1.18,-2.87,8.49,-0.16,0.27,-0.20,1721200828163
-0.49,-4.57,10.52,-0.23,0.28,-0.15,1721200828167
0.15,2.05,12.83,0.07,0.07,-0.15,1721200828177
0.02,3.73,9.43,0.13,0.01,-0.04,1721200828187
1.16,5.26,14.88,0.07,0.17,0.00,1721200828197
0.68,5.82,7.52,0.20,0.00,-0.20,1721200828207
0.04,-7.27,9.56,-0.19,0.20,-0.55,1721200828217
-2.58,-0.55,8.24,0.28,-0.07,-0.21,1721200828227
-1.50,-0.50,7.89,-0.06,0.35,-0.03,1721200828237
-0.46,4.48,13.69,0.25,-0.06,0.02,1721200828247
3.77,4.27,12.05,0.18,0.34,-0.19,1721200828257
1.17,2.19,7.44,0.24,-0.09,-0.43,1721200828267
-4.87,2.77,11.10,0.09,0.14,-0.63,1721200828277
-4.67,-6.10,12.37,0.13,0.13,-0.05,1721200828287
-2.25,0.85,8.62,0.27,0.17,0.40,1721200828297
3.63,4.18,10.38,0.11,0.33,-0.04,1721200828307
4.83,2.43,10.06,0.18,0.02,-0.31,1721200828317
0.51,2.12,11.36,0.04,0.08,-0.43,1721200828327
-1.91,5.35,16.57,0.28,0.25,-0.43,1721200828337
-2.79,-4.99,7.92,0.02,0.04,-0.14,1721200828347
-2.67,4.57,15.91,0.29,0.18,0.18,1721200828357
3.15,-0.86,11.62,0.02,0.31,-0.03,1721200828367
0.09,9.71,11.94,0.53,-0.09,-0.24,1721200828377
1.53,-0.88,-7.33,0.10,0.20,-0.23,1721200828387
-2.68,5.86,7.15,0.06,0.17,-0.13,1721200828397
1.60,-5.05,9.82,-0.22,-0.11,0.08,1721200828407
5.54,-7.13,7.32,-0.20,0.10,-0.08,1721200828417
1.42,3.76,19.72,0.20,0.36,-0.64,1721200828427
-0.14,-6.71,3.84,-0.10,-0.03,-0.56,1721200828437
-7.93,-2.70,12.95,-0.05,0.12,-0.23,1721200828447
-2.07,0.04,10.64,-0.06,0.36,-0.09,1721200828457
1.69,-1.58,6.98,0.00,0.19,-0.20,1721200828467
-1.07,-0.97,14.24,-0.11,0.21,-0.45,1721200828477
-2.06,-5.82,5.92,-0.05,-0.01,-0.21,1721200828487
-5.81,-0.46,14.51,-0.19,0.32,-0.11,1721200828497
-0.36,-5.76,8.61,-0.11,0.08,0.10,1721200828507
-2.00,1.54,11.00,-0.01,0.03,0.16,1721200828517
2.99,-0.81,8.06,-0.11,0.25,-0.05,1721200828527
0.96,-5.20,13.90,-0.19,-0.04,0.14,1721200828537
-0.98,5.18,13.24,-0.06,0.21,-0.14,1721200828547
0.30,-5.68,9.86,-0.23,0.09,-0.00,1721200828557
-4.81,4.40,9.11,-0.05,-0.28,0.24,1721200828567
2.26,-1.13,7.76,-0.14,0.36,0.11,1721200828577
2.18,-0.04,14.27,-0.00,-0.05,0.09,1721200828587
-1.87,2.09,6.49,-0.05,0.06,-0.10,1721200828597
-3.52,3.41,15.81,-0.00,0.09,-0.11,1721200828607
-2.02,0.17,9.91,-0.02,0.04,0.27,1721200828617
-0.31,8.22,16.60,0.17,0.26,0.27,1721200828627
2.18,-3.57,3.00,-0.05,-0.12,0.17,1721200828637
-2.21,6.90,19.75,0.09,0.14,-0.12,1721200828647
0.34,0.42,4.26,0.28,-0.07,0.03,1721200828657
-2.58,4.23,13.78,0.14,-0.02,0.18,1721200828667
2.21,0.51,2.73,0.35,-0.15,0.30,1721200828677
1.81,-0.44,6.47,-0.14,0.13,-0.08,1721200828687
-1.41,4.70,18.55,0.29,-0.09,-0.15,1721200828697
0.08,1.99,3.99,0.18,0.07,0.05,1721200828707
0.04,-3.44,11.71,-0.12,0.07,0.15,1721200828717
-1.78,3.75,11.25,0.16,-0.06,-0.00,1721200828727
2.56,0.88,12.28,-0.12,0.28,-0.13,1721200828737
-1.05,-0.88,9.77,0.17,-0.41,-0.09,1721200828747
-4.47,-12.69,5.45,-0.26,-0.12,0.17,1721200828757
3.60,10.01,15.05,0.33,0.44,0.28,1721200828767
1.98,-2.90,2.09,-0.40,-0.28,-0.40,1721200828777
-6.80,5.70,20.73,0.05,-0.12,-0.37,1721200828787
-3.08,-11.93,-2.20,-0.36,-0.16,0.03,1721200828797
-8.86,8.72,18.91,0.07,-0.04,0.44,1721200828807
4.03,-3.88,5.34,-0.25,0.25,0.52,1721200828817
2.26,5.93,20.65,0.08,-0.28,0.52,1721200828827
5.60,-5.72,-2.93,-0.20,-0.12,0.03,1721200828837
-1.87,0.44,15.75,-0.26,-0.06,-0.33,1721200828847
1.95,2.22,8.11,0.06,-0.14,-0.26,1721200828857
-2.48,-2.73,10.60,-0.27,0.01,-0.22,1721200828867
-2.82,-2.42,11.75,0.01,-0.10,0.15,1721200828877
1.25,-2.37,11.30,-0.11,0.34,0.15,1721200828887
-0.34,3.49,13.77,0.06,-0.20,-0.09,1721200828897
-2.37,9.72,7.78,0.12,0.04,-0.17,1721200828907
0.38,-3.17,10.32,-0.16,0.22,-0.12,1721200828917
-1.93,-2.35,10.01,0.07,-0.30,0.17,1721200828927
0.72,1.78,5.77,-0.01,0.14,0.04,1721200828937
2.07,-0.54,13.14,-0.15,0.11,-0.19,1721200828947
-2.55,-0.04,14.68,0.03,-0.18,-0.19,1721200828957
-4.41,5.36,4.57,0.17,-0.02,0.00,1721200828967
1.96,-5.01,12.68,-0.16,0.25,0.21,1721200828977
0.16,-1.97,10.72,0.06,-0.41,0.31,1721200828987
0.75,3.75,6.44,0.04,0.26,-0.00,1721200828997
1.33,-4.64,10.14,-0.06,-0.14,-0.29,1721200829007
-4.40,-6.39,9.61,-0.09,-0.32,0.06,1721200829017
-1.05,7.49,19.24,0.17,0.37,0.17,1721200829027
5.46,-1.07,5.52,0.17,-0.11,0.21,1721200829037
-0.77,-2.67,2.66,0.02,-0.21,0.06,1721200829047
0.20,-2.22,15.86,-0.16,0.36,-0.21,1721200829057
-2.51,4.30,14.16,0.20,-0.33,0.02,1721200829067
-0.26,-2.99,5.48,-0.06,0.16,0.08,1721200829077
2.61,0.16,16.57,0.05,0.04,0.21,1721200829087
2.24,4.12,3.55,0.06,-0.06,-0.06,1721200829097
-0.59,5.60,12.52,0.03,0.24,-0.52,1721200829107
-0.18,-9.70,7.44,-0.07,-0.18,-0.22,1721200829117
-6.51,3.46,13.34,0.14,-0.12,0.02,1721200829127
0.15,-0.28,10.86,-0.05,0.28,0.26,1721200829137
1.05,1.59,11.32,0.05,-0.20,0.14,1721200829147
3.65,3.21,7.92,0.05,0.19,-0.13,1721200829157
2.21,-3.68,8.94,-0.07,-0.11,-0.25,1721200829167
-4.12,3.44,16.28,0.06,-0.04,-0.26,1721200829177
-0.49,3.19,8.68,0.07,0.17,0.05,1721200829187
0.30,-2.60,9.53,0.02,-0.09,0.04,1721200829197
1.49,1.45,12.08,0.18,0.10,-0.12,1721200829207
1.57,-0.38,5.99,-0.07,0.08,-0.20,1721200829217
-3.46,6.54,14.87,0.24,-0.02,-0.32,1721200829227
-0.68,-8.85,3.84,-0.12,0.13,-0.14,1721200829237
-4.36,9.81,18.80,0.23,-0.09,0.16,1721200829247
2.67,0.94,0.89,0.02,0.19,0.04,1721200829257
-0.19,0.70,14.77,-0.03,-0.01,-0.20,1721200829267
-0.63,-2.55,6.75,0.06,0.01,-0.11,1721200829277
-0.67,-0.20,11.91,-0.11,0.09,-0.00,1721200829287
-2.11,5.72,7.80,0.15,-0.15,-0.06,1721200829297
1.13,-1.38,11.75,-0.26,0.25,-0.05,1721200829307
0.67,1.64,15.86,0.21,-0.14,-0.09,1721200829317
-1.13,0.21,3.11,-0.07,0.02,-0.32,1721200829327
-5.65,3.72,12.42,-0.07,-0.12,-0.16,1721200829337
-2.29,3.30,14.99,0.04,0.24,0.17,1721200829347
1.93,-5.18,1.80,-0.05,-0.12,0.34,1721200829357
0.20,3.50,8.55,-0.12,-0.01,0.08,1721200829367
6.16,3.26,15.69,0.03,0.28,-0.29,1721200829377
2.53,-3.47,12.47,-0.01,-0.11,-0.38,1721200829387
-3.97,0.14,7.57,0.04,-0.04,-0.15,1721200829397
-2.71,3.46,9.79,-0.02,0.09,0.04,1721200829407
1.94,2.61,13.54,0.01,0.09,0.05,1721200829417
2.93,-2.53,5.40,-0.04,-0.06,-0.13,1721200829427
-1.50,-5.20,9.11,-0.13,-0.14,-0.25,1721200829437
-2.89,2.28,9.89,0.03,0.10,-0.18,1721200829447
-0.43,-0.77,13.74,-0.22,0.24,-0.15,1721200829457
-2.79,7.83,14.44,0.29,-0.21,0.13,1721200829467
2.95,-6.10,4.70,-0.19,0.26,0.22,1721200829477
1.19,1.47,16.26,0.04,-0.20,-0.01,1721200829487
1.81,-0.23,2.15,-0.05,0.05,-0.35,1721200829497
-3.72,2.23,15.13,-0.03,-0.00,-0.56,1721200829507
-5.87,-1.65,4.41,0.01,-0.11,-0.08,1721200829517
-2.50,1.83,18.29,-0.10,0.40,0.34,1721200829527
2.41,2.11,6.49,0.11,-0.18,0.22,1721200829537
2.43,-4.38,9.84,-0.35,0.15,-0.28,1721200829547
0.40,6.17,15.24,0.35,-0.06,-0.51,1721200829557
-3.48,-5.80,2.05,-0.12,-0.09,-0.24,1721200829567
-6.41,7.18,14.03,0.22,-0.38,0.34,1721200829577
4.58,-5.10,2.45,-0.12,0.37,0.46,1721200829587
3.26,3.90,20.03,-0.01,-0.13,0.01,1721200829597
2.42,3.80,6.14,0.13,0.04,-0.43,1721200829607
-3.85,-7.08,9.66,-0.24,-0.16,-0.41,1721200829617
-6.96,3.49,14.17,0.24,-0.08,0.11,1721200829627
1.78,0.77,9.24,-0.02,0.21,0.48,1721200829637
0.95,5.79,11.45,0.18,-0.39,0.18,1721200829647
2.35,-4.09,6.96,-0.10,0.14,-0.12,1721200829657
0.94,-0.52,18.26,-0.01,-0.06,-0.23,1721200829667
-2.24,-0.43,5.22,0.03,-0.21,-0.18,1721200829677
-4.47,5.08,11.22,0.05,0.07,-0.11,1721200829687
-1.70,-2.00,6.56,0.06,-0.13,0.13,1721200829697
-0.83,4.62,13.99,0.12,-0.01,0.26,1721200829707
4.72,-4.47,5.15,-0.01,-0.06,0.16,1721200829717
0.80,-0.50,13.12,-0.03,-0.10,-0.12,1721200829727
-0.74,-0.10,9.77,0.03,-0.06,-0.15,1721200829737
-3.26,2.19,8.76,0.08,-0.20,-0.01,1721200829747
0.68,-1.11,15.02,-0.01,0.20,0.06,1721200829757
1.72,2.37,8.65,0.14,-0.29,0.10,1721200829767
0.22,2.47,7.12,-0.12,0.13,-0.18,1721200829777
1.19,2.76,18.34,0.04,0.07,-0.29,1721200829787
-2.34,-0.99,3.01,0.09,-0.36,-0.04,1721200829797
-1.54,-5.25,12.37,-0.29,0.19,0.15,1721200829807
1.51,4.32,19.42,0.21,-0.02,-0.08,1721200829817
0.65,2.33,2.75,-0.07,-0.31,-0.15,1721200829827
-2.12,6.90,13.64,0.12,-0.01,-0.22,1721200829837
2.71,-5.17,4.63,0.04,0.04,-0.22,1721200829847
-2.43,-1.61,9.77,-0.12,-0.22,-0.25,1721200829857
-3.16,1.87,14.31,0.07,0.06,-0.19,1721200829867
0.01,2.98,11.91,0.07,0.12,0.06,1721200829877
2.06,3.10,9.33,0.12,-0.10,-0.06,1721200829887
1.68,-3.06,6.31,-0.08,-0.17,-0.18,1721200829897
-0.98,6.17,14.49,0.18,-0.01,-0.24,1721200829907
2.51,-2.38,9.70,-0.12,0.14,-0.41,1721200829917
-3.29,2.99,11.63,0.23,-0.40,-0.23,1721200829927
-1.31,-1.33,3.62,-0.10,0.24,-0.15,1721200829937
-1.09,-0.95,16.58,-0.08,-0.10,-0.04,1721200829947
-0.45,5.03,7.97,0.09,-0.07,-0.08,1721200829957
2.20,2.66,10.11,-0.15,0.20,-0.34,1721200829967
-1.06,-0.35,10.52,0.05,-0.19,-0.30,1721200829977
-2.00,-2.16,10.70,-0.11,0.16,-0.11,1721200829987
-2.26,0.76,9.33,0.12,-0.18,0.01,1721200829997
-1.38,0.94,9.71,-0.07,0.05,-0.02,1721200830007
0.27,3.86,15.50,0.15,-0.08,-0.07,1721200830017
0.75,-1.28,6.52,-0.06,-0.02,-0.10,1721200830027
-1.51,1.69,13.11,-0.06,0.02,-0.24,1721200830037
-0.89,-2.37,7.28,-0.01,-0.18,-0.17,1721200830047
-1.73,3.19,14.48,0.07,0.07,0.06,1721200830057
0.96,0.66,5.44,0.08,0.03,-0.03,1721200830067
-0.22,-2.78,10.68,-0.15,-0.17,-0.14,1721200830077
-1.25,3.17,12.43,0.10,0.03,-0.16,1721200830087
-0.32,1.04,6.18,-0.09,0.02,-0.18,1721200830097
-2.08,-3.45,11.10,-0.03,-0.15,-0.04,1721200830107
-0.79,-2.68,8.96,-0.00,0.05,0.04,1721200830117
0.29,1.03,12.80,-0.10,-0.05,0.00,1721200830127
1.05,7.45,13.36,0.01,0.01,-0.07,1721200830137
2.15,-5.26,5.40,-0.26,-0.06,-0.12,1721200830147
-2.28,-6.35,12.92,-0.15,-0.16,-0.13,1721200830157
-1.19,-1.29,10.67,-0.04,0.01,0.05,1721200830172
-2.16,2.24,9.84,-0.03,-0.12,0.01,1721200830176
1.07,2.98,9.56,-0.02,0.02,-0.05,1721200830186
1.93,3.25,9.45,-0.03,-0.08,-0.05,1721200830196
2.16,1.48,13.26,-0.07,0.13,-0.19,1721200830206
-1.83,1.48,6.76,0.05,-0.24,-0.14,1721200830216
-0.79,-4.22,11.92,-0.28,0.21,-0.14,1721200830226
-0.48,-2.80,12.64,0.06,-0.18,-0.09,1721200830236
-0.38,0.18,8.74,0.07,0.01,0.00,1721200830246
0.74,4.09,11.11,0.10,0.00,-0.00,1721200830256
1.73,5.39,14.38,-0.02,0.10,-0.16,1721200830266
1.57,-0.18,7.62,-0.02,-0.10,-0.23,1721200830276
-0.42,-1.62,9.90,-0.06,0.12,-0.38,1721200830286
-1.01,-5.03,8.57,0.12,-0.06,-0.05,1721200830296
-0.58,1.05,12.48,0.13,0.12,-0.04,1721200830306
3.27,9.39,14.73,0.32,0.19,-0.19,1721200830316
3.43,-5.98,1.84,-0.02,-0.18,-0.28,1721200830326
-3.88,4.24,13.87,0.04,0.20,-0.55,1721200830336
-0.03,1.89,13.24,0.10,0.19,-0.34,1721200830346
-1.76,-5.04,6.05,0.08,-0.21,0.10,1721200830356
-0.25,2.23,8.54,0.20,0.21,-0.11,1721200830366
3.26,-0.05,8.19,0.07,0.17,-0.47,1721200830376
-2.60,0.50,14.99,0.08,-0.13,-0.40,1721200830386
-2.35,-3.70,7.29,0.13,0.17,-0.19,1721200830396
-1.56,1.29,13.41,0.10,0.20,-0.07,1721200830406
2.70,-1.64,7.10,0.02,0.11,-0.17,1721200830416
1.90,3.03,16.88,0.12,0.20,-0.50,1721200830426
-0.58,3.55,9.39,0.23,0.04,-0.36,1721200830436
-2.06,-1.16,2.31,-0.01,0.23,-0.18,1721200830446
-1.65,-4.85,10.45,-0.05,0.15,-0.24,1721200830456
-0.89,2.52,18.02,0.07,0.29,-0.38,1721200830466
-0.39,1.22,8.13,0.19,0.01,-0.18,1721200830476
0.22,4.27,11.58,0.09,0.26,-0.14,1721200830486
2.32,-1.45,6.42,0.09,0.22,-0.33,1721200830496
-2.97,1.10,8.73,-0.00,0.12,-0.46,1721200830506
-4.10,2.07,15.06,0.12,0.22,-0.20,1721200830516
-1.04,-0.30,5.26,0.18,0.14,0.13,1721200830526
0.32,2.30,11.36,0.02,0.23,-0.08,1721200830536
0.54,1.59,9.90,0.12,0.10,-0.19,1721200830546
-0.44,2.84,11.37,-0.04,0.21,-0.28,1721200830556
-1.87,2.12,5.93,0.14,0.04,-0.19,1721200830566
-1.07,-2.41,10.59,-0.17,0.36,-0.11,1721200830576
-1.48,4.02,12.97,0.18,0.09,0.03,1721200830586
0.36,1.00,6.22,-0.13,0.14,-0.05,1721200830596
-1.84,3.29,8.38,0.14,-0.10,-0.07,1721200830606
1.66,-3.01,10.66,-0.21,0.41,-0.13,1721200830616
-1.01,2.98,14.21,0.17,-0.15,-0.07,1721200830626
-3.00,3.12,8.44,-0.17,0.20,-0.11,1721200830636
-3.18,1.46,13.37,0.00,-0.05,0.08,1721200830646
1.98,-6.11,7.46,-0.22,0.15,0.13,1721200830656
2.26,3.02,11.31,0.09,-0.04,-0.03,1721200830666
3.16,2.60,7.82,-0.07,0.26,-0.29,1721200830676
-2.29,0.08,13.09,-0.03,-0.07,-0.40,1721200830686
-5.57,-5.09,6.24,-0.14,-0.02,-0.05,1721200830696
-2.50,-0.06,15.15,-0.15,0.24,0.28,1721200830706
3.12,-0.06,8.59,-0.03,0.02,0.26,1721200830716
2.48,2.49,10.07,-0.14,-0.00,-0.27,1721200830726
2.67,-2.42,11.94,-0.11,0.23,-0.51,1721200830736
-3.52,-0.21,11.67,-0.02,-0.09,-0.19,1721200830746
-3.49,0.88,10.51,-0.14,0.05,0.20,1721200830756
-0.29,1.19,7.45,-0.17,-0.11,0.21,1721200830766
2.32,0.34,9.92,-0.18,0.19,-0.16,1721200830776
1.89,-2.64,11.72,-0.12,0.08,-0.22,1721200830786
-3.04,1.65,8.13,-0.08,-0.13,-0.10,1721200830796
-2.18,5.08,12.10,-0.12,0.13,-0.03,1721200830806
-1.03,0.64,12.31,-0.14,-0.05,0.01,1721200830816
-1.01,3.36,7.39,0.06,-0.05,-0.03,1721200830826
2.03,-6.48,12.31,-0.33,0.19,0.00,1721200830836
-2.46,4.48,13.04,0.03,-0.25,-0.00,1721200830846
-0.82,8.19,13.02,-0.01,0.40,-0.33,1721200830856
-2.20,-2.75,9.07,0.06,-0.44,-0.14,1721200830866
-2.67,-0.02,11.37,0.04,0.26,0.19,1721200830876
5.15,-1.49,15.30,0.06,0.15,0.17,1721200830886
-1.46,6.08,5.44,0.25,-0.31,-0.15,1721200830896
-0.64,-1.41,10.28,-0.13,0.38,-0.53,1721200830906
-2.22,-0.86,16.12,0.24,-0.32,-0.08,1721200830916
-1.53,-1.88,3.72,0.02,0.24,0.12,1721200830926
0.93,2.10,13.37,0.11,0.04,0.01,1721200830936
0.85,1.69,8.88,0.13,0.02,-0.26,1721200830946
1.09,-1.72,10.95,0.07,-0.04,-0.26,1721200830956
-2.10,-5.33,8.77,0.16,-0.11,-0.11,1721200830966
-3.08,1.95,11.25,0.07,0.28,-0.09,1721200830976
1.52,1.95,14.42,-0.02,0.15,0.00,1721200830986
1.13,2.82,13.27,0.11,-0.04,-0.05,1721200830996
1.26,-5.13,5.59,-0.04,0.06,-0.25,1721200831006
-2.19,-2.96,6.10,0.08,-0.06,-0.36,1721200831016
-1.15,2.57,14.48,0.05,0.44,-0.21,1721200831026
-0.71,6.78,14.75,0.25,0.05,-0.01,1721200831036
-0.28,-4.13,5.35,-0.17,-0.02,0.00,1721200831046
-0.96,-0.55,14.43,-0.08,0.12,-0.23,1721200831056
2.36,1.12,10.62,0.12,0.22,-0.33,1721200831066
0.53,0.10,11.70,-0.01,0.13,-0.31,1721200831076
-4.50,-0.34,5.16,0.10,-0.18,-0.07,1721200831086
-3.73,6.54,15.34,0.07,0.37,0.02,1721200831096
2.72,0.90,8.26,0.17,-0.10,0.04,1721200831106
2.40,-4.28,11.75,-0.22,0.20,-0.10,1721200831116
-1.68,4.22,9.61,0.28,-0.16,-0.35,1721200831126
-0.86,-2.70,5.26,0.04,0.28,-0.35,1721200831136
-1.55,-0.61,18.62,0.16,0.09,0.08,1721200831146
-0.96,5.52,9.87,0.27,0.08,0.10,1721200831156
1.67,4.46,8.85,0.07,0.18,-0.12,1721200831166
0.52,1.50,8.07,0.14,-0.02,-0.23,1721200831176
1.58,-5.54,12.42,-0.02,0.38,-0.23,1721200831186
-1.91,1.40,15.48,0.27,-0.05,-0.14,1721200831196
-2.86,6.04,1.75,0.21,-0.04,0.04,1721200831206
1.23,-1.71,10.50,-0.14,0.32,0.02,1721200831216
2.28,1.07,15.74,0.11,0.12,-0.10,1721200831226
1.62,-1.53,4.09,-0.08,0.12,-0.23,1721200831236
-2.62,2.44,14.69,-0.05,0.06,-0.33,1721200831246
-1.01,1.26,12.49,0.01,0.28,-0.18,1721200831256
-2.61,5.17,11.26,0.25,0.03,0.04,1721200831266
0.40,-4.92,4.51,-0.28,0.19,0.13,1721200831276
-0.72,5.03,18.65,0.18,0.05,-0.05,1721200831286
1.35,-3.49,7.80,-0.18,0.23,-0.28,1721200831296
-4.95,7.14,12.57,0.24,-0.25,-0.13,1721200831306
0.34,-2.47,2.93,-0.15,0.43,0.15,1721200831316
-0.44,4.35,14.45,0.05,0.06,0.12,1721200831326
0.15,-3.52,6.68,-0.18,0.09,-0.11,1721200831336
-2.75,-2.53,9.39,-0.11,-0.18,-0.02,1721200831346
-1.73,3.78,11.81,0.00,0.29,0.03,1721200831356
1.00,0.06,13.85,-0.21,0.24,-0.00,1721200831366
-3.71,-1.52,9.44,-0.03,-0.36,0.06,1721200831376
0.25,0.61,9.42,-0.12,0.31,0.11,1721200831386
1.69,1.90,12.96,-0.02,0.05,-0.02,1721200831396
-2.71,-2.34,8.70,-0.19,-0.09,-0.11,1721200831406
-3.21,-0.33,10.78,-0.02,0.06,0.16,1721200831416
-0.47,-0.71,4.86,-0.10,0.08,0.19,1721200831426
0.85,1.38,14.92,-0.13,0.03,0.05,1721200831436
2.13,3.77,11.25,0.08,-0.09,0.02,1721200831446
0.90,-5.17,6.14,-0.24,0.10,-0.02,1721200831456
-3.01,4.80,15.66,-0.01,-0.04,-0.10,1721200831466
0.92,-1.15,8.85,-0.13,0.05,0.09,1721200831476
-1.53,-0.58,10.21,0.02,-0.18,0.06,1721200831486
1.35,0.80,8.12,0.14,0.22,0.09,1721200831496
3.62,3.15,11.83,0.02,0.19,0.06,1721200831506
-0.37,1.76,12.16,0.03,-0.16,-0.08,1721200831516
-2.06,-0.63,7.98,0.03,-0.01,-0.15,1721200831526
-0.48,1.91,12.91,0.02,0.19,-0.11,1721200831536
-0.08,-4.26,8.10,-0.03,-0.10,0.10,1721200831546
-0.61,-1.87,14.01,0.02,0.17,0.08,1721200831556
1.17,1.90,12.06,0.15,0.20,-0.08,1721200831566
-0.84,4.18,7.30,0.17,-0.15,0.07,1721200831576
-0.62,1.58,10.26,0.05,0.18,-0.02,1721200831586
0.81,-3.63,13.45,0.07,0.06,-0.12,1721200831596
-0.38,-3.60,11.11,0.10,-0.06,0.12,1721200831606
-0.88,1.78,11.02,0.08,0.04,0.10,1721200831616
0.13,3.00,5.24,0.11,-0.06,0.07,1721200831626
2.79,-1.46,8.78,-0.08,0.25,-0.16,1721200831636
0.89,-1.35,15.67,0.10,0.10,-0.27,1721200831646
-5.49,-2.84,5.81,0.04,-0.18,-0.06,1721200831656
-5.95,4.02,14.46,0.01,0.22,0.24,1721200831666
2.54,3.60,10.44,0.13,0.08,0.40,1721200831676
4.97,-6.55,3.94,-0.14,-0.17,0.12,1721200831686
-0.17,0.36,14.26,0.01,0.05,-0.30,1721200831696
-1.08,5.08,8.01,0.08,0.20,-0.18,1721200831706
-2.81,1.92,9.30,0.03,-0.07,0.14,1721200831716
0.79,-5.47,9.40,-0.07,0.12,0.25,1721200831726
2.21,2.41,12.18,0.17,0.09,0.05,1721200831736
2.56,2.96,12.39,0.00,0.28,-0.24,1721200831746
-1.60,-0.77,10.74,-0.01,-0.15,-0.05,1721200831756
-2.95,1.30,5.59,0.16,-0.04,0.21,1721200831766
4.34,-1.35,10.97,-0.06,0.47,0.02,1721200831776
2.29,-0.02,8.53,0.15,-0.17,-0.07,1721200831786
-1.25,7.15,14.94,0.13,0.37,-0.25,1721200831796
-0.34,-2.05,13.06,0.10,0.17,-0.11,1721200831806
-3.98,0.69,7.25,0.28,-0.06,0.15,1721200831816
0.66,-0.12,3.15,0.01,0.39,0.16,1721200831826
2.72,6.17,18.47,0.21,0.26,-0.09,1721200831836
2.11,-1.42,5.49,0.13,-0.01,-0.22,1721200831846
-4.26,3.99,10.90,0.06,0.10,-0.12,1721200831856
-1.42,5.30,11.53,0.10,0.31,-0.05,1721200831866
1.50,-0.02,13.41,-0.09,0.13,0.08,1721200831876
-1.32,-3.91,7.98,0.10,-0.12,-0.03,1721200831886
-2.33,0.43,5.26,0.04,0.18,-0.13,1721200831896
-0.52,1.67,11.39,0.02,0.21,-0.10,1721200831906
-1.98,7.71,10.71,0.10,-0.01,0.04,1721200831916
-0.71,0.42,10.94,-0.23,0.10,0.08,1721200831926
-1.54,-6.70,10.25,-0.04,-0.06,0.15,1721200831936
2.73,-4.18,12.51,-0.19,0.37,-0.00,1721200831946
3.45,1.83,13.52,0.25,-0.10,0.02,1721200831956
1.76,2.23,4.31,-0.03,0.13,-0.23,1721200831966
-3.02,1.94,8.68,-0.17,-0.04,-0.30,1721200831976
-5.20,0.79,11.94,-0.24,0.08,-0.02,1721200831986
-0.70,-9.94,10.89,-0.28,0.15,0.13,1721200831996
1.53,1.59,16.62,0.17,-0.04,0.35,1721200832006
5.53,2.61,0.71,0.03,0.04,0.10,1721200832016
2.66,1.38,7.69,-0.29,0.07,-0.40,1721200832026
-1.90,-5.57,15.02,-0.36,0.12,-0.45,1721200832036
-5.15,1.96,14.22,0.05,-0.11,-0.05,1721200832046
0.08,-4.87,7.29,-0.32,0.26,0.19,1721200832056
-1.78,7.39,12.19,0.11,-0.08,0.06,1721200832066
0.96,-4.74,7.00,-0.34,0.30,-0.13,1721200832076
-1.37,3.95,20.15,-0.10,-0.05,-0.05,1721200832086
0.91,4.70,4.05,0.07,0.03,-0.04,1721200832096
0.98,0.14,10.28,-0.08,0.04,-0.08,1721200832106
0.97,-1.84,10.95,0.04,0.12,-0.25,1721200832116
-3.43,-1.53,13.01,-0.15,-0.14,0.10,1721200832675
-0.55,3.61,13.09,0.04,-0.31,-0.01,1721200832679
-1.40,-4.72,2.24,-0.09,-0.09,-0.08,1721200832688
-3.26,5.46,14.65,0.03,0.09,0.07,1721200832698
0.31,-1.27,13.23,-0.19,-0.10,0.12,1721200832707
-5.48,3.84,13.10,0.06,-0.43,0.39,1721200832717
2.02,1.96,2.76,0.05,0.24,0.31,1721200832727
3.98,-3.24,12.50,-0.08,-0.15,0.01,1721200832737
-0.72,-0.66,16.27,0.07,-0.20,-0.03,1721200832746
-2.36,1.75,6.51,0.09,-0.07,0.16,1721200832756
-3.16,2.98,11.84,0.08,-0.20,0.21,1721200832765
-0.69,1.08,6.85,0.08,-0.19,0.29,1721200832775
-0.97,1.24,9.17,0.01,-0.24,0.33,1721200832784
3.40,-2.71,15.30,0.05,0.06,0.23,1721200832794
0.52,-3.26,7.69,0.25,-0.52,0.22,1721200832803
0.72,3.07,8.59,-0.06,-0.01,0.24,1721200832813
1.75,11.56,16.63,0.17,-0.12,-0.05,1721200832823
1.40,-4.60,4.60,-0.03,-0.37,-0.03,1721200832833
-4.19,-10.59,12.57,-0.22,-0.17,-0.04,1721200832842
-1.21,0.89,13.02,0.19,-0.01,0.33,1721200832852
2.11,5.82,5.76,-0.02,-0.20,0.21,1721200832862
1.99,0.05,11.50,-0.05,-0.31,-0.15,1721200832872
-0.26,0.55,17.01,0.06,0.02,-0.26,1721200832882
-2.84,-4.24,9.05,-0.01,-0.27,0.05,1721200832892
-4.14,1.76,5.47,0.01,-0.25,0.25,1721200832902
5.94,2.56,15.02,-0.00,0.15,0.13,1721200832912
5.43,-1.50,6.76,0.11,-0.49,-0.14,1721200832922
-1.15,-1.10,9.90,-0.16,0.07,-0.41,1721200832932
-1.61,3.58,15.86,0.14,0.02,-0.25,1721200832942
-1.36,-0.25,9.25,0.07,-0.25,-0.03,1721200832952
-0.90,2.04,4.16,0.12,-0.18,0.22,1721200832962
4.67,5.50,14.69,-0.03,0.38,-0.19,1721200832972
3.25,-0.69,10.00,0.10,-0.36,-0.40,1721200832982
-4.64,-3.33,7.40,-0.00,-0.13,-0.36,1721200832992
-2.65,-9.09,7.74,-0.18,0.09,-0.10,1721200833002
-1.99,7.27,18.93,0.33,-0.11,0.10,1721200833012
4.45,6.62,8.39,0.19,0.18,0.04,1721200833022
2.62,2.56,7.26,0.08,-0.27,-0.28,1721200833032
0.31,-4.02,9.78,-0.23,0.16,-0.50,1721200833042
-2.52,-0.75,16.36,0.12,-0.00,-0.38,1721200833052
-2.67,2.67,7.84,0.23,0.05,0.02,1721200833062
2.92,3.42,8.36,0.08,0.20,0.03,1721200833072
2.06,-0.23,5.80,-0.09,-0.26,-0.45,1721200833082
-3.41,3.65,20.67,-0.12,0.09,-0.55,1721200833092
-3.00,-0.61,8.32,0.15,-0.00,-0.07,1721200833102
-1.05,-2.06,4.13,-0.18,0.18,0.12,1721200833112
1.64,0.43,12.67,0.06,0.03,-0.12,1721200833122
2.17,1.05,6.95,0.05,-0.00,-0.35,1721200833132
-1.96,1.69,9.94,-0.09,0.07,-0.41,1721200833142
-4.25,-0.64,12.29,-0.11,0.02,-0.19,1721200833152
-2.50,0.75,11.35,-0.04,0.07,0.14,1721200833162
1.32,1.43,4.92,0.04,-0.13,0.17,1721200833172
4.01,1.33,12.47,-0.30,0.26,-0.37,1721200833182
-0.28,0.84,10.59,0.08,-0.24,-0.46,1721200833192
-3.35,-7.33,6.36,-0.47,0.19,-0.39,1721200833202
-5.69,1.30,23.36,0.08,-0.12,0.12,1721200833212
-0.78,-2.23,4.13,-0.14,0.01,0.21,1721200833222
1.43,6.68,10.78,-0.07,0.08,-0.02,1721200833232
4.65,-0.33,9.23,-0.19,0.11,-0.19,1721200833242
-3.20,-3.65,7.92,-0.15,-0.50,-0.22,1721200833252
-1.68,0.76,10.58,-0.03,0.36,-0.10,1721200833262
0.79,1.19,16.09,0.02,0.02,-0.03,1721200833272
-2.87,0.35,4.39,-0.16,-0.38,-0.01,1721200833282
-0.85,7.75,13.98,0.11,0.26,-0.04,1721200833292
4.79,-7.45,5.95,-0.15,0.06,-0.16,1721200833302
-3.76,7.62,19.52,0.01,-0.11,-0.29,1721200833312
-1.58,0.01,3.57,0.25,-0.17,-0.06,1721200833322
-2.81,-0.04,13.63,-0.09,0.12,-0.03,1721200833332
1.29,2.22,9.72,0.17,0.04,0.04,1721200833342
1.62,0.62,13.54,-0.08,-0.04,-0.15,1721200833352
-2.37,1.39,8.95,0.23,-0.38,-0.38,1721200833362
-1.69,-0.37,13.26,0.06,0.32,-0.15,1721200833372
0.14,-5.55,6.41,0.19,-0.31,0.24,1721200833382
-1.97,5.43,4.80,0.26,0.25,0.01,1721200833392
4.20,-3.33,13.66,-0.17,0.08,-0.32,1721200833402
-1.55,3.92,14.99,0.22,-0.61,-0.31,1721200833412
-0.87,-3.25,5.40,0.11,0.30,-0.17,1721200833422
-0.60,0.12,15.08,0.14,-0.10,0.11,1721200833432
1.70,5.42,11.39,0.16,0.04,0.12,1721200833442
1.92,-0.11,7.23,-0.08,-0.21,-0.38,1721200833452
-0.36,-3.65,11.91,0.14,0.01,-0.59,1721200833462
-1.02,-6.44,10.24,0.02,0.18,-0.27,1721200833472
-6.01,10.28,10.32,0.23,-0.23,-0.13,1721200833482
-0.39,2.33,4.89,-0.08,0.17,-0.03,1721200833492
2.99,-0.68,15.81,0.08,-0.09,-0.18,1721200833502
0.93,-5.74,8.50,-0.06,-0.05,-0.34,1721200833512
-2.27,-1.19,18.51,0.08,0.01,-0.24,1721200833522
-2.80,4.19,0.74,0.32,-0.10,-0.28,1721200833532
-1.94,6.71,14.54,-0.03,0.43,-0.32,1721200833542
1.07,-0.20,9.79,0.16,-0.08,0.01,1721200833552
1.58,-1.27,16.24,-0.22,0.27,-0.24,1721200833562
0.82,-3.85,6.16,0.06,-0.44,-0.44,1721200833572
-4.73,5.43,9.79,0.05,0.20,-0.52,1721200833582
-0.02,-0.15,13.08,0.14,0.36,-0.26,1721200833592
-2.47,6.48,11.50,0.17,0.00,-0.11,1721200833602
2.02,-1.74,8.80,-0.29,0.23,-0.35,1721200833612
-0.92,-0.23,8.66,0.08,-0.28,-0.34,1721200833622
-2.77,2.00,16.72,-0.09,0.52,-0.51,1721200833632
-1.82,-2.47,7.46,0.31,-0.18,-0.18,1721200833642
-2.92,1.76,1.16,-0.13,0.01,0.12,1721200833652
4.04,9.49,20.56,0.17,0.50,-0.19,1721200833662
4.47,-0.18,3.86,0.09,-0.07,-0.48,1721200833672
-4.23,3.39,14.60,-0.12,0.13,-0.60,1721200833682
-2.16,-3.14,7.17,-0.03,0.10,-0.20,1721200833692
-0.17,8.22,15.16,0.22,0.30,-0.06,1721200833702
4.35,-0.12,-0.45,-0.12,0.13,-0.42,1721200833712
-3.59,-1.20,11.07,-0.17,-0.16,-0.55,1721200833722
-5.78,0.97,15.13,0.05,0.42,-0.39,1721200833732
-3.84,-2.31,9.91,0.21,0.06,0.04,1721200833742
-1.05,2.97,12.97,0.05,0.20,0.20,1721200833752
2.18,1.44,8.78,0.12,0.08,0.00,1721200833762
0.05,-0.92,5.57,-0.05,0.00,-0.22,1721200833772
-2.85,-6.20,6.81,-0.26,0.01,-0.21,1721200833782
-2.40,2.24,13.71,0.16,0.09,0.04,1721200833792
3.50,-1.20,10.27,-0.11,0.34,-0.04,1721200833802
-1.44,-1.98,13.42,-0.04,-0.25,-0.09,1721200833812
-3.91,7.30,7.45,0.13,0.14,-0.12,1721200833822
2.12,-1.77,5.09,-0.13,0.41,0.05,1721200833832
0.68,-7.20,7.65,-0.21,-0.13,0.03,1721200833842
0.40,0.22,17.20,0.08,0.18,-0.03,1721200833852
1.47,2.16,8.38,0.03,0.03,-0.14,1721200833862
-1.23,-2.04,13.47,-0.22,0.10,-0.10,1721200833872
-3.15,3.13,10.93,0.10,0.05,-0.08,1721200833882
1.21,-4.05,10.99,-0.23,0.29,0.01,1721200833892
-2.50,-5.48,5.82,-0.05,-0.29,0.09,1721200833902
-2.31,6.57,15.00,0.01,0.36,-0.18,1721200833912
2.50,1.52,2.76,0.15,0.00,0.07,1721200833922
-3.26,0.75,16.79,-0.17,0.12,-0.21,1721200833932
-2.37,-0.42,8.24,0.17,-0.01,0.01,1721200833942
-0.55,-2.93,7.08,-0.20,0.16,0.05,1721200833952
-0.32,10.59,18.06,0.36,0.05,0.03,1721200833962
5.35,-6.79,4.49,-0.24,0.07,-0.02,1721200833972
-2.10,1.70,15.02,0.10,-0.28,-0.11,1721200833982
0.03,-1.47,6.34,-0.00,0.51,-0.19,1721200833992
-0.74,0.01,14.82,0.20,-0.07,0.12,1721200834002
-0.41,2.13,4.45,-0.01,0.14,0.05,1721200834012
1.13,6.96,14.85,0.25,0.17,-0.12,1721200834022
2.17,-4.17,3.04,-0.13,0.01,-0.25,1721200834032
-4.24,1.20,13.94,0.05,-0.08,-0.12,1721200834042
-0.77,-4.25,7.72,-0.04,0.23,-0.11,1721200834052
-0.03,0.40,11.84,0.09,0.01,0.02,1721200834062
0.50,4.87,7.40,0.14,0.20,-0.01,1721200834072
0.27,2.47,13.69,-0.21,0.20,-0.28,1721200834082
-3.02,-1.85,9.26,0.16,-0.25,-0.21,1721200834092
-0.98,-0.11,10.52,-0.08,0.50,0.02,1721200834102
2.17,-6.82,10.15,-0.06,-0.00,0.11,1721200834112
-1.49,6.60,13.35,0.18,-0.00,0.14,1721200834122
3.12,3.68,5.21,0.08,0.37,-0.16,1721200834132
-1.70,0.82,13.77,-0.10,0.04,-0.18,1721200834142
-3.95,-2.38,8.37,0.05,-0.03,0.07,1721200834152
0.25,-2.30,6.91,-0.05,0.23,0.25,1721200834162
2.97,4.55,13.68,0.16,0.14,0.09,1721200834172
3.07,4.59,9.24,0.09,0.13,-0.09,1721200834182
-0.63,2.17,9.82,-0.04,0.05,-0.31,1721200834192
-5.45,4.02,16.85,0.18,0.15,-0.31,1721200834202
-2.56,-8.73,2.41,-0.17,0.12,0.26,1721200834212
-1.72,3.74,15.37,0.16,0.12,0.42,1721200834222
4.57,3.98,8.25,0.15,0.25,-0.02,1721200834232
0.48,8.03,11.87,0.14,0.00,-0.21,1721200834242
-1.77,-1.06,7.03,-0.22,0.13,-0.09,1721200834252
-3.94,-0.72,14.07,0.02,0.03,0.12,1721200834262
0.58,-1.74,11.60,-0.01,0.38,0.24,1721200834272
0.88,3.46,8.54,0.18,-0.11,0.31,1721200834282
1.45,9.40,5.60,0.12,0.10,0.05,1721200834292
2.96,-0.54,7.85,-0.30,0.17,-0.21,1721200834302
-2.06,0.20,13.35,0.10,-0.11,-0.05,1721200834312
-1.26,-4.49,5.34,-0.29,0.19,0.11,1721200834322
-2.91,0.57,10.12,0.21,-0.27,0.30,1721200834332
5.23,-1.09,7.19,-0.23,0.44,0.13,1721200834342
3.92,0.96,15.49,-0.06,-0.16,-0.06,1721200834352
-1.34,-1.28,13.29,-0.30,0.19,-0.40,1721200834362
-4.54,-4.91,11.38,-0.04,-0.08,-0.11,1721200834372
-0.72,-1.95,11.11,-0.08,0.19,0.35,1721200834382
3.70,1.96,13.47,0.07,0.06,0.27,1721200834392
3.44,4.60,6.83,-0.05,0.00,-0.26,1721200834402
-2.62,1.40,5.86,-0.12,-0.16,-0.54,1721200834412
-5.15,-7.32,11.02,-0.37,0.16,-0.18,1721200834422
-2.79,2.92,15.13,0.13,0.01,0.28,1721200834432
2.55,6.50,4.02,0.06,0.22,0.11,1721200834442
0.80,0.18,9.82,-0.21,0.00,-0.23,1721200834452
-3.62,3.61,14.24,0.07,-0.07,-0.06,1721200834462
-1.08,-1.88,7.55,-0.12,0.11,0.09,1721200834472
-1.29,-3.52,13.11,-0.09,-0.15,0.13,1721200834482
-0.21,2.54,12.84,0.11,0.07,-0.02,1721200834492
0.13,6.66,8.43,0.15,0.17,-0.20,1721200834502
-1.62,-2.48,7.30,-0.07,-0.10,-0.03,1721200834512
-1.18,3.72,14.05,0.06,0.10,0.10,1721200834522
1.44,2.68,9.08,0.14,0.16,-0.06,1721200834532
-0.45,-5.78,6.74,-0.05,-0.22,-0.04,1721200834542
-1.79,0.55,9.96,0.15,0.03,-0.08,1721200834552
2.77,4.91,12.02,0.31,0.22,-0.04,1721200834562
0.58,1.03,9.22,-0.03,-0.13,-0.18,1721200834572
-4.82,0.62,10.65,-0.01,-0.07,-0.28,1721200834582
-1.85,-2.28,13.87,0.09,0.12,-0.00,1721200834592
-1.02,-4.79,2.25,0.04,-0.16,0.26,1721200834602
-1.17,2.81,12.03,0.04,0.29,0.04,1721200834612
1.79,0.11,9.38,0.17,-0.03,-0.08,1721200834622
1.51,3.43,19.58,0.06,0.17,-0.07,1721200834632
0.58,0.43,4.93,0.14,-0.26,0.17,1721200834642
-2.16,-0.30,12.84,-0.19,0.00,-0.05,1721200834652
0.44,-2.37,7.92,0.18,-0.15,-0.06,1721200834662
-3.44,6.27,11.76,0.15,-0.02,-0.24,1721200834677
-2.27,0.98,4.82,0.15,-0.30,-0.03,1721200834681
-2.38,2.09,13.80,-0.13,0.43,0.05,1721200834691
0.22,-1.62,7.36,0.11,-0.18,0.05,1721200834701
-0.22,-1.20,15.84,-0.25,0.17,-0.06,1721200834711
-0.11,2.07,8.95,0.21,-0.20,0.01,1721200834721
-0.46,8.04,12.03,0.08,0.34,-0.12,1721200834731
1.04,-4.59,9.04,-0.06,-0.10,-0.03,1721200834741
-5.37,-2.88,9.55,-0.16,-0.42,0.11,1721200834751
-1.99,9.92,13.52,0.29,0.41,-0.06,1721200834761
5.27,-1.45,10.17,-0.13,0.18,-0.07,1721200834771
-1.96,-2.44,7.09,0.03,-0.67,0.08,1721200834781
-1.25,2.35,3.80,-0.05,0.44,-0.01,1721200834791
4.55,3.59,23.37,0.10,0.29,-0.26,1721200834801
-0.30,3.47,4.51,0.16,-0.33,-0.06,1721200834811
-1.73,-1.01,9.03,-0.21,0.31,-0.08,1721200834821
-0.06,5.90,21.04,0.27,0.20,-0.15,1721200834831
-1.16,1.82,-0.78,0.10,-0.30,0.00,1721200834841
-2.55,-0.86,10.91,-0.18,0.09,0.08,1721200834851
0.69,-3.61,10.92,-0.00,0.10,0.12,1721200834861
0.10,2.89,13.88,0.05,-0.00,-0.14,1721200834871
-0.56,3.34,5.60,0.01,0.03,-0.26,1721200834881
-2.68,-0.72,9.10,-0.11,-0.04,0.01,1721200834891
-1.57,2.75,17.20,0.13,0.21,0.22,1721200834901
-0.07,-0.59,3.48,0.04,-0.12,0.28,1721200834911
-2.41,3.77,12.62,-0.07,-0.00,0.10,1721200834921
3.07,-0.05,7.04,0.04,-0.02,-0.04,1721200834931
2.14,-5.12,13.00,-0.21,-0.14,0.04,1721200834941
-3.26,2.72,11.69,0.07,-0.13,0.03,1721200834951
-2.48,2.72,5.35,-0.14,0.05,-0.04,1721200834961
-2.00,0.02,15.52,-0.10,-0.12,0.03,1721200834971
-0.49,-10.18,3.99,-0.20,-0.10,0.38,1721200834981
-1.60,2.49,16.29,0.06,0.08,0.27,1721200834991
2.58,0.85,8.52,-0.03,-0.06,0.13,1721200835001
-1.56,5.08,12.07,0.02,-0.32,-0.02,1721200835011
1.39,-3.06,9.68,-0.25,0.19,0.09,1721200835021
-1.55,-3.21,9.61,-0.11,-0.30,0.28,1721200835031
1.44,1.14,10.79,-0.11,0.11,0.18,1721200835041
3.88,-1.24,8.25,-0.00,-0.19,-0.07,1721200835051
0.19,5.24,9.32,0.08,-0.05,0.01,1721200835061
0.59,-1.64,14.94,-0.18,0.16,-0.15,1721200835071
-4.36,0.20,9.28,0.10,-0.42,0.01,1721200835081
-1.24,-2.59,4.69,-0.22,0.18,0.19,1721200835091
2.34,5.79,21.26,0.17,0.02,0.20,1721200835101
4.34,0.37,1.21,-0.07,-0.17,0.01,1721200835111
0.35,5.19,16.82,-0.04,0.02,-0.38,1721200835121
1.31,-1.64,6.42,0.07,-0.05,-0.26,1721200835131
-3.58,-0.64,15.79,0.03,-0.03,-0.02,1721200835141
-1.25,-0.76,2.81,0.25,0.03,0.19,1721200835151
-0.25,2.45,11.96,-0.08,-0.04,0.03,1721200835161
2.55,0.44,9.02,0.13,-0.03,-0.19,1721200835171
0.81,3.75,14.54,0.08,0.13,-0.33,1721200835181
-1.43,-2.69,7.39,0.11,-0.11,-0.14,1721200835191
-4.42,-0.96,13.29,0.13,-0.08,0.10,1721200835201
1.02,3.19,9.99,0.17,0.22,0.21,1721200835211
1.62,2.21,2.17,0.06,-0.26,-0.18,1721200835221
-0.11,-0.24,16.98,-0.04,0.07,-0.30,1721200835231
-0.97,-5.82,10.23,0.09,-0.10,-0.08,1721200835241
-5.37,3.13,12.29,0.06,-0.06,0.09,1721200835251
-0.57,4.96,2.89,0.21,-0.01,0.20,1721200835261
5.18,-2.81,11.39,-0.13,0.15,0.09,1721200835271
1.25,1.37,12.89,0.17,-0.23,-0.17,1721200835281
-1.23,-4.03,6.29,-0.19,0.08,-0.28,1721200835291
-2.81,1.45,17.44,0.21,-0.14,-0.03,1721200835301
0.76,1.38,6.97,0.04,0.08,0.19,1721200835311
-0.49,7.44,13.72,0.12,-0.06,-0.10,1721200835321
0.57,-1.31,2.42,0.08,-0.10,-0.16,1721200835331
-1.21,0.15,13.91,-0.04,0.19,-0.13,1721200835341
-0.31,-4.18,11.98,-0.03,-0.02,-0.14,1721200835351
-1.65,0.85,12.88,0.15,-0.18,0.06,1721200835361
0.30,8.49,7.54,0.11,0.13,0.10,1721200835371
2.23,4.31,11.71,0.05,0.04,-0.18,1721200835381
1.13,-6.21,9.07,-0.12,-0.08,-0.18,1721200835391
-4.13,3.86,12.97,0.20,-0.10,-0.29,1721200835401
-1.77,-1.04,5.50,-0.12,0.11,0.05,1721200835411
-0.85,7.25,19.50,0.24,0.00,0.14,1721200835421
4.24,-1.11,-2.75,-0.03,-0.11,0.07,1721200835431
-0.57,0.57,18.49,-0.12,-0.02,-0.32,1721200835441
-0.68,-2.81,11.10,0.07,-0.05,-0.31,1721200835451
-2.82,1.57,7.36,-0.10,0.01,-0.14,1721200835461
-3.19,2.45,9.87,-0.09,-0.05,-0.03,1721200835471
1.86,-0.33,15.27,0.01,0.13,0.08,1721200835481
3.52,5.51,8.11,0.08,-0.04,-0.04,1721200835491
1.92,-1.02,8.52,-0.18,0.13,-0.63,1721200835501
-5.71,3.10,16.98,0.13,-0.19,-0.20,1721200835511
-4.84,-5.04,5.47,-0.02,0.18,0.16,1721200835521
0.35,-1.10,4.29,-0.06,-0.12,0.62,1721200835531
8.98,2.74,13.48,-0.12,0.47,-0.19,1721200835541
6.83,2.53,18.95,0.16,-0.02,-0.72,1721200835551
-4.56,-1.76,4.16,-0.08,-0.25,-0.57,1721200835561
-9.70,0.03,9.24,-0.03,0.08,-0.19,1721200835571
-1.39,-0.21,13.28,-0.08,0.39,0.17,1721200835581
1.00,-2.98,5.54,-0.13,-0.38,0.08,1721200835591
-0.85,4.59,15.12,-0.05,0.13,-0.25,1721200835601
1.21,-0.10,5.87,0.11,0.02,-0.46,1721200835611
-2.84,0.56,12.42,-0.06,0.08,-0.12,1721200835621
-0.85,-1.07,12.17,0.00,0.12,-0.09,1721200835631
-1.93,4.25,5.08,0.04,-0.02,-0.06,1721200835641
0.82,3.46,9.34,-0.08,0.33,-0.17,1721200835651
2.25,-5.44,12.86,-0.07,-0.04,-0.12,1721200835661
-1.62,2.53,11.06,0.04,-0.06,-0.20,1721200835671
-1.05,-0.01,10.70,-0.10,0.28,-0.12,1721200835681
-1.59,5.25,14.71,0.20,-0.07,-0.04,1721200835691
1.57,9.46,11.28,0.25,0.22,-0.08,1721200835701
0.17,-7.08,4.07,-0.19,-0.24,-0.28,1721200835711
-5.21,-0.95,12.08,0.07,-0.26,-0.16,1721200835721
1.84,0.55,10.48,0.02,0.56,-0.25,1721200835731
-1.33,-1.21,11.92,0.06,-0.25,-0.01,1721200835741
-1.52,0.04,12.62,-0.01,0.13,0.07,1721200835751
1.80,4.15,7.97,0.23,0.18,-0.05,1721200835761
4.72,3.36,19.67,-0.06,0.41,-0.32,1721200835771
3.04,-0.51,14.67,0.05,-0.16,-0.24,1721200835781
-3.62,-1.77,7.93,-0.01,-0.29,-0.20,1721200835791
-5.16,-0.66,3.61,0.06,0.05,-0.01,1721200835801
-0.14,3.35,14.00,-0.04,0.35,0.06,1721200835811
3.56,1.70,9.84,0.07,-0.08,0.08,1721200835821
0.58,-4.06,8.56,-0.13,0.03,-0.50,1721200835831
-4.65,1.70,7.34,0.08,-0.01,-0.36,1721200835841
-2.46,0.32,13.95,-0.17,0.23,0.07,1721200835851
-1.72,2.90,9.39,0.13,-0.16,0.17,1721200835861
2.67,-0.71,6.12,-0.05,0.26,0.12,1721200835871
4.55,-3.66,16.80,-0.22,0.08,-0.32,1721200835881
-3.44,5.94,7.78,0.12,-0.46,-0.24,1721200835891
-3.58,1.28,7.32,-0.11,0.31,-0.02,1721200835901
0.40,2.23,10.78,0.27,0.20,0.00,1721200835911
4.16,-0.08,11.05,-0.17,0.23,-0.12,1721200835921
-0.99,-1.04,8.43,0.03,-0.54,-0.22,1721200835931
-5.59,8.12,12.18,0.10,0.47,-0.19,1721200835941
1.44,1.31,8.20,0.18,0.21,-0.01,1721200835951
0.30,-5.00,13.18,-0.24,-0.17,-0.02,1721200835961
-1.54,-0.95,6.75,0.04,-0.20,-0.01,1721200835971
1.41,6.48,13.08,0.03,0.63,-0.21,1721200835981
2.83,3.01,13.69,0.02,0.08,-0.24,1721200835991
-3.62,-0.47,13.29,0.04,-0.35,-0.09,1721200836001
-4.20,1.76,4.23,0.04,-0.00,0.07,1721200836011
-0.14,1.36,9.77,-0.09,0.10,0.03,1721200836021
-0.73,-0.61,12.62,-0.05,0.01,-0.05,1721200836031
-3.69,-2.88,0.97,-0.05,-0.20,0.15,1721200836041
-0.78,1.48,14.02,-0.09,0.32,0.23,1721200836051
5.12,2.84,9.20,0.17,-0.01,0.08,1721200836061
2.25,10.07,13.15,0.11,0.22,-0.25,1721200836071
0.35,-2.28,9.85,-0.11,-0.06,-0.35,1721200836081
-5.54,-4.81,12.76,-0.02,-0.16,0.01,1721200836091
-2.65,-3.27,7.88,-0.11,0.26,0.21,1721200836101
0.83,2.21,9.25,0.01,-0.11,0.14,1721200836111
0.72,3.75,5.08,-0.02,-0.10,-0.14,1721200836121
-0.54,0.47,15.71,-0.19,0.27,-0.32,1721200836131
-3.45,-2.59,12.36,-0.11,-0.21,0.04,1721200836141
-2.69,-1.82,10.94,-0.14,0.06,0.15,1721200836151
1.68,0.34,11.13,-0.01,0.02,0.12,1721200836161
2.31,-2.23,8.78,-0.04,-0.18,0.07,1721200836171
0.58,3.55,9.45,0.08,0.02,-0.06,1721200836181
1.13,-1.53,9.31,-0.07,0.07,-0.26,1721200836191
-3.51,3.76,17.06,-0.03,-0.14,-0.23,1721200836201
-1.58,0.13,10.86,-0.05,0.09,0.10,1721200836211
-0.39,3.08,8.84,0.04,0.02,0.25,1721200836221
1.62,2.07,10.59,0.06,-0.00,-0.02,1721200836231
3.99,-5.68,8.53,-0.05,-0.09,-0.07,1721200836241
0.39,-2.67,11.70,-0.02,-0.05,-0.23,1721200836251
-2.06,7.74,14.89,0.26,0.12,-0.16,1721200836261
1.07,-0.89,10.75,0.01,0.08,0.11,1721200836271
-1.13,1.05,8.35,0.27,-0.29,-0.12,1721200836281
1.64,0.03,8.32,0.03,0.37,-0.24,1721200836291
0.11,-5.37,12.74,-0.08,-0.01,-0.22,1721200836301
-4.28,5.90,14.89,0.27,-0.09,0.01,1721200836311
0.94,0.20,3.00,0.04,0.10,0.06,1721200836321
1.89,0.57,13.06,0.09,0.02,-0.06,1721200836331
2.50,-2.43,15.94,0.00,0.33,-0.30,1721200836341
-0.79,0.87,8.39,0.28,-0.15,-0.29,1721200836351
-3.39,-1.99,1.74,0.00,0.14,-0.10,1721200836361
-1.96,-1.56,12.60,0.01,0.11,0.15,1721200836371
1.95,2.02,8.59,0.05,0.15,0.08,1721200836381
4.70,-7.69,13.84,-0.27,0.07,-0.28,1721200836391
-3.33,1.46,15.07,0.31,-0.18,-0.26,1721200836401
-1.28,-0.14,5.07,-0.04,0.54,-0.04,1721200836411
-0.68,1.08,13.88,0.02,-0.04,0.08,1721200836421
0.23,2.57,7.32,0.10,-0.00,-0.08,1721200836431
2.70,0.25,12.51,-0.14,0.35,-0.28,1721200836441
-1.83,4.13,13.11,0.15,-0.12,-0.12,1721200836451
-2.51,-1.70,10.44,-0.23,0.31,-0.22,1721200836461
-1.15,-2.78,8.15,0.14,-0.06,0.05,1721200836471
1.55,4.54,11.54,-0.02,0.47,-0.00,1721200836481
3.54,1.64,17.68,0.07,0.06,-0.24,1721200836491
-2.24,0.43,6.68,0.02,-0.23,-0.27,1721200836501
-4.61,7.76,13.08,0.14,0.29,-0.17,1721200836511
1.03,-1.45,3.17,-0.03,0.16,0.00,1721200836521
-1.45,2.38,17.50,0.02,0.15,-0.08,1721200836531
-0.30,-1.55,-0.86,0.09,-0.05,0.07,1721200836541
-0.28,4.30,17.26,-0.07,0.40,-0.08,1721200836551
3.32,-1.46,8.62,0.19,-0.08,-0.15,1721200836561
-2.83,2.26,11.94,-0.04,0.06,-0.25,1721200836571
-3.73,0.82,12.74,0.01,0.11,-0.12,1721200836581
-2.36,-0.25,7.15,0.02,-0.01,0.14,1721200836591
0.74,-5.44,8.00,-0.21,0.17,0.11,1721200836601
1.96,1.31,11.08,0.01,0.14,-0.04,1721200836611
1.33,5.32,8.45,0.01,0.21,-0.24,1721200836621
-0.62,-6.17,10.70,-0.22,0.11,-0.46,1721200836631
-2.98,0.79,19.99,0.10,0.10,0.11,1721200836641
0.84,5.77,8.52,0.09,0.24,0.08,1721200836651
1.24,-2.54,6.75,-0.20,-0.05,-0.12,1721200836661
-1.08,-2.10,10.14,-0.07,-0.01,-0.09,1721200836671
-3.02,1.19,2.45,-0.01,-0.04,-0.12,1721200836686
-1.42,0.87,5.98,-0.01,-0.02,-0.17,1721200836690
-2.94,0.25,13.74,-0.08,0.00,0.08,1721200836700
-0.92,-2.98,12.27,0.01,0.18,-0.00,1721200836710
-0.28,4.09,14.10,0.04,0.20,-0.05,1721200836720
-1.26,1.94,2.92,-0.03,-0.08,-0.10,1721200836730
-3.17,-3.35,12.34,-0.15,0.02,-0.07,1721200836740
0.47,-3.17,11.89,0.18,0.20,0.09,1721200836750
0.02,-0.32,3.63,-0.10,0.08,0.08,1721200836760
-4.25,4.92,17.07,-0.06,-0.05,-0.04,1721200836770
0.05,0.18,8.26,0.07,-0.04,-0.04,1721200836780
1.35,-3.38,10.28,-0.16,0.12,0.02,1721200836790
-1.04,-1.59,9.68,0.13,-0.09,0.15,1721200836800
-2.08,3.93,11.14,-0.14,0.29,-0.17,1721200836810
-1.63,9.13,15.82,0.27,-0.14,0.06,1721200836820
0.57,-5.62,4.40,-0.16,-0.01,0.28,1721200836830
-0.85,0.24,15.33,0.13,-0.16,0.19,1721200836840
0.81,1.02,4.05,0.01,0.00,-0.11,1721200836850
-1.44,-0.50,9.46,0.07,-0.17,-0.05,1721200836860
-0.15,1.71,9.02,0.04,0.27,0.12,1721200836870
1.35,0.37,16.73,-0.02,0.09,0.06,1721200836880
-1.51,-2.63,5.19,-0.06,-0.34,0.01,1721200836890
-0.29,2.90,12.11,0.02,0.30,0.03,1721200836900
4.29,-0.13,8.73,0.10,0.07,-0.01,1721200836910
-0.33,-0.89,12.80,-0.02,-0.30,-0.04,1721200836920
-1.58,2.37,3.59,0.21,-0.11,-0.04,1721200836930
0.57,-2.09,9.27,-0.14,0.24,-0.08,1721200836940
-0.75,-2.32,17.85,0.01,-0.13,-0.11,1721200836950
-2.61,2.55,6.99,0.08,-0.05,-0.09,1721200836960
-3.62,1.71,3.60,-0.02,-0.04,-0.18,1721200836970
0.07,-0.61,16.41,-0.09,0.33,0.10,1721200836980
3.05,4.36,14.49,0.26,0.10,0.03,1721200836990
0.56,0.17,2.66,-0.09,-0.23,-0.21,1721200837000
-5.55,2.18,10.15,0.08,-0.08,-0.22,1721200837010
0.86,2.11,10.91,0.17,0.41,-0.05,1721200837020
1.66,-1.31,10.29,-0.06,-0.08,-0.08,1721200837030
-2.31,2.23,5.87,0.17,-0.25,-0.16,1721200837040
1.53,3.35,11.76,0.04,0.54,-0.29,1721200837050
1.48,3.50,17.00,0.18,-0.06,-0.11,1721200837060
0.58,-0.96,11.29,-0.01,-0.06,-0.11,1721200837070
-1.81,4.50,7.39,0.23,-0.04,-0.25,1721200837080
0.59,0.76,10.38,-0.20,0.34,-0.27,1721200837090
-1.58,-0.34,8.89,0.10,-0.23,-0.05,1721200837100
-2.17,0.80,9.12,-0.09,0.35,-0.08,1721200837110
1.70,5.25,16.14,0.10,0.30,-0.08,1721200837120
3.62,0.97,9.34,0.01,-0.05,-0.18,1721200837130
-1.40,1.67,14.92,-0.19,-0.13,-0.26,1721200837140
-3.96,1.10,5.52,0.16,-0.09,-0.06,1721200837150
-2.16,1.12,7.96,-0.13,0.22,0.01,1721200837160
-1.52,-5.37,4.48,-0.07,-0.24,0.09,1721200837170
-5.32,7.22,17.87,-0.04,0.14,-0.04,1721200837180
0.14,5.03,3.12,0.15,-0.06,-0.19,1721200837190
-1.75,-8.98,6.89,-0.33,-0.05,-0.08,1721200837200
-4.10,0.85,17.71,0.08,0.13,0.21,1721200837210
0.79,2.26,5.46,0.08,0.03,0.21,1721200837220
1.71,1.33,11.77,-0.06,-0.09,0.13,1721200837230
-0.52,0.64,6.08,-0.02,-0.22,-0.05,1721200837240
-2.62,1.30,10.94,-0.06,0.10,-0.20,1721200837250
-0.59,-4.77,12.95,-0.02,0.12,0.07,1721200837260
-1.97,-7.81,8.91,-0.13,-0.27,0.33,1721200837270
-1.36,8.12,16.06,0.21,0.09,0.27,1721200837280
4.93,-6.84,3.92,-0.16,-0.01,-0.03,1721200837290
-2.03,4.72,17.54,0.08,-0.29,-0.10,1721200837300
0.69,-1.26,11.47,0.04,0.26,0.13,1721200837310
-2.31,0.34,4.33,0.06,-0.25,0.16,1721200837320
-0.17,3.49,11.58,0.02,0.21,0.20,1721200837330
6.67,0.59,15.28,0.03,0.11,-0.08,1721200837340
1.09,0.32,7.74,0.13,-0.31,-0.13,1721200837350
-2.19,-0.11,8.41,-0.14,0.27,-0.30,1721200837360
-1.68,-0.26,14.96,0.12,0.04,-0.16,1721200837370
-0.86,-0.67,4.76,0.08,-0.06,0.30,1721200837380
0.70,0.95,9.10,0.00,0.13,0.16,1721200837390
5.36,4.10,16.82,0.17,0.22,-0.25,1721200837400
1.93,-3.91,6.19,0.03,-0.20,-0.23,1721200837410
-5.35,1.84,12.47,0.15,0.02,-0.14,1721200837420
0.76,-7.21,1.81,-0.25,0.28,0.06,1721200837430
-1.81,5.16,19.10,0.15,-0.29,-0.00,1721200837440
5.00,0.12,5.70,0.21,0.19,-0.09,1721200837450
0.28,-2.58,6.10,-0.08,0.09,-0.29,1721200837460
-4.75,5.46,13.92,0.14,0.22,-0.33,1721200837470
-1.74,-1.26,5.90,0.00,0.23,-0.06,1721200837480
-1.30,-0.95,16.68,0.04,0.02,0.15,1721200837490
0.40,-2.85,4.54,-0.02,-0.03,0.04,1721200837500
0.66,-4.84,9.67,-0.24,0.10,-0.15,1721200837510
-0.25,-0.60,18.27,0.06,0.23,-0.29,1721200837520
-2.59,3.13,9.43,0.13,0.11,-0.05,1721200837530
-2.73,2.67,5.40,0.05,0.04,0.03,1721200837540
-0.10,5.42,10.65,0.08,0.16,0.14,1721200837550
1.24,-1.63,12.03,-0.05,0.10,-0.08,1721200837560
-1.52,1.23,9.48,0.11,0.05,-0.13,1721200837570
-1.24,-3.69,6.92,-0.01,0.05,0.12,1721200837580
-0.77,7.46,14.81,0.24,0.09,0.15,1721200837590
3.07,2.59,2.33,-0.03,0.20,-0.02,1721200837600
-1.50,5.48,15.66,0.02,0.01,-0.14,1721200837610
-2.33,1.87,14.15,0.02,0.17,-0.22,1721200837620
-3.01,-4.50,5.96,0.21,-0.19,0.35,1721200837630
-1.15,5.85,9.04,0.05,0.23,0.42,1721200837640
3.29,4.81,6.79,0.15,0.01,0.08,1721200837650
0.33,-2.43,12.76,-0.26,-0.05,-0.14,1721200837660
-4.10,-0.86,13.84,0.13,-0.22,0.14,1721200837670
-2.03,1.89,8.07,0.04,0.18,0.33,1721200837680
3.32,2.06,12.95,0.01,0.10,0.34,1721200837690
3.83,0.81,9.57,0.13,-0.10,0.11,1721200837700
1.67,4.13,14.35,0.04,0.08,-0.14,1721200837710
-2.64,5.06,2.63,0.21,-0.17,-0.14,1721200837720
-3.30,-5.05,5.18,-0.43,0.19,0.03,1721200837730
-3.22,-3.49,19.91,0.04,-0.12,0.24,1721200837740
2.21,-2.76,2.02,0.08,-0.13,0.50,1721200837750
2.79,8.34,19.77,0.09,0.11,0.07,1721200837760
3.07,0.76,3.59,0.08,-0.24,-0.22,1721200837770
-3.03,-2.20,9.36,-0.40,-0.05,-0.08,1721200837780
-3.11,-2.04,13.24,-0.01,0.03,0.08,1721200837790
-1.05,-4.14,6.92,-0.21,-0.07,0.05,1721200837800
-0.48,4.51,15.97,0.34,-0.10,0.22,1721200837810
3.47,3.10,-1.86,0.02,0.04,0.08,1721200837820
-1.54,0.34,15.94,-0.17,-0.11,-0.15,1721200837830
-4.32,-0.27,6.59,0.04,-0.25,0.03,1721200837840
-1.17,-0.78,15.54,-0.22,0.21,0.22,1721200837850
1.87,0.55,9.51,0.27,-0.32,0.25,1721200837860
4.39,2.93,3.94,-0.13,0.12,0.10,1721200837870
2.21,6.49,16.01,0.03,-0.01,-0.32,1721200837880
-2.27,-0.24,9.03,-0.04,-0.22,-0.33,1721200837890
-5.27,-3.89,8.83,-0.05,-0.22,0.16,1721200837900
-1.10,3.50,14.62,0.19,0.09,0.33,1721200837910
5.28,3.29,9.95,0.05,-0.01,0.20,1721200837920
1.06,2.93,11.42,0.04,-0.27,-0.19,1721200837930
-2.94,-2.99,3.93,-0.15,-0.11,-0.31,1721200837940
-4.67,-2.38,19.01,-0.12,0.05,0.01,1721200837950
-1.84,5.72,11.52,0.38,-0.12,0.40,1721200837960
3.48,7.75,3.92,0.03,0.04,0.25,1721200837970
2.83,-3.27,7.91,-0.20,-0.26,-0.17,1721200837980
-2.83,-0.13,15.62,0.07,-0.17,-0.15,1721200837990
0.36,-1.22,4.67,-0.03,0.08,0.12,1721200838000
0.23,-3.07,11.66,-0.12,-0.29,0.19,1721200838010
-0.35,7.72,12.42,0.35,-0.20,0.14,1721200838020
5.66,-1.12,9.23,-0.25,0.21,-0.10,1721200838030
-3.41,-5.30,16.86,-0.04,-0.55,-0.06,1721200838040
-3.49,1.10,9.96,0.03,0.04,0.10,1721200838050
4.08,2.69,12.35,-0.01,0.20,0.14,1721200838060
3.15,1.35,7.15,0.20,-0.33,-0.03,1721200838070
2.56,2.45,7.09,-0.25,0.16,-0.26,1721200838080
1.09,3.86,13.02,-0.09,-0.11,-0.23,1721200838090
1.76,-1.41,11.65,-0.10,0.03,-0.18,1721200838100
0.73,2.55,16.06,0.12,0.14,-0.17,1721200838110
0.23,-4.43,3.75,0.14,-0.02,-0.12,1721200838120
-9.26,13.15,11.02,0.05,0.03,-0.81,1721200838130
-9.70,-3.54,1.75,-0.23,-0.26,0.12,1721200838140
-1.82,-6.57,17.45,-0.32,0.15,1.37,1721200838150
16.18,4.40,15.32,0.41,0.25,0.94,1721200838160
20.06,4.74,7.71,0.05,0.07,-0.61,1721200838170
5.69,1.15,4.75,0.01,-0.48,-1.95,1721200838180
-9.50,-5.69,11.30,-0.11,-0.02,-1.84,1721200838190
-21.50,3.32,8.17,0.24,-0.05,-0.09,1721200838200
-12.45,-4.15,3.98,-0.21,0.33,0.96,1721200838210
0.98,-0.98,13.01,0.00,-0.18,0.84,1721200838220
11.11,-2.99,5.77,-0.25,0.15,-0.04,1721200838230
7.78,-0.68,17.01,-0.11,0.09,-0.90,1721200838240
-2.27,-2.50,3.59,0.06,-0.30,-0.99,1721200838250
-9.74,-3.66,4.28,-0.25,0.18,-0.46,1721200838260
-7.63,0.67,18.93,-0.13,0.16,0.04,1721200838270
0.51,2.17,16.63,-0.02,0.08,0.32,1721200838280
4.76,1.79,5.95,-0.07,-0.05,-0.07,1721200838290
3.17,-0.18,9.55,-0.21,0.00,-0.59,1721200838300
-4.60,0.73,6.25,-0.05,-0.23,-0.71,1721200838310
-8.32,0.57,12.89,-0.22,0.17,-0.44,1721200838320
-6.79,-2.10,13.65,0.00,-0.12,0.09,1721200838330
-1.05,4.43,11.68,0.10,0.11,0.41,1721200838340
5.48,3.58,4.91,0.03,0.11,0.06,1721200838350
3.43,0.98,13.53,-0.11,-0.01,-0.49,1721200838360
-3.39,2.26,13.19,0.13,-0.18,-0.50,1721200838370
-5.19,-6.00,3.63,-0.00,-0.23,-0.06,1721200838380
-3.61,2.79,15.93,0.19,0.11,0.16,1721200838390
2.77,3.84,10.96,0.18,0.26,0.17,1721200838400
2.00,3.90,8.78,0.21,-0.21,-0.06,1721200838410
0.55,-2.25,11.36,-0.01,0.06,-0.31,1721200838420
-2.66,3.10,9.15,0.29,-0.40,-0.10,1721200838430
-1.53,-2.33,3.84,-0.02,0.17,-0.02,1721200838440
0.37,1.08,19.64,0.08,0.08,-0.07,1721200838450
1.60,2.17,7.51,0.32,-0.21,-0.01,1721200838460
-0.06,-3.98,-2.20,-0.18,-0.07,-0.30,1721200838470
-4.05,2.52,22.06,0.03,0.18,-0.47,1721200838480
-0.38,3.20,13.99,0.37,0.04,-0.19,1721200838490
-1.12,-4.27,3.13,-0.02,-0.28,0.03,1721200838500
-3.52,-4.61,7.95,-0.17,-0.03,-0.07,1721200838510
0.01,-1.42,17.83,0.07,0.16,-0.27,1721200838520
0.96,4.93,15.24,0.34,-0.09,-0.19,1721200838530
-3.25,11.38,-0.52,0.24,-0.05,-0.07,1721200838540
1.48,-6.56,12.18,-0.52,0.18,-0.15,1721200838550
-0.62,-2.55,19.44,0.25,-0.72,0.16,1721200838560
4.60,6.81,5.29,0.14,0.55,-0.28,1721200838570
2.00,6.11,18.47,0.04,0.03,-0.70,1721200838580
-6.70,-1.84,-0.28,-0.02,-0.54,-0.20,1721200838590
-3.55,-0.43,21.22,-0.23,0.52,-0.03,1721200838600
4.04,0.44,11.08,0.37,-0.02,-0.10,1721200838610
2.62,-0.17,9.71,-0.32,0.05,-0.44,1721200838620
-1.55,10.18,9.03,0.44,-0.24,-0.28,1721200838630
1.39,1.26,4.92,-0.34,0.51,-0.34,1721200838640
-2.64,5.91,19.97,0.15,-0.11,-0.31,1721200838650
-0.43,-7.39,4.62,-0.21,0.12,-0.33,1721200838660
-3.63,3.18,18.97,0.19,-0.10,-0.08,1721200838670
0.68,5.29,4.03,0.17,0.26,-0.16,1721200838680
-2.99,6.29,10.12,0.04,0.17,-0.47,1721200838695
-5.06,-1.28,3.21,-0.12,-0.24,-0.45,1721200838699
-6.06,-2.86,14.81,-0.25,0.25,-0.21,1721200838709
-2.57,-7.90,12.35,-0.17,-0.01,0.21,1721200838719
0.05,3.66,13.88,0.38,-0.05,0.42,1721200838729
9.31,1.57,4.56,-0.04,0.36,-0.02,1721200838739
1.66,-10.24,8.72,-0.49,-0.57,-0.41,1721200838749
-9.04,7.71,23.31,0.20,-0.09,-0.54,1721200838759
-1.61,-5.50,-0.01,0.03,0.17,-0.03,1721200838769
-2.63,-3.36,13.90,-0.15,0.09,0.29,1721200838779
3.95,0.88,10.56,0.14,0.00,0.21,1721200838789
7.38,5.35,15.56,-0.10,0.44,-0.44,1721200838799
-1.15,-0.38,8.99,-0.04,-0.29,-0.90,1721200838809
-10.73,-2.25,5.88,-0.11,-0.08,-0.54,1721200838819
-4.92,-3.70,10.09,-0.16,0.31,0.36,1721200838829
1.40,5.51,13.23,-0.02,0.13,0.33,1721200838839
6.36,4.63,9.22,0.05,0.03,-0.34,1721200838849
2.11,-5.22,7.48,-0.26,0.15,-0.75,1721200838859
-9.77,7.69,17.83,0.24,-0.05,-0.50,1721200838869
-3.52,-1.75,7.87,-0.04,0.27,0.11,1721200838879
-1.48,1.27,11.76,0.15,-0.03,0.30,1721200838889
1.84,2.21,5.93,0.07,0.23,0.00,1721200838899
3.06,1.46,10.04,-0.03,-0.00,-0.17,1721200838909
-1.70,-1.81,8.92,0.19,-0.10,-0.30,1721200838919
-2.50,4.79,12.34,0.17,0.39,-0.00,1721200838929
1.79,-2.98,5.32,0.09,-0.09,0.11,1721200838939
0.01,5.29,12.61,0.20,0.18,0.08,1721200838949
3.67,3.85,11.31,0.08,0.26,-0.16,1721200838959
0.11,-5.63,8.31,-0.03,-0.33,-0.30,1721200838969
-4.02,-1.28,6.80,0.19,-0.08,-0.17,1721200838979
0.89,-3.74,10.68,-0.06,0.39,0.09,1721200838989
0.32,9.87,20.16,0.46,0.03,0.07,1721200838999
3.74,-3.96,3.31,-0.10,0.10,-0.16,1721200839009
-2.49,0.86,17.28,0.05,-0.09,-0.35,1721200839019
-1.30,-4.79,1.44,0.01,0.20,-0.35,1721200839029
-2.33,1.10,17.78,0.06,0.25,-0.14,1721200839039
-0.30,5.20,8.61,0.31,0.18,-0.01,1721200839049
-1.08,4.30,8.57,0.02,0.11,-0.22,1721200839059
-0.92,-5.22,7.39,-0.22,0.09,-0.20,1721200839069
-1.47,-4.86,17.51,-0.10,0.16,-0.12,1721200839079
-1.06,3.34,9.34,0.22,0.08,-0.03,1721200839089
1.36,4.78,4.53,0.05,0.16,-0.03,1721200839099
2.83,0.31,14.42,-0.01,0.22,-0.22,1721200839109
-0.60,-2.23,7.77,-0.02,0.00,-0.19,1721200839119
-4.48,0.24,5.71,-0.09,0.13,-0.15,1721200839129
-1.06,3.76,15.57,0.00,0.46,-0.07,1721200839139
3.08,0.61,11.01,0.07,0.10,0.00,1721200839149
0.61,3.23,4.80,0.13,0.03,-0.08,1721200839159
2.00,-0.85,10.59,-0.27,0.55,-0.47,1721200839169
-2.46,-0.15,14.65,-0.03,0.04,-0.45,1721200839179
-4.03,-5.87,11.55,-0.09,0.13,0.01,1721200839189
-1.04,7.51,8.94,0.43,0.24,0.21,1721200839199
5.38,2.71,-2.78,-0.30,0.37,-0.14,1721200839209
-4.54,-2.43,15.25,-0.37,-0.35,-0.36,1721200839219
-5.51,-2.98,15.00,0.18,0.03,-0.27,1721200839229
-1.96,-2.07,13.34,-0.12,0.35,0.04,1721200839239
-1.76,7.05,1.29,0.29,-0.21,0.31,1721200839249
6.49,5.52,13.28,-0.38,0.91,-0.16,1721200839259
5.55,1.55,16.81,0.06,-0.36,-0.36,1721200839269
-3.44,-4.89,5.25,-0.21,0.03,-0.31,1721200839279
-5.64,0.52,15.46,0.06,0.12,-0.14,1721200839289
-1.15,-0.34,4.88,-0.00,0.12,0.17,1721200839299
1.45,1.86,13.66,0.00,0.05,0.17,1721200839309
1.35,4.02,2.92,0.02,-0.06,-0.13,1721200839319
-1.81,-2.64,9.53,-0.43,0.32,-0.56,1721200839329
-3.90,-4.31,14.86,0.04,0.03,-0.11,1721200839339
-0.19,2.82,10.07,0.03,0.52,0.19,1721200839349
3.26,4.89,13.89,-0.01,0.11,0.09,1721200839359
-0.05,3.07,3.15,-0.05,-0.46,-0.08,1721200839369
-2.47,8.95,18.39,0.02,0.60,-0.42,1721200839379
0.03,-10.97,12.15,-0.13,0.23,-0.26,1721200839389
-7.53,-3.03,15.86,-0.02,-0.30,0.15,1721200839399
-3.26,7.29,3.92,0.27,0.10,0.13,1721200839409
2.37,3.87,5.81,-0.02,0.40,-0.02,1721200839419
-0.13,-3.85,11.90,-0.18,-0.01,-0.22,1721200839429
-3.94,2.55,19.27,0.15,0.06,-0.07,1721200839439
-1.16,1.36,9.31,0.19,0.19,0.01,1721200839449
-1.56,1.13,3.28,0.08,-0.26,0.16,1721200839459
-0.65,4.68,8.62,0.15,0.26,-0.06,1721200839469
3.16,-2.50,3.24,0.06,0.16,-0.13,1721200839479
-0.18,-5.03,17.09,-0.24,-0.05,-0.32,1721200839489
-4.08,0.11,15.89,0.22,0.02,0.10,1721200839499
-3.39,7.56,5.61,0.09,0.27,-0.00,1721200839509
2.45,-5.21,8.35,-0.14,0.00,0.09,1721200839519
0.35,0.49,12.41,0.09,-0.16,0.05,1721200839529
2.32,0.47,10.80,-0.04,0.42,-0.24,1721200839539
-1.88,5.84,15.10,0.22,-0.07,-0.34,1721200839549
-4.54,-3.11,-0.75,-0.04,-0.20,-0.12,1721200839559
-6.03,-1.78,12.28,-0.15,0.01,0.01,1721200839569
1.00,2.31,15.33,0.22,0.33,0.17,1721200839579
3.25,4.50,7.76,0.17,0.06,-0.08,1721200839589
-2.30,0.01,3.37,-0.09,-0.26,-0.30,1721200839599
-6.50,0.95,10.05,0.02,-0.12,-0.10,1721200839609
-1.57,0.75,11.26,-0.02,0.29,0.07,1721200839619
1.74,-0.33,11.07,0.10,-0.09,0.11,1721200839629
0.25,1.59,9.15,-0.01,0.03,-0.12,1721200839639
-0.83,5.13,13.54,0.15,0.15,-0.22,1721200839649
1.08,5.30,12.99,0.10,0.19,-0.24,1721200839659
-0.51,-2.17,7.10,0.02,-0.21,0.00,1721200839669
-1.66,3.69,13.42,0.09,0.01,0.00,1721200839679
0.73,-2.79,4.03,-0.09,-0.01,-0.01,1721200839689
-1.75,2.57,14.36,0.10,-0.06,-0.05,1721200839699
1.10,1.19,10.34,-0.01,0.26,-0.14,1721200839709
-0.44,4.80,13.41,0.13,-0.14,-0.09,1721200839719
-1.08,-2.21,6.44,-0.12,0.17,-0.04,1721200839729
-1.53,-3.42,14.95,0.04,0.19,-0.16,1721200839739
-0.98,-0.72,3.15,0.20,-0.14,0.06,1721200839749
-0.69,9.29,7.41,0.11,0.21,0.01,1721200839759
0.39,3.56,9.95,-0.13,0.17,-0.22,1721200839769
-4.06,-0.16,17.13,-0.12,0.04,-0.29,1721200839779
-5.32,-5.43,2.42,-0.03,-0.08,-0.03,1721200839789
-2.14,-3.23,15.05,-0.22,0.44,0.12,1721200839799
0.48,3.46,9.58,0.27,-0.18,0.24,1721200839809
1.34,6.35,8.84,-0.04,0.32,-0.07,1721200839819
-0.46,1.37,12.57,-0.03,-0.02,-0.20,1721200839829
-3.43,-11.14,12.27,-0.43,-0.04,-0.22,1721200839839
-6.18,3.10,17.17,0.31,-0.17,0.14,1721200839849
1.55,-2.76,-3.51,-0.15,0.15,0.52,1721200839859
10.32,9.53,11.99,-0.12,0.14,0.19,1721200839869
7.08,-1.78,6.99,-0.09,0.18,-0.41,1721200839879
-2.03,-5.66,14.36,-0.16,-0.18,-0.50,1721200839889
-6.16,2.47,11.26,0.25,0.11,-0.05,1721200839899
-1.13,2.15,-2.06,0.05,0.19,0.52,1721200839909
2.12,2.44,7.46,-0.08,0.07,0.34,1721200839919
7.30,-6.06,12.94,-0.32,0.12,-0.23,1721200839929
1.23,-3.43,23.23,-0.08,0.01,-0.71,1721200839939
-7.20,1.47,6.03,0.34,-0.11,-0.30,1721200839949
-5.04,1.78,10.41,-0.02,0.49,0.30,1721200839959
2.38,-4.22,8.69,0.01,0.04,0.54,1721200839969
3.79,0.82,12.69,-0.25,0.28,-0.16,1721200839979
1.76,6.45,10.66,0.18,0.01,-0.67,1721200839989
-2.08,-3.44,11.10,-0.21,0.29,-0.38,1721200839999
-7.02,3.37,13.74,0.22,-0.10,0.02,1721200840009
-2.05,-2.67,3.32,-0.19,0.33,0.28,1721200840019
0.95,2.03,14.50,0.04,0.12,0.09,1721200840029
3.45,0.68,10.81,-0.05,0.34,-0.22,1721200840039
-1.59,-2.03,13.64,0.19,-0.03,-0.11,1721200840049
-2.83,1.08,5.71,0.13,0.16,0.27,1721200840059
2.57,6.25,11.11,0.07,0.40,0.18,1721200840069
4.77,1.54,13.15,-0.08,0.17,-0.08,1721200840079
-0.39,-0.18,11.42,0.14,0.10,-0.26,1721200840089
-1.83,-4.05,7.50,0.00,0.27,-0.27,1721200840099
-2.80,-0.09,7.30,0.21,0.09,0.17,1721200840109
0.34,4.01,6.89,-0.05,0.32,0.20,1721200840119
1.06,1.00,14.56,-0.04,0.15,-0.06,1721200840129
-2.72,1.65,11.19,0.05,0.08,-0.06,1721200840139
-2.26,-3.95,2.15,0.02,0.13,0.16,1721200840149
-0.40,-3.32,16.49,-0.10,0.45,0.24,1721200840159
-0.27,4.75,12.03,0.18,0.06,0.29,1721200840169
0.51,1.02,5.92,-0.04,-0.01,0.26,1721200840179
0.91,3.13,14.99,0.11,0.19,0.18,1721200840189
2.67,1.14,8.44,-0.02,0.13,0.09,1721200840199
-2.64,5.22,13.49,0.10,-0.06,0.26,1721200840209
-2.13,0.64,3.74,0.06,0.15,0.21,1721200840219
1.20,-1.11,6.45,-0.06,0.10,0.31,1721200840229
2.66,0.87,14.11,-0.01,0.13,0.41,1721200840239
-0.19,3.61,11.11,0.01,0.10,0.00,1721200840249
-3.40,0.93,11.63,0.01,-0.12,0.17,1721200840259
-1.47,3.17,10.72,0.13,0.04,0.66,1721200840269
4.30,0.75,8.75,-0.20,0.22,0.32,1721200840279
0.71,1.33,5.27,0.13,-0.40,0.13,1721200840289
-0.40,-1.72,11.84,-0.18,0.42,-0.03,1721200840299
-0.56,-0.24,13.87,0.27,-0.22,0.31,1721200840309
-1.23,3.55,9.59,-0.04,0.06,0.30,1721200840319
1.67,2.06,4.88,-0.05,-0.21,0.25,1721200840329
1.31,-5.68,7.98,-0.43,0.00,-0.12,1721200840339
-0.09,1.47,21.43,0.06,-0.02,-0.16,1721200840349
-3.51,0.21,0.20,0.22,-0.25,0.14,1721200840359
-2.52,3.23,11.94,-0.39,0.39,0.17,1721200840369
0.34,-7.56,21.60,-0.09,-0.30,0.42,1721200840379
3.13,-2.15,7.72,-0.10,-0.22,0.19,1721200840389
1.39,2.72,1.55,-0.07,-0.07,-0.23,1721200840399
-0.54,-1.13,12.28,-0.37,0.09,-0.09,1721200840409
-3.35,0.21,13.51,0.03,-0.20,0.16,1721200840419
0.23,-8.02,14.92,-0.53,0.18,0.12,1721200840429
-0.33,3.76,11.24,0.19,-0.39,0.40,1721200840439
6.00,10.93,15.26,-0.11,0.58,0.07,1721200840449
0.87,2.21,14.44,0.02,-0.91,0.03,1721200840459
-8.55,-1.36,-0.06,-0.24,-0.65,-0.06,1721200840469
-5.05,-3.23,8.48,-0.15,0.19,0.05,1721200840479
0.08,-4.43,10.80,-0.14,-0.00,0.23,1721200840489
-0.63,0.71,11.20,-0.10,-0.37,0.24,1721200840499
-0.07,7.48,12.87,0.17,0.00,0.16,1721200840509
3.07,-0.24,10.74,-0.06,-0.02,-0.01,1721200840519
-1.94,-1.56,17.60,-0.07,-0.39,-0.03,1721200840529
-1.19,0.48,8.68,0.10,-0.27,0.14,1721200840539
0.24,2.41,14.26,0.08,0.04,-0.02,1721200840549
-2.52,0.68,7.03,0.10,-0.48,0.04,1721200840559
-4.00,1.62,5.69,0.07,-0.18,0.20,1721200840569
5.14,-5.17,17.02,-0.11,0.35,0.06,1721200840579
1.83,2.04,11.28,0.12,-0.54,-0.06,1721200840589
-3.17,5.01,2.99,0.08,-0.12,-0.13,1721200840599
-1.25,3.10,13.07,0.20,0.07,0.09,1721200840609
0.88,-1.08,10.02,0.05,-0.17,0.20,1721200840619
0.85,-3.69,14.31,-0.13,-0.23,0.11,1721200840629
-0.70,0.89,9.54,0.08,-0.20,-0.15,1721200840639
-0.86,5.50,10.83,0.11,0.02,-0.20,1721200840649
-1.06,0.89,8.03,0.14,-0.17,0.10,1721200840659
-0.50,-4.56,8.21,-0.09,-0.20,0.24,1721200840669
1.27,1.45,10.80,0.11,-0.17,-0.06,1721200840679
0.68,4.18,8.81,-0.10,-0.07,-0.23,1721200840689
-2.68,2.45,11.70,0.23,-0.20,-0.03,1721200840704
-1.91,-1.58,3.90,0.21,-0.19,0.11,1721200840708
2.27,-0.28,8.73,0.01,0.08,0.23,1721200840718
4.55,-0.52,17.10,-0.09,-0.17,0.04,1721200840728
0.35,6.50,12.52,0.23,-0.42,-0.22,1721200840738
0.08,2.89,6.29,0.10,-0.04,-0.10,1721200840748
0.16,1.36,10.58,0.13,-0.24,0.00,1721200840758
-0.38,-1.06,7.21,-0.03,-0.18,-0.13,1721200840768
-1.20,0.78,10.78,-0.04,-0.12,-0.17,1721200840778
-0.88,2.09,16.39,-0.10,0.01,-0.14,1721200840788
-2.17,1.70,7.12,0.23,-0.35,0.06,1721200840798
1.56,0.61,9.46,-0.16,0.21,0.20,1721200840808
2.79,3.42,12.23,0.06,-0.17,-0.17,1721200840818
-1.27,0.68,9.32,-0.19,-0.09,-0.51,1721200840828
-4.71,-3.03,13.75,-0.10,-0.20,-0.25,1721200840838
-5.94,0.71,7.29,-0.01,-0.08,0.09,1721200840848
0.39,0.64,7.48,-0.02,0.03,0.24,1721200840858
4.87,5.55,16.77,0.03,0.15,-0.11,1721200840868
2.91,3.06,8.86,0.07,-0.22,-0.36,1721200840878
-2.88,-5.17,6.71,-0.18,-0.12,-0.43,1721200840888
-4.67,2.18,14.88,0.01,-0.01,-0.13,1721200840898
-0.83,4.23,5.61,0.08,-0.08,0.11,1721200840908
2.09,-7.86,6.40,-0.32,-0.04,-0.06,1721200840918
-1.30,3.04,16.25,0.07,-0.06,-0.42,1721200840928
-0.52,1.13,9.74,0.04,0.09,-0.27,1721200840938
-2.98,-4.02,7.75,0.04,-0.19,0.13,1721200840948
-0.03,2.16,13.01,-0.05,0.18,-0.01,1721200840958
3.27,5.49,17.52,0.10,-0.07,-0.31,1721200840968
1.81,-5.34,8.96,-0.07,-0.08,-0.37,1721200840978
-4.70,-2.21,6.97,-0.00,-0.11,-0.28,1721200840988
-2.73,2.95,13.19,0.05,0.19,0.00,1721200840998
1.73,3.46,10.07,0.06,-0.00,-0.12,1721200841008
0.66,-4.88,9.49,-0.09,-0.09,-0.33,1721200841018
-1.09,0.75,11.76,0.01,-0.05,-0.16,1721200841028
2.04,0.68,11.82,-0.03,0.23,-0.10,1721200841038
-0.56,5.31,14.80,0.16,-0.08,-0.26,1721200841048
-0.17,-4.47,-2.58,-0.03,-0.10,-0.11,1721200841058
-3.58,-3.34,17.97,-0.19,0.15,-0.14,1721200841068
-0.10,3.06,20.97,0.26,0.24,-0.06,1721200841078
1.05,1.06,0.29,-0.01,-0.06,0.03,1721200841088
-0.03,4.47,17.14,0.02,0.16,-0.19,1721200841098
2.21,-1.92,8.37,0.08,-0.02,-0.26,1721200841108
-4.05,-0.95,6.16,-0.04,-0.16,-0.29,1721200841118
-3.20,-3.09,11.67,-0.06,0.29,-0.10,1721200841128
-1.72,-0.64,13.76,-0.01,0.10,0.27,1721200841138
1.31,3.03,2.22,0.06,-0.04,0.15,1721200841148
3.36,2.84,15.53,-0.05,0.25,-0.36,1721200841158
1.81,-0.61,8.09,0.09,-0.04,-0.28,1721200841168
-3.44,3.20,17.00,-0.03,0.20,-0.21,1721200841178
-1.38,-1.73,10.54,0.12,0.17,0.02,1721200841188
-0.89,-2.44,5.11,-0.05,0.02,0.13,1721200841198
1.53,4.75,13.00,0.10,0.17,0.05,1721200841208
3.19,2.00,9.98,-0.00,0.16,-0.23,1721200841218
-1.60,1.17,9.20,0.13,-0.05,-0.30,1721200841228
-2.89,-1.30,6.90,-0.04,0.19,-0.13,1721200841238
-2.57,5.94,13.97,0.15,0.13,0.11,1721200841248
0.44,4.27,10.74,0.09,0.13,0.13,1721200841258
2.24,-5.26,7.87,-0.02,-0.01,-0.11,1721200841268
-0.32,0.23,8.26,0.05,-0.01,-0.09,1721200841278
-0.98,3.31,12.25,-0.11,0.17,-0.12,1721200841288
-1.50,1.41,11.11,0.13,-0.04,-0.08,1721200841298
-0.98,1.33,12.83,-0.01,0.21,-0.01,1721200841308
0.64,0.48,4.56,0.03,-0.08,0.06,1721200841318
-0.14,-0.09,13.25,-0.16,0.16,-0.22,1721200841328
-1.03,2.97,6.76,0.15,0.05,-0.09,1721200841338
-0.67,0.28,14.51,-0.20,0.27,-0.09,1721200841348
-1.07,-2.56,7.79,0.15,-0.21,0.07,1721200841358
0.32,0.20,11.15,-0.17,0.27,-0.04,1721200841368
3.83,1.90,12.41,0.05,0.05,-0.10,1721200841378
0.26,3.85,12.51,-0.04,0.11,-0.34,1721200841388
-1.85,2.71,12.29,0.11,0.11,-0.17,1721200841398
-1.50,-7.13,2.33,-0.18,-0.10,0.10,1721200841408
-2.95,1.22,19.18,-0.08,0.17,-0.02,1721200841418
3.95,1.19,8.07,0.16,0.05,-0.06,1721200841428
1.05,3.79,5.98,-0.06,0.09,-0.23,1721200841438
-2.70,-1.11,13.24,-0.08,0.10,-0.36,1721200841448
-3.83,7.28,15.26,0.32,0.06,-0.15,1721200841458
1.08,-3.39,4.26,-0.16,0.17,0.11,1721200841468
-0.93,-4.24,8.83,-0.13,-0.17,0.03,1721200841478
-0.73,5.14,8.27,0.11,0.27,-0.22,1721200841488
0.82,3.07,9.02,0.01,0.19,-0.38,1721200841498
-3.68,-3.48,12.30,-0.06,-0.07,-0.20,1721200841508
-4.18,-0.30,13.91,0.03,0.13,0.14,1721200841518
1.53,-3.12,3.31,-0.03,0.11,0.26,1721200841528
-0.07,4.36,12.25,0.01,0.12,-0.26,1721200841538
1.02,-2.69,10.47,0.05,0.04,-0.23,1721200841548
-3.63,4.51,15.61,0.18,0.05,-0.12,1721200841558
-2.19,-0.06,4.92,0.04,0.03,0.03,1721200841568
-2.26,-3.99,10.82,-0.10,-0.28,0.20,1721200841578
-1.27,4.31,11.99,0.18,0.10,0.03,1721200841588
2.16,2.12,7.03,0.07,-0.00,-0.19,1721200841598
-2.11,-4.86,4.92,-0.11,-0.22,-0.07,1721200841608
-3.56,-5.45,14.27,-0.15,0.13,-0.02,1721200841618
0.57,2.40,14.43,0.23,0.11,0.15,1721200841628
3.67,2.84,9.66,-0.04,0.15,0.03,1721200841638
-0.68,0.04,12.52,-0.03,-0.27,-0.24,1721200841648
-1.64,3.71,15.70,0.17,0.23,-0.17,1721200841658
0.78,-4.38,2.29,-0.04,-0.24,-0.02,1721200841668
-7.31,0.38,5.66,-0.14,-0.31,-0.04,1721200841678
0.77,6.04,19.86,0.24,0.58,-0.13,1721200841688
3.89,0.23,3.50,0.06,-0.19,-0.18,1721200841698
-4.33,-5.10,6.09,-0.32,-0.26,-0.15,1721200841708
-0.54,1.70,17.15,0.14,0.22,-0.12,1721200841718
2.63,4.68,10.04,0.03,0.15,-0.34,1721200841728
-3.18,4.21,7.86,0.06,-0.25,-0.21,1721200841738
-4.13,-7.12,7.62,-0.15,-0.11,-0.09,1721200841748
-3.74,1.76,13.14,0.13,-0.04,0.08,1721200841758
3.90,1.58,9.77,-0.03,0.33,0.03,1721200841768
3.13,2.96,18.44,0.00,-0.09,-0.17,1721200841778
-2.01,3.51,5.69,0.21,-0.44,-0.24,1721200841788
-3.49,1.33,3.57,0.08,0.08,-0.08,1721200841798
0.08,-1.09,17.01,-0.06,0.25,-0.06,1721200841808
0.74,6.37,14.00,0.25,-0.21,0.11,1721200841818
2.36,-0.84,3.11,-0.09,0.00,-0.01,1721200841828
-1.49,1.13,9.76,0.05,-0.21,-0.23,1721200841838
-1.00,5.02,12.54,0.16,0.11,-0.15,1721200841848
0.07,-1.27,9.61,-0.09,0.04,-0.00,1721200841858
-2.41,0.55,10.45,0.16,-0.30,0.07,1721200841868
-1.31,-2.82,7.57,-0.08,0.09,-0.08,1721200841878
-3.55,3.27,9.21,0.21,-0.31,0.14,1721200841888
-0.04,0.42,6.87,-0.09,0.12,0.15,1721200841898
1.36,5.13,16.33,0.20,-0.02,0.02,1721200841908
2.67,-0.32,9.47,-0.02,0.02,-0.15,1721200841918
-2.80,-5.42,11.00,-0.02,-0.41,0.08,1721200841928
-3.89,7.17,5.73,0.15,-0.06,0.27,1721200841938
5.97,1.92,11.88,-0.14,0.34,0.12,1721200841948
3.30,-2.18,14.76,0.03,-0.48,-0.20,1721200841958
-3.04,-4.90,1.31,-0.10,-0.13,0.01,1721200841968
-2.68,0.96,11.11,-0.01,0.18,0.18,1721200841978
2.77,1.08,12.45,-0.11,0.09,0.03,1721200841988
1.92,3.47,14.20,0.05,-0.32,-0.08,1721200841998
0.75,-1.54,3.76,0.05,0.02,-0.26,1721200842008
-1.83,-7.32,11.65,-0.32,0.03,-0.29,1721200842018
-3.59,-0.08,11.15,0.05,-0.28,0.24,1721200842028
3.30,2.72,9.41,-0.02,0.20,0.11,1721200842038
5.77,-4.27,8.30,-0.11,-0.18,-0.22,1721200842048
-2.03,-2.62,10.43,-0.13,-0.18,-0.34,1721200842058
-2.65,10.26,17.19,-0.02,0.32,-0.31,1721200842068
-2.17,3.35,0.03,0.02,-0.18,0.06,1721200842078
-2.68,3.95,12.57,-0.14,0.18,-0.06,1721200842088
4.78,-12.58,8.44,-0.31,-0.03,-0.11,1721200842098
-2.86,-1.39,12.16,0.08,-0.26,-0.29,1721200842108
-0.67,3.12,7.23,0.12,0.31,-0.33,1721200842118
-0.76,6.61,13.89,0.13,0.02,-0.12,1721200842128
-0.83,2.34,12.72,-0.04,0.06,-0.02,1721200842138
-1.76,-6.06,10.88,-0.04,-0.09,-0.07,1721200842148
-0.70,-3.89,10.57,-0.14,0.07,-0.02,1721200842158
3.61,-1.10,9.85,0.03,-0.14,0.04,1721200842168
2.78,10.38,12.40,0.27,0.06,-0.21,1721200842178
2.03,-2.31,5.94,-0.08,0.21,-0.36,1721200842188
-5.94,-2.39,18.04,-0.07,-0.19,-0.34,1721200842198
-5.44,-2.89,7.47,0.10,0.04,0.09,1721200842208
0.95,-0.65,7.82,0.05,0.10,0.44,1721200842218
6.59,3.68,8.54,0.14,0.09,0.17,1721200842228
4.64,3.64,15.22,0.03,0.09,-0.52,1721200842238
-1.84,0.49,10.49,0.10,-0.11,-0.54,1721200842248
-5.37,-2.95,15.61,-0.07,0.17,-0.20,1721200842258
-2.54,3.24,9.52,0.50,0.08,0.24,1721200842268
3.21,6.04,1.36,0.17,0.27,0.31,1721200842278
3.59,3.62,12.75,0.01,-0.09,-0.29,1721200842288
0.57,-2.83,9.28,0.08,-0.05,-0.67,1721200842298
-4.33,-3.72,8.60,0.01,0.19,-0.27,1721200842308
-4.30,0.55,10.57,0.25,0.08,0.25,1721200842318
1.50,4.85,13.22,0.23,0.22,0.21,1721200842328
4.28,2.35,6.70,0.21,-0.00,-0.13,1721200842338
0.54,3.13,11.91,0.09,0.12,-0.25,1721200842348
-0.44,2.91,6.61,0.13,0.14,-0.15,1721200842358
-1.31,5.68,-1.35,-0.04,-0.06,0.05,1721200842368
1.52,-3.16,9.34,-0.22,0.09,-0.06,1721200842378
1.27,-7.35,15.43,-0.07,0.12,-0.14,1721200842388
-2.58,0.55,13.16,0.12,-0.02,-0.26,1721200842398
-1.52,6.97,9.48,0.10,0.22,-0.05,1721200842408
1.23,4.69,5.05,-0.05,0.12,-0.06,1721200842418
-0.33,-1.84,12.18,-0.25,0.08,-0.19,1721200842428
-1.91,-10.54,8.76,-0.13,-0.14,-0.08,1721200842438
-0.71,-7.12,14.73,-0.19,0.10,-0.02,1721200842448
0.27,5.06,10.00,0.24,-0.07,-0.07,1721200842458
2.34,4.07,7.60,-0.16,0.43,-0.25,1721200842468
-3.06,-0.58,16.33,-0.21,-0.02,-0.36,1721200842478
-3.85,-3.49,16.38,-0.21,0.11,-0.06,1721200842488
0.79,2.15,11.20,0.11,0.05,0.23,1721200842498
4.87,0.01,2.15,-0.24,0.03,-0.21,1721200842508
-2.90,-2.35,6.39,-0.29,-0.58,-0.48,1721200842518
-7.16,0.70,10.33,-0.14,-0.02,-0.43,1721200842528
-4.00,-7.20,11.73,-0.25,0.18,-0.05,1721200842538
-4.33,6.34,10.48,0.06,-0.15,0.20,1721200842548
4.49,6.09,4.75,-0.12,0.36,0.16,1721200842558
6.34,6.50,30.84,-0.10,0.35,-0.35,1721200842568
-2.41,-4.98,0.05,0.08,-0.78,-0.38,1721200842578
-10.48,-3.03,4.70,-0.18,0.38,-0.09,1721200842588
1.41,3.47,20.27,0.13,0.52,0.08,1721200842598
1.19,5.85,8.94,-0.02,-0.34,0.02,1721200842608
-2.08,-0.57,11.77,-0.07,0.22,-0.30,1721200842618
3.70,-3.45,22.83,0.12,0.42,-0.26,1721200842628
0.38,-0.94,1.15,0.05,-0.38,-0.09,1721200842638
-4.83,7.24,18.52,0.04,0.40,-0.37,1721200842648
