AccX,AccY,AccZ,GyrX,GyrY,GyrZ,Time
-0.18,-0.80,13.13,0.02,0.24,-0.25,1721201506291
-0.76,0.02,10.84,0.05,0.13,-0.32,1721201506295
0.52,-0.15,12.53,0.05,0.29,-0.31,1721201506305
-0.68,-2.96,14.14,0.07,0.25,-0.35,1721201506315
-3.25,2.71,10.32,0.20,0.13,-0.25,1721201506325
-0.43,-2.15,9.39,0.06,0.40,-0.24,1721201506335
-2.01,-0.92,12.00,0.23,0.00,-0.21,1721201506345
0.16,-4.74,9.90,0.17,0.35,-0.40,1721201506355
-3.12,-0.08,11.20,0.42,-0.13,-0.37,1721201506365
-2.96,-2.94,3.57,0.14,0.35,-0.38,1721201506375
-3.96,-4.75,13.69,0.11,0.00,-0.36,1721201506385
-3.73,-2.31,9.26,0.32,0.22,-0.15,1721201506395
-0.95,-5.72,6.56,0.08,0.30,0.02,1721201506405
-0.29,-0.91,14.04,0.01,0.23,-0.02,1721201506415
1.16,-0.23,14.94,0.21,0.22,-0.33,1721201506425
-2.58,1.58,8.07,0.28,0.01,-0.37,1721201506435
-3.75,-6.96,4.67,-0.15,0.13,-0.41,1721201506445
-4.82,0.38,19.55,0.12,0.10,-0.12,1721201506455
-2.16,-0.77,1.60,0.28,0.09,0.09,1721201506465
-0.46,-0.33,9.37,-0.10,0.25,-0.02,1721201506475
0.16,-0.10,11.89,0.14,-0.00,-0.13,1721201506485
-0.59,-2.10,7.94,-0.07,0.32,-0.31,1721201506495
-2.79,3.97,16.05,0.20,-0.03,-0.25,1721201506505
-2.01,-1.00,3.07,0.17,0.01,0.09,1721201506515
-0.60,1.39,13.66,0.00,0.21,0.28,1721201506525
2.73,5.68,9.28,0.40,0.01,0.16,1721201506535
2.95,-5.77,6.88,-0.24,0.13,-0.17,1721201506545
-3.10,6.17,15.18,0.18,-0.18,-0.42,1721201506555
-3.24,0.28,2.94,0.11,0.22,-0.37,1721201506565
-5.67,-1.51,13.77,-0.20,-0.08,0.09,1721201506575
-4.94,3.52,14.09,0.18,0.00,0.40,1721201506585
0.28,2.73,8.74,0.02,0.17,0.32,1721201506595
0.35,2.37,11.37,-0.06,-0.17,0.20,1721201506605
-1.54,0.25,6.83,-0.12,-0.11,0.13,1721201506615
-0.86,-2.17,11.39,-0.14,-0.03,0.17,1721201506625
-1.50,-3.53,5.91,-0.04,-0.16,0.24,1721201506635
-1.67,-4.36,10.85,-0.34,0.01,0.30,1721201506645
-0.18,0.21,15.03,0.01,-0.14,0.35,1721201506655
0.51,-6.91,3.00,-0.23,-0.04,0.39,1721201506665
-1.74,-1.83,18.33,-0.31,-0.04,0.27,1721201506675
-1.20,-2.57,9.36,0.02,-0.32,0.34,1721201506685
-2.06,-5.94,4.57,-0.29,-0.11,0.49,1721201506695
-3.17,-0.73,15.20,-0.05,-0.24,0.52,1721201506705
1.31,-4.63,12.71,-0.13,-0.14,0.81,1721201506715
2.71,0.87,10.96,-0.08,-0.05,0.73,1721201506725
2.22,-2.20,5.95,-0.33,-0.06,0.30,1721201506735
1.33,-3.28,13.26,-0.27,-0.29,-0.01,1721201506745
0.08,-8.15,6.54,-0.09,-0.29,0.24,1721201506755
-2.27,0.41,11.88,-0.11,-0.09,0.32,1721201506765
0.78,-3.30,11.23,0.12,-0.23,0.47,1721201506775
2.92,-5.76,7.70,-0.13,0.06,0.38,1721201506785
0.59,1.87,13.41,0.11,-0.22,0.24,1721201506795
1.22,-1.88,9.67,0.03,-0.03,0.20,1721201506805
2.85,-3.53,15.23,0.04,-0.07,0.09,1721201506815
1.92,1.88,10.83,0.30,-0.09,0.09,1721201506825
0.78,-3.75,5.65,-0.07,-0.03,0.14,1721201506835
1.20,-1.12,16.23,0.06,-0.02,0.28,1721201506845
2.15,-1.17,9.12,0.16,-0.02,0.21,1721201506855
3.34,0.29,8.89,0.11,0.06,0.08,1721201506865
3.88,-1.46,11.74,-0.07,0.08,-0.13,1721201506875
2.09,3.47,16.37,0.29,-0.04,-0.14,1721201506885
0.91,-2.77,7.04,0.18,0.10,-0.01,1721201506895
-0.00,2.24,13.26,0.21,0.20,0.05,1721201506905
0.54,4.55,8.48,0.45,0.05,0.01,1721201506915
2.13,-1.23,6.47,0.15,0.26,-0.09,1721201506925
0.84,3.10,13.10,0.29,0.15,-0.23,1721201506935
0.55,-0.03,8.49,0.20,0.16,-0.19,1721201506945
-0.25,-2.17,9.42,0.10,0.18,-0.15,1721201506955
-0.15,3.94,12.74,0.20,0.23,-0.15,1721201506965
1.41,3.22,7.79,0.13,0.24,-0.22,1721201506975
1.46,2.14,11.21,0.01,0.30,-0.33,1721201506985
-1.08,0.09,9.26,-0.02,0.20,-0.41,1721201506995
-2.72,1.71,9.97,0.04,0.25,-0.33,1721201507005
-1.20,0.80,10.82,0.01,0.35,-0.29,1721201507015
-1.34,0.69,8.48,0.04,0.15,-0.16,1721201507025
-1.22,0.40,8.46,-0.14,0.22,-0.10,1721201507035
0.39,2.34,10.78,-0.01,0.27,-0.22,1721201507045
3.65,-5.79,9.03,-0.30,0.31,-0.26,1721201507055
1.19,-2.43,17.31,0.05,0.13,-0.27,1721201507065
-0.18,-3.85,2.04,0.02,0.19,-0.29,1721201507075
-1.83,4.09,13.21,-0.16,0.56,-0.42,1721201507085
-1.21,-0.75,10.60,0.10,0.17,-0.20,1721201507095
0.68,-9.00,2.56,-0.24,0.36,0.01,1721201507105
-0.66,-2.49,16.04,-0.22,0.48,-0.31,1721201507115
-0.95,-1.50,9.65,0.03,0.28,-0.48,1721201507125
-5.88,1.80,12.40,-0.16,0.32,-0.44,1721201507135
-5.53,-2.71,11.95,-0.02,0.11,-0.11,1721201507145
-4.74,-4.95,10.73,-0.12,0.16,0.17,1721201507155
0.90,-5.77,9.48,0.03,0.34,0.18,1721201507165
1.84,-3.47,9.45,-0.10,0.37,-0.08,1721201507175
-1.86,-3.34,9.19,-0.05,0.01,-0.29,1721201507185
-8.66,-4.11,6.19,-0.08,0.09,-0.25,1721201507195
-5.03,1.58,14.31,-0.16,0.47,0.03,1721201507205
-1.14,-0.26,18.67,0.12,0.02,0.23,1721201507215
-1.50,-2.20,6.62,0.04,-0.05,0.36,1721201507225
-0.76,-4.94,12.50,-0.10,0.23,0.29,1721201507235
-1.47,3.79,11.68,0.21,-0.09,0.25,1721201507245
-0.58,3.22,4.98,0.01,0.03,0.13,1721201507255
-1.69,1.66,13.01,-0.08,0.04,0.03,1721201507265
-1.54,-2.59,15.59,0.09,-0.01,0.15,1721201507275
-6.53,5.88,8.53,0.35,-0.18,0.38,1721201507285
1.13,6.74,9.43,0.23,0.22,0.60,1721201507295
2.56,3.43,11.20,0.26,-0.32,0.65,1721201507305
1.99,2.19,7.49,0.20,0.03,0.29,1721201507315
2.32,3.60,13.14,0.19,0.00,0.07,1721201507325
-1.93,5.24,9.15,0.18,-0.26,0.12,1721201507335
-3.56,2.54,5.09,0.13,-0.05,0.29,1721201507345
-1.65,-2.59,9.19,-0.16,-0.03,0.54,1721201507355
-0.77,2.33,9.19,0.22,-0.26,0.61,1721201507365
2.11,-2.28,5.03,-0.15,0.10,0.40,1721201507375
0.61,7.14,16.64,0.14,-0.22,0.23,1721201507385
1.31,-7.41,6.46,-0.28,-0.13,0.26,1721201507395
-2.93,3.98,21.66,-0.03,-0.13,0.05,1721201507405
-5.64,-0.05,1.77,0.11,-0.48,0.02,1721201507415
-6.56,-11.77,8.43,-0.37,-0.19,0.68,1721201507425
2.25,-0.17,11.35,0.41,0.05,1.05,1721201507435
7.37,-1.47,3.01,-0.39,0.09,0.49,1721201507445
1.07,5.04,17.52,-0.41,-0.65,-0.19,1721201507455
-7.08,1.41,6.02,-0.00,-0.51,-0.29,1721201507465
-9.01,-4.66,6.31,-0.26,-0.15,0.50,1721201507475
-2.70,-1.87,15.28,-0.18,-0.10,1.45,1721201507485
6.08,-2.54,11.16,-0.08,-0.11,1.32,1721201507495
9.42,-0.84,7.67,-0.18,-0.19,0.63,1721201507505
8.99,1.18,10.86,-0.13,-0.30,0.11,1721201507515
2.93,-0.35,8.54,-0.15,-0.37,-0.18,1721201507525
-1.24,-1.17,10.16,-0.21,-0.24,-0.08,1721201507535
-3.88,-5.33,10.87,-0.21,-0.35,0.22,1721201507545
-2.83,-0.24,11.60,-0.08,-0.22,0.52,1721201507555
2.15,-3.62,8.31,-0.25,-0.16,0.61,1721201507565
4.25,2.64,15.80,-0.14,-0.10,0.30,1721201507575
4.40,-0.14,9.60,-0.03,-0.26,0.02,1721201507585
1.30,-3.33,8.16,-0.27,-0.17,-0.13,1721201507595
-2.52,4.41,12.76,0.01,-0.32,-0.00,1721201507605
-0.32,-0.08,4.41,-0.06,-0.16,0.33,1721201507615
4.37,-1.75,13.43,-0.24,0.03,0.34,1721201507625
3.54,1.08,16.10,-0.00,-0.24,-0.04,1721201507635
1.02,-1.14,7.49,-0.09,-0.24,-0.26,1721201507645
-3.12,4.03,11.23,-0.02,-0.23,-0.16,1721201507655
-2.05,-2.44,7.82,-0.04,-0.15,0.05,1721201507665
-0.11,0.19,17.07,-0.04,-0.06,0.18,1721201507675
2.39,3.70,9.65,0.28,-0.24,0.15,1721201507685
2.52,-2.46,3.51,-0.03,-0.12,-0.01,1721201507695
2.28,6.41,18.10,0.14,-0.02,-0.20,1721201507705
1.34,-2.91,4.08,0.15,-0.30,-0.20,1721201507715
-0.66,0.80,11.88,-0.11,0.11,-0.23,1721201507725
-1.46,-2.22,9.85,0.24,-0.23,-0.11,1721201507735
-0.67,2.95,10.76,0.13,0.13,-0.23,1721201507745
1.17,0.11,10.58,0.23,-0.19,-0.18,1721201507755
0.86,3.19,8.42,0.14,0.06,-0.08,1721201507765
0.00,-0.63,10.20,-0.05,-0.03,-0.17,1721201507775
-1.39,0.51,15.20,0.13,-0.06,-0.28,1721201507785
0.08,-4.24,6.40,0.08,-0.07,-0.12,1721201507795
0.99,2.65,13.12,0.13,0.09,-0.08,1721201507805
1.38,1.59,6.42,0.23,-0.04,-0.20,1721201507815
0.73,1.75,11.30,0.02,0.14,-0.41,1721201507825
-0.88,-1.51,11.31,0.15,-0.09,-0.41,1721201507835
-1.50,1.70,12.81,0.21,0.15,-0.30,1721201507845
0.19,0.72,9.40,0.25,0.07,-0.08,1721201507855
1.69,1.46,7.60,0.13,0.15,-0.16,1721201507865
2.24,-3.07,8.83,-0.07,0.11,-0.39,1721201507875
-0.52,2.66,14.22,0.09,0.05,-0.54,1721201507885
-1.58,0.36,7.61,0.05,0.07,-0.43,1721201507895
-2.05,-1.21,7.54,-0.09,0.08,-0.28,1721201507905
-1.20,1.05,11.93,-0.04,0.14,-0.26,1721201507915
-0.94,-0.26,8.11,-0.01,0.02,-0.26,1721201507925
-1.36,3.11,10.15,-0.01,0.08,-0.31,1721201507935
-0.19,1.12,6.70,-0.08,0.09,-0.31,1721201507945
-0.55,-1.55,8.71,-0.19,0.08,-0.29,1721201507955
-1.22,-0.85,12.43,-0.07,0.10,-0.33,1721201507965
-0.63,-0.84,12.48,-0.08,0.11,-0.35,1721201507975
-0.91,1.68,12.04,0.05,0.03,-0.34,1721201507985
-0.48,1.20,7.18,-0.07,0.16,-0.32,1721201507995
-0.46,-0.58,10.52,-0.17,0.11,-0.26,1721201508005
-0.60,0.03,9.53,-0.07,0.08,-0.33,1721201508015
-0.38,-4.53,8.91,-0.19,0.08,-0.28,1721201508025
-1.35,1.35,12.51,-0.04,0.13,-0.30,1721201508035
-1.21,-2.05,7.25,-0.10,0.08,-0.22,1721201508045
-1.06,1.18,10.79,-0.19,0.14,-0.16,1721201508055
0.96,1.07,10.21,-0.10,0.13,-0.20,1721201508065
0.57,-3.33,11.28,-0.30,0.22,-0.27,1721201508075
-0.96,1.42,13.31,-0.10,0.04,-0.29,1721201508085
-1.06,0.87,8.47,-0.08,0.17,-0.29,1721201508095
-2.16,0.26,9.14,-0.12,0.05,-0.19,1721201508105
-1.32,-0.95,8.90,-0.13,0.09,-0.13,1721201508115
-0.67,1.36,12.11,-0.06,0.17,-0.15,1721201508125
-0.45,0.30,12.20,-0.04,0.05,-0.18,1721201508135
-1.83,0.73,7.85,-0.07,0.03,-0.26,1721201508145
-1.05,-0.29,11.85,-0.07,0.24,-0.18,1721201508155
-0.91,0.75,11.91,0.14,0.05,-0.07,1721201508165
-1.27,0.59,7.98,0.05,0.12,-0.13,1721201508175
-0.25,2.27,11.99,0.06,0.13,-0.14,1721201508185
-0.85,1.17,10.33,0.19,-0.01,-0.13,1721201508195
-1.15,-0.11,10.39,-0.00,0.19,-0.14,1721201508205
-0.83,-0.13,11.86,0.18,-0.01,0.00,1721201508215
-0.50,-2.94,8.04,0.01,0.15,-0.03,1721201508225
-0.91,1.92,12.99,0.16,0.05,-0.11,1721201508235
0.55,-2.17,7.26,0.11,0.08,-0.05,1721201508245
-0.27,0.55,12.09,0.08,0.14,-0.10,1721201508255
-0.17,-1.88,9.39,0.15,0.00,-0.13,1721201508265
-1.46,-0.52,10.56,0.08,0.13,-0.15,1721201508275
-0.60,-0.75,9.53,0.16,0.08,-0.08,1721201508285
-0.43,1.23,11.78,0.11,0.06,-0.07,1721201508300
-1.24,1.07,10.17,0.09,-0.03,-0.15,1721201508304
-1.41,-1.73,10.01,0.01,0.10,-0.15,1721201508314
-1.56,-0.23,10.56,0.06,0.07,-0.08,1721201508324
-2.17,-1.92,8.31,0.02,-0.02,-0.02,1721201508334
-0.85,2.72,12.57,0.10,0.19,-0.04,1721201508344
0.71,1.70,9.58,0.12,0.05,-0.07,1721201508354
-0.83,4.78,10.69,0.12,0.04,-0.13,1721201508364
-0.85,0.92,10.10,0.02,0.01,-0.12,1721201508374
-1.77,0.16,10.66,0.06,-0.07,-0.01,1721201508384
-0.97,1.15,9.50,0.12,0.01,-0.02,1721201508394
-0.11,0.70,8.02,0.10,-0.04,0.03,1721201508404
0.62,1.01,7.63,0.04,0.04,0.03,1721201508414
2.50,1.58,13.76,-0.01,0.11,-0.13,1721201508424
0.55,-0.04,10.49,0.11,-0.14,-0.20,1721201508434
-1.42,0.97,7.88,-0.02,0.06,-0.22,1721201508444
-1.49,-0.22,8.51,-0.04,-0.03,-0.08,1721201508454
-1.39,0.45,13.35,-0.06,0.12,0.00,1721201508464
-1.09,-1.98,8.57,0.06,-0.12,0.08,1721201508474
-0.59,1.28,11.66,-0.07,0.15,-0.03,1721201508484
0.43,3.86,10.67,0.12,-0.04,0.01,1721201508494
0.28,-1.47,8.53,-0.16,0.06,-0.04,1721201508504
-1.62,5.21,14.35,0.11,-0.11,-0.10,1721201508514
-1.59,-2.88,1.82,-0.03,-0.10,0.02,1721201508524
-1.74,2.29,13.67,-0.13,0.14,0.10,1721201508534
0.09,-1.92,8.60,0.01,-0.14,0.09,1721201508544
0.79,-0.81,12.07,-0.18,0.13,-0.01,1721201508554
0.38,0.44,12.79,0.01,-0.07,-0.14,1721201508564
-1.21,-0.08,9.52,-0.13,-0.00,-0.14,1721201508574
-0.86,1.63,11.77,0.04,-0.07,0.04,1721201508584
0.61,-3.30,6.82,-0.12,0.10,0.04,1721201508594
-0.47,-0.32,12.06,-0.03,-0.06,-0.00,1721201508604
0.27,0.64,10.00,-0.05,0.10,-0.05,1721201508614
-0.36,0.06,9.49,-0.08,-0.09,-0.07,1721201508624
-0.62,-0.57,10.68,-0.11,0.02,-0.01,1721201508634
-0.51,-0.85,9.28,-0.08,-0.02,-0.02,1721201508644
0.13,0.85,9.82,-0.12,0.07,-0.05,1721201508654
0.49,-2.72,10.39,-0.18,0.04,-0.11,1721201508664
-0.99,-1.10,11.93,-0.09,-0.01,-0.17,1721201508674
-1.57,1.69,9.42,-0.01,-0.00,-0.10,1721201508684
-1.49,0.20,9.02,-0.08,0.07,0.01,1721201508694
-0.20,3.55,10.62,0.01,0.08,0.05,1721201508704
1.47,-1.39,8.09,-0.06,0.04,-0.05,1721201508714
0.89,-0.27,12.31,-0.04,0.06,-0.09,1721201508724
0.07,1.22,7.66,0.03,0.05,-0.20,1721201508734
0.65,-0.91,9.54,-0.12,0.06,-0.17,1721201508744
-0.33,-0.19,13.24,0.04,0.02,-0.10,1721201508754
0.10,-0.01,9.40,0.07,0.09,-0.19,1721201508764
-0.45,0.50,9.40,0.09,0.02,-0.22,1721201508774
-0.43,0.04,12.81,0.07,0.17,-0.18,1721201508784
-1.40,2.15,10.39,0.22,-0.00,-0.09,1721201508794
-0.30,-0.88,8.93,0.01,0.20,-0.11,1721201508804
0.11,2.34,14.58,0.24,0.05,-0.10,1721201508814
-0.48,-2.60,4.71,0.06,0.10,-0.19,1721201508824
-0.47,0.87,12.93,0.03,0.14,-0.25,1721201508834
-0.15,-0.75,10.84,0.29,-0.00,-0.07,1721201508844
0.73,0.45,9.85,0.09,0.26,-0.04,1721201508854
0.62,1.32,10.19,0.20,0.06,-0.16,1721201508864
-0.32,0.41,8.96,0.10,0.17,-0.23,1721201508874
-0.91,0.42,14.11,0.09,0.11,-0.18,1721201508884
-1.82,-4.18,7.20,0.11,0.05,0.01,1721201508894
-0.66,-0.60,10.45,0.06,0.26,0.04,1721201508904
0.29,0.91,11.47,0.19,0.06,-0.10,1721201508914
1.66,1.23,10.40,0.19,0.16,-0.17,1721201508924
0.25,1.94,7.25,0.21,0.13,-0.03,1721201508934
-0.31,2.12,11.94,0.00,0.30,-0.13,1721201508944
-2.56,-2.52,10.86,0.22,-0.03,-0.17,1721201508954
-1.56,-5.02,7.39,-0.01,0.27,0.01,1721201508964
-0.87,3.36,14.88,0.22,0.16,0.10,1721201508974
0.56,0.40,9.90,0.11,0.17,0.05,1721201508984
-0.64,5.09,7.42,0.33,0.08,-0.09,1721201508994
0.52,-6.03,1.96,-0.11,0.24,-0.05,1721201509004
-1.38,-0.38,19.33,-0.20,0.25,-0.00,1721201509014
-1.78,0.44,10.64,0.23,-0.09,0.10,1721201509024
0.70,0.71,8.19,-0.11,0.32,0.19,1721201509034
1.90,-2.18,7.94,-0.06,-0.01,0.11,1721201509044
1.02,0.44,10.75,-0.22,0.25,-0.18,1721201509054
-0.96,-0.02,13.86,-0.08,-0.01,-0.19,1721201509064
-3.51,3.67,11.28,0.01,0.13,-0.07,1721201509074
-2.95,0.55,5.85,-0.03,0.04,0.22,1721201509084
0.24,0.49,9.63,-0.27,0.25,0.31,1721201509094
3.96,-1.61,11.76,-0.17,0.09,0.14,1721201509104
2.07,-3.48,8.66,-0.25,0.06,-0.19,1721201509114
-1.57,7.69,15.27,-0.01,0.02,-0.35,1721201509124
-1.51,-4.97,3.28,-0.13,-0.01,-0.06,1721201509134
-3.06,0.34,9.78,-0.23,0.20,0.20,1721201509144
0.79,-4.75,9.10,-0.24,0.12,0.17,1721201509154
1.06,1.99,17.61,-0.16,0.23,0.02,1721201509164
-0.19,-0.35,8.70,-0.05,-0.15,-0.05,1721201509174
-3.19,0.93,10.34,-0.24,0.19,-0.08,1721201509184
-0.84,-1.89,7.24,-0.00,0.02,0.22,1721201509194
1.45,-3.16,10.23,-0.37,0.30,0.24,1721201509204
1.83,5.79,15.12,0.07,-0.02,0.19,1721201509214
3.35,-2.03,8.55,-0.13,0.12,-0.05,1721201509224
-1.36,0.80,12.01,-0.13,-0.10,-0.03,1721201509234
-0.65,2.09,6.37,0.08,0.17,-0.13,1721201509244
-1.87,-2.72,10.85,-0.16,0.06,-0.11,1721201509254
-3.26,5.07,12.20,0.10,-0.12,-0.07,1721201509264
-1.24,0.16,9.21,0.10,0.15,0.15,1721201509274
-0.89,-0.65,9.41,0.07,-0.03,0.26,1721201509284
0.40,-1.16,9.38,-0.03,0.19,0.08,1721201509294
2.29,2.73,14.94,-0.00,0.11,-0.15,1721201509304
-3.12,0.85,8.75,0.07,-0.24,-0.25,1721201509314
-4.12,-2.37,8.60,-0.04,0.12,-0.09,1721201509324
-3.31,-1.83,11.13,0.17,-0.06,0.27,1721201509334
1.11,-1.36,9.17,-0.01,0.20,0.25,1721201509344
0.57,5.25,17.47,0.26,-0.11,-0.01,1721201509354
0.64,-3.00,7.10,0.17,-0.09,-0.01,1721201509364
-0.30,0.76,8.77,0.05,0.18,0.01,1721201509374
0.19,-1.23,9.43,0.12,-0.01,-0.02,1721201509384
-2.54,2.79,12.17,0.14,-0.19,0.01,1721201509394
-2.41,-1.28,7.11,0.19,-0.11,0.11,1721201509404
-0.10,-0.96,9.31,0.05,0.13,0.08,1721201509414
1.54,2.25,15.82,0.14,0.08,0.10,1721201509424
-0.27,1.13,8.70,0.05,-0.02,-0.13,1721201509434
-2.31,-0.76,9.75,-0.00,-0.10,-0.16,1721201509444
-5.04,1.58,7.58,0.20,-0.17,-0.02,1721201509454
-1.13,2.92,11.24,0.12,0.19,0.21,1721201509464
0.52,-2.70,9.19,-0.02,-0.27,0.30,1721201509474
0.82,5.81,11.38,0.19,0.06,-0.03,1721201509484
1.08,-3.59,7.80,-0.03,-0.15,-0.25,1721201509494
-4.88,2.92,10.18,0.03,-0.31,-0.00,1721201509504
-0.20,0.79,11.63,0.19,0.16,0.27,1721201509514
2.10,0.75,12.39,0.15,-0.10,0.29,1721201509524
2.57,-0.11,13.24,0.01,-0.16,0.09,1721201509534
1.11,5.08,9.87,0.18,-0.08,-0.14,1721201509544
1.92,2.46,11.51,-0.04,0.15,-0.27,1721201509554
-0.47,-0.32,10.24,0.16,-0.28,-0.07,1721201509564
-1.43,-3.31,4.65,-0.03,0.09,0.07,1721201509574
-1.15,1.51,10.34,-0.02,-0.05,-0.01,1721201509584
0.72,4.78,14.17,0.04,0.05,0.02,1721201509594
0.60,0.36,7.59,0.05,-0.23,0.08,1721201509604
-1.77,-4.98,9.68,-0.28,-0.10,-0.05,1721201509614
-1.79,3.05,14.39,0.01,-0.09,-0.05,1721201509624
-0.83,-3.23,7.06,-0.07,-0.06,0.14,1721201509634
-1.81,6.60,17.31,-0.01,0.06,0.13,1721201509644
0.24,-3.65,3.46,0.07,-0.30,0.09,1721201509654
-0.62,-0.72,10.09,-0.28,0.09,0.14,1721201509664
0.14,-0.70,7.76,-0.04,-0.16,0.10,1721201509674
0.65,-5.88,11.73,-0.38,0.02,0.13,1721201509684
-1.04,2.46,11.93,-0.01,-0.17,0.03,1721201509694
-0.13,0.33,2.93,-0.11,-0.00,-0.17,1721201509704
-0.25,-6.79,12.67,-0.42,-0.07,-0.13,1721201509714
-1.11,2.04,14.83,-0.07,-0.10,0.13,1721201509724
-1.94,3.39,10.78,-0.21,0.01,0.08,1721201509734
-3.12,-1.37,6.56,-0.15,-0.40,0.14,1721201509744
-0.02,-2.29,4.36,-0.34,0.08,0.12,1721201509754
2.82,-1.85,14.78,-0.32,-0.03,0.04,1721201509764
0.94,0.17,15.01,-0.15,-0.17,0.09,1721201509774
0.43,4.41,10.29,-0.11,-0.04,0.10,1721201509784
1.61,0.34,9.73,-0.19,-0.08,-0.06,1721201509794
-0.54,4.25,11.52,-0.05,-0.14,-0.23,1721201509804
0.60,-3.51,5.41,-0.05,-0.05,-0.17,1721201509814
-0.14,-0.99,13.66,-0.16,0.00,-0.05,1721201509824
-0.41,-0.26,13.94,0.12,-0.18,-0.01,1721201509834
0.49,4.88,10.64,0.19,0.11,-0.06,1721201509844
1.91,-0.76,5.95,0.10,-0.03,-0.11,1721201509854
-0.29,3.17,15.00,0.09,0.05,-0.23,1721201509864
-1.15,-1.36,8.85,0.21,-0.15,-0.25,1721201509874
-1.12,-1.48,7.15,0.03,0.05,-0.15,1721201509884
-1.31,-1.22,15.33,-0.02,-0.04,-0.16,1721201509894
-1.47,-0.08,11.54,0.13,-0.09,-0.10,1721201509904
-0.02,0.78,8.43,0.13,0.07,-0.10,1721201509914
0.29,0.85,8.65,0.15,-0.01,-0.07,1721201509924
0.45,2.94,8.94,0.10,0.07,-0.26,1721201509934
0.56,-2.90,13.58,0.02,-0.03,-0.28,1721201509944
-0.72,-1.01,8.19,0.20,0.01,-0.08,1721201509954
-0.59,1.81,10.06,0.04,0.10,-0.10,1721201509964
1.45,3.45,13.92,0.21,0.05,-0.06,1721201509974
2.40,2.24,8.35,0.27,0.14,-0.17,1721201509984
1.36,0.38,7.20,0.15,0.11,-0.33,1721201509994
-1.23,0.29,9.39,0.07,0.04,-0.38,1721201510004
-2.43,1.59,13.44,0.11,0.15,-0.25,1721201510014
-2.77,-2.65,11.08,0.12,-0.02,0.00,1721201510024
-1.53,5.47,12.43,0.31,0.12,-0.03,1721201510034
1.49,-1.13,5.03,0.11,0.10,-0.09,1721201510044
0.54,7.59,14.85,0.25,0.11,-0.23,1721201510054
-0.11,-0.73,5.02,0.09,0.02,-0.35,1721201510064
-4.40,0.82,14.58,-0.02,0.04,-0.32,1721201510074
-3.87,2.26,9.84,0.21,-0.00,0.03,1721201510084
-1.42,1.93,7.35,0.01,0.08,0.17,1721201510094
2.28,4.28,13.17,0.11,0.09,-0.02,1721201510104
1.67,-2.17,8.31,0.12,-0.06,-0.25,1721201510114
-2.09,0.06,8.88,0.11,0.01,-0.27,1721201510124
-2.92,3.23,6.15,0.10,-0.01,-0.00,1721201510134
-0.71,-0.39,6.72,-0.13,0.10,0.21,1721201510144
2.62,-5.57,14.39,-0.08,0.06,0.24,1721201510154
3.74,-4.06,11.94,0.12,0.06,0.06,1721201510164
3.08,1.54,15.30,0.05,0.22,-0.08,1721201510174
1.17,-0.79,7.92,0.15,-0.18,-0.04,1721201510184
-0.71,-0.47,5.84,-0.11,0.18,-0.17,1721201510194
0.38,-4.81,9.00,-0.06,0.07,-0.03,1721201510204
-0.62,-7.60,13.44,-0.12,0.10,0.16,1721201510214
-0.12,0.84,14.95,0.22,-0.01,0.11,1721201510224
1.34,1.81,3.49,-0.01,0.17,-0.07,1721201510234
-0.93,-3.40,7.56,-0.25,-0.09,-0.14,1721201510244
-1.32,-5.65,11.68,-0.18,0.14,-0.02,1721201510254
0.29,0.26,13.26,0.00,0.11,0.19,1721201510264
1.98,2.60,9.10,-0.19,0.15,-0.03,1721201510274
-0.70,-5.04,6.70,-0.40,-0.17,-0.32,1721201510284
-2.36,1.60,16.22,-0.03,0.21,-0.33,1721201510294
-2.45,-3.36,3.49,-0.34,0.36,-0.11,1721201510309
-2.56,1.40,12.14,-0.41,0.33,-0.10,1721201510313
-1.42,3.47,16.50,0.11,-0.10,-0.09,1721201510323
0.15,-0.72,7.32,-0.10,0.28,-0.13,1721201510333
1.50,-3.67,16.63,-0.14,0.04,-0.07,1721201510343
-0.57,2.37,8.84,0.21,-0.13,-0.12,1721201510353
0.42,2.18,9.67,-0.09,0.33,-0.35,1721201510363
-2.62,4.67,13.44,0.13,-0.16,-0.38,1721201510373
-3.95,-1.73,0.23,0.05,0.06,-0.10,1721201510383
0.11,-6.03,16.04,-0.32,0.38,-0.01,1721201510393
-0.30,2.68,17.15,0.16,-0.26,-0.15,1721201510403
-0.28,8.17,7.61,0.17,0.20,-0.51,1721201510413
-1.04,1.97,6.30,0.26,-0.05,-0.50,1721201510423
-3.64,-7.18,2.19,-0.18,0.11,-0.17,1721201510433
-2.97,6.21,14.88,0.25,0.21,-0.04,1721201510443
2.11,-5.94,6.67,-0.00,0.05,-0.08,1721201510453
-3.38,3.65,14.26,-0.03,-0.12,-0.26,1721201510463
-2.09,-0.57,9.44,0.25,-0.03,-0.25,1721201510473
0.92,-4.57,10.50,-0.06,0.30,-0.12,1721201510483
-1.79,4.26,10.19,0.26,-0.06,-0.23,1721201510493
-1.90,1.05,4.03,-0.01,0.32,-0.36,1721201510503
-2.08,-2.95,16.95,-0.12,-0.04,-0.08,1721201510513
-2.91,2.46,11.06,0.30,-0.14,0.11,1721201510523
3.26,-0.63,8.78,0.04,0.42,0.09,1721201510533
3.52,2.87,14.09,0.10,0.04,-0.18,1721201510543
1.13,1.01,4.64,0.01,-0.05,-0.34,1721201510553
-1.52,1.26,10.18,-0.02,0.15,-0.37,1721201510563
-2.32,-5.54,8.04,-0.16,0.09,-0.24,1721201510573
-4.32,-0.18,10.32,-0.02,0.07,0.04,1721201510583
2.36,3.71,15.30,-0.07,0.52,0.14,1721201510593
4.06,-1.98,12.33,-0.00,-0.14,0.05,1721201510603
0.45,1.85,5.36,-0.03,0.05,-0.20,1721201510613
1.42,3.28,12.01,-0.13,0.51,-0.49,1721201510623
-3.79,-1.87,12.49,-0.19,-0.15,-0.41,1721201510633
-7.37,1.79,12.27,-0.13,0.09,-0.11,1721201510643
-6.05,-3.82,6.56,-0.13,0.04,0.12,1721201510653
-5.04,3.13,5.97,0.05,0.04,0.35,1721201510663
1.13,-4.59,6.41,-0.32,0.33,0.38,1721201510673
0.43,5.55,17.75,-0.06,0.06,0.13,1721201510683
0.74,-3.31,7.13,-0.02,-0.14,0.10,1721201510693
-2.09,3.60,9.46,-0.20,0.07,0.07,1721201510703
0.63,-0.86,10.42,-0.15,0.09,0.16,1721201510713
-1.55,-5.24,9.49,-0.10,-0.05,0.19,1721201510723
-2.48,-0.59,6.71,-0.05,-0.05,0.13,1721201510733
-0.64,-1.90,14.08,-0.22,0.10,0.21,1721201510743
-0.32,8.78,18.62,0.03,-0.09,0.22,1721201510753
0.06,1.46,8.15,0.11,-0.03,0.30,1721201510763
-1.08,-1.95,6.88,-0.11,0.04,0.26,1721201510773
-0.13,3.17,13.07,0.04,-0.01,0.19,1721201510783
0.97,-2.11,6.79,0.13,-0.12,0.26,1721201510793
-0.06,2.25,9.84,-0.00,0.01,0.23,1721201510803
2.08,1.02,14.56,0.12,-0.09,0.22,1721201510813
1.05,-5.40,7.30,-0.02,-0.18,0.26,1721201510823
0.84,3.96,12.74,0.07,0.03,-0.04,1721201510833
-0.85,-2.19,8.10,0.21,-0.34,-0.04,1721201510843
-0.80,3.87,10.36,0.24,0.01,0.33,1721201510853
3.75,-5.15,8.66,0.00,0.08,0.40,1721201510863
-0.60,4.42,13.14,0.16,-0.19,0.20,1721201510873
0.63,-0.54,7.59,0.03,-0.00,-0.00,1721201510883
1.00,-4.24,8.26,-0.08,-0.24,0.21,1721201510893
0.84,1.63,11.31,0.09,-0.03,0.30,1721201510903
2.23,-3.93,7.94,-0.10,-0.01,0.09,1721201510913
-1.08,-4.72,8.12,-0.19,-0.27,0.17,1721201510923
-0.33,4.68,19.79,-0.05,0.22,0.13,1721201510933
0.33,-2.95,10.39,0.16,-0.26,0.17,1721201510943
0.16,2.30,1.34,0.04,0.03,0.32,1721201510953
3.47,-0.21,12.68,-0.21,0.18,0.19,1721201510963
0.68,0.10,11.71,0.06,-0.22,-0.01,1721201510973
1.36,3.37,7.97,0.03,0.07,-0.17,1721201510983
0.19,-4.12,11.98,-0.09,-0.15,-0.02,1721201510993
-1.78,-0.04,14.87,0.07,-0.01,0.13,1721201511003
-0.91,-1.51,8.20,0.01,-0.09,0.15,1721201511013
0.08,5.81,13.12,0.13,0.00,0.27,1721201511023
2.59,1.40,6.43,0.05,-0.07,0.12,1721201511033
2.28,3.04,12.04,-0.06,-0.04,0.05,1721201511043
1.41,0.74,10.67,-0.06,-0.07,-0.08,1721201511053
-1.29,1.28,13.20,-0.01,-0.08,-0.10,1721201511063
-1.44,-1.86,7.12,-0.06,-0.11,0.13,1721201511073
-0.34,3.22,13.73,-0.08,0.09,0.12,1721201511083
1.09,4.03,11.75,0.14,-0.12,-0.01,1721201511093
0.49,-0.62,5.10,-0.07,-0.16,-0.04,1721201511103
0.81,3.53,12.19,-0.03,0.02,-0.07,1721201511113
3.16,-0.74,10.34,-0.02,0.04,-0.22,1721201511123
0.96,-0.21,10.09,0.03,-0.11,-0.18,1721201511133
-0.12,0.17,4.35,0.08,-0.02,-0.22,1721201511143
1.01,-2.10,11.30,-0.13,0.15,-0.26,1721201511153
-0.09,1.76,13.14,0.08,-0.09,-0.36,1721201511163
-1.28,-0.73,7.68,-0.06,0.04,-0.38,1721201511173
-2.17,1.14,11.59,-0.06,0.00,-0.32,1721201511183
-1.45,-2.51,6.95,-0.02,0.09,-0.28,1721201511193
-1.18,-1.95,11.66,-0.05,0.07,-0.14,1721201511203
-1.51,1.98,11.39,0.01,0.00,-0.18,1721201511213
-0.20,-1.54,8.59,-0.08,0.04,-0.17,1721201511223
0.44,2.14,11.93,0.00,0.05,-0.16,1721201511233
-0.12,-4.67,8.14,-0.12,-0.03,-0.16,1721201511243
-0.64,-1.43,12.29,-0.14,0.07,-0.22,1721201511253
-1.40,3.86,10.46,0.26,-0.06,-0.31,1721201511263
-1.06,-2.42,8.15,-0.02,0.05,-0.15,1721201511273
-2.26,2.29,15.49,-0.03,-0.00,-0.01,1721201511283
-1.87,-4.06,6.68,0.08,-0.22,0.04,1721201511293
-1.29,1.54,11.27,-0.03,0.26,-0.24,1721201511303
-1.73,-1.71,8.53,0.13,-0.30,-0.15,1721201511313
-3.90,-0.56,9.95,-0.12,0.03,0.08,1721201511323
-1.08,2.98,15.58,0.17,-0.03,0.09,1721201511333
0.51,-0.82,8.70,0.13,-0.14,0.14,1721201511343
0.08,0.70,8.62,0.00,-0.11,0.11,1721201511353
2.28,-1.79,8.98,0.06,-0.02,0.06,1721201511363
0.07,-0.65,9.90,0.04,-0.14,-0.07,1721201511373
-0.96,1.51,10.01,0.08,-0.14,-0.09,1721201511383
0.10,0.50,10.65,0.09,-0.02,0.03,1721201511393
0.92,-0.45,11.04,-0.04,-0.02,-0.01,1721201511403
0.18,-2.03,9.37,0.02,-0.21,-0.04,1721201511413
0.32,-1.99,11.03,0.02,0.04,-0.14,1721201511423
-0.51,0.97,11.30,0.15,-0.15,-0.20,1721201511433
-2.53,4.73,10.35,0.12,-0.10,-0.18,1721201511443
-1.90,2.50,9.44,0.13,-0.15,-0.06,1721201511453
-1.76,-1.67,7.81,0.01,-0.22,-0.03,1721201511463
-0.17,0.17,12.52,0.04,-0.02,-0.12,1721201511473
0.09,-0.33,8.18,0.15,-0.22,-0.14,1721201511483
-1.01,0.93,8.65,-0.02,-0.06,-0.13,1721201511493
-1.25,4.17,12.66,0.16,-0.16,-0.18,1721201511503
-1.45,3.40,7.12,0.10,-0.18,0.00,1721201511513
0.19,0.23,11.16,-0.20,-0.07,0.01,1721201511523
0.96,2.30,13.84,0.06,-0.15,-0.08,1721201511533
0.77,-1.89,5.24,-0.00,-0.07,-0.05,1721201511543
0.79,1.49,8.37,-0.17,-0.10,-0.17,1721201511553
-0.23,4.12,12.28,0.04,-0.21,-0.25,1721201511563
-1.81,2.92,11.04,-0.09,-0.00,-0.26,1721201511573
-3.97,-10.65,8.57,-0.16,-0.50,-0.02,1721201511583
13.29,-0.49,18.13,0.32,0.70,0.51,1721201511593
6.63,7.01,-6.27,-0.14,-0.39,-0.51,1721201511603
-2.42,7.58,14.01,-0.44,0.15,-1.43,1721201511613
-11.52,-4.89,21.17,-0.05,-0.18,-1.68,1721201511623
-21.60,-4.56,7.09,0.02,-0.19,-0.68,1721201511633
-17.86,-0.18,10.20,-0.15,-0.08,1.04,1721201511643
2.08,-1.73,19.64,0.04,0.58,2.01,1721201511653
13.20,3.98,11.97,0.26,0.45,1.65,1721201511663
19.58,1.47,3.55,0.00,0.11,0.34,1721201511673
18.57,0.58,9.22,-0.31,-0.02,-1.40,1721201511683
4.25,3.97,12.82,-0.18,-0.75,-2.10,1721201511693
-3.04,-5.38,12.09,-0.08,-0.11,-2.33,1721201511703
-19.72,-6.12,10.45,-0.07,-0.32,-1.01,1721201511713
-17.19,-6.30,11.73,-0.10,0.39,0.45,1721201511723
-3.33,1.18,14.73,0.04,0.26,1.08,1721201511733
5.08,2.74,10.24,0.15,0.26,0.77,1721201511743
9.28,0.12,6.87,0.07,0.28,-0.07,1721201511753
8.29,-2.13,9.22,-0.15,0.05,-0.85,1721201511763
1.74,5.11,13.86,0.08,-0.16,-1.10,1721201511773
-3.73,0.18,5.55,0.04,-0.02,-0.97,1721201511783
-7.07,-2.28,12.50,-0.16,0.14,-0.48,1721201511793
-3.61,-3.62,12.04,0.12,0.13,0.04,1721201511803
0.91,-2.34,6.18,0.12,0.28,0.03,1721201511813
2.81,3.41,8.38,0.10,0.21,-0.23,1721201511823
2.46,-1.64,8.84,-0.02,0.19,-0.48,1721201511833
-1.70,-0.94,12.50,0.05,0.10,-0.63,1721201511843
-2.55,0.63,12.95,0.10,0.21,-0.48,1721201511853
-2.57,0.24,14.00,0.11,0.17,-0.21,1721201511863
-0.52,1.23,10.05,0.16,0.23,-0.01,1721201511873
1.54,-1.06,5.68,0.06,0.28,-0.20,1721201511883
1.77,0.66,11.95,0.09,0.24,-0.41,1721201511893
-1.16,0.10,12.23,0.13,0.15,-0.52,1721201511903
-4.13,2.84,9.34,0.17,0.15,-0.30,1721201511913
-2.26,0.67,7.66,0.05,0.26,0.02,1721201511923
0.64,-0.66,13.37,0.05,0.28,0.03,1721201511933
0.49,0.80,7.86,0.25,0.10,-0.11,1721201511943
-0.03,0.09,4.51,-0.01,0.28,-0.33,1721201511953
-0.58,0.51,16.40,-0.02,0.19,-0.24,1721201511963
-1.80,0.92,12.58,0.23,0.17,-0.08,1721201511973
-1.15,-1.12,10.52,0.14,0.26,0.02,1721201511983
-0.96,5.62,7.98,0.34,0.14,0.01,1721201511993
0.44,-2.55,5.33,0.02,0.25,-0.11,1721201512003
-1.24,3.10,12.43,0.17,0.16,-0.14,1721201512013
-1.69,-1.80,7.66,0.05,0.15,-0.01,1721201512023
-2.02,1.40,11.91,0.09,0.15,0.16,1721201512033
1.47,-1.21,8.82,-0.02,0.24,0.11,1721201512043
0.93,-1.12,12.22,-0.12,0.12,-0.03,1721201512053
-0.74,2.06,11.66,0.11,0.09,-0.06,1721201512063
-1.10,1.17,3.12,0.02,0.16,-0.10,1721201512073
-1.06,0.21,9.70,-0.21,0.14,0.03,1721201512083
0.06,0.50,14.53,-0.04,0.15,0.15,1721201512093
0.06,-1.15,10.19,-0.08,0.14,-0.03,1721201512103
-1.24,3.45,10.88,0.00,-0.04,0.02,1721201512113
0.68,-1.08,6.06,-0.15,0.22,0.07,1721201512123
0.72,-0.57,10.36,-0.16,0.13,-0.01,1721201512133
0.44,-0.81,13.54,-0.15,0.15,-0.04,1721201512143
-0.94,1.71,10.15,0.05,-0.05,0.06,1721201512153
1.39,1.32,8.42,-0.10,0.32,0.09,1721201512163
-0.16,-0.57,9.46,-0.10,-0.09,-0.04,1721201512173
-2.11,-0.33,8.43,-0.18,0.03,-0.01,1721201512183
-0.07,-1.26,13.36,-0.13,0.19,0.02,1721201512193
-0.49,-1.02,9.16,-0.06,-0.10,0.11,1721201512203
-1.50,-0.13,8.77,-0.30,0.08,0.10,1721201512213
-0.07,3.43,13.23,-0.05,0.07,0.02,1721201512223
0.55,-4.18,7.09,-0.13,-0.08,-0.06,1721201512233
-2.42,-0.25,12.50,-0.17,0.03,0.03,1721201512243
-0.88,1.25,9.55,-0.07,0.04,0.12,1721201512253
-0.42,5.21,12.04,-0.04,0.02,0.11,1721201512263
0.44,-0.14,9.19,-0.03,-0.16,0.10,1721201512273
-0.13,-3.75,7.51,-0.16,0.07,0.06,1721201512283
1.10,-0.45,12.88,-0.09,0.14,-0.04,1721201512293
0.59,2.19,10.92,0.02,-0.14,-0.02,1721201512303
-1.49,-0.19,8.63,-0.01,-0.14,-0.09,1721201512318
0.17,-0.79,8.49,0.03,-0.09,-0.06,1721201512322
-1.96,0.53,10.94,-0.01,-0.05,0.05,1721201512332
-0.45,2.77,8.99,0.05,0.10,0.06,1721201512342
0.72,1.53,10.19,0.08,-0.05,0.03,1721201512352
0.68,-4.28,10.07,-0.08,0.01,-0.05,1721201512362
-0.42,-0.69,12.01,0.17,-0.11,-0.05,1721201512372
-0.73,4.85,8.71,0.19,0.12,-0.03,1721201512382
0.47,3.96,10.52,0.09,0.04,-0.08,1721201512392
-0.78,-3.20,7.79,0.05,-0.25,-0.04,1721201512402
-0.36,-0.04,11.08,0.11,0.17,-0.04,1721201512412
0.72,0.64,10.01,0.16,-0.05,-0.05,1721201512422
-1.62,0.96,9.14,-0.05,-0.05,-0.09,1721201512432
-0.19,1.48,13.40,0.03,0.09,-0.15,1721201512442
-0.11,-4.83,7.96,0.05,-0.10,-0.09,1721201512452
-0.39,0.42,10.06,0.07,0.11,-0.06,1721201512462
0.65,1.12,11.08,0.13,0.02,-0.14,1721201512472
-2.49,2.47,9.71,0.04,-0.08,-0.20,1721201512482
-2.21,-2.73,9.58,-0.10,-0.08,-0.15,1721201512492
-1.61,0.15,14.56,0.07,0.04,-0.06,1721201512502
0.48,2.71,9.42,0.18,0.05,-0.01,1721201512512
-0.58,-3.47,6.42,-0.08,-0.05,-0.01,1721201512522
-2.21,6.59,15.08,0.11,-0.03,-0.13,1721201512532
0.29,-0.21,6.86,0.15,-0.06,-0.15,1721201512542
-0.47,-1.61,9.62,-0.01,-0.03,-0.08,1721201512552
-0.52,0.63,11.37,0.12,-0.02,-0.09,1721201512562
-1.41,0.45,6.95,0.13,-0.15,-0.05,1721201512572
-0.58,7.25,13.16,0.14,0.17,-0.21,1721201512582
0.41,-0.19,9.84,0.16,-0.19,-0.18,1721201512592
-1.65,-2.00,12.64,0.01,-0.04,-0.12,1721201512602
-1.30,-1.52,9.68,0.15,-0.17,-0.05,1721201512612
-0.56,0.60,9.80,0.14,0.06,-0.08,1721201512622
0.93,0.70,10.56,0.24,-0.11,-0.04,1721201512632
0.13,0.86,4.68,0.12,-0.09,-0.11,1721201512642
1.41,3.76,12.02,0.06,0.17,-0.30,1721201512652
1.50,2.14,12.58,0.11,0.05,-0.39,1721201512662
-2.48,-1.40,9.01,-0.11,-0.11,-0.28,1721201512672
-3.91,0.26,10.51,0.03,-0.07,-0.10,1721201512682
-0.73,-1.29,6.13,0.02,0.01,0.15,1721201512692
1.00,1.98,10.89,-0.10,0.03,0.15,1721201512702
1.41,2.15,10.96,-0.11,-0.11,-0.13,1721201512712
0.12,1.03,10.11,-0.08,-0.07,-0.26,1721201512722
-1.76,-1.10,9.46,-0.11,0.03,-0.23,1721201512732
-3.36,-0.74,11.19,-0.08,-0.11,0.11,1721201512742
-0.78,-0.57,10.81,-0.10,0.00,0.29,1721201512752
2.44,1.30,11.50,-0.01,-0.01,0.16,1721201512762
2.47,0.93,8.46,-0.07,0.03,-0.15,1721201512772
-0.51,0.86,10.72,-0.13,-0.11,-0.27,1721201512782
-2.77,-1.74,9.84,-0.12,-0.05,-0.11,1721201512792
-3.34,-2.15,7.54,-0.13,-0.06,0.16,1721201512802
0.36,0.96,12.10,-0.09,0.08,0.35,1721201512812
4.75,0.83,10.83,0.01,-0.03,0.14,1721201512822
3.56,-1.15,7.47,-0.11,-0.10,-0.17,1721201512832
-0.21,1.26,11.99,-0.30,0.02,-0.46,1721201512842
-3.30,-2.62,11.67,-0.15,-0.15,-0.34,1721201512852
-4.97,-2.90,8.26,-0.13,0.00,-0.01,1721201512862
-1.53,-2.17,9.71,-0.12,0.03,0.26,1721201512872
1.82,-2.93,9.47,-0.17,0.04,0.27,1721201512882
3.11,3.03,12.67,-0.18,0.14,-0.06,1721201512892
0.60,3.18,9.84,-0.09,-0.14,-0.37,1721201512902
-0.71,-1.63,8.79,-0.25,-0.02,-0.37,1721201512912
-1.79,-3.11,11.57,-0.17,0.01,-0.11,1721201512922
-1.99,1.41,9.41,-0.02,0.03,0.00,1721201512932
0.25,-0.28,9.74,-0.12,0.05,-0.04,1721201512942
0.68,1.75,11.98,0.02,-0.00,-0.12,1721201512952
3.35,1.92,12.16,-0.08,0.19,-0.13,1721201512962
-0.73,1.78,10.16,-0.01,-0.09,-0.26,1721201512972
-1.42,2.44,10.70,0.04,0.02,-0.31,1721201512982
-0.18,-2.85,10.44,0.01,0.01,-0.17,1721201512992
-1.65,-4.97,9.45,0.08,0.01,-0.05,1721201513002
-0.47,1.70,9.14,0.14,0.16,-0.03,1721201513012
1.80,-0.15,11.39,0.10,0.05,-0.01,1721201513022
2.27,3.62,16.11,0.18,0.11,-0.13,1721201513032
1.76,3.55,10.59,0.26,0.03,-0.21,1721201513042
-0.13,-2.28,6.22,0.12,0.08,-0.29,1721201513052
-1.02,-0.11,12.34,0.06,0.18,-0.26,1721201513062
-1.32,-0.50,10.97,0.29,0.01,-0.13,1721201513072
0.60,1.30,7.23,0.17,0.20,-0.01,1721201513082
2.44,0.94,12.51,0.11,0.16,-0.07,1721201513092
1.79,-0.14,11.20,0.16,0.12,-0.29,1721201513102
-0.15,-1.70,8.37,0.09,0.15,-0.41,1721201513112
-3.19,0.01,10.23,0.12,0.11,-0.29,1721201513122
-2.44,-1.12,12.01,0.12,0.22,-0.07,1721201513132
-0.08,-0.06,9.50,0.23,0.13,0.08,1721201513142
1.82,-0.51,6.94,0.12,0.25,0.02,1721201513152
2.06,1.28,10.64,0.08,0.17,-0.16,1721201513162
0.44,2.58,10.39,0.08,0.17,-0.39,1721201513172
-1.37,-2.21,8.96,0.12,0.09,-0.30,1721201513182
-2.42,-0.68,7.69,0.11,0.20,-0.12,1721201513192
-1.43,1.38,11.13,0.03,0.22,-0.04,1721201513202
-0.53,-0.27,10.33,0.08,0.16,0.01,1721201513212
-0.42,2.02,11.22,0.04,0.22,-0.13,1721201513222
-1.96,-0.24,7.43,0.06,0.05,-0.20,1721201513232
-2.77,0.30,8.78,-0.10,0.22,-0.09,1721201513242
-2.01,1.44,13.01,-0.03,0.14,0.10,1721201513252
0.06,0.48,10.12,-0.04,0.17,0.15,1721201513262
1.37,3.08,11.06,-0.02,0.13,-0.01,1721201513272
1.63,-1.24,8.59,-0.10,0.08,-0.15,1721201513282
-0.56,2.45,11.33,-0.12,0.10,-0.25,1721201513292
-2.53,3.07,9.71,-0.05,0.05,-0.21,1721201513302
-2.62,-2.12,8.44,-0.16,0.11,0.01,1721201513312
-1.27,-3.61,9.07,-0.12,0.12,0.04,1721201513322
0.63,1.80,11.85,-0.07,0.17,0.06,1721201513332
1.87,2.23,10.57,-0.01,0.11,0.02,1721201513342
1.74,-0.29,8.69,-0.09,0.07,-0.15,1721201513352
0.71,1.12,11.42,-0.09,0.10,-0.21,1721201513362
-0.27,-3.03,10.14,-0.15,0.10,-0.17,1721201513372
0.54,-1.65,10.47,-0.14,0.20,-0.07,1721201513382
0.33,-0.08,10.15,-0.10,0.09,-0.05,1721201513392
-0.40,-1.38,6.85,-0.17,0.12,-0.20,1721201513402
-0.04,-0.93,13.01,-0.17,0.21,-0.27,1721201513412
-0.13,2.71,14.11,-0.06,0.11,-0.12,1721201513422
-1.58,2.05,10.60,-0.08,0.15,-0.07,1721201513432
-1.32,0.41,9.53,-0.14,0.16,-0.16,1721201513442
-0.05,-1.16,8.41,-0.00,0.08,-0.04,1721201513452
1.53,-0.27,8.73,-0.10,0.33,-0.06,1721201513462
-0.06,4.32,14.96,-0.03,0.14,-0.18,1721201513472
-2.49,3.08,11.63,0.05,0.06,-0.29,1721201513482
-2.40,2.88,8.99,0.01,0.23,-0.21,1721201513492
-1.48,-3.62,9.92,-0.08,0.12,-0.01,1721201513502
-2.57,-0.89,11.60,0.02,0.19,0.00,1721201513512
-1.25,2.15,8.30,0.17,0.22,0.00,1721201513522
-0.22,0.87,7.80,0.19,0.12,-0.06,1721201513532
2.00,4.06,13.99,0.12,0.22,-0.10,1721201513542
0.04,0.06,10.64,0.32,-0.00,-0.12,1721201513552
-1.73,-4.53,5.92,0.00,0.25,-0.19,1721201513562
-2.22,5.44,11.41,0.21,0.21,-0.14,1721201513572
-1.10,-1.72,8.33,0.10,0.04,-0.07,1721201513582
-2.89,-1.91,13.97,-0.04,0.19,-0.01,1721201513592
-1.24,-3.51,8.15,0.17,0.19,-0.02,1721201513602
0.13,2.46,10.67,0.08,0.25,-0.08,1721201513612
-0.52,1.03,9.59,0.16,-0.08,-0.03,1721201513622
-0.22,-2.02,7.86,0.08,0.29,-0.01,1721201513632
0.09,0.02,15.24,0.10,0.20,-0.12,1721201513642
-2.20,-0.81,9.18,0.19,-0.08,-0.02,1721201513652
-2.18,-0.31,7.88,-0.06,0.27,0.03,1721201513662
-0.43,3.85,15.78,0.19,0.18,-0.03,1721201513672
-0.42,-2.56,6.21,0.06,-0.01,0.02,1721201513682
-2.77,2.10,12.31,0.07,0.15,0.03,1721201513692
-0.77,-0.10,7.91,0.14,0.10,0.03,1721201513702
-0.68,0.96,8.47,0.05,0.04,0.14,1721201513712
0.09,0.22,12.76,0.02,0.09,0.17,1721201513722
-0.63,0.03,9.05,0.14,0.01,0.06,1721201513732
-0.61,-0.77,8.09,0.08,0.04,-0.02,1721201513742
-0.73,-2.11,15.87,-0.03,0.16,0.02,1721201513752
-3.21,4.46,11.66,0.24,-0.13,0.04,1721201513762
-2.11,0.86,6.06,0.21,-0.01,0.22,1721201513772
0.17,-3.57,9.13,0.09,0.07,0.31,1721201513782
1.92,2.67,13.08,0.26,-0.07,0.32,1721201513792
1.07,5.65,3.82,0.21,-0.08,0.09,1721201513802
1.16,-3.41,8.73,-0.18,0.13,-0.13,1721201513812
-1.09,1.43,15.68,0.15,-0.17,-0.05,1721201513822
-0.48,-3.02,3.93,0.03,0.02,0.27,1721201513832
0.64,1.55,13.13,-0.08,0.15,0.25,1721201513842
1.41,2.86,10.47,0.12,-0.16,0.07,1721201513852
1.34,-0.67,8.60,-0.18,0.06,-0.02,1721201513862
-1.07,1.94,10.81,-0.01,-0.15,0.01,1721201513872
-1.81,-1.23,7.85,-0.17,0.07,0.11,1721201513882
-2.41,-2.20,13.92,-0.17,-0.03,0.18,1721201513892
-2.59,2.29,11.00,0.07,-0.12,0.26,1721201513902
-0.33,1.51,6.30,-0.17,-0.05,0.33,1721201513912
1.93,3.25,14.67,-0.10,0.07,0.20,1721201513922
1.86,-4.33,7.47,-0.04,-0.20,-0.02,1721201513932
-1.51,-1.77,7.86,-0.25,-0.05,-0.02,1721201513942
-1.44,-2.39,12.10,-0.20,-0.11,0.27,1721201513952
-0.28,0.88,15.24,-0.14,0.03,0.39,1721201513962
1.84,1.70,12.45,0.02,-0.11,0.23,1721201513972
1.55,-4.79,1.29,-0.24,-0.14,0.00,1721201513982
0.22,4.62,14.64,-0.23,0.03,-0.02,1721201513992
-1.46,0.41,11.94,-0.01,-0.17,0.05,1721201514002
-2.48,-7.73,5.02,-0.17,-0.04,0.16,1721201514012
0.35,-3.68,11.29,-0.14,-0.00,0.29,1721201514022
1.53,3.59,12.09,-0.14,-0.08,0.25,1721201514032
1.83,8.14,15.35,-0.04,-0.03,0.05,1721201514042
1.21,-4.32,2.38,-0.05,-0.26,0.04,1721201514052
-0.36,-6.31,8.51,-0.51,0.14,-0.07,1721201514062
-2.30,5.00,16.97,-0.08,-0.22,-0.10,1721201514072
-2.18,-1.05,5.67,0.05,-0.06,0.10,1721201514082
0.55,1.42,11.58,-0.10,0.14,0.26,1721201514092
2.32,4.49,13.18,0.10,-0.06,0.22,1721201514102
2.24,4.12,8.40,-0.00,0.03,-0.02,1721201514112
1.29,-0.75,11.16,-0.17,-0.02,-0.29,1721201514122
-1.97,-0.30,9.89,0.07,-0.16,-0.25,1721201514132
-2.21,-0.54,6.86,0.05,0.00,0.11,1721201514142
-0.71,-2.62,10.06,0.08,0.01,0.23,1721201514152
2.79,1.12,14.75,0.13,0.05,0.07,1721201514162
3.37,5.16,16.24,0.28,-0.01,-0.14,1721201514172
-0.50,2.08,7.63,0.24,-0.14,-0.12,1721201514182
-2.09,-2.19,3.74,0.10,0.02,-0.09,1721201514192
-1.86,-2.37,7.61,0.08,-0.01,-0.09,1721201514202
0.14,-0.96,14.34,0.15,0.01,0.04,1721201514212
1.21,1.21,11.37,0.19,0.05,0.11,1721201514222
-0.63,3.37,7.75,0.13,0.00,-0.12,1721201514232
-0.01,0.25,9.63,0.09,-0.01,-0.17,1721201514242
-0.08,-6.36,11.55,0.09,-0.03,-0.05,1721201514252
-0.72,-0.07,6.97,0.20,-0.01,0.19,1721201514262
0.10,-0.24,10.15,-0.01,0.09,0.09,1721201514272
1.29,3.77,16.91,0.20,-0.07,-0.03,1721201514282
1.87,-5.14,1.63,0.12,-0.04,-0.05,1721201514292
-0.92,2.03,9.08,-0.05,0.12,-0.08,1721201514302
-1.17,4.52,18.21,0.19,0.08,-0.19,1721201514312
-2.52,4.80,12.03,0.26,0.12,0.03,1721201514327
-2.49,-1.07,8.94,0.14,-0.10,0.15,1721201514331
0.40,5.12,8.00,0.18,0.15,0.27,1721201514341
1.38,-2.62,5.09,-0.11,0.05,-0.06,1721201514351
-0.70,0.57,13.29,-0.03,-0.03,-0.23,1721201514361
-1.89,-1.31,12.92,0.03,-0.01,-0.11,1721201514371
-2.32,2.23,9.07,0.12,-0.02,0.09,1721201514381
-0.66,0.51,10.28,-0.06,0.08,0.17,1721201514391
1.39,1.36,11.56,0.02,-0.00,0.12,1721201514401
1.38,-1.92,5.55,-0.01,0.02,-0.06,1721201514411
0.76,2.48,11.68,-0.13,0.09,-0.14,1721201514421
-1.12,3.04,8.88,0.04,-0.12,-0.15,1721201514431
-1.04,-0.82,7.72,-0.27,0.09,-0.11,1721201514441
-0.89,0.90,14.86,-0.14,-0.01,0.04,1721201514451
0.00,0.69,13.24,-0.08,0.06,0.09,1721201514461
0.35,1.13,5.74,-0.04,-0.17,0.07,1721201514471
1.30,1.43,10.39,-0.34,0.10,0.00,1721201514481
3.01,1.33,15.64,-0.08,0.08,-0.15,1721201514491
1.61,1.11,3.89,0.02,-0.11,-0.26,1721201514501
-0.72,-4.92,5.16,-0.41,0.03,-0.20,1721201514511
-0.11,0.29,20.02,-0.15,0.05,-0.08,1721201514521
0.54,1.03,13.18,0.12,-0.02,0.02,1721201514531
0.32,3.64,6.75,-0.07,0.14,-0.13,1721201514541
0.55,0.33,11.15,-0.08,0.07,-0.30,1721201514551
-0.46,-2.96,9.94,-0.11,0.02,-0.20,1721201514561
-1.39,3.50,12.77,-0.02,0.12,-0.21,1721201514571
-1.86,4.31,8.45,0.17,-0.01,-0.24,1721201514581
-2.06,-4.67,0.66,-0.11,-0.06,-0.04,1721201514591
-0.36,-4.54,12.65,-0.28,0.38,-0.00,1721201514601
1.93,5.18,19.66,0.08,0.10,-0.11,1721201514611
0.22,2.66,9.83,0.07,-0.08,-0.20,1721201514621
-0.09,0.24,7.84,-0.09,0.26,-0.31,1721201514631
-0.89,-2.22,12.15,0.07,-0.03,-0.09,1721201514641
-1.49,1.34,5.81,0.06,0.19,-0.09,1721201514651
-0.36,3.44,12.01,-0.03,0.16,-0.30,1721201514661
-2.35,-2.03,11.74,0.10,-0.19,-0.24,1721201514671
-2.29,-2.78,9.31,-0.07,0.23,-0.18,1721201514681
-1.78,4.21,13.86,0.18,0.10,-0.10,1721201514691
-0.64,2.91,7.88,0.19,0.07,-0.05,1721201514701
-0.68,-3.15,8.71,0.01,0.09,-0.13,1721201514711
-1.53,-1.15,10.34,0.16,0.08,-0.19,1721201514721
-2.15,-1.49,9.61,0.10,-0.02,-0.12,1721201514731
-3.26,4.78,11.87,0.15,0.06,-0.07,1721201514741
-0.96,0.90,11.53,0.15,0.26,-0.05,1721201514751
0.10,-3.00,11.37,0.10,-0.12,-0.02,1721201514761
-1.05,1.59,7.08,0.27,-0.03,0.08,1721201514771
0.36,-0.58,8.18,0.05,0.25,-0.08,1721201514781
-1.77,0.85,11.61,0.08,-0.18,-0.22,1721201514791
-2.65,1.20,8.17,0.06,0.12,-0.13,1721201514801
-2.18,-4.65,11.62,-0.00,-0.05,0.04,1721201514811
-2.48,-3.55,8.90,0.04,-0.09,0.21,1721201514821
0.09,4.36,13.33,0.04,0.32,0.06,1721201514831
2.03,4.01,16.17,0.12,-0.03,-0.16,1721201514841
-1.20,-4.24,9.12,0.08,-0.35,0.05,1721201514851
-3.42,-0.20,5.26,0.09,-0.04,0.19,1721201514861
-0.80,-4.80,7.92,-0.19,-0.00,0.19,1721201514871
-0.93,1.70,17.69,0.07,-0.15,0.16,1721201514881
-0.28,3.04,3.94,0.34,-0.18,0.06,1721201514891
-0.23,-1.96,4.85,-0.10,0.02,0.10,1721201514901
-0.63,2.93,17.89,0.03,-0.08,0.09,1721201514911
1.76,-0.38,10.44,0.22,-0.14,0.15,1721201514921
0.91,0.13,8.18,-0.02,-0.16,0.08,1721201514931
0.57,3.39,11.42,0.11,-0.22,0.03,1721201514941
-1.18,0.09,1.36,0.02,-0.31,0.03,1721201514951
-1.64,-0.20,11.21,-0.23,0.03,-0.03,1721201514961
-0.11,0.78,15.64,0.06,-0.13,-0.04,1721201514971
-0.64,1.49,10.07,-0.07,-0.16,-0.01,1721201514981
-1.55,2.50,6.33,-0.00,-0.29,0.12,1721201514991
-0.14,-1.30,3.64,-0.20,-0.04,0.15,1721201515001
1.97,-0.22,17.73,-0.24,-0.04,-0.03,1721201515011
0.28,2.38,15.16,0.11,-0.36,-0.06,1721201515021
-1.52,2.13,4.70,-0.06,-0.19,-0.03,1721201515031
-1.03,0.44,13.29,-0.23,-0.02,-0.07,1721201515041
-0.56,2.90,15.57,0.13,-0.22,0.05,1721201515051
-1.37,2.42,4.89,0.10,-0.19,0.08,1721201515061
-0.79,-2.14,5.24,-0.24,-0.18,0.07,1721201515071
0.58,-0.74,14.43,-0.14,-0.14,0.11,1721201515081
1.47,0.94,10.62,-0.01,-0.17,-0.00,1721201515091
0.30,1.35,9.87,-0.03,-0.19,-0.03,1721201515101
1.58,-0.11,9.91,-0.09,-0.09,-0.02,1721201515111
1.40,0.26,11.23,-0.11,-0.15,-0.11,1721201515121
-0.68,0.95,10.37,0.00,-0.20,-0.19,1721201515131
-1.75,0.21,7.66,-0.04,-0.16,-0.02,1721201515141
-0.09,-1.14,9.32,-0.14,-0.11,0.06,1721201515151
1.38,0.14,10.01,-0.09,-0.16,-0.01,1721201515161
2.66,-1.60,11.66,-0.21,0.02,-0.22,1721201515171
0.13,-3.52,12.76,-0.17,-0.23,-0.31,1721201515181
-2.10,0.52,10.23,-0.06,-0.11,-0.21,1721201515191
-2.06,3.47,10.86,-0.02,-0.09,-0.05,1721201515201
0.64,-1.58,10.90,-0.04,-0.07,0.10,1721201515211
2.16,-3.52,9.79,-0.16,-0.03,-0.08,1721201515221
-0.06,0.97,11.74,-0.16,-0.05,-0.41,1721201515231
-2.73,0.28,10.75,-0.03,-0.26,-0.32,1721201515241
-0.28,2.91,9.24,0.15,0.05,0.09,1721201515251
2.76,-0.70,6.61,0.02,0.11,0.00,1721201515261
1.04,6.49,15.50,0.12,-0.02,-0.25,1721201515271
1.85,2.32,10.50,0.16,-0.03,-0.36,1721201515281
-0.94,-3.18,7.72,-0.09,-0.10,-0.34,1721201515291
-1.81,1.52,12.97,0.18,0.00,-0.16,1721201515301
0.36,-2.71,1.21,0.18,0.01,-0.09,1721201515311
0.31,-1.98,13.07,-0.17,0.03,-0.16,1721201515321
-0.31,6.02,21.16,0.25,-0.14,-0.16,1721201515331
0.32,-2.41,5.20,0.18,0.01,-0.25,1721201515341
-1.00,3.01,8.66,0.14,0.02,-0.24,1721201515351
-0.08,-0.62,7.83,0.25,0.06,-0.06,1721201515361
0.23,-2.05,7.16,0.11,0.10,-0.06,1721201515371
1.32,-2.88,12.23,0.02,0.03,-0.13,1721201515381
1.59,0.19,12.53,0.14,-0.04,-0.21,1721201515391
1.32,0.72,10.40,0.09,0.04,-0.32,1721201515401
-0.17,-0.30,10.51,0.14,0.09,-0.32,1721201515411
-2.14,-3.57,4.40,0.05,-0.02,-0.12,1721201515421
-1.49,0.35,12.83,-0.02,0.22,-0.12,1721201515431
1.19,2.31,11.06,0.23,0.04,-0.04,1721201515441
1.76,-5.03,7.52,-0.08,0.19,-0.12,1721201515451
0.75,3.18,16.47,0.13,0.11,-0.29,1721201515461
0.06,2.46,6.51,0.20,0.04,-0.30,1721201515471
-1.28,-2.75,8.21,-0.06,0.22,-0.23,1721201515481
-2.18,-1.66,11.05,-0.04,0.10,-0.25,1721201515491
-1.75,1.33,12.07,0.02,0.17,-0.19,1721201515501
-0.40,4.31,10.93,0.18,0.14,-0.05,1721201515511
1.75,2.64,5.60,-0.01,0.24,-0.01,1721201515521
1.68,-1.20,11.03,-0.18,0.21,-0.30,1721201515531
0.57,1.64,11.96,-0.02,0.12,-0.48,1721201515541
-1.83,2.56,8.45,-0.06,0.18,-0.35,1721201515551
-3.26,0.28,9.72,-0.17,0.16,-0.19,1721201515561
-2.31,-0.72,10.94,-0.08,0.17,-0.13,1721201515571
-0.11,0.47,13.06,-0.10,0.16,-0.01,1721201515581
0.64,0.01,10.40,-0.09,0.03,-0.06,1721201515591
0.94,1.56,8.60,-0.09,0.15,-0.19,1721201515601
1.49,-0.66,7.35,-0.14,0.21,-0.30,1721201515611
-0.34,-1.79,13.92,-0.05,0.11,-0.32,1721201515621
-1.56,2.94,9.35,0.13,0.11,-0.23,1721201515631
-1.45,-0.52,7.64,-0.21,0.23,-0.11,1721201515641
0.03,-1.97,16.24,-0.16,0.19,-0.20,1721201515651
1.36,-0.18,8.61,0.27,0.12,-0.03,1721201515661
0.67,-4.20,5.02,-0.38,0.28,-0.22,1721201515671
-2.09,8.97,18.94,0.07,-0.08,-0.36,1721201515681
-0.60,-3.07,4.30,0.24,0.07,-0.20,1721201515691
-1.14,-5.11,9.24,-0.36,0.36,-0.04,1721201515701
-2.62,6.93,13.99,0.16,-0.05,0.01,1721201515711
0.69,-1.35,3.02,0.06,0.28,-0.09,1721201515721
1.83,-1.29,12.79,-0.06,0.17,-0.07,1721201515731
-0.75,0.14,8.94,0.14,-0.00,-0.31,1721201515741
-1.43,-1.96,10.11,-0.16,0.12,-0.16,1721201515751
-1.45,3.49,18.56,0.07,0.22,-0.11,1721201515761
-2.57,4.98,7.85,0.28,-0.02,-0.08,1721201515771
-2.33,-6.43,2.56,-0.11,0.13,-0.07,1721201515781
-1.60,-3.90,12.22,-0.09,0.11,-0.07,1721201515791
0.71,2.73,14.26,0.17,0.31,-0.15,1721201515801
-1.03,-0.32,10.06,0.02,-0.01,-0.17,1721201515811
-4.29,6.31,12.77,0.27,-0.05,-0.11,1721201515821
-1.84,-0.40,8.19,0.09,0.15,0.07,1721201515831
-0.09,-1.42,12.46,0.02,0.04,0.17,1721201515841
-0.23,-0.20,7.74,0.20,0.01,-0.05,1721201515851
-0.51,-3.07,4.99,-0.01,0.11,-0.09,1721201515861
-0.32,0.84,8.56,0.14,0.13,-0.15,1721201515871
0.50,-4.09,15.86,-0.13,0.22,-0.12,1721201515881
-2.08,8.53,15.29,0.37,-0.06,-0.04,1721201515891
-0.99,-1.96,1.04,0.01,0.04,-0.08,1721201515901
-0.93,-5.87,15.09,-0.33,-0.09,0.08,1721201515911
-1.02,4.10,15.74,0.31,0.01,-0.04,1721201515921
-1.03,1.16,-1.44,0.15,0.05,-0.04,1721201515931
-5.19,-5.49,11.52,-0.32,-0.03,0.01,1721201515941
-0.11,-2.76,16.15,0.14,-0.15,0.16,1721201515951
-0.19,4.48,4.88,0.17,0.09,-0.00,1721201515961
1.08,1.66,7.35,-0.13,0.07,-0.05,1721201515971
0.91,0.51,16.27,0.09,-0.03,-0.10,1721201515981
-1.04,1.00,6.04,0.22,-0.19,0.05,1721201515991
-1.28,1.57,9.39,-0.05,0.06,-0.05,1721201516001
-0.56,3.96,16.43,0.17,-0.17,0.09,1721201516011
2.08,1.55,8.24,0.17,0.09,0.18,1721201516021
0.87,-2.03,4.81,-0.03,-0.19,0.08,1721201516031
-0.22,5.98,10.45,0.07,0.07,-0.23,1721201516041
0.60,3.79,10.65,0.03,-0.01,-0.29,1721201516051
-2.22,-2.99,10.75,-0.05,-0.14,-0.05,1721201516061
-2.52,-0.22,5.10,0.05,-0.05,0.07,1721201516071
-0.83,1.34,9.53,-0.05,0.07,0.11,1721201516081
2.81,4.11,13.54,0.12,0.04,0.24,1721201516091
4.04,3.30,6.91,0.09,0.04,-0.07,1721201516101
2.73,-3.52,9.43,-0.20,-0.01,-0.35,1721201516111
-2.68,3.96,16.47,0.00,-0.08,-0.45,1721201516121
-5.02,-1.65,10.35,-0.07,-0.12,-0.23,1721201516131
-5.36,2.56,10.13,0.01,-0.03,0.12,1721201516141
0.38,1.87,6.42,0.08,0.12,0.36,1721201516151
3.23,-4.86,12.02,-0.28,0.19,0.06,1721201516161
0.23,0.69,10.38,-0.05,-0.25,-0.16,1721201516171
-2.57,5.26,10.13,-0.22,0.13,-0.27,1721201516181
-2.29,1.58,15.43,0.01,-0.18,0.07,1721201516191
0.11,-8.28,2.50,-0.21,0.03,0.11,1721201516201
-0.07,3.34,12.17,-0.18,0.04,-0.08,1721201516211
-0.05,1.21,9.79,-0.09,-0.06,-0.12,1721201516221
-0.79,-1.54,8.97,-0.14,-0.02,0.09,1721201516231
-1.03,-0.79,7.57,-0.08,-0.06,0.06,1721201516241
1.18,-2.90,7.58,-0.37,0.06,-0.07,1721201516251
0.11,5.13,14.13,-0.21,-0.06,-0.13,1721201516261
-1.30,-2.01,13.27,-0.28,-0.07,-0.19,1721201516271
0.43,-1.92,7.43,-0.16,0.20,0.07,1721201516836
1.13,-2.38,13.20,-0.21,0.27,-0.03,1721201516840
-0.36,-0.65,16.55,0.04,0.05,-0.24,1721201516849
-2.74,2.81,4.72,0.21,0.06,-0.09,1721201516859
-1.51,-2.98,5.61,-0.12,0.22,-0.12,1721201516868
-2.77,3.21,12.73,0.22,-0.07,0.07,1721201516878
-1.11,2.01,7.80,0.07,0.22,0.14,1721201516887
-0.83,-1.92,13.40,0.05,0.06,0.06,1721201516897
0.24,-0.20,5.69,0.15,0.07,-0.03,1721201516907
0.88,-1.61,10.06,-0.14,0.12,-0.02,1721201516917
-1.60,0.55,13.82,0.02,-0.06,-0.23,1721201516927
-1.89,2.54,6.68,0.32,-0.00,-0.18,1721201516937
-1.60,-4.02,3.21,-0.11,0.28,0.15,1721201516947
-2.50,2.80,18.78,-0.01,0.16,0.05,1721201516957
-1.47,-2.58,9.81,0.11,-0.18,-0.01,1721201516967
-2.17,1.24,11.53,-0.08,0.22,0.13,1721201516977
1.04,1.19,15.85,0.10,0.11,0.14,1721201516987
1.14,-0.74,9.41,0.12,-0.08,0.08,1721201516997
-0.10,-1.46,9.78,-0.07,0.02,0.00,1721201517007
-0.56,8.52,13.49,0.31,-0.01,-0.07,1721201517017
0.63,0.68,4.18,0.09,0.05,0.00,1721201517027
-1.82,-1.37,9.94,-0.02,-0.05,0.04,1721201517037
-1.60,2.15,7.22,0.19,-0.03,0.02,1721201517047
0.08,-0.34,7.24,-0.12,0.14,0.04,1721201517057
-1.09,1.14,16.63,0.05,-0.11,0.10,1721201517067
0.64,-1.82,9.48,0.15,-0.00,0.10,1721201517077
0.17,2.24,9.90,0.22,-0.05,0.04,1721201517087
0.38,1.79,3.64,0.07,0.01,0.01,1721201517097
0.08,-2.90,9.68,-0.22,-0.00,-0.01,1721201517107
-1.38,4.24,13.94,0.25,-0.14,-0.05,1721201517117
0.20,-0.99,3.55,0.08,0.10,0.09,1721201517127
0.62,-3.15,12.74,-0.27,0.09,0.16,1721201517137
0.73,6.73,17.61,0.17,-0.05,-0.05,1721201517147
0.57,0.70,7.94,-0.01,-0.01,-0.09,1721201517157
-2.32,0.52,10.17,-0.09,-0.09,-0.10,1721201517167
-2.36,-2.84,3.10,-0.12,-0.19,0.12,1721201517177
-0.80,0.08,17.44,-0.29,0.18,0.18,1721201517187
0.27,6.86,12.82,0.26,-0.27,0.21,1721201517197
2.88,-1.42,2.05,-0.07,0.08,0.03,1721201517207
0.98,-1.26,13.34,-0.26,-0.05,-0.06,1721201517217
-2.50,4.30,13.31,0.05,-0.18,-0.14,1721201517227
-2.38,0.99,4.64,-0.05,-0.05,-0.02,1721201517237
-1.97,-6.95,5.09,-0.34,-0.17,0.31,1721201517247
-0.39,4.69,13.03,-0.03,0.02,0.17,1721201517257
4.72,-1.90,7.73,-0.11,0.09,0.10,1721201517267
0.82,1.75,12.42,-0.20,-0.10,-0.24,1721201517277
-2.33,-1.43,8.51,-0.22,-0.18,-0.30,1721201517287
-3.44,-5.05,6.20,-0.37,-0.05,0.04,1721201517297
-2.16,-3.67,15.16,-0.26,-0.02,0.13,1721201517307
-0.92,-5.17,15.10,-0.25,-0.13,0.16,1721201517317
-0.74,6.28,12.68,-0.00,-0.10,0.10,1721201517327
1.02,7.45,10.35,0.05,0.16,0.04,1721201517337
1.24,-5.02,5.13,-0.12,-0.20,-0.03,1721201517347
-1.77,-7.18,7.42,-0.18,0.01,-0.11,1721201517357
-3.04,6.71,13.18,0.04,-0.06,-0.24,1721201517367
0.41,20.58,19.51,0.04,-0.10,0.16,1721201517377
1.92,-0.68,9.21,-0.06,0.00,0.19,1721201517387
1.58,-19.00,0.73,-0.35,-0.00,-0.46,1721201517397
-6.22,2.60,8.61,-0.02,-0.23,-0.50,1721201517407
-3.00,1.16,8.21,0.03,0.05,0.07,1721201517417
0.88,3.78,14.14,0.14,0.15,0.36,1721201517427
4.47,-1.78,6.36,0.05,-0.07,0.11,1721201517437
2.17,-7.60,9.22,-0.43,-0.10,-0.33,1721201517447
-1.20,3.41,18.96,0.12,-0.06,-0.62,1721201517457
-4.54,-3.03,-0.58,0.14,-0.22,-0.17,1721201517467
-2.39,1.02,5.10,-0.02,0.18,0.28,1721201517477
4.46,-2.17,11.22,0.18,0.19,0.27,1721201517487
3.93,2.56,10.44,0.14,0.08,-0.32,1721201517497
0.77,0.73,13.02,0.02,-0.09,-0.57,1721201517507
-3.43,-2.10,9.72,-0.01,-0.05,-0.29,1721201517517
-3.07,5.41,1.47,0.44,-0.01,0.22,1721201517527
1.53,-18.94,-2.55,-0.67,0.24,0.22,1721201517537
-2.39,-5.83,64.68,-0.45,0.10,-0.46,1721201517547
-1.45,28.46,35.99,1.11,-0.26,-0.24,1721201517557
-2.64,-18.18,-33.04,0.84,-0.37,0.27,1721201517567
-0.65,-2.39,11.28,-0.95,1.94,0.18,1721201517577
6.27,10.15,41.84,0.19,-0.31,-0.13,1721201517587
-1.56,-6.69,-7.74,0.36,-0.38,-0.13,1721201517597
-1.58,7.65,21.80,0.07,0.10,-0.04,1721201517607
1.39,5.88,10.89,0.60,-0.19,0.04,1721201517617
2.69,-4.76,-1.73,0.23,0.35,-0.06,1721201517627
3.27,0.50,7.44,0.32,0.23,-0.22,1721201517637
-1.77,2.08,9.40,0.17,0.21,-0.30,1721201517647
-3.88,14.77,17.99,0.43,-0.03,-0.08,1721201517657
-0.90,-0.54,4.64,0.22,0.13,0.18,1721201517667
0.71,-12.02,5.64,-0.19,0.16,0.02,1721201517677
-0.44,6.45,13.10,0.20,0.03,-0.12,1721201517687
0.66,-3.42,2.98,-0.20,0.16,-0.14,1721201517697
-2.58,0.16,12.84,0.01,-0.01,-0.10,1721201517707
-0.67,0.71,2.33,0.16,0.14,0.12,1721201517717
2.00,1.60,11.48,-0.27,0.31,0.15,1721201517727
2.16,3.05,17.17,-0.01,-0.02,-0.09,1721201517737
1.51,-4.18,5.46,-0.22,0.08,-0.28,1721201517747
-0.62,-4.00,14.94,-0.23,0.09,-0.19,1721201517757
-1.56,-1.25,11.19,0.09,0.05,-0.12,1721201517767
-1.77,3.77,7.08,-0.03,0.11,0.02,1721201517777
-1.02,7.28,8.72,-0.05,0.13,-0.02,1721201517787
-0.45,-4.57,0.96,-0.29,0.00,-0.02,1721201517797
-1.59,-1.86,5.56,-0.19,0.02,0.07,1721201517807
0.94,-6.85,-5.43,-0.34,0.09,0.16,1721201517817
6.62,-10.07,32.08,-1.04,0.67,-0.19,1721201517827
0.60,28.99,49.55,0.58,-0.33,-0.33,1721201517837
-5.13,-6.65,-13.80,0.45,-0.50,-0.24,1721201517847
-1.71,-7.91,-2.19,-1.45,0.77,0.11,1721201517857
7.83,11.89,19.40,-0.23,0.40,0.27,1721201517867
1.88,-5.13,5.94,0.59,0.32,-0.18,1721201517877
2.45,4.83,1.34,-0.48,0.27,-0.25,1721201517887
-0.85,-0.45,15.40,-0.10,-0.13,-0.20,1721201517897
-3.31,-4.49,18.14,0.07,0.09,0.19,1721201517907
-0.39,9.88,14.05,0.29,0.13,0.16,1721201517917
1.85,2.76,5.59,0.16,-0.05,-0.05,1721201517927
0.27,-4.87,6.52,0.05,-0.17,-0.10,1721201517937
-0.45,-2.90,8.33,-0.01,0.15,-0.16,1721201517947
0.12,2.64,16.08,0.05,0.13,-0.22,1721201517957
-2.72,4.83,11.94,0.28,-0.12,-0.17,1721201517967
-3.71,-4.50,3.17,0.05,-0.00,0.09,1721201517977
0.48,-1.41,11.16,0.07,0.20,0.26,1721201517987
4.01,1.03,13.72,0.06,0.12,-0.02,1721201517997
1.06,2.89,15.55,-0.01,-0.03,-0.43,1721201518007
-3.37,0.91,8.44,0.21,-0.16,-0.47,1721201518017
-4.72,-4.22,1.52,0.02,0.04,-0.08,1721201518027
-2.45,-2.04,10.54,-0.06,0.14,0.26,1721201518037
2.28,1.59,12.65,0.16,0.13,0.16,1721201518047
2.13,-0.07,6.30,0.05,0.01,-0.18,1721201518057
-0.76,4.88,10.73,0.06,0.06,-0.43,1721201518067
-1.74,1.70,9.01,0.10,0.07,-0.31,1721201518077
-3.03,-3.68,10.30,-0.16,-0.01,-0.02,1721201518087
-1.92,-2.84,13.69,-0.01,-0.03,0.10,1721201518097
-0.24,3.45,13.47,0.11,0.03,-0.02,1721201518107
0.20,2.10,6.31,0.11,-0.14,-0.04,1721201518117
-1.65,-1.18,4.36,0.00,-0.06,-0.08,1721201518127
-2.34,0.80,8.04,0.02,0.16,-0.03,1721201518137
0.06,-4.94,12.24,-0.29,0.02,0.04,1721201518147
0.25,4.95,22.43,0.15,-0.10,0.06,1721201518157
0.96,0.29,2.27,0.22,-0.15,0.15,1721201518167
0.97,1.75,11.71,-0.18,0.24,-0.05,1721201518177
0.58,-1.26,12.63,0.09,-0.31,-0.14,1721201518187
-2.97,0.85,5.39,-0.12,-0.02,-0.05,1721201518197
-2.40,4.17,13.91,0.03,0.04,0.09,1721201518207
0.45,-1.10,8.53,-0.01,-0.03,0.10,1721201518217
-0.32,3.32,10.24,-0.05,-0.17,0.08,1721201518227
-0.18,-0.67,7.48,-0.14,-0.05,-0.02,1721201518237
-2.24,-0.61,13.53,-0.23,-0.05,-0.10,1721201518247
-2.99,3.99,12.86,0.12,-0.20,0.11,1721201518257
-0.80,1.35,4.96,-0.06,-0.06,0.33,1721201518267
1.78,2.64,12.73,-0.04,-0.06,0.32,1721201518277
2.99,1.04,12.02,0.03,-0.11,0.04,1721201518287
0.42,-0.07,7.75,-0.02,-0.26,-0.04,1721201518297
-2.12,-4.48,7.26,-0.30,-0.10,-0.01,1721201518307
-2.45,3.79,17.29,-0.02,-0.22,0.15,1721201518317
0.73,1.00,10.16,0.09,-0.13,0.34,1721201518327
1.40,-2.92,7.49,-0.23,-0.12,0.17,1721201518337
0.19,0.69,10.21,-0.10,-0.34,-0.10,1721201518347
0.65,-1.52,8.21,-0.14,-0.01,-0.07,1721201518357
-0.58,-2.40,11.61,-0.09,-0.11,0.08,1721201518367
-0.84,-5.75,8.44,-0.18,-0.22,0.21,1721201518377
0.41,5.29,13.55,0.08,-0.11,0.14,1721201518387
3.52,-3.44,7.06,-0.07,-0.07,-0.02,1721201518397
2.45,-0.66,16.52,-0.16,-0.05,-0.09,1721201518407
-1.39,10.19,11.54,0.23,-0.19,-0.28,1721201518417
-0.96,-5.57,0.77,-0.18,-0.16,-0.15,1721201518427
-0.45,-2.88,16.07,-0.22,0.02,-0.04,1721201518437
0.00,1.59,16.94,0.04,-0.24,-0.14,1721201518447
-0.19,4.46,6.32,0.19,-0.01,-0.12,1721201518457
0.05,1.46,3.05,0.04,0.00,-0.10,1721201518467
0.95,-1.02,9.89,-0.05,0.02,-0.18,1721201518477
0.87,0.63,13.13,0.03,-0.02,-0.19,1721201518487
-1.15,-2.24,11.64,0.02,-0.13,-0.25,1721201518497
-0.98,-1.91,12.19,0.06,-0.04,-0.13,1721201518507
-0.17,1.81,8.61,0.08,0.03,-0.16,1721201518517
0.12,2.71,12.07,0.19,-0.05,-0.17,1721201518527
0.66,-5.46,4.86,0.00,-0.11,-0.07,1721201518537
0.25,3.97,16.95,0.18,0.09,-0.17,1721201518547
-0.29,1.17,9.69,0.18,-0.09,-0.31,1721201518557
-2.20,-0.38,6.62,0.01,-0.03,-0.15,1721201518567
-1.44,0.20,9.17,0.14,0.07,-0.10,1721201518577
0.55,-1.34,8.92,0.07,0.01,0.03,1721201518587
1.36,2.39,12.45,0.12,0.05,-0.11,1721201518597
1.27,-0.91,10.13,0.05,-0.01,-0.23,1721201518607
-0.90,0.69,10.07,0.13,-0.04,-0.19,1721201518617
0.24,0.52,5.80,0.15,0.12,-0.05,1721201518627
1.13,-3.52,9.39,-0.01,0.03,-0.14,1721201518637
1.46,3.14,19.11,0.19,0.16,-0.20,1721201518647
1.96,-1.00,5.46,0.24,-0.00,-0.13,1721201518657
0.08,-1.33,8.72,0.00,0.18,-0.38,1721201518667
-0.99,2.54,12.58,0.19,0.05,-0.37,1721201518677
-1.31,-0.79,7.13,0.01,0.09,-0.21,1721201518687
-2.65,1.78,13.70,0.07,0.08,-0.14,1721201518697
-1.86,-2.12,5.32,0.06,0.04,-0.14,1721201518707
-1.28,2.87,13.51,-0.08,0.22,-0.14,1721201518717
-1.22,3.20,10.92,0.15,-0.04,-0.04,1721201518727
0.37,-0.31,5.95,-0.02,0.18,-0.05,1721201518737
1.45,2.61,14.36,-0.05,0.07,-0.14,1721201518747
1.21,0.68,8.64,0.12,-0.01,-0.24,1721201518757
-1.06,0.54,6.24,-0.13,0.11,-0.36,1721201518767
-2.88,0.10,14.89,-0.10,0.08,-0.22,1721201518777
-2.43,1.23,12.84,0.15,0.05,-0.01,1721201518787
0.06,3.44,3.75,0.13,0.12,0.11,1721201518797
1.84,0.92,8.54,-0.15,0.12,-0.03,1721201518807
2.26,-0.45,15.88,-0.06,0.09,-0.30,1721201518817
-0.61,0.81,6.76,0.09,-0.09,-0.26,1721201518827
-1.84,-2.30,7.44,-0.15,0.02,-0.03,1721201518842
0.10,-4.66,11.82,-0.15,0.13,-0.01,1721201518846
-0.90,4.48,15.24,0.12,0.03,-0.10,1721201518856
1.42,3.17,6.67,0.16,0.07,-0.06,1721201518866
2.53,-3.06,7.40,-0.16,0.13,-0.16,1721201518876
-1.65,-0.91,12.61,-0.06,-0.07,-0.35,1721201518886
-3.62,0.71,13.24,0.05,0.10,-0.30,1721201518896
-1.47,0.73,9.72,0.06,0.10,0.04,1721201518906
-1.80,0.56,6.97,-0.05,0.01,0.02,1721201518916
-0.42,-0.82,11.88,0.01,0.11,-0.13,1721201518926
1.76,-0.05,11.61,0.00,0.18,-0.11,1721201518936
-1.97,2.13,9.40,-0.01,-0.11,-0.22,1721201518946
-2.78,-0.35,7.64,-0.02,-0.00,-0.16,1721201518956
-0.96,-2.72,9.34,-0.17,0.09,0.02,1721201518966
0.43,2.40,13.58,0.02,0.07,-0.03,1721201518976
1.74,-1.20,5.86,0.01,-0.03,-0.07,1721201518986
-1.14,1.80,10.42,-0.13,0.04,-0.25,1721201518996
-1.05,-1.04,11.27,-0.07,0.05,-0.29,1721201519006
-2.63,-0.50,11.85,-0.06,0.04,-0.15,1721201519016
-2.69,3.37,9.47,0.11,-0.03,0.01,1721201519026
2.04,-2.09,11.34,-0.14,0.26,0.10,1721201519036
0.83,2.41,15.31,0.11,-0.09,-0.08,1721201519046
0.31,-1.47,6.27,0.02,-0.01,-0.21,1721201519056
-0.69,-0.19,5.40,-0.08,-0.01,-0.08,1721201519066
-0.92,0.86,12.52,-0.08,0.03,-0.05,1721201519076
0.31,0.59,11.75,0.14,-0.09,-0.08,1721201519086
-0.34,4.66,6.51,0.11,0.05,-0.12,1721201519096
1.85,-0.28,9.45,-0.14,0.14,-0.15,1721201519106
0.85,-0.14,17.57,-0.04,-0.00,-0.24,1721201519116
-1.98,-0.37,10.87,0.11,-0.15,-0.22,1721201519126
-2.17,3.42,6.26,0.19,0.00,-0.12,1721201519136
-0.87,-0.87,6.36,-0.04,0.03,-0.02,1721201519146
-2.11,1.87,8.41,0.04,-0.19,-0.03,1721201519156
1.14,-0.86,11.25,-0.06,0.32,-0.28,1721201519166
1.17,1.32,14.75,0.13,-0.02,-0.26,1721201519176
0.07,1.60,11.48,0.07,0.20,-0.20,1721201519186
-0.04,4.29,11.79,0.20,0.04,-0.11,1721201519196
-0.04,-0.51,6.06,-0.00,0.04,-0.21,1721201519206
-1.43,0.98,12.86,0.07,0.05,-0.36,1721201519216
-0.76,1.97,9.34,0.19,0.08,-0.23,1721201519226
-0.06,0.44,14.20,-0.13,0.19,-0.13,1721201519236
-1.58,3.40,12.15,0.30,-0.17,-0.02,1721201519246
0.72,-3.49,1.76,-0.12,0.24,-0.10,1721201519256
0.79,-2.91,14.09,-0.21,0.10,-0.30,1721201519266
-2.12,6.45,15.39,0.17,0.02,-0.32,1721201519276
-2.15,3.50,8.11,0.16,0.03,-0.05,1721201519286
-1.60,0.72,2.35,0.04,0.02,0.18,1721201519296
2.90,0.57,12.22,-0.11,0.34,0.05,1721201519306
4.11,-2.88,13.84,-0.12,-0.04,-0.13,1721201519316
-1.22,4.57,12.77,-0.01,-0.08,-0.40,1721201519326
-3.27,-0.01,4.40,0.03,0.03,-0.20,1721201519336
-2.21,-2.76,6.85,-0.22,0.17,0.06,1721201519346
0.18,0.35,12.05,-0.08,0.04,0.04,1721201519356
2.13,-0.47,13.71,-0.15,0.22,-0.08,1721201519366
-1.66,2.86,10.86,0.08,-0.06,-0.18,1721201519376
-1.97,-1.41,5.19,-0.12,0.16,-0.11,1721201519386
-1.41,-5.51,9.60,-0.06,0.08,-0.08,1721201519396
-0.57,5.51,13.43,0.04,0.23,-0.10,1721201519406
-0.38,17.10,16.65,0.03,-0.05,-0.01,1721201519416
0.38,-8.59,4.33,-0.18,-0.04,-0.04,1721201519426
-0.41,-15.95,5.18,-0.43,0.15,-0.15,1721201519436
0.42,5.55,12.27,0.01,-0.07,-0.15,1721201519446
-1.08,0.97,12.56,-0.14,-0.02,0.05,1721201519456
-1.41,6.03,12.21,0.14,0.01,0.20,1721201519466
2.55,-0.07,5.63,0.11,0.22,-0.03,1721201519476
1.27,3.63,12.64,-0.17,0.04,-0.19,1721201519486
-2.42,-1.08,11.46,-0.14,-0.14,-0.29,1721201519496
-3.96,-0.49,12.47,0.03,0.05,0.01,1721201519506
-1.76,-2.12,6.35,0.12,0.06,0.24,1721201519516
2.03,-0.76,7.59,0.06,0.12,0.30,1721201519526
4.07,1.97,11.55,0.09,0.14,-0.17,1721201519536
1.47,6.07,12.38,0.28,-0.10,-0.44,1721201519546
-1.54,7.18,7.97,0.41,0.05,-0.13,1721201519556
0.01,5.34,-5.65,0.34,0.09,0.18,1721201519566
1.95,-30.32,13.84,-1.28,0.27,-0.26,1721201519576
-0.79,9.23,55.73,0.25,-0.49,-0.51,1721201519586
-5.56,24.38,-1.82,1.42,-0.15,0.00,1721201519596
0.37,-4.90,-32.07,0.31,0.25,0.40,1721201519606
-6.96,-34.95,36.17,-0.74,0.35,0.02,1721201519616
8.20,14.10,6.66,0.51,-2.44,0.29,1721201519626
-3.13,-18.24,-26.18,0.49,0.50,-0.19,1721201519636
1.52,-1.12,26.45,-0.65,0.96,-0.53,1721201519646
-2.03,5.69,39.86,0.37,-0.64,-0.14,1721201519656
-1.81,-3.40,1.29,0.26,0.11,0.11,1721201519666
0.60,2.76,4.24,-0.02,0.31,0.12,1721201519676
1.97,3.15,14.71,0.02,0.11,-0.10,1721201519686
2.88,2.65,8.89,0.11,0.18,-0.21,1721201519696
0.13,0.97,-4.10,-0.03,-0.07,-0.11,1721201519706
-1.58,-5.49,-5.83,-0.60,0.18,0.02,1721201519716
2.01,-21.80,43.84,-0.94,0.50,-0.56,1721201519726
0.33,31.96,37.84,1.18,-0.45,-0.27,1721201519736
-5.88,-17.31,-32.16,0.52,0.03,0.21,1721201519746
-4.05,6.66,21.16,-0.85,1.65,0.26,1721201519756
3.06,10.29,33.25,0.66,-2.07,0.48,1721201519766
-2.58,-8.76,-22.34,0.23,-0.06,0.01,1721201519776
10.19,-1.37,13.60,-0.51,0.97,-0.34,1721201519786
2.89,8.20,8.77,0.02,-0.11,-0.41,1721201519796
-4.16,3.14,5.42,0.04,0.28,-0.24,1721201519806
-1.79,-1.38,10.80,-0.02,0.24,0.25,1721201519816
0.96,2.39,7.29,0.12,0.09,0.45,1721201519826
4.45,0.68,7.73,-0.15,0.28,0.12,1721201519836
3.90,1.42,16.86,-0.14,0.09,-0.41,1721201519846
-0.26,-1.83,10.27,0.02,-0.04,-0.38,1721201519856
-4.41,1.41,5.85,-0.06,0.08,-0.21,1721201519866
-2.19,-0.93,14.09,-0.14,0.23,0.14,1721201519876
0.78,-0.28,8.88,0.14,0.15,0.13,1721201519886
2.24,-0.53,10.00,-0.11,0.28,-0.13,1721201519896
1.30,0.24,13.77,0.00,-0.05,-0.12,1721201519906
-1.21,3.07,4.41,0.07,0.13,-0.09,1721201519916
-0.87,-1.87,11.48,-0.17,0.31,-0.27,1721201519926
-1.61,-6.22,9.36,-0.04,-0.09,0.01,1721201519936
-1.53,1.73,11.41,-0.01,0.34,0.02,1721201519946
0.43,3.49,12.98,-0.00,0.07,-0.12,1721201519956
-1.48,1.99,4.20,0.12,-0.05,-0.01,1721201519966
0.17,-3.54,12.52,-0.20,0.42,0.09,1721201519976
0.95,-0.75,11.77,0.05,-0.00,0.07,1721201519986
0.24,1.85,9.67,-0.05,0.20,-0.04,1721201519996
-1.01,1.32,11.56,-0.08,0.11,-0.22,1721201520006
-1.58,2.68,10.92,0.09,0.11,-0.19,1721201520016
-1.99,0.38,11.68,-0.00,0.16,0.18,1721201520026
0.10,9.84,18.97,0.10,0.16,0.07,1721201520036
0.28,3.45,7.50,0.07,-0.07,-0.03,1721201520046
-1.85,-9.02,3.50,-0.38,0.11,-0.21,1721201520056
-2.68,7.65,18.10,0.12,-0.01,-0.10,1721201520066
-1.79,-7.08,0.53,-0.25,0.01,0.04,1721201520076
-1.65,-6.97,11.16,-0.40,0.13,0.11,1721201520086
-0.89,-0.80,11.85,0.17,-0.09,0.16,1721201520096
2.10,2.48,3.29,-0.14,0.21,0.21,1721201520106
2.90,5.49,16.02,0.01,0.14,0.08,1721201520116
2.37,-11.66,5.87,-0.13,-0.08,-0.25,1721201520126
-3.61,-8.83,11.25,-0.10,0.10,-0.30,1721201520136
-3.59,7.06,11.44,0.47,0.05,-0.02,1721201520146
-0.66,2.86,4.06,0.15,0.10,0.22,1721201520156
-0.01,4.08,11.86,0.37,-0.01,0.28,1721201520166
3.24,-7.95,-0.78,0.25,0.14,0.11,1721201520176
4.83,-3.37,16.52,-0.21,0.41,-0.12,1721201520186
1.19,6.24,23.56,0.40,-0.14,-0.24,1721201520196
-1.92,-14.72,15.66,-0.18,0.02,-0.33,1721201520206
-3.35,13.59,27.68,0.59,-0.20,-0.19,1721201520216
-4.91,18.33,7.09,0.72,-0.04,-0.04,1721201520226
-3.46,-1.43,6.24,-0.43,0.20,0.01,1721201520236
-3.24,-0.14,24.46,0.16,-0.10,0.03,1721201520246
-2.80,6.46,-7.65,0.84,-0.21,0.14,1721201520256
-2.89,-7.20,-10.52,-0.10,0.14,0.34,1721201520266
2.95,3.33,21.98,0.25,0.17,0.35,1721201520276
3.99,5.05,2.34,0.81,-0.87,0.10,1721201520286
9.44,4.89,-16.05,0.41,0.47,-0.12,1721201520296
5.12,3.42,-0.20,-0.32,0.14,-0.24,1721201520306
-1.90,-4.84,5.74,-0.05,-0.13,-0.32,1721201520316
-13.93,-10.69,9.08,-0.28,0.37,-0.28,1721201520326
-2.72,-4.70,12.71,0.11,-0.18,0.09,1721201520336
-3.30,0.23,-0.66,-0.20,-0.05,0.45,1721201520346
2.03,0.22,16.58,-0.50,0.22,0.28,1721201520356
3.43,0.60,10.80,0.10,-0.29,0.07,1721201520366
1.12,-7.40,-8.03,-0.41,0.04,-0.14,1721201520376
-1.42,-4.21,10.86,-0.80,0.00,-0.13,1721201520386
0.39,-19.19,52.90,-1.06,0.42,-0.50,1721201520396
-3.65,17.04,55.39,0.71,-0.56,-0.54,1721201520406
-11.65,-1.94,-21.45,0.93,-0.55,0.10,1721201520416
-10.72,11.42,-10.20,-0.96,0.19,1.20,1721201520426
8.69,-6.86,29.44,-0.35,0.62,1.06,1721201520436
6.02,-23.64,-1.11,-0.04,-0.97,0.48,1721201520446
15.93,-2.73,-8.52,0.04,0.44,-0.29,1721201520456
12.84,8.27,15.58,-0.69,-0.00,-0.79,1721201520466
0.34,5.97,16.74,-0.29,-0.61,-1.12,1721201520476
-6.02,-2.41,8.35,-0.02,-0.07,-0.81,1721201520486
-11.34,-0.31,6.17,-0.02,-0.04,-0.03,1721201520496
-6.36,-2.20,13.33,-0.06,0.17,0.56,1721201520506
2.40,4.04,17.54,0.08,0.20,0.66,1721201520516
3.85,3.79,11.06,0.19,-0.04,0.40,1721201520526
5.65,3.02,8.32,0.19,0.15,-0.08,1721201520536
3.17,0.99,11.42,0.12,0.02,-0.57,1721201520546
-0.37,1.77,13.15,0.20,-0.18,-0.58,1721201520556
-5.02,0.58,10.03,0.33,0.02,-0.50,1721201520566
-4.70,-2.80,9.99,0.20,-0.03,-0.03,1721201520576
-1.70,5.03,13.22,0.35,0.14,0.27,1721201520586
2.44,0.46,7.38,0.38,0.10,0.16,1721201520596
3.77,-3.62,7.98,0.15,0.14,-0.14,1721201520606
1.07,0.27,12.86,0.20,0.05,-0.46,1721201520616
-2.59,2.41,8.97,0.24,-0.06,-0.45,1721201520626
-4.24,0.02,6.08,0.18,0.02,-0.03,1721201520636
-0.92,-1.65,8.87,0.08,0.19,0.15,1721201520646
2.15,-3.38,13.57,0.08,0.05,0.01,1721201520656
0.38,-1.88,9.22,0.15,-0.02,-0.13,1721201520666
-0.83,2.05,9.00,0.08,0.15,-0.18,1721201520676
-0.61,-0.78,9.94,0.07,0.04,0.01,1721201520686
-0.54,-2.05,8.87,0.06,0.09,0.01,1721201520696
-0.10,-1.47,9.27,0.06,0.10,0.01,1721201520706
0.50,0.21,10.70,0.00,0.15,-0.01,1721201520716
-0.08,-0.06,14.38,0.04,0.06,-0.01,1721201520726
-0.54,3.15,6.22,0.29,0.03,0.01,1721201520736
1.20,-4.33,3.62,-0.15,0.24,0.05,1721201520746
0.70,-0.05,17.93,-0.08,0.01,-0.08,1721201520756
-1.50,2.54,5.65,0.25,-0.06,-0.01,1721201520766
-0.52,-0.74,5.90,-0.24,0.29,0.06,1721201520776
0.41,3.00,20.20,0.00,-0.02,0.15,1721201520786
0.43,1.61,7.70,0.13,0.05,-0.03,1721201520796
0.43,0.94,5.96,-0.18,0.16,-0.16,1721201520806
-1.17,2.69,13.57,-0.12,0.07,-0.13,1721201520816
-1.71,4.74,9.55,0.12,0.12,-0.02,1721201520826
-0.17,-0.06,5.05,-0.07,0.13,0.12,1721201520836
1.06,-1.59,13.24,-0.18,0.04,0.04,1721201520851
1.58,-0.55,14.09,-0.12,0.06,0.00,1721201520855
0.65,2.25,11.79,0.00,0.09,-0.21,1721201520865
-0.38,2.14,6.68,-0.04,-0.01,-0.15,1721201520875
-1.67,-0.53,11.14,-0.08,0.14,-0.06,1721201520885
-0.45,1.45,11.25,0.09,0.07,-0.00,1721201520895
-0.18,-1.51,9.66,-0.13,0.09,0.03,1721201520905
-0.36,1.93,12.29,-0.05,0.02,-0.13,1721201520915
-0.32,-0.00,8.90,-0.02,0.04,-0.08,1721201520925
-1.84,-0.89,8.28,-0.07,0.12,-0.07,1721201520935
-1.06,-1.60,9.05,-0.04,0.04,0.03,1721201520945
-1.47,0.69,13.42,-0.11,0.16,-0.01,1721201520955
-2.01,1.06,9.25,0.03,-0.17,0.01,1721201520965
-0.63,0.51,8.05,-0.11,0.18,0.16,1721201520975
0.97,-1.46,11.19,-0.09,0.02,0.09,1721201520985
-0.13,-3.45,10.88,-0.10,-0.12,0.04,1721201520995
-0.48,2.44,11.78,-0.13,0.08,-0.01,1721201521005
-0.46,2.43,11.29,0.07,0.01,-0.12,1721201521015
-0.51,-3.11,7.48,-0.06,-0.05,0.05,1721201521025
-2.13,-0.12,12.08,-0.17,0.06,0.05,1721201521035
-0.63,3.25,11.71,0.08,-0.08,0.12,1721201521045
0.04,-0.57,8.50,-0.07,0.05,0.11,1721201521055
-0.37,-1.00,14.72,-0.07,-0.07,0.03,1721201521065
-1.19,1.04,9.17,0.07,-0.14,0.10,1721201521075
-0.42,-1.47,9.13,-0.02,-0.01,0.17,1721201521085
1.05,-1.17,9.06,0.06,-0.15,0.19,1721201521095
1.01,1.73,10.73,0.04,-0.01,0.07,1721201521105
2.18,1.94,13.13,-0.00,0.07,-0.09,1721201521115
-0.16,0.96,13.35,0.04,-0.07,-0.22,1721201521125
-3.25,0.33,5.79,0.25,-0.28,0.03,1721201521135
0.66,-2.47,7.26,-0.00,0.34,0.12,1721201521145
1.65,-0.55,17.44,-0.08,-0.09,-0.05,1721201521155
-0.86,6.11,13.46,0.31,-0.22,-0.19,1721201521165
-1.92,0.40,1.34,0.12,-0.05,-0.18,1721201521175
-0.40,-2.68,14.43,-0.19,0.08,0.09,1721201521185
-0.27,3.44,14.26,0.21,-0.24,0.10,1721201521195
0.44,-1.65,6.28,0.03,-0.04,-0.12,1721201521205
-0.91,1.65,12.37,0.06,-0.03,-0.22,1721201521215
-1.76,1.51,9.30,0.18,-0.09,-0.14,1721201521225
-2.08,0.38,10.17,0.04,-0.04,-0.02,1721201521235
-1.41,0.88,10.00,0.12,-0.19,0.12,1721201521245
0.42,2.04,10.25,0.10,0.01,0.07,1721201521255
1.99,1.41,10.17,0.12,-0.08,-0.08,1721201521265
0.15,-0.01,9.06,0.03,-0.17,-0.19,1721201521275
-2.56,1.49,8.71,0.06,-0.16,-0.27,1721201521285
-2.24,-1.56,9.21,-0.07,-0.09,-0.02,1721201521295
-1.79,3.53,12.50,0.13,-0.11,0.13,1721201521305
1.24,-0.95,4.28,-0.01,-0.06,0.21,1721201521315
1.87,0.64,11.44,-0.15,-0.02,0.07,1721201521325
1.54,0.64,13.57,-0.01,-0.14,-0.10,1721201521335
-0.94,1.65,8.78,-0.02,-0.11,-0.12,1721201521345
-1.57,0.88,10.12,-0.09,-0.03,-0.06,1721201521355
-0.79,-2.11,9.20,-0.12,-0.12,0.08,1721201521365
-0.68,1.47,11.09,-0.10,-0.06,0.03,1721201521375
0.33,-1.15,11.09,-0.18,-0.12,-0.03,1721201521385
-0.82,3.11,12.91,0.02,-0.07,0.02,1721201521395
-0.69,-0.06,5.45,-0.04,-0.12,0.04,1721201521405
-0.22,-5.29,10.64,-0.37,-0.02,0.02,1721201521415
-1.60,2.75,15.13,0.01,-0.22,0.01,1721201521425
0.09,-1.72,4.99,-0.09,-0.11,0.09,1721201521435
0.52,0.65,11.74,-0.16,-0.08,0.13,1721201521445
1.46,2.75,12.89,-0.05,-0.12,0.02,1721201521455
0.52,0.32,7.73,-0.13,-0.15,-0.15,1721201521465
-2.03,-5.20,6.45,-0.24,-0.15,-0.14,1721201521475
-2.43,-1.05,10.63,-0.17,-0.07,-0.01,1721201521485
-0.67,2.50,11.64,-0.05,-0.06,0.15,1721201521495
1.32,-0.33,11.00,-0.15,-0.11,0.18,1721201521505
1.51,0.54,13.52,-0.21,-0.08,-0.04,1721201521515
1.58,1.85,11.99,-0.05,-0.15,-0.18,1721201521525
-0.25,-0.32,5.41,-0.04,-0.08,-0.12,1721201521535
-0.96,0.15,10.29,-0.02,-0.08,0.01,1721201521545
1.52,0.97,10.42,0.08,-0.01,0.02,1721201521555
1.25,-1.08,10.93,0.01,-0.14,-0.08,1721201521565
0.98,0.88,12.49,0.05,-0.09,-0.12,1721201521575
-0.28,4.48,13.41,0.05,-0.03,-0.23,1721201521585
-0.45,0.50,10.05,0.13,-0.15,-0.11,1721201521595
0.41,-3.00,4.25,0.14,-0.01,-0.04,1721201521605
0.73,-0.80,10.30,0.04,0.04,-0.21,1721201521615
0.13,1.40,14.60,0.08,-0.10,-0.20,1721201521625
-1.04,3.61,11.17,0.23,-0.06,-0.11,1721201521635
1.72,-3.01,5.66,0.06,0.09,0.02,1721201521645
1.53,-1.36,11.30,0.04,0.04,-0.16,1721201521655
0.47,1.19,12.36,0.11,0.05,-0.41,1721201521665
-0.61,-0.19,12.99,0.07,-0.02,-0.19,1721201521675
-0.05,2.67,9.73,0.17,0.10,-0.02,1721201521685
2.04,-1.15,9.60,0.05,0.16,-0.27,1721201521695
0.98,-1.34,8.97,0.15,0.01,-0.41,1721201521705
-0.31,1.67,11.21,0.08,0.26,-0.38,1721201521715
-1.94,4.48,10.85,0.24,0.04,-0.31,1721201521725
-1.05,-0.49,5.02,0.08,0.19,-0.15,1721201521735
0.70,-3.61,12.50,0.01,0.25,-0.20,1721201521745
-0.13,0.89,10.24,0.25,0.04,-0.26,1721201521755
-0.24,1.21,7.58,0.05,0.24,-0.23,1721201521765
0.30,2.33,15.41,0.17,0.18,-0.25,1721201521775
-1.11,1.58,7.41,0.24,0.10,-0.28,1721201521785
-1.64,2.24,8.21,0.08,0.30,-0.26,1721201521795
-1.57,-1.07,9.48,-0.07,0.16,-0.19,1721201521805
-2.04,-0.01,13.88,-0.02,0.14,-0.10,1721201521815
-0.58,-0.19,8.29,0.13,0.15,-0.03,1721201521825
-0.09,-0.08,8.35,-0.14,0.18,-0.13,1721201521835
-0.28,2.75,14.58,-0.02,0.10,-0.17,1721201521845
-0.81,0.48,6.24,0.03,0.10,-0.14,1721201521855
-1.27,-0.16,7.44,-0.19,0.21,-0.07,1721201521865
-0.29,-0.61,10.51,-0.05,0.12,0.03,1721201521875
1.38,0.04,10.32,-0.12,0.21,-0.12,1721201521885
0.75,-0.59,11.73,-0.10,0.02,-0.17,1721201521895
-1.05,3.41,8.64,-0.03,0.20,-0.26,1721201521905
-0.51,2.44,11.54,-0.12,0.20,-0.21,1721201521915
-0.66,-3.04,10.21,-0.15,0.11,-0.12,1721201521925
-1.44,-3.08,10.14,-0.13,0.15,-0.11,1721201521935
0.08,-0.53,8.16,-0.09,0.24,-0.18,1721201521945
-0.13,1.87,10.79,-0.14,0.13,-0.22,1721201521955
-1.65,2.66,10.82,-0.09,0.03,-0.16,1721201521965
-1.79,-2.94,9.41,-0.11,0.22,-0.09,1721201521975
0.30,-2.29,12.03,-0.17,0.20,-0.03,1721201521985
0.90,0.74,10.50,-0.13,0.10,-0.08,1721201521995
1.13,1.03,12.13,-0.17,0.28,-0.22,1721201522005
0.30,3.04,12.78,0.02,0.12,-0.24,1721201522015
-3.10,-3.49,5.85,-0.04,0.01,-0.22,1721201522025
-4.15,0.65,11.28,-0.07,0.25,-0.12,1721201522035
-0.43,6.46,15.23,0.09,0.23,-0.03,1721201522045
-0.34,1.64,6.83,0.09,-0.05,0.07,1721201522055
-1.66,-4.18,5.24,-0.06,0.09,0.03,1721201522065
-0.60,-0.20,13.16,0.07,0.27,-0.06,1721201522075
0.34,3.15,10.44,0.19,0.16,-0.11,1721201522085
-1.40,0.53,9.12,0.06,-0.00,-0.09,1721201522095
-3.30,1.66,11.78,0.23,0.01,-0.02,1721201522105
-2.45,0.23,5.47,0.17,0.12,0.08,1721201522115
0.62,0.37,11.94,-0.10,0.20,0.14,1721201522125
0.20,0.15,13.52,0.12,-0.08,-0.04,1721201522135
-1.47,-0.73,8.16,-0.01,0.01,-0.16,1721201522145
-3.16,4.10,13.74,0.12,-0.05,-0.03,1721201522155
-1.08,-2.13,8.08,0.10,0.06,0.20,1721201522165
-0.23,-0.96,10.20,0.06,-0.01,0.25,1721201522175
0.19,-0.05,7.46,0.09,-0.04,0.11,1721201522185
2.75,4.64,13.76,0.05,0.31,-0.03,1721201522195
-0.98,1.75,10.98,0.23,-0.28,-0.10,1721201522205
-3.35,-0.28,4.67,0.07,-0.16,0.02,1721201522215
-1.01,1.14,10.94,0.02,0.07,0.12,1721201522225
0.39,-0.53,10.12,0.03,-0.06,0.06,1721201522235
-0.75,2.85,11.91,0.06,-0.07,-0.02,1721201522245
-1.84,1.67,8.95,0.15,-0.13,0.01,1721201522255
-2.08,-3.70,7.05,0.04,-0.05,0.09,1721201522265
-0.46,1.86,12.61,0.08,-0.02,0.21,1721201522275
2.21,4.70,12.02,0.21,-0.17,0.17,1721201522285
2.80,1.04,7.53,0.08,-0.12,0.09,1721201522295
2.64,-2.82,9.25,-0.13,-0.07,-0.02,1721201522305
1.47,-0.29,20.10,0.03,-0.01,-0.34,1721201522315
-1.64,2.00,8.32,0.34,-0.30,-0.22,1721201522325
-2.89,2.03,2.03,-0.11,0.07,0.10,1721201522335
-0.17,1.25,16.11,0.06,-0.03,0.22,1721201522345
2.19,-2.43,7.29,0.18,-0.05,0.12,1721201522355
0.56,-0.40,6.66,-0.20,-0.11,-0.15,1721201522365
-3.22,3.14,15.11,-0.07,-0.23,-0.29,1721201522375
-5.21,2.30,9.55,0.04,-0.20,-0.01,1721201522385
-3.17,-1.44,6.42,0.03,-0.03,0.41,1721201522395
1.51,-6.86,4.27,-0.22,0.00,0.48,1721201522405
3.11,0.80,13.79,-0.22,-0.07,0.13,1721201522415
2.18,0.38,15.44,-0.09,-0.20,-0.23,1721201522425
-0.61,2.78,7.51,0.12,-0.15,-0.27,1721201522435
-2.40,1.30,4.01,-0.12,-0.02,-0.09,1721201522445
-2.06,-1.84,10.93,-0.35,-0.10,0.12,1721201522455
-1.85,-4.95,14.52,-0.22,-0.10,-0.03,1721201522465
-1.40,0.05,12.36,-0.05,-0.08,-0.09,1721201522475
-0.74,4.20,3.24,0.09,-0.25,0.16,1721201522485
1.14,0.69,8.20,-0.25,0.02,0.21,1721201522495
2.39,0.88,17.61,-0.24,-0.02,-0.12,1721201522505
0.87,-3.48,11.69,-0.20,-0.21,-0.41,1721201522515
-3.55,1.60,8.91,-0.17,-0.25,-0.18,1721201522525
-2.67,4.17,10.01,-0.01,-0.01,0.20,1721201522535
3.51,-5.46,7.45,-0.06,-0.02,0.22,1721201522545
4.59,-4.28,10.28,-0.08,-0.13,-0.07,1721201522555
2.98,4.79,10.84,-0.01,-0.08,-0.46,1721201522565
-1.79,1.05,16.18,-0.20,-0.15,-0.52,1721201522575
-2.76,7.25,12.14,0.25,-0.11,-0.20,1721201522585
-1.25,-10.20,-2.77,0.11,-0.01,0.08,1721201522595
-1.41,-6.60,13.92,-0.23,0.26,0.01,1721201522605
0.50,9.61,25.56,0.23,0.09,-0.24,1721201522615
0.75,4.78,9.60,0.39,-0.13,-0.34,1721201522625
0.41,-1.78,1.19,0.18,0.04,-0.07,1721201522635
1.00,-2.15,12.39,-0.02,0.23,-0.25,1721201522645
-0.54,3.07,17.62,0.26,-0.16,-0.29,1721201522655
-1.87,0.45,3.85,0.14,-0.05,-0.14,1721201522665
-0.47,1.13,9.64,0.15,0.19,-0.09,1721201522675
2.00,-3.55,13.52,-0.00,0.17,-0.26,1721201522685
-2.65,4.21,17.20,0.25,-0.20,-0.44,1721201522695
-1.12,3.06,-0.34,0.35,0.11,-0.06,1721201522705
2.86,-4.23,7.60,-0.21,0.40,-0.08,1721201522715
-0.75,6.73,13.44,0.42,-0.14,-0.23,1721201522725
0.18,-8.39,-2.56,-0.06,0.19,-0.22,1721201522735
-1.46,-2.73,19.29,-0.12,0.28,-0.24,1721201522745
-0.68,3.96,12.96,0.50,-0.09,-0.29,1721201522755
-0.52,-1.30,2.50,0.06,0.22,-0.13,1721201522765
-1.41,3.40,11.37,0.10,0.07,-0.17,1721201522775
-0.55,-0.21,10.05,0.04,0.20,-0.12,1721201522785
-1.41,-0.82,9.47,0.08,0.01,-0.12,1721201522795
-1.74,1.50,7.31,-0.03,0.13,-0.07,1721201522805
-0.21,3.46,15.24,0.02,0.21,-0.02,1721201522815
1.27,-0.11,7.51,0.20,0.08,-0.06,1721201522825
0.45,0.04,3.08,-0.23,0.20,-0.15,1721201522835
0.67,3.48,18.98,-0.02,0.21,-0.23,1721201522845
-1.28,4.80,8.19,0.03,0.31,-0.12,1721201522860
-3.03,3.43,8.31,-0.06,0.07,-0.09,1721201522864
-0.29,0.99,10.51,-0.04,0.25,-0.03,1721201522874
1.81,-3.13,13.45,-0.22,0.20,-0.06,1721201522884
-0.32,3.11,11.83,0.07,-0.10,-0.10,1721201522894
-0.29,1.19,6.82,-0.01,0.23,-0.20,1721201522904
0.12,1.99,10.68,-0.01,0.14,-0.22,1721201522914
-0.80,-1.26,9.37,-0.07,0.09,-0.11,1721201522924
-1.15,-1.73,6.47,-0.04,0.08,0.00,1721201522934
0.99,0.21,11.08,-0.12,0.39,-0.18,1721201522944
-0.80,-0.09,11.93,-0.07,0.01,-0.23,1721201522954
-0.32,0.62,16.32,-0.01,0.21,-0.11,1721201522964
-1.11,-2.27,8.27,0.02,0.00,-0.03,1721201522974
-2.10,1.78,5.37,-0.01,0.05,0.07,1721201522984
1.26,4.61,14.18,-0.07,0.38,-0.04,1721201522994
1.34,-1.28,11.93,0.11,-0.05,-0.18,1721201523004
-3.07,-2.08,1.84,-0.11,-0.07,-0.18,1721201523014
-2.84,-1.19,11.23,-0.19,0.26,-0.13,1721201523024
0.22,2.33,19.34,0.04,0.15,0.04,1721201523034
-1.18,2.80,5.48,0.31,-0.07,0.02,1721201523044
-0.89,-2.94,-4.99,-0.09,0.10,-0.01,1721201523054
3.85,-14.31,9.21,-0.63,0.31,-0.05,1721201523064
-0.81,6.56,29.71,0.22,0.00,-0.18,1721201523074
-2.54,3.01,5.67,0.38,-0.02,-0.13,1721201523084
-2.78,0.75,2.62,-0.20,0.18,0.06,1721201523094
-0.74,-0.80,11.67,0.09,0.06,0.15,1721201523104
0.79,-7.42,9.40,-0.14,0.22,0.03,1721201523114
0.53,9.94,16.42,0.22,0.01,-0.19,1721201523124
0.17,-1.10,6.61,0.05,-0.05,-0.22,1721201523134
-3.14,-2.59,14.35,-0.12,0.03,-0.04,1721201523144
-2.40,2.42,8.06,0.31,-0.04,0.13,1721201523154
0.85,-1.05,8.35,-0.05,0.21,0.12,1721201523164
0.32,2.85,14.11,0.07,-0.11,-0.11,1721201523174
0.09,1.99,6.35,0.27,-0.05,-0.07,1721201523184
-0.37,3.02,6.87,0.13,0.20,0.03,1721201523194
2.20,-0.94,13.34,0.04,0.10,-0.04,1721201523204
-0.54,1.27,11.12,0.20,-0.17,-0.07,1721201523214
-2.11,2.47,7.18,0.04,0.06,-0.15,1721201523224
-0.85,-0.69,10.59,0.09,0.04,-0.08,1721201523234
-0.34,-0.98,9.38,0.16,0.03,-0.01,1721201523244
-1.17,-1.05,7.70,-0.02,-0.02,0.00,1721201523254
-0.69,1.00,13.13,0.00,-0.03,-0.02,1721201523264
1.35,0.36,9.11,0.15,0.04,-0.03,1721201523274
0.29,0.40,8.97,-0.00,0.11,-0.25,1721201523284
-2.32,3.40,10.11,0.13,-0.16,-0.26,1721201523294
-1.57,-3.00,10.68,-0.11,0.16,0.00,1721201523304
-1.75,2.40,14.51,0.01,-0.09,0.14,1721201523314
0.20,-0.57,4.08,0.00,-0.10,0.12,1721201523324
1.76,1.73,10.24,-0.02,0.13,-0.04,1721201523334
1.35,3.61,7.05,0.10,-0.12,-0.06,1721201523344
-0.51,-0.14,11.64,-0.22,0.07,-0.09,1721201523354
-2.00,5.10,15.05,0.20,-0.16,-0.05,1721201523364
-1.72,0.49,0.80,0.01,0.01,0.08,1721201523374
-1.14,-1.69,12.16,-0.37,0.15,0.05,1721201523384
-0.42,-3.06,19.97,-0.07,-0.13,0.01,1721201523394
-1.05,1.77,7.40,0.26,-0.13,0.16,1721201523404
1.22,0.92,0.12,0.02,0.13,0.15,1721201523414
1.76,-2.24,14.60,-0.20,0.17,0.03,1721201523424
-0.65,1.03,12.94,0.05,-0.33,-0.16,1721201523434
-1.69,-2.84,7.24,-0.19,0.03,-0.21,1721201523444
-3.36,-0.36,15.89,-0.08,-0.12,-0.12,1721201523454
-2.77,1.16,9.07,0.09,-0.01,0.09,1721201523464
-0.95,-0.99,8.49,-0.14,0.09,0.15,1721201523474
0.61,0.48,9.82,0.04,-0.08,0.07,1721201523484
1.02,-3.37,6.01,-0.15,0.02,0.00,1721201523494
0.74,1.87,13.78,-0.03,-0.10,0.02,1721201523504
0.04,0.69,6.24,0.02,-0.10,-0.11,1721201523514
-0.05,-2.55,12.61,-0.26,0.02,-0.09,1721201523524
-1.12,2.01,20.12,-0.04,-0.10,-0.08,1721201523534
-2.20,2.88,12.87,0.13,-0.17,-0.00,1721201523544
-0.78,2.63,9.57,0.08,0.07,0.10,1721201523554
0.80,-0.33,5.85,0.11,-0.02,0.02,1721201523564
1.31,-0.96,3.69,0.06,-0.11,-0.04,1721201523574
1.22,3.37,7.69,0.05,-0.00,-0.11,1721201523584
1.83,-0.38,13.95,-0.01,0.01,-0.16,1721201523594
0.04,0.70,14.65,0.14,-0.08,-0.18,1721201523604
-1.19,-2.04,6.14,0.05,-0.08,-0.13,1721201523614
-1.67,-0.24,17.71,-0.01,0.12,-0.08,1721201523624
-0.96,1.89,11.44,0.25,-0.12,0.06,1721201523634
0.31,-0.42,6.03,0.05,0.04,0.12,1721201523644
1.63,1.10,9.11,0.15,0.06,-0.08,1721201523654
1.70,1.71,6.53,0.05,0.01,-0.17,1721201523664
0.47,0.96,11.42,-0.02,0.01,-0.23,1721201523674
-0.37,2.55,8.00,0.17,0.01,-0.21,1721201523684
-0.04,-2.78,5.44,-0.11,0.14,-0.10,1721201523694
-0.42,-3.28,17.03,-0.14,0.05,-0.09,1721201523704
-0.76,0.90,15.62,0.18,0.06,-0.25,1721201523714
-0.23,2.05,8.10,0.10,0.06,-0.06,1721201523724
0.69,2.85,7.46,0.14,0.05,0.04,1721201523734
2.32,0.21,8.27,0.00,0.24,-0.21,1721201523744
-0.18,-1.53,12.63,-0.03,-0.00,-0.42,1721201523754
-3.22,-0.91,10.94,0.08,0.05,-0.29,1721201523764
-2.77,3.01,10.69,0.09,0.16,-0.04,1721201523774
-0.22,3.89,9.08,0.14,0.11,0.11,1721201523784
1.38,0.03,7.85,0.00,0.17,-0.02,1721201523794
1.80,-4.40,8.31,-0.13,0.05,-0.27,1721201523804
-0.82,3.07,14.01,-0.01,0.09,-0.27,1721201523814
-0.99,1.10,8.17,0.01,0.12,-0.16,1721201523824
-1.35,-2.77,10.78,-0.07,0.11,-0.07,1721201523834
-0.90,1.12,9.53,0.11,0.12,-0.03,1721201523844
0.51,-3.38,9.31,-0.20,0.21,-0.09,1721201523854
-0.29,4.85,18.21,0.01,0.08,-0.11,1721201523864
-0.38,4.42,5.68,0.15,0.03,-0.17,1721201523874
-0.45,-4.81,5.83,-0.22,0.18,-0.11,1721201523884
0.14,-0.31,12.94,0.04,0.14,-0.11,1721201523894
1.18,0.80,11.72,0.00,0.28,-0.16,1721201523904
1.26,2.72,13.65,0.06,0.17,-0.26,1721201523914
-1.37,3.22,7.35,0.16,0.08,-0.23,1721201523924
-1.67,-2.75,6.85,-0.06,0.21,-0.12,1721201523934
-0.78,-1.29,14.05,-0.01,0.22,-0.05,1721201523944
0.21,2.33,14.57,-0.01,0.15,-0.06,1721201523954
-0.81,5.69,6.53,0.23,0.02,-0.11,1721201523964
-0.51,-2.35,4.75,-0.09,0.33,-0.16,1721201523974
-0.00,-2.06,12.72,-0.02,0.10,-0.04,1721201523984
-0.47,0.54,8.40,0.05,0.17,-0.12,1721201523994
0.21,4.78,11.50,0.04,0.21,-0.17,1721201524004
-1.48,-1.71,3.01,0.07,-0.08,-0.09,1721201524014
-1.33,-5.96,10.06,-0.28,0.32,0.03,1721201524024
0.95,3.20,20.39,0.21,0.21,-0.05,1721201524034
0.54,3.77,5.93,0.16,0.13,-0.24,1721201524044
-2.50,5.09,9.48,-0.13,0.10,-0.30,1721201524054
-3.35,-1.07,8.72,-0.00,-0.02,-0.11,1721201524064
-3.09,-7.85,7.39,-0.26,0.19,0.09,1721201524074
-2.13,-0.50,16.10,-0.05,0.08,0.06,1721201524084
-1.09,2.89,10.59,-0.03,-0.02,0.01,1721201524094
-1.94,7.35,13.97,0.02,-0.01,0.04,1721201524104
-1.99,-2.43,4.87,-0.13,0.04,0.00,1721201524114
0.12,-8.87,11.11,-0.34,0.20,0.14,1721201524124
0.65,-0.46,15.58,-0.12,-0.08,0.22,1721201524134
1.11,2.95,7.55,-0.03,-0.03,0.10,1721201524144
1.55,2.45,7.38,-0.04,0.15,-0.07,1721201524154
0.40,-3.37,4.91,-0.16,-0.00,-0.06,1721201524164
-1.94,-1.48,10.50,-0.25,0.08,-0.00,1721201524174
-0.61,2.30,16.31,-0.00,0.10,0.03,1721201524184
-0.51,-4.03,8.19,-0.12,0.01,0.02,1721201524194
-0.70,-5.14,18.21,-0.17,0.22,0.05,1721201524204
-0.39,8.97,22.01,0.38,0.03,0.10,1721201524214
-0.43,10.54,6.32,0.27,-0.04,0.11,1721201524224
0.16,3.09,4.04,-0.14,0.11,0.10,1721201524234
-0.46,-9.56,10.15,-0.28,0.00,-0.08,1721201524244
-1.21,-5.54,24.88,-0.15,-0.02,-0.05,1721201524254
-0.99,10.33,23.56,0.72,-0.10,0.11,1721201524264
0.47,5.36,-6.65,0.49,-0.11,0.24,1721201524274
2.76,6.69,10.55,-0.06,0.35,0.12,1721201524284
1.56,0.06,21.16,0.43,-0.61,-0.07,1721201524294
-0.15,-0.54,-1.65,0.14,0.06,-0.39,1721201524304
-5.60,3.68,6.03,-0.01,0.17,-0.36,1721201524314
-3.89,2.89,6.79,0.15,-0.11,0.21,1721201524324
-0.02,-5.04,8.68,-0.29,0.20,0.47,1721201524334
2.70,0.45,16.04,0.04,-0.08,0.28,1721201524344
3.78,0.47,2.06,0.11,-0.00,-0.03,1721201524354
0.69,4.13,-1.03,-0.21,0.01,-0.22,1721201524364
2.60,-5.02,10.58,-0.75,0.17,-0.17,1721201524374
-0.72,-5.94,39.65,-0.07,0.13,-0.04,1721201524384
-0.68,-3.34,15.01,0.68,-0.25,0.08,1721201524394
-1.10,-0.30,-1.08,0.05,0.14,0.07,1721201524404
-0.38,6.62,8.90,0.04,-0.00,0.05,1721201524414
1.17,-0.92,0.44,0.05,-0.06,0.00,1721201524424
0.77,-0.71,9.90,-0.33,0.15,-0.14,1721201524434
-2.23,-1.64,15.46,-0.01,-0.15,-0.16,1721201524444
-1.78,-4.85,11.93,-0.10,0.12,0.08,1721201524454
-1.03,4.15,12.42,0.20,0.01,0.18,1721201524464
2.10,1.22,2.50,0.02,0.03,0.05,1721201524474
1.66,1.75,11.60,-0.10,0.02,-0.13,1721201524484
-0.13,1.76,8.69,0.09,-0.05,-0.33,1721201524494
-3.37,1.42,9.46,-0.10,0.04,-0.26,1721201524504
-4.53,5.17,11.27,0.04,-0.08,0.04,1721201524514
-2.82,0.72,6.84,-0.00,0.03,0.32,1721201524524
1.57,-1.28,9.92,0.03,0.06,0.35,1721201524534
4.65,1.39,11.09,-0.11,0.06,0.00,1721201524544
2.48,8.77,17.69,0.09,-0.09,-0.30,1721201524554
-2.00,2.71,3.15,0.21,-0.17,-0.35,1721201524564
-2.56,-3.53,4.93,-0.29,0.16,-0.11,1721201524574
-1.71,-0.29,20.04,-0.04,0.01,0.03,1721201524584
-0.69,1.53,11.09,0.22,-0.06,0.04,1721201524594
0.63,3.79,11.29,-0.00,0.14,-0.02,1721201524604
1.09,0.75,5.66,0.14,-0.23,-0.06,1721201524614
0.66,-3.87,5.66,-0.15,0.17,-0.15,1721201524624
0.64,6.81,19.03,0.19,0.04,-0.33,1721201524634
-1.76,3.40,2.79,0.24,-0.18,-0.27,1721201524644
-2.94,-2.08,6.92,-0.24,0.18,-0.04,1721201524654
-1.75,-1.07,16.26,0.02,-0.05,0.05,1721201524664
0.33,0.97,9.77,0.22,0.02,0.05,1721201524674
0.25,0.45,3.02,0.08,-0.04,-0.02,1721201524684
-1.43,3.66,10.20,-0.02,0.04,-0.17,1721201524694
-0.09,2.11,10.60,0.14,-0.03,-0.12,1721201524704
0.32,-3.81,9.57,-0.18,0.11,0.01,1721201524714
-0.19,-0.43,15.18,0.02,-0.06,-0.03,1721201524724
0.08,-0.63,10.97,0.02,0.05,-0.06,1721201524734
-0.24,3.06,12.82,0.19,-0.04,-0.02,1721201524744
-0.56,-0.68,3.61,0.01,-0.04,-0.04,1721201524754
-0.24,-0.11,14.06,-0.10,0.06,-0.11,1721201524764
-0.82,0.59,8.45,0.25,-0.20,-0.04,1721201524774
-0.74,-0.11,7.00,-0.11,0.15,-0.01,1721201524784
-0.00,2.82,13.31,0.14,-0.17,-0.03,1721201524794
1.30,-1.45,9.88,-0.03,0.12,0.06,1721201524804
0.45,2.72,11.89,0.11,-0.12,-0.05,1721201524814
-0.35,-0.96,5.21,-0.05,0.02,-0.15,1721201524824
-1.80,3.77,12.99,-0.04,0.03,-0.09,1721201524834
-1.27,0.20,7.28,0.12,-0.09,0.08,1721201524844
0.42,-7.09,6.87,-0.21,0.12,0.12,1721201524854
2.44,4.66,16.62,0.18,-0.01,-0.08,1721201524869
1.47,5.51,10.58,0.24,-0.04,-0.14,1721201524873
0.13,3.27,6.90,-0.03,0.06,-0.27,1721201524883
-1.46,-1.09,10.93,-0.02,-0.05,-0.17,1721201524893
-2.69,-2.11,8.49,0.05,-0.02,-0.02,1721201524903
-0.09,1.80,10.75,0.04,0.23,-0.02,1721201524913
0.77,6.99,12.45,0.12,0.01,-0.08,1721201524923
-0.35,1.15,5.28,0.04,-0.13,-0.02,1721201524933
-0.41,-3.11,6.31,-0.15,0.09,0.00,1721201524943
-0.01,1.57,16.26,-0.05,0.10,-0.14,1721201524953
0.50,3.62,11.36,0.11,-0.08,-0.13,1721201524963
-1.06,2.06,5.83,-0.06,0.07,-0.16,1721201524973
-0.22,1.01,11.89,-0.04,0.08,-0.10,1721201524983
-0.21,-5.28,12.76,-0.15,0.04,-0.11,1721201524993
-1.87,2.86,14.74,0.17,-0.11,-0.10,1721201525003
-1.42,5.37,1.24,0.26,-0.04,-0.02,1721201525013
-0.44,0.37,3.11,-0.22,0.16,-0.08,1721201525023
-0.27,2.03,12.49,0.07,-0.11,-0.06,1721201525033
1.24,-5.23,9.20,-0.16,0.19,-0.13,1721201525043
-0.97,0.10,18.92,-0.11,-0.01,-0.12,1721201525053
-2.09,3.51,6.08,0.23,-0.10,-0.09,1721201525063
-1.13,3.78,5.37,-0.08,0.20,-0.02,1721201525073
1.56,-2.94,13.53,-0.08,-0.01,0.07,1721201525083
-0.26,0.58,13.03,0.03,0.05,-0.08,1721201525093
0.72,-0.62,9.38,0.03,0.05,-0.14,1721201525103
-1.07,5.36,13.13,0.05,0.19,-0.19,1721201525113
-0.92,-0.62,9.57,0.09,-0.08,-0.14,1721201525123
-1.89,2.90,7.90,0.14,-0.02,0.07,1721201525133
0.07,0.78,5.50,-0.04,0.05,0.07,1721201525143
-0.64,-0.42,12.57,-0.13,-0.01,-0.09,1721201525153
-1.27,-0.67,10.01,0.04,0.05,-0.11,1721201525163
0.64,1.33,10.27,0.07,0.21,-0.05,1721201525173
0.51,-3.73,6.35,-0.12,-0.10,-0.02,1721201525183
-1.35,-0.86,18.11,-0.17,0.15,-0.09,1721201525193
0.26,4.42,16.78,0.37,0.02,-0.12,1721201525203
-0.48,-0.01,-0.63,0.08,-0.03,-0.02,1721201525213
-2.88,-1.52,9.27,-0.27,0.16,-0.02,1721201525223
0.02,0.81,17.59,0.14,0.00,-0.08,1721201525233
0.96,-1.48,8.56,0.08,0.09,-0.04,1721201525243
-0.50,2.52,10.84,-0.03,0.02,-0.06,1721201525253
-1.36,3.54,6.79,0.16,-0.11,-0.00,1721201525263
1.24,-4.90,8.50,-0.27,0.22,-0.03,1721201525273
-0.23,5.43,15.97,0.22,-0.15,-0.16,1721201525283
-0.47,-3.38,2.25,-0.07,-0.03,-0.03,1721201525293
-4.20,1.52,12.05,-0.12,0.01,0.03,1721201525303
0.12,-2.68,11.26,0.01,0.13,-0.02,1721201525313
1.80,0.45,13.33,0.03,0.11,-0.01,1721201525323
1.23,1.11,9.15,0.10,-0.12,-0.06,1721201525333
-0.63,4.33,7.76,0.05,0.05,-0.19,1721201525343
-1.25,2.43,8.41,0.05,-0.14,-0.07,1721201525353
-1.57,0.71,10.54,-0.04,0.14,0.02,1721201525363
-0.33,-1.59,10.79,-0.00,0.06,-0.07,1721201525373
0.02,-1.23,10.29,-0.10,0.02,-0.05,1721201525383
-0.90,5.86,12.51,0.08,-0.03,-0.06,1721201525393
-0.97,-1.22,2.26,-0.02,-0.13,-0.07,1721201525403
-0.36,-4.30,13.50,-0.21,0.23,-0.01,1721201525413
0.95,-0.60,14.75,0.12,-0.01,-0.10,1721201525423
0.22,1.68,9.21,-0.04,0.11,-0.14,1721201525433
-0.88,2.91,12.62,0.05,0.05,-0.20,1721201525443
-1.17,1.74,8.96,0.16,-0.01,-0.05,1721201525453
-0.89,-2.26,7.56,-0.09,0.05,0.03,1721201525463
0.16,2.73,14.64,0.05,0.03,-0.08,1721201525473
-0.34,4.76,7.41,0.19,-0.07,-0.10,1721201525483
-0.23,0.72,7.32,-0.12,0.15,-0.07,1721201525493
-0.91,0.96,9.60,0.05,-0.08,-0.09,1721201525503
0.50,-5.68,5.16,-0.19,0.17,-0.07,1721201525513
-0.01,1.48,18.02,-0.10,0.08,-0.15,1721201525523
-0.42,5.53,12.74,0.25,-0.04,-0.17,1721201525533
-0.39,-0.73,4.78,-0.07,0.11,-0.11,1721201525543
-1.63,-0.27,13.83,-0.05,0.00,-0.07,1721201525553
-0.28,-0.59,10.91,0.06,0.09,-0.08,1721201525563
-1.07,3.06,10.66,0.02,0.10,-0.12,1721201525573
-1.20,2.71,10.73,0.04,0.03,-0.15,1721201525583
-1.36,-2.43,3.77,-0.01,-0.05,-0.03,1721201525593
-0.62,-3.42,9.72,-0.17,0.18,0.00,1721201525603
0.12,8.14,16.23,0.16,0.04,-0.07,1721201525613
0.74,3.58,4.68,-0.01,0.02,-0.14,1721201525623
-0.88,-7.52,6.82,-0.40,0.10,-0.16,1721201525633
-1.21,-6.02,18.52,-0.13,0.08,-0.15,1721201525643
-0.39,4.65,12.07,0.23,0.01,-0.07,1721201525653
-0.26,5.11,7.13,0.00,0.18,-0.00,1721201525663
-0.94,-0.40,8.04,0.01,0.00,-0.06,1721201525673
0.54,0.69,14.00,-0.12,0.13,-0.09,1721201525683
1.09,0.54,13.94,0.10,0.00,-0.07,1721201525693
-1.09,-1.81,7.38,-0.14,0.07,-0.10,1721201525703
-2.01,5.20,12.30,0.07,0.01,-0.08,1721201525713
1.86,-1.23,6.76,0.01,0.14,0.05,1721201525723
-1.24,4.60,14.36,-0.08,-0.03,-0.06,1721201525733
-1.65,-0.33,5.74,-0.01,-0.10,-0.13,1721201525743
-0.05,-0.64,12.24,-0.07,0.23,-0.11,1721201525753
1.73,3.96,12.24,0.21,0.05,0.08,1721201525763
2.08,-2.56,9.79,-0.30,0.00,-0.04,1721201525773
0.11,3.85,21.55,0.14,-0.26,-0.11,1721201525783
-3.24,4.35,-2.05,0.33,-0.03,-0.12,1721201525793
-1.12,0.97,7.09,-0.27,0.29,-0.15,1721201525803
-2.17,1.75,13.53,0.00,-0.32,0.16,1721201525813
-3.02,-5.21,5.94,-0.18,0.19,0.05,1721201525823
0.46,3.08,11.95,0.16,-0.01,0.15,1721201525833
3.25,-0.96,6.57,-0.20,0.33,0.08,1721201525843
2.70,2.98,21.57,-0.11,0.02,-0.18,1721201525853
-1.08,1.22,7.69,0.18,-0.22,-0.18,1721201525863
-3.55,-0.50,2.60,-0.19,0.14,-0.11,1721201525873
-1.88,1.01,12.66,0.05,0.11,0.03,1721201525883
1.94,-0.92,12.16,-0.07,0.25,0.11,1721201525893
0.85,4.79,13.07,0.12,-0.15,-0.01,1721201525903
0.03,-0.08,3.44,0.05,0.09,-0.13,1721201525913
-0.74,-1.45,10.99,-0.09,0.11,-0.08,1721201525923
-1.41,2.03,12.50,0.11,-0.03,-0.04,1721201525933
-0.72,1.22,6.11,0.12,0.13,0.02,1721201525943
0.23,-0.77,11.42,-0.08,0.21,-0.07,1721201525953
0.40,0.91,19.47,0.07,0.01,-0.01,1721201525963
-0.79,2.80,10.94,0.25,-0.04,0.04,1721201525973
-0.03,1.62,4.67,0.10,0.10,0.03,1721201525983
0.72,-1.50,6.28,-0.00,0.07,0.01,1721201525993
-0.03,0.44,12.97,0.02,0.12,-0.15,1721201526003
-0.35,4.01,13.55,0.28,0.02,-0.12,1721201526013
-0.50,2.02,2.85,0.16,0.11,-0.08,1721201526023
1.47,-3.40,14.83,-0.23,0.32,-0.06,1721201526033
1.15,2.22,19.18,0.30,-0.06,-0.06,1721201526043
-0.97,4.41,0.38,0.31,-0.01,-0.09,1721201526053
-0.72,1.90,4.63,-0.09,0.25,-0.20,1721201526063
-1.06,0.89,12.88,0.12,-0.02,-0.11,1721201526073
-1.16,-2.75,6.60,0.02,0.18,0.01,1721201526083
-0.59,-1.47,10.17,-0.00,0.20,-0.01,1721201526093
0.72,2.17,14.21,0.08,0.27,-0.11,1721201526103
1.21,3.41,12.38,0.21,0.10,-0.08,1721201526113
-0.71,-0.16,-0.65,-0.00,-0.10,-0.04,1721201526123
0.15,-5.79,11.26,-0.39,0.44,-0.19,1721201526133
0.74,0.35,24.39,0.12,0.04,-0.19,1721201526143
-0.95,3.94,6.35,0.42,0.04,-0.03,1721201526153
-0.10,-2.03,-0.73,-0.16,0.31,0.02,1721201526163
1.68,-2.09,16.89,-0.18,0.22,-0.09,1721201526173
2.29,0.41,19.07,0.10,0.20,-0.20,1721201526183
-1.35,4.06,13.97,0.15,0.14,-0.27,1721201526193
-2.97,-2.07,2.90,0.05,0.08,-0.05,1721201526203
-2.06,-2.48,8.63,-0.14,0.39,0.07,1721201526213
1.21,4.03,15.07,0.16,0.13,-0.03,1721201526223
0.04,3.01,5.73,0.02,0.08,-0.18,1721201526233
-2.36,2.75,7.87,-0.03,0.16,-0.23,1721201526243
-1.64,-2.57,5.69,-0.12,0.23,-0.05,1721201526253
-2.10,-3.47,14.34,-0.30,0.29,-0.03,1721201526263
-2.14,5.15,17.92,0.17,-0.04,-0.02,1721201526273
-1.79,1.50,4.57,0.06,0.19,0.03,1721201526283
-1.04,1.71,10.30,-0.14,0.21,0.07,1721201526293
-0.56,0.34,10.06,-0.01,-0.01,-0.03,1721201526303
-1.66,-0.16,10.39,-0.10,0.10,-0.11,1721201526313
-4.11,4.65,6.79,0.18,-0.05,-0.08,1721201526323
-3.80,1.00,1.51,-0.08,0.16,0.15,1721201526333
-2.73,-1.36,11.20,-0.28,0.04,0.17,1721201526343
-0.49,-1.71,20.27,-0.17,0.10,0.20,1721201526353
0.04,0.76,12.43,0.05,-0.00,0.21,1721201526363
0.48,0.64,6.17,-0.07,0.08,0.07,1721201526373
-0.08,2.33,11.20,-0.11,-0.03,0.04,1721201526383
-1.05,0.96,7.54,-0.01,-0.04,0.15,1721201526393
-1.68,-1.91,12.88,-0.28,0.12,0.08,1721201526403
-1.89,0.66,18.22,-0.05,-0.23,0.25,1721201526413
-2.04,3.01,5.75,0.12,-0.10,0.48,1721201526423
2.54,3.15,4.66,-0.03,0.09,0.37,1721201526433
3.41,-0.70,12.09,-0.15,-0.15,0.21,1721201526443
-0.30,4.42,14.18,0.04,-0.16,0.03,1721201526453
-2.95,2.12,3.98,0.06,-0.26,0.02,1721201526463
-2.98,-1.81,7.47,-0.19,-0.01,0.23,1721201526473
0.33,1.31,16.68,-0.05,-0.05,0.52,1721201526483
1.92,0.45,11.42,0.05,-0.28,0.50,1721201526493
1.19,0.78,6.84,0.01,-0.15,0.13,1721201526503
2.25,0.58,12.53,-0.08,0.01,-0.04,1721201526513
-0.07,2.04,12.97,-0.01,-0.39,0.12,1721201526523
-3.20,1.85,6.90,0.06,-0.30,0.26,1721201526533
-0.09,-2.47,8.93,-0.05,-0.04,0.31,1721201526543
2.04,0.90,14.05,0.06,-0.19,0.26,1721201526553
2.29,2.92,8.57,0.12,-0.21,0.11,1721201526563
0.14,0.71,8.84,-0.17,-0.19,-0.15,1721201526573
-1.79,2.46,14.04,0.10,-0.35,-0.06,1721201526583
-1.51,-4.02,5.23,-0.02,-0.10,0.09,1721201526593
-1.86,0.27,11.86,-0.10,-0.31,0.17,1721201526603
-0.62,3.56,9.81,0.19,-0.26,0.19,1721201526613
2.37,-0.20,7.81,0.02,-0.04,0.17,1721201526623
1.12,3.29,13.12,0.03,-0.35,0.00,1721201526633
0.28,0.18,9.97,0.08,-0.28,-0.07,1721201526643
-0.46,0.02,8.44,0.07,-0.22,0.04,1721201526653
0.73,1.24,7.37,0.04,-0.18,0.03,1721201526663
0.22,-0.19,5.15,0.03,-0.28,-0.07,1721201526673
1.08,0.68,11.88,-0.02,-0.02,-0.06,1721201526683
1.61,2.48,14.49,0.08,-0.12,-0.18,1721201526693
0.34,1.55,12.49,-0.03,-0.23,-0.21,1721201526703
0.21,1.21,11.67,0.02,-0.11,-0.24,1721201526713
-0.74,-0.92,7.41,0.04,-0.26,-0.18,1721201526723
-2.06,4.32,10.98,-0.02,-0.05,-0.27,1721201526733
-0.97,-1.54,8.00,-0.03,-0.25,-0.17,1721201526743
-1.38,-2.53,12.15,-0.12,-0.05,-0.14,1721201526753
0.94,1.57,12.39,0.17,-0.09,-0.11,1721201526763
2.01,1.78,6.97,0.05,0.04,-0.22,1721201526773
2.16,4.07,11.93,0.07,-0.09,-0.33,1721201526783
-0.47,0.11,4.16,0.03,-0.29,-0.39,1721201526793
-2.35,-2.44,11.02,-0.20,0.02,-0.36,1721201526803
-2.08,-1.34,15.15,0.08,-0.07,-0.32,1721201526813
-1.46,1.58,9.86,0.08,0.26,0.13,1721201527365
-1.85,2.17,9.52,0.07,0.07,0.23,1721201527369
1.43,0.83,8.98,0.01,0.11,0.03,1721201527378
1.15,-0.67,12.47,-0.20,0.08,-0.17,1721201527388
0.02,1.23,17.16,0.03,0.03,-0.24,1721201527397
-2.52,0.47,6.66,0.20,-0.05,-0.14,1721201527407
-3.18,0.21,3.93,-0.05,0.11,-0.03,1721201527417
-2.21,2.94,10.43,0.03,-0.08,0.12,1721201527427
0.50,-1.31,11.40,-0.14,0.15,0.05,1721201527437
0.21,1.50,15.65,0.05,-0.10,-0.01,1721201527447
0.24,-1.04,6.34,0.13,0.02,-0.03,1721201527456
-0.10,-2.92,7.56,-0.17,0.13,-0.06,1721201527466
-1.33,1.94,15.79,0.05,-0.10,-0.11,1721201527475
-0.58,2.80,9.53,0.24,0.01,-0.04,1721201527485
-0.62,2.33,7.60,0.04,0.00,-0.04,1721201527494
-1.90,1.26,5.58,-0.06,-0.14,0.00,1721201527504
-0.75,-1.87,11.15,-0.18,0.16,-0.02,1721201527514
0.54,-0.13,16.38,0.04,-0.01,0.05,1721201527524
0.01,0.56,10.37,0.08,0.03,-0.04,1721201527534
-0.96,0.20,8.74,-0.01,-0.08,-0.04,1721201527544
-1.22,-1.89,8.85,-0.02,-0.03,0.07,1721201527553
0.56,0.85,14.24,-0.01,0.14,0.12,1721201527563
1.24,2.38,14.24,0.13,-0.09,0.03,1721201527572
0.52,4.91,5.12,0.14,-0.09,-0.05,1721201527582
1.32,-1.46,5.40,-0.16,0.11,-0.14,1721201527592
-1.25,-0.22,14.45,-0.09,-0.12,-0.16,1721201527602
-2.17,0.74,10.12,0.21,-0.08,0.02,1721201527612
-1.14,1.76,5.49,0.02,0.07,0.13,1721201527622
1.62,2.10,12.45,-0.05,0.06,-0.03,1721201527632
1.51,-0.47,8.13,0.05,-0.19,-0.05,1721201527642
-0.80,0.16,9.81,-0.14,0.10,-0.13,1721201527652
-0.79,1.92,14.72,0.01,0.00,-0.23,1721201527662
-1.36,1.80,12.12,0.09,-0.01,-0.19,1721201527672
-1.34,1.04,8.02,0.01,-0.08,-0.05,1721201527682
-0.93,-0.69,7.19,-0.08,0.05,-0.02,1721201527692
0.23,-0.09,10.12,-0.01,0.07,-0.12,1721201527702
0.19,1.65,9.00,0.06,0.00,-0.11,1721201527712
-0.96,4.56,9.32,0.07,-0.03,-0.13,1721201527722
-0.23,1.51,11.51,-0.13,0.07,-0.13,1721201527732
-0.41,0.08,13.87,-0.08,-0.02,-0.10,1721201527742
0.51,-1.73,8.31,-0.01,0.03,-0.06,1721201527752
-0.24,1.78,9.48,0.01,0.07,-0.20,1721201527762
-1.40,6.19,8.83,0.14,-0.06,-0.20,1721201527772
-2.12,1.04,7.45,-0.18,0.07,-0.10,1721201527782
-2.19,-0.34,13.27,-0.19,-0.01,-0.03,1721201527792
-0.01,-1.73,11.83,-0.03,0.07,0.00,1721201527802
1.95,-0.26,11.23,0.08,0.09,-0.03,1721201527812
0.25,1.95,5.66,0.11,-0.09,-0.17,1721201527822
-1.65,5.20,6.68,-0.07,0.07,-0.24,1721201527832
-0.87,1.23,12.71,-0.14,0.05,-0.21,1721201527842
-1.37,-4.60,13.02,-0.09,-0.06,-0.01,1721201527852
-1.20,-1.38,10.96,0.08,0.05,0.04,1721201527862
0.97,4.35,11.32,0.13,0.11,-0.05,1721201527872
-0.21,3.86,6.79,0.02,-0.12,-0.10,1721201527882
-1.02,1.02,9.44,-0.16,0.12,-0.16,1721201527892
-1.26,-5.41,14.54,-0.14,0.02,-0.16,1721201527902
-2.98,0.16,11.72,0.21,-0.15,0.08,1721201527912
0.30,5.21,8.75,0.15,0.17,0.13,1721201527922
1.47,4.75,7.52,0.09,-0.12,0.02,1721201527932
0.51,-2.58,7.04,-0.24,0.08,-0.22,1721201527942
-0.92,-3.52,19.20,-0.12,0.00,-0.26,1721201527952
-2.89,0.18,10.25,0.29,-0.15,0.00,1721201527962
-1.06,5.56,7.07,0.17,0.14,0.19,1721201527972
1.31,2.50,7.98,0.07,-0.11,0.12,1721201527982
0.51,-1.06,6.85,-0.17,-0.08,-0.05,1721201527992
-0.50,-2.56,13.08,-0.08,-0.00,-0.16,1721201528002
-0.60,0.54,14.74,0.10,0.04,-0.14,1721201528012
-0.78,4.07,10.23,0.22,-0.05,0.08,1721201528022
-0.51,3.14,5.14,0.04,0.02,0.07,1721201528032
0.22,-2.48,8.14,-0.22,-0.05,-0.03,1721201528042
-0.95,-0.24,13.66,-0.03,-0.13,-0.04,1721201528052
0.49,-0.11,12.17,0.17,-0.03,0.10,1721201528062
0.38,4.27,8.29,0.24,-0.05,0.07,1721201528072
0.77,2.43,5.50,-0.11,-0.04,-0.09,1721201528082
-0.24,0.49,12.36,-0.12,-0.11,-0.16,1721201528092
-1.37,-3.89,10.67,-0.09,-0.02,-0.11,1721201528102
-1.47,1.14,15.90,0.16,0.04,0.02,1721201528112
-0.79,3.38,6.04,0.24,-0.16,0.16,1721201528122
0.69,1.99,7.17,-0.10,0.00,0.07,1721201528132
0.43,-0.05,10.97,-0.11,-0.16,-0.12,1721201528142
-0.41,-0.24,11.04,0.02,-0.07,-0.13,1721201528152
-0.32,-1.17,7.67,0.03,0.00,-0.12,1721201528162
-1.24,-2.53,9.14,-0.02,-0.13,-0.02,1721201528172
-1.29,0.24,10.40,-0.01,-0.17,0.03,1721201528182
1.36,4.41,14.73,0.04,0.12,-0.06,1721201528192
0.84,3.69,6.00,0.12,-0.13,-0.12,1721201528202
0.23,0.20,7.86,-0.23,0.09,-0.15,1721201528212
-0.79,-1.34,16.35,-0.01,-0.13,-0.09,1721201528222
-1.41,-1.01,9.04,0.03,-0.08,-0.03,1721201528232
-1.53,1.80,11.02,-0.03,-0.04,-0.05,1721201528242
0.28,2.09,11.07,0.14,-0.13,-0.03,1721201528252
1.00,-0.15,7.96,-0.03,-0.03,-0.03,1721201528262
0.99,2.20,12.55,-0.02,-0.10,-0.17,1721201528272
-0.67,1.53,7.60,0.03,-0.05,-0.30,1721201528282
-1.82,0.09,10.58,-0.07,0.03,-0.32,1721201528292
-2.10,1.55,10.64,0.11,-0.14,-0.09,1721201528302
-1.40,0.34,7.31,-0.02,-0.03,0.04,1721201528312
-0.07,1.54,10.23,-0.05,-0.09,-0.02,1721201528322
1.25,3.30,12.97,0.00,0.05,-0.18,1721201528332
2.57,0.57,8.53,0.05,-0.04,-0.18,1721201528342
-0.14,-1.44,6.10,-0.12,-0.06,-0.32,1721201528352
-1.09,-0.68,13.80,-0.08,0.05,-0.37,1721201528362
-1.48,1.82,15.74,0.10,-0.00,-0.23,1721201528372
-1.10,2.61,10.74,0.06,-0.02,-0.03,1721201528382
0.91,1.85,8.97,0.04,0.07,-0.11,1721201528392
1.57,-1.65,6.55,-0.08,-0.03,-0.24,1721201528402
-1.24,0.42,7.78,0.02,-0.06,-0.37,1721201528412
-0.89,1.21,10.58,0.07,0.16,-0.36,1721201528422
-0.69,2.30,12.84,0.08,0.01,-0.19,1721201528432
-0.44,1.75,13.19,-0.06,0.01,-0.07,1721201528442
0.50,2.79,12.07,-0.00,0.04,-0.24,1721201528452
0.53,-0.07,6.94,0.02,0.03,-0.37,1721201528462
-1.72,0.56,6.36,0.04,0.04,-0.41,1721201528472
-3.02,2.43,10.38,-0.01,0.11,-0.34,1721201528482
-2.82,2.19,13.48,0.01,-0.04,-0.16,1721201528492
-1.57,3.01,13.21,0.03,0.09,0.00,1721201528502
0.89,-3.62,8.07,-0.10,0.06,-0.06,1721201528512
-0.02,0.30,10.92,0.06,-0.04,-0.23,1721201528522
-0.18,2.66,8.00,0.19,0.13,-0.33,1721201528532
-2.06,1.54,7.33,-0.00,0.02,-0.29,1721201528542
-4.54,2.22,12.16,-0.12,-0.06,-0.19,1721201528552
-2.68,-0.44,11.71,0.04,0.02,0.01,1721201528562
0.76,-2.70,7.70,0.01,0.07,0.10,1721201528572
0.83,2.50,10.39,0.08,-0.00,-0.07,1721201528582
0.17,4.33,9.06,0.03,-0.01,-0.35,1721201528592
-2.58,1.14,10.48,-0.09,-0.13,-0.18,1721201528602
-3.50,-4.33,11.82,-0.17,-0.01,-0.01,1721201528612
-2.37,-3.46,12.42,0.04,-0.06,0.27,1721201528622
0.74,2.66,9.01,0.15,-0.06,0.33,1721201528632
4.13,5.78,10.24,0.05,0.04,0.10,1721201528642
3.15,1.50,7.53,-0.08,-0.14,-0.25,1721201528652
-1.15,-2.59,10.15,-0.30,-0.07,-0.40,1721201528662
-3.37,-1.21,18.31,0.03,-0.09,-0.20,1721201528672
-1.99,0.40,8.72,0.21,-0.07,0.18,1721201528682
0.72,4.55,7.35,0.05,0.04,0.13,1721201528692
1.90,2.87,7.62,-0.07,-0.14,-0.16,1721201528702
-0.51,1.12,10.50,-0.21,-0.04,-0.40,1721201528712
-2.39,-2.80,13.34,-0.14,-0.12,-0.23,1721201528722
-4.19,-1.77,13.95,-0.01,-0.07,0.05,1721201528732
-1.45,2.80,8.19,0.13,-0.07,0.26,1721201528742
3.01,1.10,5.92,-0.10,0.03,0.17,1721201528752
3.67,-0.09,12.72,-0.16,-0.12,-0.14,1721201528762
0.84,-2.70,10.52,-0.07,-0.17,-0.30,1721201528772
-0.02,-1.14,13.00,-0.01,0.08,-0.19,1721201528782
0.53,1.90,11.99,0.18,-0.05,-0.08,1721201528792
0.01,3.06,6.86,-0.03,-0.07,-0.09,1721201528802
0.52,2.25,11.36,-0.14,0.01,-0.28,1721201528812
0.05,-3.69,9.25,-0.14,-0.05,-0.33,1721201528822
-1.61,0.52,13.56,-0.03,0.03,-0.30,1721201528832
-1.03,0.92,9.35,0.11,0.05,-0.24,1721201528842
-0.75,2.38,9.47,-0.02,0.05,-0.23,1721201528852
-1.31,1.74,8.41,-0.07,-0.12,-0.25,1721201528862
-0.04,-1.27,10.98,-0.15,0.13,-0.34,1721201528872
0.34,-0.77,14.80,-0.01,0.05,-0.43,1721201528882
-1.41,-0.18,10.05,0.09,-0.01,-0.39,1721201528892
-2.53,3.36,8.69,0.13,0.05,-0.31,1721201528902
-0.98,1.35,6.96,0.02,0.09,-0.24,1721201528912
-0.45,1.15,11.50,-0.09,0.03,-0.19,1721201528922
0.06,-0.42,11.77,0.04,0.04,-0.25,1721201528932
0.32,0.24,10.83,0.03,0.14,-0.28,1721201528942
-0.26,4.97,10.53,0.19,0.03,-0.28,1721201528952
0.07,0.94,5.84,-0.03,0.10,-0.26,1721201528962
-1.09,-1.21,13.97,-0.15,0.09,-0.30,1721201528972
-0.76,-1.07,13.82,0.11,0.03,-0.23,1721201528982
0.40,2.64,11.80,0.13,0.20,-0.16,1721201528992
-0.57,4.53,5.43,0.24,-0.05,-0.28,1721201529002
-2.09,0.72,3.77,-0.10,0.16,-0.41,1721201529012
-1.74,-0.90,17.81,-0.08,0.20,-0.34,1721201529022
-2.11,-1.08,10.02,0.21,-0.02,-0.14,1721201529032
-0.94,2.64,6.95,0.07,0.22,-0.10,1721201529042
1.18,2.03,10.56,0.11,0.10,-0.19,1721201529052
0.10,0.97,6.21,0.09,0.03,-0.28,1721201529062
-0.87,0.03,9.59,-0.07,0.18,-0.38,1721201529072
-1.57,-0.96,14.09,0.00,0.07,-0.26,1721201529082
-1.39,2.23,14.94,0.11,0.19,-0.15,1721201529092
-0.03,4.79,8.91,0.24,0.13,-0.10,1721201529102
-0.38,1.68,3.38,-0.05,0.13,-0.25,1721201529112
-1.21,-1.71,7.83,-0.18,0.05,-0.26,1721201529122
-0.99,-2.37,13.39,-0.03,0.22,-0.21,1721201529132
0.49,-0.24,12.30,0.19,0.16,-0.11,1721201529142
1.09,2.77,9.34,0.16,0.17,-0.16,1721201529152
1.36,4.60,9.42,0.06,0.14,-0.32,1721201529162
0.53,1.37,11.73,-0.11,0.22,-0.49,1721201529172
-2.57,0.44,9.84,0.07,0.07,-0.44,1721201529182
-3.13,-3.77,6.94,-0.12,0.29,-0.27,1721201529192
-2.88,1.30,15.56,0.09,0.15,-0.07,1721201529202
-1.07,3.00,5.98,0.20,0.18,-0.04,1721201529212
1.96,1.84,8.48,-0.05,0.29,-0.09,1721201529222
2.67,0.09,11.02,-0.07,0.23,-0.29,1721201529232
0.64,-1.02,11.20,-0.03,0.19,-0.42,1721201529242
-2.04,0.47,8.47,0.09,0.17,-0.43,1721201529252
-2.31,1.81,7.53,0.01,0.31,-0.27,1721201529262
-1.37,0.29,13.20,-0.01,0.29,-0.12,1721201529272
0.09,1.39,13.15,0.09,0.23,-0.07,1721201529282
1.12,-0.57,8.96,0.01,0.23,-0.18,1721201529292
0.37,2.37,11.33,0.08,0.28,-0.36,1721201529302
-0.15,1.96,7.79,0.08,0.33,-0.39,1721201529312
-3.56,-0.33,9.00,-0.08,0.19,-0.27,1721201529322
-3.89,1.44,14.62,0.01,0.28,-0.10,1721201529332
-1.17,-1.23,9.89,0.09,0.29,0.06,1721201529342
0.84,1.45,10.20,0.11,0.28,-0.02,1721201529352
0.28,3.61,11.62,0.13,0.27,-0.29,1721201529367
-0.41,4.05,9.37,0.17,0.13,-0.27,1721201529371
-1.80,0.81,6.81,-0.04,0.30,-0.27,1721201529381
-2.72,-0.24,14.74,0.03,0.21,-0.06,1721201529391
-2.08,0.42,9.12,0.16,0.22,0.15,1721201529401
-0.37,1.67,7.14,0.08,0.31,0.13,1721201529411
1.09,2.46,9.58,0.08,0.21,-0.09,1721201529421
0.45,1.42,7.19,0.07,0.18,-0.10,1721201529431
-1.16,0.13,10.36,-0.10,0.32,-0.12,1721201529441
-1.30,0.63,14.48,0.08,0.14,0.04,1721201529451
-1.17,0.52,10.86,0.03,0.27,0.07,1721201529461
-1.25,1.28,8.44,0.09,0.07,0.08,1721201529471
-0.91,0.81,6.44,-0.03,0.27,0.05,1721201529481
0.12,0.54,11.06,-0.05,0.23,0.05,1721201529491
-0.71,-1.07,10.19,0.03,0.12,0.10,1721201529501
-0.11,-1.62,11.10,-0.01,0.18,0.18,1721201529511
0.98,1.32,10.78,0.10,0.13,0.11,1721201529521
0.31,3.30,8.44,0.02,0.17,-0.03,1721201529531
-0.53,0.62,10.56,-0.09,0.16,-0.08,1721201529541
-1.92,-3.64,8.12,-0.07,0.04,0.05,1721201529551
-2.30,-0.97,12.61,-0.05,0.27,0.16,1721201529561
-0.39,-0.74,11.30,0.11,0.14,0.25,1721201529571
0.77,3.19,11.05,0.07,0.16,0.20,1721201529581
1.17,2.10,7.05,-0.00,0.04,0.08,1721201529591
-0.03,-0.49,8.96,-0.16,0.14,-0.03,1721201529601
-1.00,-1.88,12.35,-0.09,0.10,-0.04,1721201529611
-1.80,-1.75,11.73,-0.00,0.14,0.09,1721201529621
-1.60,3.54,12.22,0.14,0.12,0.23,1721201529631
1.15,1.10,7.98,0.00,0.10,0.21,1721201529641
0.63,0.80,10.13,-0.06,-0.02,0.15,1721201529651
-0.30,0.94,11.08,-0.07,0.16,-0.02,1721201529661
-1.72,-0.17,8.05,0.04,-0.02,-0.03,1721201529671
-2.14,0.13,9.77,-0.08,0.18,0.11,1721201529681
-0.66,0.93,12.50,0.02,0.01,0.26,1721201529691
0.68,1.69,14.44,-0.00,0.15,0.23,1721201529701
0.88,0.42,11.20,0.04,-0.03,0.10,1721201529711
-1.33,1.96,8.20,0.07,0.00,0.04,1721201529721
-0.55,2.79,9.05,0.04,0.17,0.05,1721201529731
-0.04,-1.11,8.13,-0.02,-0.08,0.15,1721201529741
-1.68,1.63,10.41,0.03,-0.08,0.24,1721201529751
0.77,0.46,11.32,0.02,0.16,0.12,1721201529761
0.26,5.63,11.54,0.23,-0.05,0.05,1721201529771
0.96,0.54,4.84,-0.08,0.06,0.10,1721201529781
-0.78,0.27,13.27,-0.12,-0.06,0.03,1721201529791
-1.77,1.51,8.19,0.13,-0.10,0.00,1721201529801
-0.44,-1.57,8.13,-0.15,0.14,0.12,1721201529811
0.45,0.86,16.50,0.06,-0.08,0.20,1721201529821
0.46,0.42,8.69,0.05,0.02,0.13,1721201529831
-0.03,3.01,11.34,0.14,-0.04,0.02,1721201529841
0.29,1.77,5.38,-0.06,-0.01,-0.05,1721201529851
-1.17,-0.41,11.72,-0.14,-0.07,0.04,1721201529861
-2.92,-2.85,6.79,-0.03,-0.14,0.14,1721201529871
-0.15,-0.32,15.01,0.00,0.20,0.17,1721201529881
2.01,1.37,9.37,0.15,-0.11,0.18,1721201529891
1.30,3.96,9.54,-0.08,0.05,0.04,1721201529901
0.80,5.11,13.50,0.05,-0.06,-0.17,1721201529911
-0.53,-2.58,5.18,-0.07,-0.08,-0.05,1721201529921
-3.12,-3.48,6.04,-0.27,-0.06,0.02,1721201529931
-3.73,-0.59,13.37,-0.03,0.01,0.06,1721201529941
0.33,-0.83,12.41,0.01,0.13,0.17,1721201529951
1.73,4.61,13.58,0.20,-0.11,0.23,1721201529961
2.41,-0.18,4.80,-0.14,-0.02,0.07,1721201529971
0.72,1.52,17.42,-0.19,0.07,-0.18,1721201529981
-1.06,-0.42,10.88,0.12,-0.11,-0.22,1721201529991
-3.44,-0.53,5.40,-0.01,-0.05,0.06,1721201530001
-3.63,2.46,9.07,-0.01,-0.04,0.19,1721201530011
-0.06,1.75,8.97,-0.02,0.00,0.21,1721201530021
2.55,-0.53,13.83,-0.13,0.09,0.15,1721201530031
0.97,0.28,13.56,0.04,-0.15,-0.02,1721201530041
0.06,2.14,9.23,0.06,-0.06,-0.07,1721201530051
-0.91,1.70,6.72,0.01,-0.12,0.02,1721201530061
-1.07,0.32,10.16,-0.13,0.04,0.05,1721201530071
-1.97,-3.54,9.89,-0.03,-0.18,0.10,1721201530081
-0.84,0.01,15.32,-0.02,0.12,0.12,1721201530091
1.34,6.22,16.51,0.31,-0.07,0.15,1721201530101
1.16,1.02,1.92,0.04,-0.12,0.11,1721201530111
-0.35,1.55,8.23,-0.14,-0.06,-0.03,1721201530121
-0.20,-1.90,13.80,-0.06,-0.09,-0.11,1721201530131
-2.98,3.08,9.49,0.18,-0.28,0.05,1721201530141
-0.94,2.44,6.15,0.03,0.10,0.22,1721201530151
1.26,-2.01,8.91,-0.16,-0.05,0.19,1721201530161
0.93,0.07,13.68,-0.03,-0.22,0.10,1721201530171
0.23,2.30,9.54,0.06,-0.14,-0.10,1721201530181
-0.82,-1.87,7.98,-0.07,-0.08,-0.04,1721201530191
-1.86,-2.23,11.56,-0.05,-0.09,0.01,1721201530201
-0.45,0.36,13.28,0.06,-0.00,0.06,1721201530211
-0.32,6.13,11.09,0.19,-0.12,0.02,1721201530221
-0.75,2.66,6.13,-0.08,-0.21,0.04,1721201530231
-1.97,-3.35,6.46,-0.17,-0.32,0.16,1721201530241
0.25,-6.20,13.97,-0.18,0.04,0.13,1721201530251
1.67,-0.67,11.48,0.29,-0.25,0.03,1721201530261
0.40,2.58,3.79,0.06,-0.09,-0.08,1721201530271
-0.57,7.05,12.47,0.07,-0.10,-0.07,1721201530281
0.28,0.05,7.00,-0.10,-0.15,0.01,1721201530291
-0.37,0.46,16.16,-0.18,-0.03,-0.12,1721201530301
-1.43,-0.28,9.27,0.13,-0.31,-0.15,1721201530311
-2.16,-4.39,6.12,-0.27,-0.04,0.02,1721201530321
-2.76,2.61,15.50,0.12,-0.28,0.20,1721201530331
1.90,4.36,7.25,0.16,0.06,0.15,1721201530341
4.45,0.37,12.12,-0.18,-0.04,-0.06,1721201530351
0.45,-1.81,11.65,-0.14,-0.42,-0.31,1721201530361
-2.50,1.30,12.90,0.02,-0.03,-0.28,1721201530371
-1.87,0.82,7.29,0.14,-0.17,-0.10,1721201530381
-2.53,5.88,5.92,0.06,-0.23,0.17,1721201530391
1.31,-0.93,9.00,-0.20,-0.06,0.16,1721201530401
1.93,-0.42,13.21,-0.05,-0.11,-0.09,1721201530411
1.51,-0.29,10.27,0.02,-0.11,-0.40,1721201530421
-0.77,1.49,13.54,0.06,-0.29,-0.29,1721201530431
-4.17,6.99,8.75,0.29,-0.25,0.02,1721201530441
-0.51,-0.04,0.99,-0.22,0.09,0.13,1721201530451
0.86,-3.46,11.98,-0.31,-0.23,0.05,1721201530461
0.83,-0.36,15.26,0.04,-0.05,-0.18,1721201530471
1.55,0.39,11.03,0.07,0.01,-0.27,1721201530481
-1.70,2.71,5.83,0.10,-0.46,-0.14,1721201530491
-1.00,-3.20,10.85,-0.25,0.11,-0.10,1721201530501
0.60,1.31,18.72,0.22,-0.18,-0.08,1721201530511
0.79,2.36,2.62,0.20,-0.07,-0.12,1721201530521
-0.42,0.18,8.10,-0.22,-0.06,-0.32,1721201530531
-2.29,0.99,14.89,0.12,-0.35,-0.24,1721201530541
-1.28,2.86,7.12,0.19,0.07,-0.09,1721201530551
1.16,-2.52,12.43,-0.22,-0.01,-0.05,1721201530561
-2.04,3.28,11.90,0.18,-0.54,-0.05,1721201530571
0.69,-3.03,7.36,-0.05,0.20,-0.19,1721201530581
0.54,0.76,13.67,0.12,-0.19,-0.31,1721201530591
-2.14,5.67,6.11,0.11,-0.06,-0.39,1721201530601
-1.83,2.47,5.18,-0.02,-0.11,-0.12,1721201530611
-0.15,-3.35,12.39,-0.35,0.12,-0.08,1721201530621
-0.09,-3.30,18.12,0.10,-0.30,-0.08,1721201530631
0.43,1.03,7.08,0.25,-0.09,-0.23,1721201530641
2.02,1.74,9.85,-0.05,0.05,-0.31,1721201530651
-0.97,5.01,14.85,0.14,-0.14,-0.43,1721201530661
-2.41,-2.21,2.56,0.01,-0.17,-0.31,1721201530671
-1.48,-2.15,11.21,-0.10,0.16,-0.19,1721201530681
0.46,8.52,17.60,0.21,0.00,-0.24,1721201530691
-0.30,4.68,4.89,0.12,-0.18,-0.26,1721201530701
-1.51,-5.11,4.65,-0.30,0.00,-0.21,1721201530711
-0.46,-3.81,13.07,-0.15,-0.12,-0.11,1721201530721
0.81,0.39,14.59,0.01,0.13,-0.21,1721201530731
0.03,6.14,11.31,0.30,-0.06,-0.39,1721201530741
-0.85,-0.17,2.52,-0.12,-0.03,-0.32,1721201530751
-0.18,-2.43,13.60,-0.21,0.02,-0.13,1721201530761
0.33,0.65,13.60,0.09,0.12,-0.33,1721201530771
-0.34,0.86,8.04,0.02,0.06,-0.47,1721201530781
-2.70,-0.54,8.26,-0.04,-0.13,-0.26,1721201530791
-1.81,-0.34,13.19,-0.03,0.20,-0.07,1721201530801
1.07,1.18,13.68,0.11,0.01,-0.10,1721201530811
2.99,4.13,15.08,-0.02,0.11,-0.37,1721201530821
-0.49,0.98,6.36,0.13,-0.18,-0.39,1721201530831
-2.68,0.99,6.26,-0.08,0.26,-0.35,1721201530841
-0.66,-2.50,11.89,-0.09,-0.02,-0.20,1721201530851
-2.14,7.43,8.91,0.32,-0.06,0.00,1721201530861
0.22,-5.23,-6.07,-0.36,0.04,-0.14,1721201530871
-3.90,-2.41,35.87,-0.49,0.59,-0.37,1721201530881
1.17,1.28,26.64,0.80,0.01,-0.24,1721201530891
0.12,0.07,-13.18,0.16,-0.07,-0.19,1721201530901
-2.05,5.04,15.35,-0.38,0.33,-0.43,1721201530911
-17.16,3.27,13.39,0.28,0.25,-0.39,1721201530921
-5.02,-7.81,13.12,-0.17,0.33,-0.16,1721201530931
-1.49,4.06,20.83,0.17,-0.19,0.10,1721201530941
3.15,-1.38,7.68,0.03,0.23,-0.15,1721201530951
0.88,8.33,11.95,0.21,-0.13,-0.29,1721201530961
1.02,1.18,0.38,0.08,0.19,-0.46,1721201530971
-1.73,-0.63,3.14,-0.24,0.02,-0.30,1721201530981
-3.26,0.33,14.61,-0.18,0.26,-0.22,1721201530991
-0.74,-4.18,14.84,0.08,0.02,0.02,1721201531001
-0.09,1.31,11.49,0.09,0.20,0.06,1721201531011
2.85,-0.85,6.53,0.05,0.02,-0.07,1721201531021
2.60,1.13,12.01,-0.05,0.10,-0.34,1721201531031
0.87,1.67,10.51,0.13,0.02,-0.55,1721201531041
-3.16,3.17,8.81,0.05,0.12,-0.46,1721201531051
-4.53,-0.30,8.92,-0.06,0.14,-0.19,1721201531061
-3.37,-4.30,11.34,-0.09,0.06,0.08,1721201531071
0.04,0.28,13.73,0.07,0.23,0.04,1721201531081
1.92,0.50,6.42,0.10,0.03,-0.06,1721201531091
1.05,3.28,12.70,0.01,0.24,-0.24,1721201531101
0.92,-2.27,8.71,-0.02,0.03,-0.32,1721201531111
-3.58,0.17,10.38,-0.03,0.00,-0.27,1721201531121
-1.51,0.99,10.14,0.04,0.22,-0.18,1721201531131
0.32,0.85,9.70,0.08,0.12,-0.13,1721201531141
-1.48,1.49,6.95,0.00,-0.03,-0.07,1721201531151
-0.62,-1.49,11.02,-0.07,0.27,-0.12,1721201531161
0.31,0.22,13.12,0.07,0.07,-0.15,1721201531171
0.64,1.79,10.23,0.00,0.16,-0.09,1721201531181
-0.09,6.04,13.14,0.09,0.13,-0.19,1721201531191
0.17,-0.42,5.31,0.00,0.02,-0.13,1721201531201
-1.47,-2.20,9.59,-0.19,0.10,-0.16,1721201531211
-2.08,0.99,11.87,0.02,-0.02,-0.13,1721201531221
-1.53,4.75,10.56,0.08,0.15,-0.09,1721201531231
1.20,-4.80,7.49,-0.19,0.16,-0.03,1721201531241
-0.01,1.81,18.63,-0.07,0.15,-0.17,1721201531251
-1.18,6.34,6.97,0.16,-0.14,-0.23,1721201531261
-1.88,4.00,8.13,-0.21,0.36,-0.27,1721201531271
-0.97,-9.68,8.26,-0.26,-0.08,0.06,1721201531281
-2.32,-1.10,11.94,-0.02,0.04,0.13,1721201531291
1.78,1.11,7.83,0.13,0.10,-0.11,1721201531301
0.98,6.68,7.95,0.05,0.11,-0.24,1721201531311
-0.59,4.57,5.65,-0.13,-0.00,-0.23,1721201531321
-1.78,-4.06,11.65,-0.39,0.17,-0.18,1721201531331
-0.91,-3.98,18.70,-0.09,0.07,-0.14,1721201531341
-0.11,3.47,13.47,0.29,0.23,-0.06,1721201531351
-1.70,3.21,-0.52,0.05,-0.10,-0.07,1721201531361
-0.18,-3.14,8.15,-0.32,-0.15,0.09,1721201531376
2.76,-4.49,14.83,-0.34,0.22,-0.01,1721201531380
0.04,-2.67,22.04,-0.01,-0.08,-0.05,1721201531390
-0.56,-0.11,7.15,0.21,-0.07,-0.13,1721201531400
-0.47,1.83,6.22,0.02,0.21,-0.15,1721201531410
0.20,1.95,12.96,0.05,0.10,-0.21,1721201531420
-2.72,3.01,7.64,0.13,-0.10,-0.12,1721201531430
-2.32,3.95,11.83,-0.06,0.19,-0.06,1721201531440
-0.28,-6.30,19.41,-0.20,0.06,0.03,1721201531450
-1.09,2.58,19.49,0.37,-0.16,0.09,1721201531460
-0.68,2.23,-7.87,0.42,-0.09,0.01,1721201531470
-0.63,5.08,1.49,-0.16,0.25,-0.21,1721201531480
-4.12,-1.82,3.99,-0.17,0.01,-0.08,1721201531490
4.13,3.20,13.56,0.05,-0.00,-0.03,1721201531500
1.94,-1.89,6.21,0.12,0.04,0.14,1721201531510
1.98,0.95,18.55,-0.24,0.25,0.10,1721201531520
1.80,3.63,9.69,0.32,-0.27,-0.16,1721201531530
-0.09,-3.48,-2.37,-0.14,0.02,-0.32,1721201531540
-4.09,-0.36,13.98,-0.06,0.29,-0.36,1721201531550
-1.68,-3.56,11.04,0.08,-0.09,-0.17,1721201531560
-3.82,2.20,14.42,-0.04,0.13,0.05,1721201531570
1.64,2.11,11.71,0.27,0.00,0.15,1721201531580
3.30,-2.34,6.75,-0.16,0.05,0.03,1721201531590
-1.61,2.61,11.59,0.05,-0.27,-0.26,1721201531600
-1.35,0.23,6.84,0.13,0.09,-0.25,1721201531610
-0.47,-1.33,10.60,-0.07,0.13,-0.05,1721201531620
-1.45,-2.27,11.62,-0.02,-0.17,0.09,1721201531630
-1.98,2.70,9.48,0.15,0.02,0.07,1721201531640
2.83,-0.85,11.88,-0.10,0.26,-0.15,1721201531650
0.68,3.32,11.70,0.23,-0.37,-0.18,1721201531660
-0.17,2.94,7.68,0.02,0.28,-0.28,1721201531670
-2.09,-4.97,9.33,-0.13,-0.17,-0.25,1721201531680
-5.72,3.86,11.80,0.18,-0.10,-0.00,1721201531690
-0.04,3.45,2.40,0.13,0.16,0.19,1721201531700
2.07,2.38,10.14,-0.08,-0.11,0.07,1721201531710
2.48,-2.39,11.13,-0.11,-0.11,-0.09,1721201531720
0.64,1.19,14.64,0.08,0.06,-0.30,1721201531730
-0.39,5.04,7.78,0.24,0.00,-0.34,1721201531740
-2.38,-1.48,2.15,-0.16,-0.07,-0.13,1721201531750
-3.62,1.74,15.01,-0.08,0.09,-0.06,1721201531760
-0.19,-4.17,8.94,-0.03,0.04,0.04,1721201531770
0.12,2.00,14.44,-0.03,-0.00,-0.03,1721201531780
0.97,2.07,13.80,0.12,-0.06,-0.17,1721201531790
-0.29,-0.70,5.66,0.11,-0.09,-0.07,1721201531800
0.46,0.32,12.21,-0.13,0.32,-0.18,1721201531810
0.06,-0.70,12.92,0.09,-0.15,-0.25,1721201531820
-3.35,5.21,8.92,0.08,-0.11,-0.24,1721201531830
-1.63,2.03,11.08,0.07,0.10,0.00,1721201531840
-0.77,-3.91,6.40,-0.08,-0.03,0.13,1721201531850
0.98,1.13,17.51,0.01,0.11,-0.10,1721201531860
2.02,2.98,6.35,0.35,-0.17,-0.17,1721201531870
0.26,2.84,2.77,-0.08,0.17,-0.23,1721201531880
-3.18,1.52,15.39,-0.04,-0.11,-0.38,1721201531890
-3.42,-4.21,9.69,0.07,-0.12,-0.06,1721201531900
-0.03,1.86,14.08,0.07,0.30,0.10,1721201531910
1.35,0.99,5.64,0.13,-0.19,-0.01,1721201531920
-0.66,2.24,6.12,-0.08,0.08,-0.19,1721201531930
1.19,-0.16,17.49,0.07,0.23,-0.28,1721201531940
-0.81,-0.82,5.77,0.12,-0.14,-0.13,1721201531950
-1.48,4.12,12.63,-0.11,0.13,-0.15,1721201531960
-1.01,0.43,7.69,0.13,-0.12,-0.11,1721201531970
0.07,-2.90,10.33,-0.25,0.34,-0.13,1721201531980
0.14,0.05,15.73,0.17,-0.19,-0.14,1721201531990
0.30,0.96,5.84,0.03,0.16,-0.16,1721201532000
0.98,2.40,12.95,-0.07,0.15,-0.31,1721201532010
-1.77,1.29,9.35,-0.00,-0.15,-0.29,1721201532020
-2.03,-1.45,8.08,-0.06,0.10,-0.15,1721201532030
-0.22,-2.36,13.72,-0.01,0.15,-0.12,1721201532040
-0.35,1.41,10.75,0.14,0.01,-0.09,1721201532050
-0.01,3.70,6.38,0.05,0.11,-0.12,1721201532060
0.74,3.58,11.76,-0.02,0.19,-0.23,1721201532070
-0.02,-2.79,7.59,-0.14,-0.11,-0.16,1721201532080
-1.09,4.02,14.89,0.16,0.06,-0.18,1721201532090
0.67,-1.71,7.02,-0.06,0.20,-0.27,1721201532100
-1.68,2.86,17.82,-0.05,-0.06,-0.09,1721201532110
-2.15,0.98,5.14,0.13,-0.04,-0.08,1721201532120
-0.06,-0.30,8.14,-0.05,0.22,-0.16,1721201532130
2.00,3.19,14.75,0.10,0.10,-0.21,1721201532140
-0.44,-0.19,9.56,-0.04,0.01,-0.20,1721201532150
-3.61,3.97,12.32,0.09,-0.06,-0.22,1721201532160
-1.83,2.48,8.42,0.07,0.24,0.00,1721201532170
0.90,-4.89,9.15,-0.11,0.11,-0.06,1721201532180
-0.65,-1.36,10.61,-0.02,-0.02,-0.27,1721201532190
0.12,2.73,11.32,0.18,0.22,-0.21,1721201532200
-0.68,1.58,6.17,0.09,0.07,-0.13,1721201532210
-0.61,4.95,14.23,0.05,0.13,-0.21,1721201532220
0.41,-0.62,8.61,0.00,0.03,-0.16,1721201532230
-0.65,2.35,11.95,-0.04,0.16,-0.21,1721201532240
-0.88,-1.62,6.74,0.02,0.01,-0.28,1721201532250
-2.13,0.33,8.44,0.02,0.17,-0.09,1721201532260
0.16,-0.05,11.45,-0.05,0.21,-0.07,1721201532270
-1.31,1.23,11.13,0.02,-0.04,-0.17,1721201532280
-0.38,2.01,10.99,-0.03,0.18,-0.21,1721201532290
0.92,-3.25,10.82,-0.05,0.14,-0.12,1721201532300
-1.05,2.25,13.02,0.09,0.21,-0.24,1721201532310
-0.20,-2.31,6.74,-0.04,0.06,-0.21,1721201532320
-2.75,2.55,9.30,0.04,-0.03,-0.05,1721201532330
0.02,-0.02,6.77,-0.09,0.26,-0.08,1721201532340
0.85,0.61,14.18,-0.02,0.13,-0.14,1721201532350
0.28,-0.98,11.97,-0.01,0.15,-0.18,1721201532360
-1.65,-1.25,10.51,-0.06,0.05,-0.16,1721201532370
-1.53,5.17,15.40,0.24,0.19,-0.12,1721201532380
-0.50,-2.08,3.29,-0.13,0.07,0.06,1721201532390
-2.60,4.96,12.70,0.03,-0.11,0.01,1721201532400
2.86,-1.48,5.57,0.07,0.22,-0.17,1721201532410
-0.08,-0.96,9.08,-0.10,0.09,-0.20,1721201532420
-4.03,1.26,10.67,-0.08,0.07,-0.16,1721201532430
-2.31,0.40,16.22,0.02,0.24,0.00,1721201532440
0.35,3.48,11.90,0.26,0.09,0.20,1721201532450
2.70,0.09,4.67,-0.13,0.21,0.10,1721201532460
0.59,3.35,12.52,0.00,-0.16,-0.18,1721201532470
-0.38,-1.86,7.28,-0.03,0.21,-0.23,1721201532480
-2.04,0.56,9.06,0.00,0.04,-0.15,1721201532490
-2.61,3.14,14.14,-0.02,0.18,0.00,1721201532500
-0.76,0.80,10.64,0.08,0.00,0.15,1721201532510
1.40,0.85,12.83,-0.04,0.26,0.06,1721201532520
1.80,2.85,9.72,0.09,-0.03,-0.17,1721201532530
-2.67,0.07,1.55,-0.11,-0.06,-0.22,1721201532540
-3.90,0.00,10.45,-0.26,0.26,-0.16,1721201532550
-1.58,-3.00,15.59,0.05,0.05,0.19,1721201532560
1.07,0.93,12.87,0.02,0.21,0.32,1721201532570
2.68,2.06,7.17,-0.00,-0.01,0.06,1721201532580
2.25,-0.73,9.13,-0.17,0.08,-0.22,1721201532590
0.36,2.11,15.14,0.10,0.10,-0.29,1721201532600
-3.08,-2.95,3.20,-0.07,-0.08,-0.14,1721201532610
-4.51,5.09,15.10,-0.04,0.14,0.01,1721201532620
0.17,-2.08,7.49,-0.00,0.13,0.20,1721201532630
0.77,-1.16,12.53,-0.23,0.16,0.11,1721201532640
2.61,2.50,16.27,0.18,0.03,-0.15,1721201532650
0.96,2.41,4.02,0.14,0.04,-0.20,1721201532660
-3.23,2.27,8.12,-0.24,0.09,-0.19,1721201532670
-3.55,0.57,13.56,0.05,-0.07,0.05,1721201532680
-0.93,-2.25,7.35,-0.08,0.24,0.17,1721201532690
0.65,-1.20,9.80,-0.10,-0.02,0.12,1721201532700
0.79,6.72,16.58,0.09,0.24,-0.15,1721201532710
2.66,-2.91,8.48,-0.03,-0.01,-0.02,1721201532720
-1.22,-0.20,13.49,-0.06,-0.02,-0.01,1721201532730
-0.85,4.25,9.64,0.20,0.08,-0.13,1721201532740
-0.77,0.63,6.05,-0.11,-0.03,-0.09,1721201532750
-2.85,4.21,11.43,0.11,-0.10,-0.02,1721201532760
0.24,-4.71,6.83,-0.09,0.26,0.01,1721201532770
