AccX,AccY,AccZ,GyrX,GyrY,GyrZ,Time
-0.86,1.32,10.29,0.02,0.26,-0.62,1721199345131
-2.35,1.60,10.20,0.02,0.22,-0.70,1721199345136
-4.31,-0.13,9.87,-0.03,0.17,-0.59,1721199345146
-4.81,0.37,11.38,0.01,0.21,-0.32,1721199345156
-1.47,0.77,7.87,0.01,0.19,-0.10,1721199345166
1.10,-1.21,10.09,-0.12,0.23,-0.25,1721199345176
0.54,1.47,11.14,0.03,0.10,-0.55,1721199345186
-1.25,-0.18,8.43,-0.08,0.18,-0.50,1721199345196
-3.16,-1.78,10.75,-0.08,0.13,-0.32,1721199345206
-1.25,0.75,10.56,-0.10,0.20,-0.14,1721199345216
0.99,-1.46,10.25,-0.09,0.12,-0.13,1721199345226
0.10,0.07,11.16,-0.10,0.17,-0.33,1721199345236
-1.81,-0.91,9.21,-0.07,0.09,-0.45,1721199345246
-2.09,-1.03,11.55,-0.19,0.24,-0.25,1721199345256
-1.83,-1.88,10.75,-0.12,0.14,-0.09,1721199345266
-0.80,0.12,8.84,-0.07,0.15,-0.09,1721199345276
1.13,-0.99,9.52,-0.07,0.22,-0.24,1721199345286
-1.21,-3.85,11.38,-0.06,0.02,-0.26,1721199345296
-1.19,-2.54,11.10,-0.03,0.27,-0.28,1721199345306
0.06,-1.09,10.43,0.03,0.08,-0.10,1721199345316
-0.18,0.26,10.30,0.04,0.18,-0.05,1721199345326
0.07,-0.57,10.32,0.16,0.09,-0.08,1721199345336
-0.14,-0.06,10.23,0.11,0.21,-0.14,1721199345346
-0.07,-2.04,11.54,0.09,0.21,-0.19,1721199345356
-0.47,0.58,12.00,0.10,0.30,-0.21,1721199345366
-0.11,0.51,11.12,0.13,0.24,-0.22,1721199345376
-0.85,0.67,11.19,0.18,0.23,-0.17,1721199345386
0.00,-1.77,8.32,0.15,0.18,-0.17,1721199345396
-0.16,-1.21,11.80,0.16,0.24,-0.24,1721199345406
-0.16,-1.50,8.54,0.26,0.20,-0.26,1721199345416
-0.81,-2.32,10.13,0.17,0.25,-0.17,1721199345426
-2.23,-0.79,11.54,0.20,0.23,-0.16,1721199345436
-0.82,-0.45,9.80,0.18,0.32,-0.13,1721199345446
-0.57,1.39,12.80,0.21,0.28,-0.14,1721199345456
-2.04,1.37,9.24,0.25,0.15,-0.18,1721199345466
-2.04,2.83,9.79,0.21,0.25,-0.23,1721199345476
-1.38,0.69,10.05,0.26,0.18,-0.20,1721199345486
-2.20,-0.05,8.84,0.20,0.18,-0.18,1721199345496
-1.11,0.02,10.85,0.21,0.27,-0.17,1721199345506
-0.53,0.40,9.45,0.23,0.20,-0.24,1721199345516
-1.40,1.12,10.45,0.18,0.23,-0.39,1721199345526
-3.47,1.13,10.60,0.22,0.18,-0.38,1721199345536
-4.39,-0.65,9.49,0.17,0.19,-0.18,1721199345546
-4.71,0.28,10.05,0.14,0.14,-0.09,1721199345556
-3.89,-0.10,8.27,0.10,0.06,-0.08,1721199345566
-3.78,1.13,8.88,0.09,0.08,-0.08,1721199345576
-4.53,-0.73,7.88,-0.01,0.02,-0.06,1721199345586
-5.36,1.20,9.81,-0.03,-0.01,0.10,1721199345596
-3.06,1.29,11.91,-0.13,0.09,0.25,1721199345606
-1.23,2.66,11.39,-0.02,0.00,0.32,1721199345616
0.81,-0.01,8.76,-0.20,0.03,0.27,1721199345626
0.39,1.44,13.49,-0.11,-0.06,0.25,1721199345636
0.07,0.57,8.57,-0.11,-0.10,0.28,1721199345646
-1.30,-0.37,12.47,-0.17,-0.11,0.31,1721199345656
-1.38,-0.89,7.25,-0.12,-0.16,0.32,1721199345666
-0.64,-3.92,11.33,-0.28,-0.05,0.39,1721199345676
-0.57,-2.76,9.23,-0.16,-0.23,0.45,1721199345686
-1.57,-0.31,10.31,-0.22,-0.07,0.47,1721199345696
-1.13,-1.25,11.78,-0.20,-0.24,0.51,1721199345706
-0.08,0.03,11.30,-0.22,-0.11,0.49,1721199345716
1.29,-3.03,10.01,-0.18,-0.22,0.56,1721199345726
-0.84,-1.25,9.61,-0.30,-0.10,0.45,1721199345736
-2.36,2.95,9.33,-0.22,-0.23,0.31,1721199345746
-0.39,-1.47,9.64,-0.22,-0.27,0.28,1721199345756
1.56,-4.96,11.99,-0.23,-0.20,0.50,1721199345766
0.48,0.58,10.48,-0.21,-0.15,0.58,1721199345776
-2.00,2.89,10.41,-0.13,-0.35,0.35,1721199345786
-0.65,0.53,11.63,-0.16,-0.20,0.13,1721199345796
1.47,-3.60,9.56,-0.14,-0.36,0.39,1721199345806
0.10,0.97,9.03,-0.10,-0.07,0.59,1721199345816
-0.74,3.87,11.42,-0.07,-0.22,0.30,1721199345826
2.28,-4.06,10.97,-0.11,-0.37,0.20,1721199345836
1.96,-0.98,10.84,-0.04,-0.22,0.27,1721199345846
1.22,0.60,10.19,0.03,-0.18,0.33,1721199345856
-0.33,0.37,9.47,0.03,-0.31,0.22,1721199345866
1.98,-2.85,11.15,-0.04,-0.17,0.25,1721199345876
2.18,0.15,9.94,0.07,-0.21,0.28,1721199345886
0.76,-1.67,9.19,-0.01,-0.22,0.24,1721199345896
0.81,2.21,13.13,-0.03,-0.05,0.09,1721199345906
3.21,-0.83,10.31,0.02,-0.13,0.09,1721199345916
3.01,0.65,11.23,0.04,0.01,0.15,1721199345926
1.77,3.67,9.55,0.06,-0.04,-0.11,1721199345936
2.27,0.45,12.09,0.01,-0.07,-0.14,1721199345946
1.54,0.10,9.19,0.21,-0.06,-0.15,1721199345956
-0.08,-1.39,8.65,0.08,0.02,-0.12,1721199345966
-2.06,3.20,12.04,0.18,-0.07,-0.13,1721199345976
0.41,0.27,9.05,0.10,-0.01,-0.02,1721199345986
2.24,0.35,12.13,0.08,0.06,-0.08,1721199345996
1.41,-0.17,8.86,0.08,-0.08,-0.28,1721199346006
0.45,1.85,10.42,0.05,0.12,-0.41,1721199346016
-1.09,1.52,9.01,0.07,-0.00,-0.37,1721199346026
-1.87,0.39,9.90,-0.03,0.12,-0.24,1721199346036
-0.70,1.32,10.86,-0.01,0.06,-0.24,1721199346046
0.30,0.20,9.98,-0.09,0.09,-0.24,1721199346056
-0.65,1.77,9.27,-0.10,0.04,-0.30,1721199346066
1.56,1.18,9.51,-0.17,0.13,-0.29,1721199346076
1.82,0.98,9.93,-0.09,0.09,-0.37,1721199346086
-0.12,-0.82,9.93,-0.18,0.13,-0.51,1721199346096
-1.06,1.89,13.57,-0.12,0.08,-0.49,1721199346106
-0.53,-1.64,8.58,-0.10,0.13,-0.32,1721199346116
-0.72,0.22,10.40,-0.08,0.11,-0.36,1721199346126
0.85,-0.99,9.53,-0.02,0.14,-0.50,1721199346136
-0.38,-1.82,9.95,-0.03,0.15,-0.51,1721199346146
-2.88,-0.30,10.75,0.04,0.13,-0.50,1721199346156
-0.75,0.21,10.25,-0.03,0.24,-0.39,1721199346166
-0.64,1.52,11.46,0.05,0.16,-0.34,1721199346176
-1.62,-0.48,9.86,0.01,0.15,-0.39,1721199346186
0.43,-0.84,11.44,-0.04,0.27,-0.37,1721199346196
-0.03,-0.83,9.06,0.05,0.08,-0.35,1721199346206
-2.27,-0.54,10.15,0.03,0.25,-0.44,1721199346216
0.29,0.46,11.91,0.03,0.32,-0.39,1721199346226
-2.50,-2.60,9.18,0.05,0.01,-0.33,1721199346236
-4.38,-2.87,9.05,0.02,0.24,-0.36,1721199346246
0.22,1.73,12.52,0.09,0.40,-0.23,1721199346256
-1.21,1.63,8.83,0.09,-0.00,-0.24,1721199346266
-3.19,-3.68,6.45,0.02,0.14,-0.32,1721199346276
0.84,-2.30,12.46,0.06,0.47,-0.24,1721199346286
-1.52,1.04,11.50,0.13,0.03,-0.14,1721199346296
-2.87,4.41,9.26,0.18,0.06,-0.23,1721199346306
-1.77,-0.25,8.32,0.13,0.29,-0.25,1721199346316
-1.60,-1.81,13.36,-0.03,0.16,-0.19,1721199346326
-3.06,-0.90,8.64,0.13,-0.05,-0.08,1721199346336
-3.00,3.24,10.03,0.10,0.34,-0.15,1721199346346
-2.22,1.63,9.53,0.19,-0.00,-0.17,1721199346356
-2.24,-0.73,10.20,0.10,0.07,-0.02,1721199346366
-0.95,2.13,10.63,0.28,0.06,0.17,1721199346376
2.58,3.04,12.68,0.14,0.20,0.15,1721199346386
0.72,3.91,10.48,0.20,-0.07,-0.12,1721199346396
-1.51,-0.98,6.47,0.11,0.01,-0.30,1721199346406
-3.86,-1.44,11.09,0.08,0.04,-0.09,1721199346416
-4.83,2.04,11.05,0.18,0.02,0.20,1721199346426
-3.44,2.24,6.29,0.07,0.00,0.26,1721199346436
-2.21,1.55,10.40,-0.05,-0.00,0.22,1721199346446
0.17,-0.18,7.38,0.05,-0.05,0.34,1721199346456
1.70,-1.22,11.11,-0.22,0.08,0.26,1721199346466
0.49,3.79,13.92,0.02,-0.10,0.10,1721199346476
0.48,-0.29,6.24,-0.13,-0.09,0.14,1721199346486
-2.89,-0.27,10.19,-0.14,-0.06,0.18,1721199346496
-0.76,-2.14,9.32,-0.13,-0.07,0.30,1721199346506
-0.89,0.06,12.12,-0.17,0.01,0.25,1721199346516
-1.30,-3.27,9.99,-0.12,-0.20,0.22,1721199346526
-1.33,-0.18,12.90,-0.13,0.02,0.24,1721199346536
-1.22,-4.11,7.38,-0.13,-0.22,0.36,1721199346546
1.81,-3.21,12.08,-0.33,0.04,0.31,1721199346556
1.49,4.61,18.44,0.14,-0.12,0.17,1721199346566
1.35,-1.70,1.50,0.00,-0.10,0.14,1721199346576
-2.79,-1.30,7.57,-0.18,-0.07,0.19,1721199346586
-0.63,-2.64,14.01,-0.07,-0.10,0.24,1721199346596
0.27,-3.16,8.65,-0.04,-0.19,0.27,1721199346606
0.77,-2.96,13.33,-0.23,-0.04,0.13,1721199346616
-0.23,9.91,15.72,0.03,-0.11,0.19,1721199346626
0.12,-0.37,7.57,-0.07,-0.27,0.08,1721199346636
1.59,-6.22,9.15,-0.13,-0.04,0.01,1721199346646
1.47,-7.23,8.40,-0.04,-0.12,0.04,1721199346656
-0.53,-4.27,11.16,0.08,-0.05,0.35,1721199346666
-1.13,3.14,11.77,0.12,-0.15,0.37,1721199346676
2.44,13.68,13.37,0.24,-0.01,0.38,1721199346686
5.03,1.64,6.58,0.00,-0.08,0.11,1721199346696
3.31,-5.69,12.36,-0.11,-0.05,-0.26,1721199346706
-2.26,-3.18,12.31,0.15,-0.19,-0.15,1721199346716
-3.91,4.31,9.08,0.23,0.03,0.18,1721199346726
0.46,1.87,9.78,0.29,-0.01,0.36,1721199346736
3.87,0.91,7.44,0.24,0.00,0.06,1721199346746
3.06,0.60,11.66,0.09,-0.02,-0.31,1721199346756
-0.73,3.27,13.65,0.14,-0.01,-0.30,1721199346766
-0.63,0.43,8.72,0.14,-0.00,0.11,1721199346776
2.73,2.28,10.33,0.17,0.16,0.13,1721199346786
5.83,1.26,7.41,0.09,0.05,-0.14,1721199346796
2.35,2.81,11.18,-0.05,0.02,-0.53,1721199346806
-2.09,2.32,12.38,0.05,0.04,-0.58,1721199346816
-3.41,-0.27,6.30,0.06,0.03,-0.17,1721199346826
-1.40,-1.23,6.77,-0.10,0.19,-0.03,1721199346836
0.72,0.28,11.77,-0.04,0.05,-0.13,1721199346846
1.64,1.09,11.49,-0.08,0.11,-0.36,1721199346856
0.42,1.78,11.10,-0.00,0.04,-0.40,1721199346866
-0.85,-0.74,6.16,-0.07,0.08,-0.33,1721199346876
-0.40,-2.38,11.83,-0.12,0.17,-0.28,1721199346886
-1.16,-3.65,9.60,-0.13,0.08,-0.27,1721199346896
-0.58,-1.96,13.22,0.03,0.12,-0.24,1721199346906
-0.68,-1.79,9.04,-0.00,0.08,-0.27,1721199346916
-1.59,-1.70,11.64,-0.10,0.20,-0.37,1721199346926
-3.39,-1.56,10.95,-0.03,-0.02,-0.22,1721199346936
-2.19,-3.19,7.84,-0.08,0.08,-0.05,1721199346946
-1.04,-1.86,13.28,-0.07,0.16,-0.12,1721199346956
0.38,-2.40,9.09,0.04,0.06,-0.15,1721199346966
-0.55,-4.57,11.65,-0.18,0.18,-0.15,1721199346976
-2.94,-0.67,11.02,0.06,-0.05,-0.08,1721199346986
-1.00,-3.71,10.43,-0.16,0.11,-0.00,1721199346996
-2.42,1.24,12.85,0.06,-0.20,-0.00,1721199347006
0.39,-3.74,4.01,-0.03,0.06,-0.01,1721199347016
-0.76,-0.69,13.89,-0.05,0.02,0.02,1721199347026
-0.32,-1.05,9.39,-0.03,0.13,-0.05,1721199347036
-1.56,2.73,11.96,0.00,-0.09,-0.17,1721199347046
-1.03,2.02,8.22,0.01,0.11,-0.13,1721199347056
-1.21,1.22,9.17,0.08,0.03,0.03,1721199347066
0.86,5.34,12.90,0.00,0.15,-0.05,1721199347076
-0.28,3.64,9.64,0.14,-0.23,-0.19,1721199347086
-2.28,2.61,11.39,0.09,0.04,-0.22,1721199347096
-1.96,2.43,9.79,0.22,-0.08,-0.05,1721199347106
-2.25,3.73,7.22,0.14,-0.04,0.06,1721199347116
-0.23,1.54,10.94,-0.01,-0.00,-0.03,1721199347126
0.54,-1.53,10.69,-0.00,-0.11,0.08,1721199347141
1.45,4.26,12.61,0.10,0.11,0.14,1721199347145
2.38,-0.72,4.32,0.00,-0.13,0.01,1721199347155
0.87,3.50,11.98,-0.08,0.14,-0.28,1721199347165
-1.60,-0.18,10.03,0.04,-0.08,-0.34,1721199347175
-6.64,-1.64,7.58,-0.09,-0.06,-0.11,1721199347185
-3.66,-0.11,12.09,-0.10,0.15,0.21,1721199347195
0.40,-2.26,10.14,-0.10,-0.03,0.30,1721199347205
0.19,2.05,10.58,-0.03,-0.02,0.13,1721199347215
1.46,-2.16,6.70,-0.11,-0.09,0.03,1721199347225
0.65,-0.57,12.31,-0.18,0.02,0.01,1721199347235
0.43,-0.89,13.39,-0.18,-0.00,-0.12,1721199347245
-1.28,-0.51,10.41,-0.13,-0.15,-0.10,1721199347255
-0.39,-2.61,9.56,-0.16,-0.03,0.06,1721199347265
0.26,-1.69,13.19,-0.12,0.06,0.10,1721199347275
-0.92,1.10,9.79,-0.09,-0.17,0.05,1721199347285
-1.34,0.24,10.68,-0.15,0.01,-0.15,1721199347295
-1.72,-0.99,10.37,-0.05,-0.14,0.01,1721199347305
-0.21,0.10,11.44,-0.10,0.10,0.18,1721199347315
1.89,2.92,11.85,-0.03,-0.02,0.17,1721199347325
2.59,2.21,11.18,-0.08,0.02,-0.08,1721199347335
2.48,0.02,12.27,-0.03,-0.00,-0.20,1721199347345
-2.42,0.12,9.43,0.07,-0.07,-0.18,1721199347355
-3.19,0.47,9.29,0.03,0.04,-0.01,1721199347365
-0.72,-2.21,10.63,0.04,-0.10,0.15,1721199347375
1.30,0.98,10.23,0.13,0.05,0.05,1721199347385
0.79,-1.56,9.46,0.11,-0.08,-0.15,1721199347395
-1.66,1.69,11.91,0.10,-0.01,-0.24,1721199347405
-1.31,-0.84,9.64,0.06,-0.03,-0.09,1721199347415
-1.00,0.13,11.16,0.12,0.00,0.06,1721199347425
1.11,-3.26,9.97,0.01,-0.01,0.02,1721199347435
0.53,2.28,11.74,0.13,-0.03,-0.13,1721199347445
1.54,-0.42,7.66,0.06,-0.02,-0.08,1721199347455
-0.51,-0.71,11.08,0.02,-0.03,-0.15,1721199347465
-0.31,-0.48,9.87,0.09,0.00,-0.06,1721199347475
-0.04,-0.76,11.09,0.00,0.08,-0.03,1721199347485
-1.18,0.39,9.20,0.11,-0.09,-0.05,1721199347495
-0.30,1.17,11.79,0.02,0.11,-0.06,1721199347505
1.02,-0.05,9.44,0.10,-0.07,0.08,1721199347515
-0.01,0.48,10.21,0.07,0.04,-0.07,1721199347525
0.53,0.96,9.35,0.09,0.05,-0.12,1721199347535
-0.44,1.72,13.32,0.04,0.01,-0.12,1721199347545
-0.97,0.64,10.25,0.12,0.00,-0.00,1721199347555
-0.22,0.64,10.02,0.06,0.05,0.04,1721199347565
2.22,0.14,9.78,0.05,0.07,0.04,1721199347575
2.13,1.31,9.91,0.07,0.01,-0.08,1721199347585
1.21,-0.29,9.17,0.04,0.02,-0.17,1721199347595
0.05,2.43,12.44,0.05,0.11,-0.22,1721199347605
0.08,0.59,9.02,0.01,0.01,-0.14,1721199347615
-0.89,1.34,10.72,0.01,0.13,-0.07,1721199347625
1.05,0.01,8.68,-0.06,0.13,-0.20,1721199347635
-0.03,-0.78,9.80,-0.01,0.04,-0.27,1721199347645
-0.91,-0.07,9.09,-0.04,0.17,-0.26,1721199347655
-1.26,0.60,8.50,-0.00,0.01,-0.16,1721199347665
0.03,0.15,11.18,-0.14,0.16,-0.17,1721199347675
1.29,0.06,10.65,-0.02,0.06,-0.21,1721199347685
0.83,-0.72,9.55,-0.18,0.11,-0.31,1721199347695
-0.53,0.82,12.35,-0.07,0.07,-0.31,1721199347705
-0.30,-2.33,9.83,-0.18,0.13,-0.29,1721199347715
-1.65,2.55,12.00,-0.03,0.06,-0.25,1721199347725
0.16,-0.87,6.09,-0.12,0.15,-0.20,1721199347735
-0.56,-0.18,11.40,-0.15,0.09,-0.24,1721199347745
0.19,-1.14,10.35,-0.14,0.16,-0.25,1721199347755
-1.72,0.16,10.50,-0.13,0.06,-0.24,1721199347765
-1.47,-0.54,11.10,-0.23,0.15,-0.27,1721199347775
-1.28,-0.21,10.02,-0.07,0.01,-0.13,1721199347785
0.27,-1.83,8.15,-0.19,0.24,-0.11,1721199347795
-0.19,-0.36,11.35,-0.09,0.07,-0.25,1721199347805
-1.70,-1.10,9.24,-0.11,0.07,-0.29,1721199347815
-2.66,2.83,12.05,0.01,0.06,-0.25,1721199347825
-1.57,3.45,10.67,0.02,0.10,-0.08,1721199347835
-0.51,-0.63,10.82,-0.12,0.17,-0.05,1721199347845
-0.32,0.82,11.08,-0.01,0.07,-0.10,1721199347855
-0.49,-1.24,7.72,-0.04,0.09,-0.16,1721199347865
-2.11,-2.22,12.77,0.02,0.09,-0.16,1721199347875
-0.91,0.82,10.66,0.15,0.18,-0.09,1721199347885
0.13,0.81,11.55,0.11,0.18,-0.07,1721199347895
0.56,1.61,12.85,0.16,0.08,-0.13,1721199347905
0.38,1.26,8.96,0.13,0.13,-0.26,1721199347915
-1.36,-0.09,10.75,0.10,0.08,-0.32,1721199347925
-2.83,-1.02,10.94,0.17,0.11,-0.28,1721199347935
-3.86,-3.29,8.94,0.12,-0.01,-0.06,1721199347945
-3.04,0.61,10.99,0.16,0.10,0.08,1721199347955
0.20,1.63,10.57,0.18,0.07,-0.05,1721199347965
0.91,0.69,10.76,0.08,0.04,-0.21,1721199347975
-0.72,-1.93,8.00,0.12,-0.01,-0.27,1721199347985
-3.45,-0.69,10.32,0.08,0.06,-0.22,1721199347995
-3.34,-0.02,9.65,0.18,0.00,-0.05,1721199348005
-2.01,1.12,9.97,0.10,0.09,0.10,1721199348015
0.02,0.65,9.09,0.13,0.02,0.09,1721199348025
1.22,-2.00,9.40,0.04,0.02,0.02,1721199348035
0.56,4.14,12.78,0.16,0.04,-0.16,1721199348045
0.40,1.31,7.52,0.15,-0.04,-0.12,1721199348055
-1.28,0.57,8.20,0.07,0.01,0.03,1721199348065
-1.00,0.86,10.55,0.09,0.04,0.05,1721199348075
0.82,1.64,12.40,0.05,0.03,0.05,1721199348085
0.51,3.25,13.86,0.07,0.07,-0.08,1721199348095
-1.70,4.32,8.91,0.10,-0.06,-0.22,1721199348105
-2.24,0.26,9.33,-0.03,0.07,-0.06,1721199348115
-1.74,-0.66,9.73,0.07,0.00,0.17,1721199348125
-0.08,0.42,7.57,0.02,0.06,0.08,1721199348135
1.23,2.01,10.46,0.10,0.00,-0.04,1721199348145
0.24,0.89,7.62,0.05,0.00,-0.09,1721199348155
-1.68,-1.15,11.57,-0.12,0.04,-0.18,1721199348165
-2.49,0.35,14.05,0.06,-0.01,-0.05,1721199348175
-1.82,-1.19,9.27,-0.05,0.01,0.03,1721199348185
-2.05,0.03,10.11,0.00,-0.02,0.16,1721199348195
-0.11,-3.49,7.98,-0.16,0.01,0.04,1721199348205
-0.18,-1.13,13.19,-0.08,0.00,0.03,1721199348215
-0.55,-2.03,8.32,-0.13,-0.01,0.07,1721199348225
-1.73,0.68,11.10,-0.13,-0.09,-0.02,1721199348235
0.29,-1.10,9.40,-0.17,0.03,0.10,1721199348245
-0.28,-0.74,10.86,-0.19,-0.04,0.11,1721199348255
-0.93,-2.21,12.43,-0.21,-0.03,0.05,1721199348265
-1.24,-1.66,10.15,-0.13,-0.12,0.12,1721199348275
0.02,0.86,8.90,-0.14,0.05,0.24,1721199348285
1.71,1.85,10.62,-0.08,-0.02,0.21,1721199348295
1.86,1.01,10.91,-0.12,-0.00,0.05,1721199348305
0.16,-2.01,10.54,-0.12,-0.12,-0.02,1721199348315
-1.43,2.58,12.67,0.04,-0.05,0.08,1721199348325
0.32,0.54,11.20,0.02,-0.02,0.25,1721199348335
1.65,3.58,12.40,0.09,-0.02,0.27,1721199348345
3.31,1.30,9.13,0.08,0.03,0.10,1721199348355
1.37,-2.46,10.49,0.03,-0.07,-0.05,1721199348365
-0.72,0.85,8.82,0.19,-0.08,-0.07,1721199348375
-0.27,-2.08,7.16,0.12,-0.03,0.04,1721199348385
1.45,-1.51,10.69,0.15,0.09,0.17,1721199348395
1.78,1.10,11.83,0.14,-0.01,-0.06,1721199348405
1.06,0.95,11.51,0.11,0.03,-0.22,1721199348415
-0.35,2.59,13.06,0.12,0.06,-0.21,1721199348425
-1.11,-2.77,7.22,0.09,-0.04,-0.13,1721199348435
-0.74,-0.11,10.70,0.10,0.15,-0.02,1721199348445
0.73,-1.74,9.24,0.08,0.06,-0.10,1721199348455
-0.47,2.06,12.17,0.13,0.05,-0.13,1721199348465
0.78,0.23,7.79,0.08,0.10,-0.07,1721199348475
-0.04,2.62,11.27,0.10,0.11,-0.25,1721199348485
0.11,-0.85,9.54,0.05,0.12,-0.24,1721199348495
-1.58,0.60,10.39,0.12,0.05,-0.20,1721199348505
-0.80,-0.20,9.31,0.12,0.18,-0.10,1721199348515
0.64,1.33,10.74,0.14,0.12,-0.05,1721199348525
1.12,2.35,11.05,0.18,0.10,-0.17,1721199348535
0.71,2.32,8.56,0.15,0.16,-0.33,1721199348545
-0.86,1.17,10.43,0.02,0.16,-0.32,1721199348555
-2.45,0.80,10.77,0.08,0.07,-0.16,1721199348565
-1.13,0.63,9.04,0.05,0.20,-0.06,1721199348575
-0.51,1.46,10.91,0.10,0.12,-0.13,1721199348585
-0.46,-1.62,9.04,-0.06,0.17,-0.15,1721199348595
-2.43,1.43,12.68,0.11,0.02,-0.19,1721199348605
-2.46,3.89,8.34,0.09,0.11,-0.04,1721199348615
-1.19,3.65,7.52,0.03,0.11,0.03,1721199348625
0.24,-0.47,5.52,-0.09,0.02,-0.05,1721199348635
0.62,-3.81,12.24,-0.23,0.15,-0.11,1721199348645
-1.65,0.03,11.95,0.03,-0.05,-0.10,1721199348655
-1.28,0.77,9.81,-0.13,0.15,-0.05,1721199348665
-0.03,-2.15,10.91,-0.16,-0.02,0.15,1721199348675
0.31,-0.17,13.30,-0.19,0.13,-0.02,1721199348685
1.47,-0.20,10.33,-0.11,-0.03,-0.09,1721199348695
0.04,-0.10,6.58,-0.19,0.10,-0.11,1721199348705
-1.41,-2.61,9.21,-0.17,-0.00,-0.04,1721199348715
-1.78,-3.24,11.32,-0.20,0.07,0.11,1721199348725
0.04,0.92,12.27,-0.09,0.11,0.17,1721199348735
1.16,0.51,11.41,-0.15,0.05,0.13,1721199348745
0.65,1.79,9.24,-0.10,-0.03,0.14,1721199348755
1.88,1.43,8.57,-0.06,0.19,-0.05,1721199348765
0.53,-2.17,11.35,-0.14,-0.01,-0.07,1721199348775
-3.06,0.24,11.30,-0.02,-0.03,0.03,1721199348785
-1.06,1.16,13.15,-0.05,0.23,0.14,1721199348795
-1.21,1.23,12.14,0.03,-0.10,0.28,1721199348805
0.16,3.97,11.96,0.04,0.15,0.03,1721199348815
2.22,-0.21,9.33,0.17,-0.08,-0.04,1721199348825
-0.53,-3.09,7.28,0.01,-0.06,-0.03,1721199348835
-2.32,3.61,13.88,0.22,0.06,0.03,1721199348845
-2.01,-0.41,8.54,0.08,-0.05,0.07,1721199348855
-1.96,0.49,12.10,0.07,-0.03,0.08,1721199348865
0.11,-2.66,8.67,0.10,-0.04,0.11,1721199348875
0.52,0.95,11.17,0.05,-0.01,0.06,1721199348885
0.17,1.72,10.98,0.15,-0.03,-0.02,1721199348895
-0.44,-3.66,7.90,-0.00,-0.08,-0.02,1721199348905
-1.56,-0.29,12.14,0.07,-0.02,0.00,1721199348915
-0.06,-0.52,10.43,0.02,-0.04,0.03,1721199348925
-1.04,4.11,11.81,0.10,-0.06,-0.03,1721199348935
0.13,0.34,6.46,0.07,-0.13,-0.06,1721199348945
-0.70,0.09,9.25,0.05,-0.02,-0.03,1721199348955
0.09,0.60,10.59,0.08,0.01,-0.04,1721199348965
-0.10,2.44,9.93,0.16,-0.10,0.04,1721199348975
-0.66,1.57,7.53,0.10,-0.06,0.06,1721199348985
1.00,0.67,13.27,0.05,-0.01,0.03,1721199348995
1.41,2.39,12.85,0.17,-0.09,-0.08,1721199349005
0.02,5.45,8.60,0.19,-0.05,-0.22,1721199349015
-0.98,-1.12,7.90,-0.00,-0.15,-0.16,1721199349025
-2.77,2.89,14.40,0.14,-0.02,0.01,1721199349035
1.06,-0.86,8.10,0.08,0.02,0.10,1721199349045
0.39,2.26,9.19,0.11,-0.11,-0.04,1721199349055
0.97,3.55,7.30,0.14,0.06,-0.13,1721199349065
0.01,1.02,10.05,0.01,-0.06,-0.15,1721199349075
-2.01,1.53,11.98,0.10,-0.05,-0.13,1721199349085
-1.79,-0.89,9.76,-0.03,-0.02,-0.12,1721199349095
-1.69,0.96,11.29,0.08,-0.12,-0.04,1721199349105
-0.16,-0.27,8.70,-0.08,0.06,0.04,1721199349115
-1.20,2.52,12.11,0.02,-0.13,-0.07,1721199349125
0.68,0.55,7.23,-0.08,0.00,-0.16,1721199349135
-0.70,1.87,11.63,-0.03,-0.01,-0.17,1721199349150
-2.03,0.90,8.66,-0.13,-0.07,-0.15,1721199349154
-1.02,-0.82,10.91,-0.18,0.04,-0.07,1721199349164
-0.10,-5.19,8.08,-0.16,-0.11,0.09,1721199349174
-1.75,0.11,10.42,-0.14,0.04,-0.08,1721199349184
0.62,-0.31,10.69,-0.13,-0.05,-0.00,1721199349194
0.79,1.35,11.56,-0.20,-0.02,-0.00,1721199349204
2.08,-0.46,10.82,-0.16,0.02,-0.10,1721199349214
-0.91,-3.04,8.79,-0.17,-0.07,-0.21,1721199349224
-3.06,-1.99,10.18,-0.21,0.01,-0.13,1721199349234
-2.11,-2.30,10.24,-0.14,-0.03,0.13,1721199349244
-0.57,1.41,10.39,-0.03,-0.01,0.19,1721199349254
3.07,-1.70,11.05,-0.13,0.02,0.07,1721199349264
2.55,0.61,11.85,-0.05,0.01,-0.16,1721199349274
-0.39,1.63,9.57,0.02,-0.05,-0.28,1721199349284
-3.32,2.14,10.26,0.04,-0.01,-0.18,1721199349294
-3.45,-1.81,9.23,-0.01,-0.09,0.04,1721199349304
-0.08,0.21,12.13,0.05,0.03,0.13,1721199349314
2.71,-1.41,10.92,0.02,-0.01,0.10,1721199349324
0.45,0.08,11.69,0.03,-0.08,-0.09,1721199349334
-0.98,2.42,10.52,0.18,-0.07,-0.09,1721199349344
0.41,-0.81,10.07,0.03,0.07,-0.05,1721199349354
-0.25,0.96,11.67,0.17,-0.10,0.10,1721199349364
0.61,0.74,12.60,0.04,0.08,0.19,1721199349374
1.23,0.33,11.54,0.08,-0.06,0.06,1721199349384
0.85,3.46,11.92,0.19,-0.02,-0.04,1721199349394
1.33,-0.42,4.16,0.18,-0.03,-0.02,1721199349404
-0.44,-0.35,10.24,0.12,0.07,-0.00,1721199349414
-0.34,1.86,10.14,0.23,0.01,-0.00,1721199349424
0.36,3.11,11.85,0.17,0.06,0.08,1721199349434
2.37,1.42,8.73,0.18,0.04,-0.03,1721199349444
1.86,-0.33,9.68,0.07,0.04,-0.18,1721199349454
-0.39,0.20,12.62,0.09,0.02,-0.28,1721199349464
-0.88,3.09,10.93,0.23,0.07,-0.15,1721199349474
0.40,2.69,6.07,0.14,0.07,-0.03,1721199349484
2.31,-1.32,8.45,-0.08,0.15,-0.12,1721199349494
1.34,-0.64,12.22,-0.05,0.07,-0.34,1721199349504
-0.44,1.08,11.99,-0.01,0.14,-0.43,1721199349514
-2.39,1.64,8.47,0.04,0.03,-0.31,1721199349524
-2.20,0.47,7.93,-0.07,0.11,-0.09,1721199349534
0.35,-0.60,10.44,-0.08,0.15,-0.12,1721199349544
1.77,2.39,11.45,-0.12,0.17,-0.25,1721199349554
2.12,0.90,12.66,-0.05,0.13,-0.41,1721199349564
0.12,-0.94,4.83,-0.04,0.00,-0.39,1721199349574
-0.72,-0.54,11.63,-0.14,0.29,-0.37,1721199349584
-0.11,1.50,11.29,-0.04,0.07,-0.46,1721199349594
-1.44,-0.55,11.58,-0.16,0.17,-0.43,1721199349604
-1.60,0.07,12.40,-0.04,0.17,-0.40,1721199349614
-0.61,-0.19,9.30,-0.10,0.22,-0.30,1721199349624
-1.68,-1.47,7.53,-0.05,0.12,-0.39,1721199349634
-1.65,-1.29,9.33,-0.10,0.20,-0.33,1721199349644
-1.47,0.47,9.67,0.02,0.28,-0.28,1721199349654
-0.96,0.02,11.10,-0.09,0.16,-0.26,1721199349664
-0.88,0.79,11.31,-0.03,0.19,-0.29,1721199349674
-0.64,0.02,9.61,-0.05,0.22,-0.29,1721199349684
-1.90,-3.01,11.04,-0.09,0.16,-0.25,1721199349694
-2.60,-0.85,10.42,-0.04,0.25,-0.27,1721199349704
-2.38,-2.10,11.30,-0.01,0.21,-0.16,1721199349714
-2.02,-0.51,8.78,0.01,0.11,-0.10,1721199349724
-0.51,1.06,9.78,0.03,0.24,-0.05,1721199349734
-0.85,0.73,11.58,0.06,0.17,-0.09,1721199349744
-1.68,0.58,10.22,-0.05,0.16,-0.12,1721199349754
-2.63,-1.33,10.96,-0.02,0.13,-0.09,1721199349764
-1.83,0.12,9.89,-0.04,0.18,-0.06,1721199349774
-0.60,-2.47,10.04,-0.06,0.07,0.18,1721199349784
-0.15,2.12,10.09,0.09,0.15,0.15,1721199349794
2.61,1.41,9.24,-0.04,0.16,0.03,1721199349804
0.22,2.16,12.44,0.03,0.05,-0.25,1721199349814
-0.61,0.03,10.86,-0.03,0.09,-0.26,1721199349824
-1.79,0.78,11.42,0.02,0.15,-0.11,1721199349834
-2.91,1.91,10.77,0.06,0.12,-0.05,1721199349844
-2.17,3.52,10.07,0.08,0.13,-0.07,1721199349854
-0.81,-1.20,8.27,0.04,0.06,-0.04,1721199349864
-1.05,2.11,10.57,0.11,0.11,-0.09,1721199349874
0.12,0.56,9.91,0.08,0.15,-0.17,1721199349884
-3.07,3.18,8.68,0.19,-0.05,-0.12,1721199349894
-1.76,-1.10,9.92,0.10,0.20,0.04,1721199349904
-0.56,-0.38,13.68,0.17,0.06,0.17,1721199349914
0.81,3.57,10.17,0.23,0.04,0.09,1721199349924
1.43,1.80,7.46,0.18,0.06,-0.02,1721199349934
-0.80,-0.21,8.84,0.05,-0.01,-0.08,1721199349944
-1.95,0.60,12.42,0.15,0.06,0.06,1721199349954
-0.79,-1.81,9.89,0.00,0.13,0.12,1721199349964
-1.34,1.17,12.15,0.09,-0.04,0.14,1721199349974
-1.39,2.22,6.53,0.05,0.02,0.12,1721199349984
-0.66,1.83,10.91,0.02,0.09,0.13,1721199349994
-1.59,0.59,8.32,0.08,-0.09,0.23,1721199350004
-1.54,2.35,8.98,0.01,0.01,0.21,1721199350014
0.44,-0.51,9.88,-0.08,0.00,0.21,1721199350024
-0.51,2.14,14.51,0.00,-0.06,0.21,1721199350034
0.65,0.15,7.01,0.02,-0.05,0.21,1721199350044
-0.41,0.02,9.56,-0.01,-0.07,0.14,1721199350054
0.48,0.21,10.17,-0.08,0.04,-0.02,1721199350064
-1.26,-0.13,13.83,0.02,-0.15,0.07,1721199350074
-2.40,-0.13,7.66,0.01,-0.01,0.23,1721199350084
0.32,-1.07,11.31,-0.03,0.01,0.32,1721199350094
1.93,-0.90,8.09,-0.01,-0.09,0.23,1721199350104
1.55,1.55,12.93,-0.09,0.02,-0.08,1721199350114
-0.32,-0.96,8.94,0.07,-0.19,-0.09,1721199350124
-0.95,-2.18,9.08,-0.14,0.08,0.07,1721199350134
-1.21,-1.43,12.27,-0.05,-0.04,0.15,1721199350144
-0.57,-0.63,11.82,-0.14,-0.04,0.10,1721199350154
0.52,-0.07,8.03,-0.01,-0.03,0.08,1721199350164
0.89,-1.58,10.84,-0.19,0.07,-0.05,1721199350174
0.42,-0.63,10.97,0.02,-0.13,-0.09,1721199350184
-0.36,1.60,11.47,-0.08,0.09,-0.05,1721199350194
-0.43,1.78,8.01,-0.00,-0.04,-0.06,1721199350204
-1.07,-1.75,13.71,-0.18,0.07,-0.08,1721199350214
-0.24,1.41,8.86,0.06,-0.06,0.02,1721199350224
0.42,0.95,9.76,-0.14,0.12,0.01,1721199350234
-0.18,1.41,9.04,0.04,-0.02,-0.05,1721199350244
0.33,-1.13,12.50,-0.17,0.15,-0.11,1721199350254
-0.76,2.99,12.92,0.07,-0.06,-0.09,1721199350264
-0.44,3.49,7.10,-0.01,0.09,-0.01,1721199350274
-0.06,-0.17,10.22,-0.02,0.05,0.05,1721199350284
0.74,0.19,9.15,-0.00,0.05,0.05,1721199350294
-0.21,-0.05,10.17,-0.02,0.03,-0.06,1721199350304
0.18,0.45,10.68,-0.01,0.10,-0.06,1721199350314
0.68,-0.47,9.44,-0.04,0.06,0.00,1721199350324
-0.18,1.19,13.18,0.01,0.07,-0.04,1721199350334
-0.15,2.80,10.78,0.08,0.06,-0.04,1721199350344
-0.67,0.95,10.12,0.06,0.02,-0.03,1721199350354
-0.49,-0.88,9.77,0.02,0.10,-0.09,1721199350364
-1.42,1.32,13.76,0.06,0.04,-0.08,1721199350374
-0.99,2.94,4.50,0.16,-0.03,0.07,1721199350384
1.68,1.42,12.24,-0.01,0.30,-0.07,1721199350394
1.71,-1.57,7.57,0.15,-0.13,-0.11,1721199350404
-1.61,-0.96,12.41,-0.15,0.25,-0.26,1721199350414
-1.89,2.93,14.80,0.16,0.02,-0.11,1721199350424
-0.41,-0.77,3.99,-0.04,0.04,0.13,1721199350434
1.18,3.22,12.17,0.11,0.17,-0.01,1721199350444
2.99,-1.51,7.58,-0.01,0.12,-0.19,1721199350454
-3.23,4.00,12.11,0.07,-0.05,-0.28,1721199350464
-3.04,-1.30,8.12,-0.06,0.17,-0.08,1721199350474
-2.83,0.34,13.20,-0.05,0.01,0.16,1721199350484
0.94,-0.38,8.90,-0.01,0.08,0.21,1721199350494
2.58,0.30,10.70,-0.02,0.12,0.01,1721199350504
0.45,0.09,9.49,-0.00,-0.01,-0.23,1721199350514
-2.72,1.04,11.51,-0.06,0.07,-0.23,1721199350524
-3.62,0.03,10.33,-0.01,0.04,0.08,1721199350534
-2.14,0.17,9.93,-0.03,0.02,0.27,1721199350544
1.21,0.02,7.90,-0.03,0.05,0.21,1721199350554
1.58,-1.33,12.75,-0.13,0.02,0.02,1721199350564
-0.48,1.36,10.18,-0.03,-0.04,-0.17,1721199350574
-2.53,-0.25,10.80,-0.11,-0.02,-0.03,1721199350584
-2.50,0.32,9.90,0.00,-0.02,0.12,1721199350594
0.08,-1.62,9.84,-0.09,0.04,0.29,1721199350604
0.78,0.19,12.23,-0.02,-0.02,0.13,1721199350614
1.42,1.90,9.67,-0.03,-0.05,-0.05,1721199350624
-0.20,0.24,10.86,-0.01,-0.01,-0.17,1721199350634
-1.71,1.34,9.13,0.05,-0.12,-0.05,1721199350644
-1.64,-1.15,9.49,-0.01,0.07,0.15,1721199350654
-0.14,0.61,10.57,0.04,-0.02,0.11,1721199350664
0.91,-0.03,9.55,-0.05,-0.05,0.02,1721199350674
0.33,1.77,11.74,-0.01,-0.04,-0.13,1721199350684
-0.90,-0.39,9.92,-0.05,-0.06,-0.12,1721199350694
-1.61,1.16,12.10,0.01,-0.01,-0.03,1721199350704
-0.61,1.74,11.24,0.05,0.01,0.00,1721199350714
-0.36,0.09,9.29,0.02,-0.11,-0.03,1721199350724
0.51,1.15,11.67,0.03,0.13,-0.08,1721199350734
1.03,0.33,9.92,0.03,-0.07,-0.08,1721199350744
-0.40,3.53,9.81,0.10,-0.06,-0.13,1721199350754
0.08,-1.79,7.31,0.04,-0.00,-0.14,1721199350764
-0.64,-0.22,13.84,0.03,0.05,-0.10,1721199350774
-0.78,1.56,9.13,0.19,-0.06,-0.06,1721199350784
-0.67,0.73,8.50,0.14,0.06,-0.04,1721199350794
0.78,3.11,10.06,0.27,0.05,0.05,1721199350804
1.54,1.69,10.01,0.18,0.02,-0.08,1721199350814
-0.68,4.36,11.30,0.26,-0.04,-0.24,1721199350824
-1.38,3.07,6.61,0.18,0.01,-0.17,1721199350834
-1.92,-0.44,11.99,0.01,0.03,-0.10,1721199350844
-1.71,-0.91,11.52,0.05,-0.05,0.05,1721199350854
-0.79,0.74,9.85,0.03,0.03,0.00,1721199350864
-0.24,0.93,9.41,0.08,0.00,-0.06,1721199350874
-0.57,-0.13,7.96,0.05,-0.01,-0.08,1721199350884
-1.60,2.77,10.86,0.12,-0.02,-0.07,1721199350894
-0.79,0.27,8.37,0.01,0.05,0.04,1721199350904
-2.01,1.65,12.49,0.03,-0.10,-0.02,1721199350914
-0.88,-0.77,9.14,-0.02,-0.04,0.06,1721199350924
-0.60,1.49,12.48,-0.04,-0.03,0.04,1721199350934
-0.39,1.15,9.04,0.02,-0.12,0.00,1721199350944
0.40,0.15,11.02,-0.02,0.03,0.01,1721199350954
-0.09,-0.48,8.88,0.02,-0.10,-0.11,1721199350964
-1.75,0.24,10.68,-0.03,-0.07,-0.08,1721199350974
-1.15,-0.11,9.92,-0.02,-0.04,-0.02,1721199350984
-0.85,-0.11,9.19,-0.01,-0.06,0.15,1721199350994
0.02,-0.97,7.04,-0.09,-0.03,0.01,1721199351004
-0.40,-0.47,9.52,-0.06,-0.13,-0.10,1721199351014
-0.26,-0.25,7.55,-0.08,0.01,-0.07,1721199351024
-0.64,-1.19,6.64,-0.14,-0.08,-0.04,1721199351034
-0.92,-1.45,12.23,-0.25,0.06,-0.03,1721199351044
-1.97,-3.47,13.62,-0.30,-0.17,-0.06,1721199351054
-1.43,-1.33,16.07,-0.22,-0.08,0.06,1721199351064
1.59,-1.03,10.09,-0.15,-0.05,0.15,1721199351074
0.58,-0.15,10.07,-0.16,-0.01,0.02,1721199351084
-0.02,2.10,11.39,-0.08,-0.03,-0.19,1721199351094
-0.67,0.22,10.21,-0.07,-0.13,-0.08,1721199351104
-0.91,-0.11,10.11,-0.08,-0.01,0.06,1721199351114
-0.57,2.12,11.31,-0.07,-0.05,0.06,1721199351124
0.42,1.23,10.55,-0.07,-0.02,0.07,1721199351134
-0.44,0.66,9.29,-0.02,-0.12,-0.08,1721199351144
-1.48,2.32,12.62,-0.00,0.02,0.01,1721199351159
-0.74,2.45,12.98,0.07,-0.05,0.05,1721199351163
0.04,0.50,8.36,0.10,-0.10,0.23,1721199351173
1.11,3.01,12.43,0.14,0.06,0.17,1721199351183
2.36,0.00,8.45,0.12,-0.10,-0.04,1721199351193
-0.07,0.84,11.52,0.11,-0.04,-0.09,1721199351203
-0.43,2.08,8.14,0.19,-0.04,-0.04,1721199351213
-0.11,-1.36,10.05,0.08,0.07,0.07,1721199351223
-0.40,2.35,12.99,0.25,-0.09,0.05,1721199351233
0.28,1.83,5.91,0.20,-0.04,0.00,1721199351243
1.27,1.30,12.56,0.15,0.08,-0.03,1721199351253
0.94,-0.80,10.48,0.11,-0.03,-0.14,1721199351263
-1.47,1.59,13.28,0.18,-0.07,-0.08,1721199351273
0.22,1.10,6.54,0.15,0.05,-0.03,1721199351283
1.29,1.24,8.13,0.09,-0.00,-0.02,1721199351293
2.50,-0.86,10.89,0.06,0.10,-0.18,1721199351303
-0.07,0.28,11.40,0.06,-0.06,-0.30,1721199351313
-2.40,0.42,9.67,0.02,0.01,-0.19,1721199351323
-1.12,2.05,10.22,0.02,0.13,-0.09,1721199351333
0.94,-0.86,6.04,-0.01,-0.04,-0.03,1721199351343
0.61,2.37,12.20,-0.04,0.12,-0.17,1721199351353
0.25,0.09,8.22,0.06,-0.06,-0.24,1721199351363
-2.17,0.23,10.34,-0.08,0.06,-0.20,1721199351373
-1.38,0.84,12.81,-0.03,0.04,-0.11,1721199351383
0.77,-0.61,10.12,-0.04,0.04,-0.07,1721199351393
1.23,0.88,9.47,-0.02,0.03,0.01,1721199351403
0.01,-0.76,10.87,-0.04,0.09,-0.27,1721199351413
-1.96,0.77,9.11,-0.05,-0.05,-0.30,1721199351423
-1.78,-0.96,11.45,-0.05,0.06,-0.10,1721199351433
-0.70,-0.15,9.01,-0.03,0.03,0.03,1721199351443
0.63,0.33,11.17,-0.06,0.08,0.01,1721199351453
0.67,-2.63,9.15,-0.12,-0.09,-0.19,1721199351463
-0.25,0.73,12.28,-0.02,0.05,-0.27,1721199351473
-0.50,0.36,8.61,-0.02,0.02,-0.23,1721199351483
-1.87,0.26,12.37,-0.06,-0.02,-0.11,1721199351493
-0.84,-1.82,8.56,-0.03,-0.03,-0.01,1721199351503
-1.35,-1.29,11.07,-0.06,0.02,-0.13,1721199351513
-0.23,-0.21,8.07,0.00,-0.03,-0.18,1721199351523
0.66,0.75,11.16,-0.07,0.13,-0.20,1721199351533
-1.63,0.05,9.74,0.04,-0.12,-0.17,1721199351543
-2.33,1.07,10.21,-0.04,0.13,-0.14,1721199351553
-0.51,1.62,11.10,0.06,-0.04,-0.06,1721199351563
0.88,0.91,9.79,-0.03,0.04,-0.09,1721199351573
0.11,-0.44,9.59,-0.01,-0.10,-0.21,1721199351583
-1.77,-0.33,9.87,-0.02,-0.02,-0.28,1721199351593
-1.76,0.26,11.01,-0.04,0.07,-0.19,1721199351603
-1.07,0.84,12.08,0.01,0.01,-0.14,1721199351613
-1.52,2.68,8.48,0.07,-0.12,-0.07,1721199351623
0.31,0.54,10.84,-0.02,0.09,-0.09,1721199351633
-0.59,2.14,12.57,0.10,-0.03,-0.20,1721199351643
0.12,2.72,10.71,0.03,0.08,-0.21,1721199351653
-1.45,-1.46,8.31,0.05,-0.21,-0.08,1721199351663
-1.59,1.47,11.68,0.07,0.09,-0.06,1721199351673
1.48,2.32,10.24,0.18,0.04,-0.07,1721199351683
0.92,1.47,8.24,0.11,-0.09,-0.09,1721199351693
-0.49,0.41,10.46,0.07,-0.01,-0.25,1721199351703
-1.80,1.90,12.92,0.13,-0.02,-0.26,1721199351713
-2.01,3.25,9.19,0.18,0.00,-0.05,1721199351723
-0.30,-0.39,8.30,0.07,-0.01,0.05,1721199351733
-0.19,-0.05,9.79,0.08,-0.09,-0.02,1721199351743
0.85,2.47,12.07,0.09,0.06,-0.13,1721199351753
0.31,1.29,10.91,0.09,-0.06,-0.21,1721199351763
-2.18,0.54,8.23,0.04,-0.08,-0.12,1721199351773
-1.77,-0.04,9.83,0.02,0.01,-0.05,1721199351783
-0.69,1.30,9.23,0.04,0.04,-0.05,1721199351793
0.81,1.10,10.60,-0.00,-0.01,-0.08,1721199351803
-0.27,-0.54,7.04,0.01,-0.14,-0.09,1721199351813
-0.48,0.45,12.59,-0.07,0.06,-0.15,1721199351823
0.96,1.40,10.98,0.03,-0.02,-0.19,1721199351833
-0.62,0.19,10.90,-0.10,-0.05,-0.20,1721199351843
-0.44,-0.07,9.92,0.06,-0.03,-0.08,1721199351853
0.04,-0.54,9.17,-0.09,0.08,-0.24,1721199351863
0.23,1.01,12.28,-0.01,0.03,-0.26,1721199351873
-0.40,-0.95,8.87,-0.12,-0.00,-0.28,1721199351883
-1.12,-0.62,12.05,-0.01,0.01,-0.17,1721199351893
0.28,-1.07,7.99,-0.10,0.12,-0.19,1721199351903
-0.24,-0.39,12.18,-0.09,-0.01,-0.25,1721199351913
0.06,0.51,9.62,-0.07,0.07,-0.30,1721199351923
-1.48,-0.41,10.34,-0.09,0.08,-0.37,1721199351933
-2.40,-0.27,11.01,-0.07,0.06,-0.27,1721199351943
-1.34,-0.72,10.55,-0.09,0.09,-0.15,1721199351953
-0.35,-1.34,9.18,-0.03,-0.01,-0.07,1721199351963
0.79,-0.87,9.35,-0.10,0.14,-0.14,1721199351973
0.13,-0.28,10.49,-0.03,0.04,-0.26,1721199351983
-0.89,0.53,10.91,-0.03,0.12,-0.21,1721199351993
-1.70,0.43,10.95,-0.02,0.00,-0.17,1721199352003
-1.21,2.02,10.64,0.01,0.11,-0.05,1721199352013
0.08,0.90,10.88,-0.03,0.12,-0.09,1721199352023
-0.49,1.27,10.20,0.01,0.07,-0.04,1721199352033
-0.70,-0.15,8.48,0.01,0.05,-0.10,1721199352043
0.22,-1.24,11.42,0.02,0.11,-0.08,1721199352053
0.36,2.52,10.71,0.10,0.09,-0.06,1721199352063
-0.41,2.42,11.70,0.06,0.05,-0.07,1721199352073
-1.40,2.52,10.94,0.14,0.01,-0.10,1721199352083
-1.79,-0.14,9.55,0.08,0.04,-0.04,1721199352093
-1.37,-0.00,10.22,0.11,0.09,0.02,1721199352103
-1.05,0.65,9.45,0.13,0.02,0.07,1721199352113
-0.25,0.39,10.92,0.15,0.03,0.07,1721199352123
1.02,1.55,9.07,0.20,0.07,0.02,1721199352133
1.46,2.07,9.65,0.17,0.05,-0.04,1721199352143
0.95,0.07,9.82,0.11,0.04,-0.10,1721199352153
-0.63,2.21,11.67,0.17,0.02,-0.14,1721199352163
0.50,-0.35,8.25,0.10,0.10,-0.02,1721199352173
0.41,0.35,12.14,0.03,0.08,-0.11,1721199352183
0.26,0.53,9.98,0.06,0.02,-0.15,1721199352193
-0.36,2.04,11.25,-0.01,0.14,-0.20,1721199352203
-0.78,-0.01,9.52,-0.01,0.05,-0.18,1721199352213
-1.37,-1.49,8.16,-0.03,0.06,-0.12,1721199352223
-0.78,-0.05,9.96,-0.05,0.05,-0.07,1721199352233
0.23,0.98,10.84,-0.03,0.13,-0.08,1721199352243
0.03,1.06,8.69,0.00,-0.06,-0.10,1721199352253
0.18,0.08,9.67,-0.12,0.11,-0.17,1721199352263
0.34,0.50,10.23,-0.03,-0.00,-0.13,1721199352273
-0.40,-1.98,10.38,-0.19,0.07,-0.12,1721199352283
-1.21,0.22,11.64,-0.08,-0.00,-0.11,1721199352293
-0.95,0.83,10.42,-0.07,0.09,-0.09,1721199352303
0.85,-1.81,9.28,-0.16,0.06,-0.09,1721199352313
-0.33,1.99,10.18,-0.02,0.02,-0.16,1721199352323
0.70,-0.46,10.31,-0.12,0.15,-0.15,1721199352333
-0.09,-0.25,10.93,-0.08,0.02,-0.13,1721199352343
-0.35,-2.34,9.86,-0.09,0.07,-0.19,1721199352353
-0.27,2.02,9.98,-0.02,0.07,-0.17,1721199352363
0.25,1.01,9.86,-0.04,0.12,-0.19,1721199352373
-1.76,-1.24,12.03,-0.10,0.01,-0.23,1721199352383
-2.55,-0.98,10.95,-0.06,0.05,-0.18,1721199352393
-0.35,-0.12,12.17,-0.06,0.22,-0.11,1721199352403
-0.29,-2.77,11.09,-0.07,-0.01,-0.00,1721199352413
-0.71,4.06,12.13,0.10,0.21,-0.20,1721199352423
1.42,-0.13,7.85,0.13,0.02,-0.20,1721199352433
-1.31,0.10,9.39,0.05,0.03,-0.24,1721199352443
-0.77,4.28,10.98,0.18,0.17,-0.23,1721199352453
-1.62,0.05,9.86,0.02,0.01,-0.23,1721199352463
-2.81,2.76,10.73,0.10,0.03,-0.20,1721199352473
-0.87,-2.62,8.02,0.00,0.09,-0.16,1721199352483
-1.82,-0.19,11.40,0.07,0.04,-0.14,1721199352493
-1.41,1.77,8.56,0.08,0.08,-0.15,1721199352503
-1.26,0.23,12.16,0.08,0.02,-0.10,1721199352513
-1.15,2.24,10.95,0.17,0.06,-0.12,1721199352523
-0.37,-2.56,8.92,0.08,0.05,-0.08,1721199352533
-2.35,4.41,10.94,0.24,-0.09,0.08,1721199352543
1.23,1.87,8.61,0.16,0.11,0.05,1721199352553
1.53,-0.58,9.64,0.21,-0.09,-0.03,1721199352563
1.01,0.62,8.23,0.13,0.11,-0.20,1721199352573
-0.82,-0.74,10.97,0.02,-0.01,-0.25,1721199352583
-3.25,1.58,13.98,0.05,0.04,-0.15,1721199352593
-3.02,1.84,7.13,0.18,-0.02,0.07,1721199352603
-0.97,-0.06,6.98,0.06,0.07,0.15,1721199352613
0.74,1.61,12.00,0.03,0.06,0.03,1721199352623
0.25,0.94,10.76,0.04,-0.12,0.02,1721199352633
-1.03,1.18,10.98,-0.04,0.02,-0.06,1721199352643
-1.18,0.14,8.90,0.03,-0.06,-0.02,1721199352653
-0.70,1.80,11.99,-0.13,0.13,0.03,1721199352663
-0.79,0.29,8.23,-0.08,-0.19,0.01,1721199352673
-0.59,0.39,12.10,-0.20,0.10,-0.00,1721199352683
1.03,-3.86,9.51,-0.17,-0.05,0.04,1721199352693
-0.17,-2.39,11.86,-0.18,-0.01,-0.01,1721199352703
0.11,1.03,10.58,-0.07,-0.00,-0.09,1721199352713
-0.28,-1.67,10.26,-0.17,-0.03,-0.05,1721199352723
-1.17,3.37,11.48,0.03,0.05,0.01,1721199352733
1.00,-2.05,4.02,-0.13,-0.02,0.01,1721199352743
-1.58,-0.73,9.27,-0.19,0.00,-0.13,1721199352753
-0.43,-1.40,12.09,-0.17,0.10,-0.16,1721199352763
-0.98,-0.64,11.36,-0.14,-0.10,0.03,1721199352773
-0.21,-1.28,10.58,-0.15,0.09,0.04,1721199352783
2.08,-0.46,12.60,-0.12,0.08,-0.04,1721199352793
0.21,1.64,10.80,-0.11,-0.07,-0.12,1721199352803
-1.26,2.09,12.09,-0.12,0.14,-0.22,1721199352813
0.22,0.12,8.65,0.04,-0.04,-0.13,1721199352823
0.42,-0.85,10.30,-0.08,0.18,-0.02,1721199352833
-0.53,1.17,12.76,0.00,-0.00,-0.09,1721199352843
-0.38,0.19,10.23,-0.01,0.06,-0.09,1721199352853
0.44,0.58,9.74,0.05,0.08,-0.03,1721199352863
1.36,-1.37,9.92,0.05,0.12,-0.04,1721199352873
0.11,0.11,14.04,0.01,0.16,-0.20,1721199352883
-1.85,4.41,13.50,0.11,0.03,-0.14,1721199352893
-0.36,6.76,10.32,0.24,0.22,-0.01,1721199352903
1.43,-4.14,5.37,0.12,0.03,0.03,1721199352913
0.75,5.66,9.97,0.31,0.24,-0.05,1721199352923
1.70,-2.53,8.67,0.16,0.20,-0.28,1721199352933
-2.33,-0.46,9.48,0.21,-0.02,-0.06,1721199352943
-1.18,1.27,12.21,0.11,0.29,-0.06,1721199352953
0.74,2.92,11.85,0.25,0.09,-0.14,1721199352963
-0.16,-1.26,6.67,0.17,0.12,-0.25,1721199352973
-2.08,-1.06,11.20,0.16,0.16,-0.15,1721199352983
-1.90,0.76,10.33,0.16,0.15,-0.00,1721199352993
0.14,0.94,9.24,0.17,0.15,0.04,1721199353003
1.74,-0.22,7.93,0.10,0.15,-0.06,1721199353013
1.46,2.56,12.33,0.10,0.21,-0.23,1721199353023
-0.11,1.58,8.07,0.11,0.08,-0.23,1721199353033
-1.56,0.25,8.13,0.03,0.18,-0.20,1721199353043
-1.52,-3.57,10.03,-0.07,0.12,-0.07,1721199353053
-1.28,1.25,13.24,-0.00,0.17,-0.08,1721199353063
-0.53,2.52,10.10,0.02,0.15,-0.09,1721199353073
-0.12,2.68,10.85,-0.04,0.18,-0.09,1721199353083
-0.98,0.26,8.01,-0.05,0.08,-0.09,1721199353093
-1.05,-1.12,11.02,-0.14,0.17,-0.07,1721199353103
-0.80,2.42,11.42,0.01,0.09,-0.02,1721199353113
0.66,-0.99,6.34,-0.11,0.08,0.03,1721199353123
0.25,-0.78,13.21,-0.09,0.10,-0.05,1721199353133
-0.40,-0.24,10.37,-0.04,0.12,-0.17,1721199353143
-2.93,-0.88,11.73,-0.14,0.01,-0.01,1721199353153
-0.40,1.69,9.44,-0.02,0.05,0.14,1721199353168
1.46,0.02,7.99,-0.03,0.05,0.13,1721199353172
1.50,-1.26,8.88,-0.04,0.12,-0.03,1721199353182
-0.40,-2.43,10.48,-0.08,0.12,-0.12,1721199353192
-0.79,0.38,10.53,0.01,0.12,-0.12,1721199353202
-1.39,0.39,9.13,-0.07,0.07,-0.04,1721199353212
-0.85,-1.34,11.37,-0.04,0.19,0.03,1721199353222
-0.71,-1.53,9.26,-0.05,0.12,-0.01,1721199353232
0.09,-0.06,12.38,-0.08,0.15,-0.04,1721199353242
-1.14,2.00,9.84,0.01,0.06,-0.07,1721199353252
-1.74,0.04,10.21,-0.05,0.12,-0.05,1721199353262
-1.84,-0.46,9.94,0.02,0.01,-0.01,1721199353272
-0.72,-0.91,10.69,-0.06,0.11,0.11,1721199353282
-1.37,-0.52,8.37,0.01,0.03,0.05,1721199353292
0.52,0.86,12.46,-0.08,0.21,-0.09,1721199353302
0.86,0.02,11.30,0.03,-0.03,-0.08,1721199353312
-0.91,1.92,10.15,-0.03,0.11,-0.10,1721199353322
-0.99,3.23,12.85,-0.01,0.14,-0.14,1721199353332
-1.17,2.18,10.62,0.00,-0.04,-0.07,1721199353342
-2.03,0.18,9.56,0.02,0.03,-0.03,1721199353352
-0.74,0.89,9.43,0.06,0.08,0.06,1721199353362
-0.52,0.75,9.14,0.07,-0.02,0.06,1721199353372
-0.84,0.67,11.37,0.05,-0.01,-0.04,1721199353382
-0.72,3.41,12.07,0.19,0.07,-0.02,1721199353392
-0.68,-0.64,7.31,0.09,-0.03,0.04,1721199353402
-0.35,1.49,12.70,0.06,0.06,0.16,1721199353412
1.38,3.20,9.76,0.24,0.02,0.07,1721199353422
1.58,0.76,8.00,0.12,0.01,-0.00,1721199353432
0.02,-0.01,10.93,0.12,-0.03,-0.10,1721199353442
-1.51,1.02,11.97,0.10,-0.02,-0.09,1721199353452
-3.04,3.02,8.65,0.17,-0.06,0.05,1721199353462
-2.30,0.45,8.38,0.04,0.05,0.08,1721199353472
-1.51,-2.05,9.90,0.05,-0.08,0.19,1721199353482
-0.74,0.18,10.98,-0.02,0.04,0.19,1721199353492
0.05,1.86,10.62,0.04,-0.06,0.11,1721199353502
-0.45,3.93,9.76,0.01,-0.05,0.04,1721199353512
-0.34,0.91,9.87,0.03,-0.01,0.09,1721199353522
-0.69,-1.64,8.45,-0.05,-0.08,0.17,1721199353532
-0.16,1.08,11.60,-0.06,-0.05,0.14,1721199353542
0.71,0.38,7.88,-0.02,-0.07,0.04,1721199353552
-0.11,-0.89,10.50,-0.12,-0.05,-0.05,1721199353562
-1.01,-1.78,11.65,-0.07,-0.04,0.05,1721199353572
-1.41,-1.75,10.73,-0.12,-0.13,0.13,1721199353582
-0.20,2.13,12.31,-0.03,0.01,0.02,1721199353592
0.83,-1.70,7.49,-0.08,-0.13,0.05,1721199353602
-0.90,-1.66,11.06,-0.10,-0.06,0.10,1721199353612
-0.56,0.07,9.82,-0.10,-0.06,0.03,1721199353622
-0.36,0.82,11.19,-0.11,-0.08,0.04,1721199353632
1.60,-2.45,10.98,-0.19,-0.03,0.02,1721199353642
0.09,0.19,9.33,-0.09,-0.10,0.03,1721199353652
0.72,-1.51,10.76,-0.18,0.04,-0.03,1721199353662
-0.51,-0.38,10.59,-0.06,-0.14,-0.05,1721199353672
-0.49,2.20,11.70,-0.11,0.09,-0.06,1721199353682
-0.13,2.75,10.85,-0.01,-0.13,-0.04,1721199353692
-0.15,2.57,11.30,-0.05,0.10,-0.02,1721199353702
-1.00,-0.63,10.22,-0.02,-0.08,-0.13,1721199353712
-1.30,-1.77,8.21,-0.08,-0.01,0.05,1721199353722
-0.41,0.90,11.78,0.00,0.03,-0.02,1721199353732
1.52,2.19,7.60,0.06,0.00,0.01,1721199353742
0.74,3.55,13.89,0.05,0.06,-0.13,1721199353752
-0.74,3.30,10.58,0.15,-0.09,-0.08,1721199353762
-1.87,-1.47,9.17,-0.02,0.06,-0.06,1721199353772
-2.49,-0.34,11.63,0.08,-0.11,0.07,1721199353782
-0.30,0.57,8.37,0.07,0.03,0.18,1721199353792
1.52,2.70,11.53,0.15,0.02,0.02,1721199353802
2.60,-0.06,9.50,0.07,0.02,-0.04,1721199353812
-1.47,4.23,11.18,0.21,-0.11,-0.15,1721199353822
-0.72,-1.71,9.81,-0.03,0.10,-0.09,1721199353832
-2.02,2.57,14.99,0.11,-0.11,0.05,1721199353842
0.79,0.45,7.15,0.11,0.00,0.18,1721199353852
2.00,-0.96,9.88,0.06,0.02,0.09,1721199353862
1.84,2.11,9.85,0.13,0.02,-0.20,1721199353872
0.17,2.51,7.30,0.14,-0.00,-0.25,1721199353882
-2.02,1.77,6.49,0.16,-0.02,-0.08,1721199353892
0.04,-2.89,11.28,-0.08,0.16,0.05,1721199353902
0.17,-0.42,12.63,0.03,-0.12,0.05,1721199353912
0.69,3.26,12.58,-0.01,0.14,-0.12,1721199353922
0.52,2.27,10.36,-0.01,-0.03,-0.13,1721199353932
-1.36,-0.51,8.53,-0.04,0.00,-0.12,1721199353942
-0.62,-0.70,6.75,0.01,0.02,-0.09,1721199353952
0.21,-1.09,8.78,-0.06,0.10,-0.03,1721199353962
-0.39,0.35,12.16,-0.06,0.01,-0.08,1721199353972
0.43,2.39,12.90,-0.01,0.04,-0.11,1721199353982
0.93,0.83,7.57,-0.01,0.00,-0.16,1721199353992
-0.32,-1.88,9.91,-0.14,0.01,-0.13,1721199354002
-1.05,-0.36,13.09,-0.03,0.05,-0.19,1721199354012
-0.47,2.21,10.95,0.03,0.03,-0.24,1721199354022
-1.77,-2.35,7.14,-0.01,-0.01,-0.16,1721199354032
-2.36,-0.97,13.07,-0.06,0.13,-0.09,1721199354042
-0.91,0.47,11.47,0.05,-0.02,-0.05,1721199354052
-0.69,2.35,10.27,-0.02,0.02,-0.12,1721199354062
0.58,-1.49,9.23,0.03,0.02,-0.14,1721199354072
-1.16,-1.34,9.72,-0.02,-0.00,-0.15,1721199354082
-1.58,-0.29,10.92,-0.00,0.07,-0.19,1721199354092
-0.62,0.53,10.60,-0.02,-0.01,-0.15,1721199354102
-0.87,0.28,10.82,0.02,0.04,-0.10,1721199354112
-0.75,0.51,9.90,0.02,0.05,-0.12,1721199354122
-0.01,-1.23,11.38,-0.02,0.03,-0.16,1721199354132
-0.13,0.75,9.79,0.07,-0.06,-0.09,1721199354142
-0.71,3.78,8.82,0.10,0.10,-0.13,1721199354152
0.20,0.23,8.40,0.12,-0.00,-0.21,1721199354162
-0.52,-0.94,7.88,0.06,0.00,-0.08,1721199354172
-0.32,2.00,12.17,0.09,0.11,-0.12,1721199354182
-0.06,2.32,11.08,0.07,0.01,-0.23,1721199354192
-1.48,1.95,12.10,0.06,0.05,-0.28,1721199354202
-1.30,0.81,9.22,0.13,0.03,-0.18,1721199354212
-1.02,-1.97,7.94,0.06,0.06,-0.07,1721199354222
-0.21,2.36,12.13,0.13,0.15,-0.11,1721199354232
1.05,2.18,9.47,0.19,0.06,-0.17,1721199354242
-0.27,3.78,9.50,0.18,0.06,-0.25,1721199354252
-0.12,-1.36,10.41,0.08,0.10,-0.24,1721199354262
-2.93,1.95,12.28,0.11,-0.01,-0.22,1721199354272
-1.73,0.90,8.52,0.08,0.09,-0.04,1721199354282
-0.31,-0.32,9.93,0.05,0.10,0.02,1721199354292
1.18,0.13,10.19,0.10,0.11,-0.06,1721199354302
1.20,2.68,8.78,0.12,0.08,-0.21,1721199354312
-0.18,1.06,9.93,0.01,0.08,-0.31,1721199354322
-2.78,3.06,11.13,0.08,0.08,-0.21,1721199354332
-1.19,-1.76,9.35,0.00,0.12,-0.03,1721199354342
-2.07,1.10,9.03,0.01,0.01,-0.07,1721199354352
-0.37,1.87,9.19,-0.00,0.13,-0.07,1721199354362
-0.56,2.73,12.33,0.01,0.14,-0.20,1721199354372
-1.05,0.03,9.14,-0.02,0.05,-0.07,1721199354382
-1.92,-1.24,9.15,-0.09,0.08,-0.08,1721199354392
-0.84,-1.88,9.93,-0.06,0.05,-0.02,1721199354402
-0.55,1.66,11.27,-0.01,0.09,0.04,1721199354412
0.44,-0.97,10.57,-0.07,0.08,-0.00,1721199354422
0.07,1.36,11.10,0.01,0.02,-0.04,1721199354432
-0.75,2.73,10.13,-0.03,0.16,-0.18,1721199354442
-1.48,-2.75,9.45,-0.13,0.01,-0.09,1721199354452
-2.34,0.25,11.06,-0.04,0.08,0.05,1721199354462
1.70,-1.98,10.44,-0.09,0.15,0.18,1721199354472
0.98,0.52,9.33,-0.06,0.02,0.02,1721199354482
0.90,2.26,11.54,-0.07,0.13,-0.15,1721199354492
-0.68,1.54,9.47,-0.06,0.02,-0.17,1721199354502
-1.77,-3.07,10.22,-0.12,0.04,-0.03,1721199354512
-1.78,-0.24,10.94,-0.08,0.18,0.05,1721199354522
-0.48,-0.02,10.24,-0.04,0.01,0.12,1721199354532
0.76,2.42,11.14,-0.04,0.19,0.08,1721199354542
0.11,0.85,9.17,-0.03,0.00,-0.09,1721199354552
-1.27,0.77,10.27,-0.02,0.18,-0.10,1721199354562
-0.84,-1.24,9.59,-0.03,0.08,0.07,1721199354572
-1.49,0.07,13.41,-0.04,0.07,0.19,1721199354582
0.43,4.49,9.89,0.14,0.10,0.06,1721199354592
2.29,-1.01,9.77,-0.06,0.11,0.05,1721199354602
-0.60,5.81,12.31,0.20,0.01,-0.03,1721199354612
-0.54,-0.62,7.69,0.03,0.10,-0.10,1721199354622
-3.42,1.19,12.20,0.13,0.02,0.01,1721199354632
-0.88,-0.52,9.63,0.04,0.15,0.18,1721199354642
0.39,1.02,14.31,0.09,0.10,0.12,1721199354652
0.09,3.84,8.97,0.18,-0.02,-0.04,1721199354662
-0.54,3.59,10.35,0.19,0.14,-0.06,1721199354672
-0.97,0.35,9.42,0.16,-0.00,0.02,1721199354682
-1.65,-0.55,11.44,0.11,0.03,0.12,1721199354692
-0.18,2.80,8.54,0.17,0.06,0.11,1721199354702
1.20,-0.55,8.83,0.03,0.07,0.11,1721199354712
0.30,0.60,11.81,0.10,0.00,-0.06,1721199354722
-1.01,0.70,8.38,0.15,-0.03,-0.02,1721199354732
-1.49,1.97,8.31,0.05,0.08,0.05,1721199354742
-0.98,0.68,10.35,0.03,0.01,0.13,1721199354752
0.32,0.06,10.75,0.00,0.03,0.20,1721199354762
0.33,1.06,10.59,0.04,-0.00,-0.02,1721199354772
0.02,0.73,9.63,-0.01,0.02,0.00,1721199354782
-1.45,1.32,7.83,0.01,-0.11,0.17,1721199354792
-0.77,-0.58,8.74,-0.09,0.07,0.15,1721199354802
0.66,-2.42,10.38,-0.09,-0.08,0.13,1721199354812
-0.27,-1.00,9.70,-0.09,-0.09,0.18,1721199354822
0.22,0.04,13.45,-0.15,0.08,0.09,1721199354832
-1.00,0.85,8.66,-0.00,-0.24,0.15,1721199354842
-0.57,-1.60,10.56,-0.18,0.00,0.20,1721199354852
0.89,-0.30,12.30,-0.02,-0.11,0.27,1721199354862
-0.02,-0.73,8.15,-0.15,-0.12,0.12,1721199354872
-2.03,0.13,12.88,-0.13,-0.17,0.15,1721199354882
0.20,-1.81,9.59,-0.10,-0.09,0.30,1721199354892
0.46,0.71,10.57,-0.13,-0.12,0.35,1721199354902
1.05,1.91,13.47,-0.14,-0.09,0.18,1721199354912
2.16,1.13,10.75,-0.05,-0.21,0.13,1721199354922
1.01,-0.71,8.89,-0.11,-0.15,0.10,1721199354932
-0.24,-0.19,11.44,-0.05,-0.12,0.07,1721199354942
-0.77,-0.06,8.77,-0.02,-0.24,0.09,1721199354952
-0.36,0.92,11.12,-0.03,-0.12,0.06,1721199354962
0.82,0.70,10.36,-0.02,-0.09,0.01,1721199354972
-0.53,0.54,11.40,-0.02,-0.19,-0.09,1721199354982
-0.75,1.46,10.55,0.04,-0.14,0.01,1721199354992
0.00,-0.40,10.96,-0.03,-0.05,0.02,1721199355002
-0.30,1.77,10.10,0.13,-0.23,-0.03,1721199355012
1.83,0.41,7.76,0.01,-0.03,-0.08,1721199355022
0.94,2.33,12.09,0.09,-0.15,-0.17,1721199355032
-1.34,2.70,8.75,0.13,-0.15,-0.26,1721199355042
-0.59,1.04,11.92,0.08,0.02,-0.22,1721199355052
-0.65,0.35,8.55,0.12,-0.24,-0.07,1721199355062
-1.13,1.22,10.32,0.01,-0.03,-0.08,1721199355072
1.02,-0.99,9.80,0.06,-0.11,-0.19,1721199355082
0.64,1.64,9.90,0.04,-0.07,-0.27,1721199355092
-1.17,2.91,9.46,0.09,-0.12,-0.23,1721199355102
-1.13,1.17,13.30,-0.02,-0.04,-0.16,1721199355112
-0.39,0.27,11.29,-0.04,0.04,-0.19,1721199355664
-0.38,-2.52,9.96,-0.02,-0.04,-0.13,1721199355669
-0.76,0.13,9.99,-0.03,0.13,-0.04,1721199355679
0.93,-0.29,10.65,-0.03,0.07,-0.03,1721199355689
1.07,1.11,11.77,0.01,0.07,-0.02,1721199355698
1.51,4.42,12.35,0.05,0.14,-0.15,1721199355708
0.54,0.68,8.84,0.02,0.02,-0.20,1721199355718
-1.42,-0.95,10.93,-0.07,0.13,-0.17,1721199355728
-0.51,-0.64,10.73,0.02,0.15,-0.06,1721199355738
1.22,0.42,10.58,-0.02,0.15,0.02,1721199355748
1.56,0.29,9.87,0.05,0.10,-0.08,1721199355757
1.26,2.77,10.40,0.02,0.18,-0.27,1721199355767
-0.35,1.54,11.07,0.06,0.04,-0.28,1721199355776
-2.04,1.12,9.36,0.03,0.11,-0.21,1721199355786
-1.44,0.59,12.13,0.04,0.19,-0.10,1721199355795
-0.35,2.11,10.42,0.11,0.14,-0.07,1721199355805
0.94,2.96,9.58,0.10,0.19,-0.17,1721199355815
0.57,1.16,10.32,0.09,0.16,-0.28,1721199355825
-2.17,0.60,8.70,0.09,0.08,-0.32,1721199355835
-2.28,-0.42,10.51,0.02,0.23,-0.19,1721199355845
-0.97,-0.06,11.81,0.06,0.15,-0.09,1721199355854
0.78,0.19,10.69,0.03,0.20,-0.09,1721199355864
0.84,1.52,9.76,0.07,0.18,-0.22,1721199355873
0.10,2.58,9.80,0.08,0.22,-0.34,1721199355883
-1.84,0.89,9.52,0.06,0.14,-0.29,1721199355892
-2.78,0.76,9.72,0.01,0.21,-0.18,1721199355902
-1.59,1.96,9.18,0.02,0.22,-0.10,1721199355912
0.56,0.71,10.47,-0.11,0.26,-0.10,1721199355922
0.49,-1.98,11.79,-0.11,0.15,-0.16,1721199355932
-1.25,2.25,11.63,-0.02,0.19,-0.23,1721199355942
-1.38,4.08,9.58,-0.02,0.23,-0.18,1721199355952
-1.14,2.10,11.08,-0.05,0.15,-0.05,1721199355962
-1.22,1.99,11.26,0.00,0.17,-0.05,1721199355972
-0.32,0.94,6.64,-0.03,0.18,-0.09,1721199355982
-0.01,1.41,11.00,-0.08,0.26,-0.10,1721199355992
-0.37,1.08,11.39,0.00,0.14,-0.13,1721199356002
-1.67,1.16,9.03,0.05,0.15,-0.06,1721199356011
-0.53,0.04,7.24,-0.04,0.20,-0.01,1721199356021
0.43,0.21,12.39,-0.07,0.20,-0.05,1721199356030
-0.00,0.71,11.60,-0.03,0.15,-0.05,1721199356040
-1.47,0.47,11.13,-0.05,0.16,-0.08,1721199356050
-2.02,0.20,10.35,0.02,0.15,0.03,1721199356060
-0.78,0.10,9.98,-0.03,0.21,0.13,1721199356070
-0.55,1.41,9.44,0.05,0.11,0.10,1721199356080
0.87,-0.17,7.42,-0.05,0.20,0.05,1721199356090
0.13,-0.57,11.85,0.03,0.12,0.06,1721199356100
1.75,-0.83,10.55,-0.03,0.25,0.00,1721199356109
0.72,1.45,12.06,0.03,0.09,-0.05,1721199356119
-0.70,0.42,10.51,-0.01,0.15,-0.07,1721199356129
-0.85,1.21,12.53,0.09,0.19,0.02,1721199356139
-1.17,1.23,8.27,0.13,0.12,0.01,1721199356149
-1.03,-0.75,9.08,0.04,0.19,0.00,1721199356159
-1.45,-2.00,10.88,0.04,0.16,0.10,1721199356169
0.10,1.37,12.40,0.06,0.21,0.11,1721199356179
0.80,0.24,9.77,0.06,0.19,0.02,1721199356189
-0.57,0.39,11.43,0.05,0.11,-0.08,1721199356199
-1.85,1.08,9.04,0.07,0.12,-0.00,1721199356209
-1.91,0.42,10.61,0.03,0.15,0.08,1721199356219
-1.15,-1.10,9.64,-0.03,0.08,0.10,1721199356229
-0.47,-0.40,10.56,0.00,0.02,0.14,1721199356239
2.25,5.28,11.14,0.05,0.14,0.24,1721199356249
4.98,1.50,9.81,-0.03,0.21,-0.09,1721199356259
-0.44,2.83,12.02,0.05,-0.23,-0.39,1721199356269
-6.90,0.75,7.65,-0.08,0.03,-0.28,1721199356279
-8.40,-0.21,12.20,-0.05,0.12,0.27,1721199356289
-3.96,1.80,10.12,-0.06,0.11,0.70,1721199356299
2.36,0.75,9.33,-0.08,-0.02,0.65,1721199356309
4.42,1.76,8.86,-0.05,0.08,0.22,1721199356319
2.60,0.40,9.79,-0.10,-0.02,-0.10,1721199356329
-0.69,4.45,15.26,-0.04,0.02,0.06,1721199356339
-2.55,1.11,7.41,-0.00,-0.17,0.23,1721199356349
-2.16,-0.25,12.06,-0.18,0.14,0.27,1721199356359
-0.93,-2.39,10.01,-0.06,-0.17,0.26,1721199356369
-2.08,-0.18,7.53,-0.12,-0.05,0.24,1721199356379
-0.66,-0.28,12.48,-0.08,0.04,0.24,1721199356389
-0.41,-0.38,7.35,0.01,-0.19,0.41,1721199356399
-0.17,3.30,11.09,-0.08,0.05,0.25,1721199356409
1.11,-2.88,9.22,-0.19,-0.16,0.13,1721199356419
-3.18,-1.36,11.23,-0.16,-0.20,0.05,1721199356429
0.54,-2.06,9.86,-0.17,-0.01,0.35,1721199356439
0.62,1.17,8.48,-0.04,-0.11,0.25,1721199356449
1.30,-2.33,6.02,-0.14,-0.09,0.04,1721199356459
0.09,-0.71,14.23,-0.25,-0.05,-0.05,1721199356469
-2.48,0.09,13.31,-0.14,-0.24,0.05,1721199356479
-1.20,0.78,13.67,-0.10,-0.03,0.23,1721199356489
-0.23,-1.24,5.51,0.03,-0.23,0.29,1721199356499
1.28,-0.11,9.72,-0.11,0.04,0.16,1721199356509
1.64,0.95,11.82,0.01,-0.10,0.02,1721199356519
-0.08,2.66,12.14,-0.01,-0.08,0.02,1721199356529
-0.48,-1.00,9.94,-0.05,-0.12,0.12,1721199356539
0.08,-1.11,12.17,-0.07,-0.10,0.15,1721199356549
1.37,2.84,12.09,0.11,-0.03,0.04,1721199356559
0.71,-0.51,6.89,0.08,-0.17,0.01,1721199356569
-0.21,0.71,12.59,0.07,0.06,0.04,1721199356579
0.04,5.63,10.96,0.24,-0.03,-0.02,1721199356589
0.21,0.46,8.33,0.09,-0.05,0.04,1721199356599
-0.27,0.32,10.93,0.20,-0.04,0.01,1721199356609
0.55,-1.90,8.68,0.16,-0.05,0.09,1721199356619
1.52,2.54,13.41,0.16,0.05,0.01,1721199356629
0.81,-0.82,7.91,0.21,-0.14,-0.15,1721199356639
-0.76,2.46,11.16,0.20,0.10,-0.15,1721199356649
-1.04,-0.30,10.26,0.22,-0.03,-0.07,1721199356659
-2.58,1.21,10.75,0.21,-0.04,-0.01,1721199356669
0.24,1.39,11.09,0.21,0.06,0.08,1721199356679
2.13,2.21,7.71,0.23,-0.04,0.00,1721199356689
1.23,1.72,9.02,0.09,0.05,-0.22,1721199356699
-0.72,0.06,9.64,0.05,-0.04,-0.27,1721199356709
-2.53,-1.09,8.99,-0.04,-0.00,-0.09,1721199356719
-1.64,2.46,11.25,-0.05,0.12,-0.04,1721199356729
0.21,-2.10,9.06,-0.07,-0.09,0.04,1721199356739
0.24,1.17,11.51,-0.10,0.03,-0.07,1721199356749
0.71,1.11,10.82,-0.01,0.03,-0.12,1721199356759
-0.57,0.08,8.65,-0.11,-0.00,-0.15,1721199356769
-1.20,1.41,11.65,-0.09,-0.01,-0.09,1721199356779
-0.03,1.94,10.59,-0.05,0.06,-0.02,1721199356789
0.89,-0.69,9.74,-0.20,-0.01,-0.00,1721199356799
-0.14,-0.86,12.03,-0.12,-0.00,-0.17,1721199356809
0.71,0.21,10.92,-0.12,0.07,-0.16,1721199356819
-1.84,-0.59,5.10,-0.10,-0.15,-0.10,1721199356829
-1.09,-0.75,12.66,-0.24,0.22,-0.12,1721199356839
-0.44,0.43,11.64,0.01,-0.08,-0.07,1721199356849
0.57,1.49,8.83,-0.13,0.09,-0.06,1721199356859
0.42,-1.58,8.40,-0.15,-0.02,-0.09,1721199356869
-0.50,1.37,12.16,-0.07,0.02,-0.18,1721199356879
0.13,-1.35,6.77,-0.07,0.00,-0.15,1721199356889
-1.29,-4.97,8.08,-0.20,0.00,-0.16,1721199356899
-1.68,1.44,14.87,-0.06,0.06,-0.11,1721199356909
0.30,0.90,13.13,-0.09,0.10,-0.14,1721199356919
-2.32,2.90,13.14,-0.03,-0.12,-0.12,1721199356929
-2.44,-0.92,6.57,0.03,-0.02,-0.03,1721199356939
-0.72,-2.51,11.37,-0.06,0.15,0.00,1721199356949
-0.78,1.07,9.17,0.08,-0.16,-0.00,1721199356959
-0.70,1.90,8.88,-0.03,0.08,-0.13,1721199356969
-0.73,-1.80,10.45,0.02,-0.09,-0.16,1721199356979
-1.51,-0.01,11.43,-0.00,0.06,-0.11,1721199356989
-1.05,1.91,10.78,0.01,0.02,-0.07,1721199356999
-0.38,-0.07,11.54,0.02,-0.05,-0.02,1721199357009
-0.93,1.55,10.59,0.14,-0.13,0.03,1721199357019
-0.74,3.20,10.09,0.11,0.09,-0.03,1721199357029
-1.50,0.15,11.64,0.09,-0.15,-0.09,1721199357039
-1.19,0.58,11.03,0.09,-0.02,0.02,1721199357049
-0.06,0.50,9.60,0.14,-0.03,0.10,1721199357059
-0.50,2.27,10.33,0.14,-0.09,0.09,1721199357069
0.98,2.80,10.92,0.19,-0.05,-0.01,1721199357079
0.34,2.26,10.96,0.17,-0.15,-0.08,1721199357089
-1.19,0.33,10.44,0.19,-0.11,-0.03,1721199357099
-1.43,-2.13,8.71,0.11,-0.05,0.07,1721199357109
-0.33,1.69,11.43,0.15,-0.04,0.11,1721199357119
0.99,2.52,10.03,0.17,-0.04,0.07,1721199357129
0.87,1.13,9.79,0.16,-0.11,-0.03,1721199357139
-0.22,0.37,9.53,0.11,-0.09,-0.08,1721199357149
-1.91,-0.05,10.35,0.03,-0.18,-0.01,1721199357159
-2.88,1.27,10.82,0.08,-0.11,0.13,1721199357169
-0.49,-3.29,6.39,-0.04,-0.13,0.18,1721199357179
0.20,1.24,10.47,0.01,-0.10,0.15,1721199357189
2.61,2.68,11.15,-0.02,0.01,0.05,1721199357199
1.03,1.88,10.88,0.01,-0.18,-0.05,1721199357209
-1.36,1.68,10.15,-0.04,-0.13,-0.07,1721199357219
-0.78,-1.59,8.69,-0.05,-0.17,0.06,1721199357229
0.46,-1.19,10.43,-0.15,-0.07,0.04,1721199357239
0.40,-0.72,11.19,-0.11,-0.13,-0.06,1721199357249
-1.64,0.81,9.85,-0.07,-0.16,-0.12,1721199357259
0.26,-2.30,9.80,-0.15,-0.03,-0.02,1721199357269
0.00,0.47,10.70,-0.03,-0.15,-0.01,1721199357279
0.83,0.51,9.42,-0.16,-0.05,-0.12,1721199357289
-0.59,-1.05,11.09,-0.06,-0.19,-0.18,1721199357299
-0.50,-2.88,10.56,-0.15,-0.08,-0.12,1721199357309
0.14,0.26,9.85,0.00,-0.07,-0.07,1721199357319
-0.34,-4.12,5.72,-0.23,-0.10,-0.22,1721199357329
-1.36,2.28,16.09,-0.10,-0.05,-0.21,1721199357339
0.76,-0.78,9.15,-0.04,-0.05,-0.15,1721199357349
-0.95,0.57,10.73,-0.07,-0.10,-0.19,1721199357359
0.10,-0.17,9.27,-0.03,0.03,-0.17,1721199357369
-1.45,-0.85,12.37,-0.16,-0.01,-0.26,1721199357379
-1.63,2.96,12.76,0.03,-0.11,-0.18,1721199357389
0.37,-0.16,5.62,-0.05,-0.05,-0.06,1721199357399
0.83,-0.18,14.93,-0.08,0.08,-0.17,1721199357409
0.04,1.93,10.75,0.02,-0.10,-0.33,1721199357419
-1.23,0.10,10.84,-0.08,0.00,-0.24,1721199357429
-1.87,0.80,10.95,0.08,-0.03,-0.13,1721199357439
-0.29,1.14,9.70,0.12,-0.00,-0.05,1721199357449
1.38,1.21,7.85,0.15,0.07,-0.19,1721199357459
0.18,0.53,12.80,0.09,-0.05,-0.31,1721199357469
-0.79,0.73,12.33,0.16,0.05,-0.26,1721199357479
-1.33,0.66,10.08,0.14,-0.02,-0.19,1721199357489
-0.69,2.21,11.11,0.24,-0.00,-0.02,1721199357499
2.06,-0.50,7.36,0.14,0.12,-0.14,1721199357509
0.49,2.11,12.27,0.20,-0.02,-0.32,1721199357519
-0.93,3.10,9.25,0.20,0.02,-0.24,1721199357529
-1.34,-0.41,8.70,0.12,0.01,-0.12,1721199357539
0.46,-0.06,10.99,0.10,0.12,-0.10,1721199357549
1.24,-0.40,9.98,0.06,0.01,-0.19,1721199357559
0.53,2.08,8.01,0.11,0.05,-0.27,1721199357569
0.11,-1.35,10.97,-0.09,0.15,-0.36,1721199357579
-2.10,-0.13,11.07,0.02,-0.06,-0.24,1721199357589
-1.66,0.73,8.20,-0.05,0.11,-0.12,1721199357599
0.80,0.01,11.01,-0.10,0.14,-0.12,1721199357609
0.12,-0.62,8.42,-0.05,-0.05,-0.24,1721199357619
-0.91,-0.82,10.57,-0.09,0.10,-0.22,1721199357629
-0.72,0.06,8.77,-0.02,0.09,-0.25,1721199357639
-0.32,0.57,10.79,-0.14,0.06,-0.11,1721199357649
0.08,2.40,11.86,-0.04,0.08,-0.16,1721199357659
-0.65,-1.31,11.44,-0.20,0.09,-0.32,1721199357674
-0.80,0.49,10.66,-0.02,0.01,-0.35,1721199357678
-1.19,-5.96,4.76,-0.24,-0.00,-0.16,1721199357688
-2.03,1.63,15.80,-0.08,0.15,-0.17,1721199357698
1.15,-0.76,8.11,-0.05,-0.05,-0.16,1721199357708
-1.59,3.68,10.71,0.01,0.01,-0.18,1721199357718
0.14,-1.39,8.25,-0.14,0.22,-0.28,1721199357728
-1.66,-1.56,16.00,-0.12,-0.03,-0.21,1721199357738
-0.29,0.99,7.47,-0.02,0.05,-0.13,1721199357748
0.91,0.01,11.23,-0.07,0.20,-0.23,1721199357758
-0.32,-2.60,10.35,-0.05,-0.08,-0.31,1721199357768
-3.24,1.86,12.78,0.01,0.08,-0.29,1721199357778
-1.12,0.86,10.76,0.01,0.15,-0.22,1721199357788
-2.24,1.58,10.51,0.04,0.00,-0.10,1721199357798
-1.20,-0.48,7.98,0.03,0.09,-0.18,1721199357808
0.16,-0.11,10.99,0.07,0.07,-0.19,1721199357818
0.67,0.29,9.49,0.08,0.04,-0.15,1721199357828
-0.11,3.10,13.39,-0.01,0.16,-0.22,1721199357838
-1.33,0.12,8.96,0.09,-0.08,-0.30,1721199357848
-1.34,-0.95,9.90,-0.01,0.14,-0.22,1721199357858
-0.53,0.64,12.08,0.12,0.10,-0.17,1721199357868
-0.72,2.14,10.30,0.12,0.08,-0.17,1721199357878
-0.40,2.63,10.54,0.14,0.08,-0.22,1721199357888
0.67,1.32,9.58,0.16,0.14,-0.24,1721199357898
-0.84,0.96,8.63,0.15,0.00,-0.20,1721199357908
-0.72,-0.31,9.87,0.08,0.15,-0.22,1721199357918
-0.01,0.69,10.90,0.15,0.06,-0.16,1721199357928
0.38,1.47,8.48,0.15,0.08,-0.17,1721199357938
0.55,1.65,10.07,0.11,0.15,-0.24,1721199357948
-1.10,0.79,10.22,0.09,0.04,-0.30,1721199357958
-2.17,0.70,12.04,0.04,0.15,-0.20,1721199357968
-0.98,1.12,10.14,0.10,0.10,-0.04,1721199357978
-0.31,1.92,8.73,0.06,0.09,-0.08,1721199357988
0.65,1.57,10.06,0.05,0.14,-0.14,1721199357998
0.03,1.73,9.47,0.03,0.08,-0.20,1721199358008
-1.64,1.02,10.34,0.01,0.04,-0.23,1721199358018
-1.94,0.11,9.34,-0.02,0.10,-0.14,1721199358028
-1.11,-1.14,11.35,-0.07,0.12,-0.01,1721199358038
-0.74,1.86,9.10,0.01,0.06,-0.05,1721199358048
0.36,1.15,10.52,-0.04,0.19,-0.15,1721199358058
-0.20,1.81,9.38,0.05,0.07,-0.17,1721199358068
-0.38,0.52,8.77,-0.04,0.11,-0.12,1721199358078
-1.79,1.74,11.86,-0.03,0.09,-0.19,1721199358088
-1.83,-0.48,11.23,-0.06,0.09,-0.10,1721199358098
-1.72,-0.17,8.23,0.02,0.04,-0.06,1721199358108
0.30,-3.97,10.03,-0.14,0.17,-0.00,1721199358118
-0.33,1.10,12.29,0.02,0.05,-0.09,1721199358128
-0.43,1.03,8.52,-0.04,0.07,-0.15,1721199358138
-2.07,1.26,10.08,-0.01,0.04,-0.11,1721199358148
-0.51,-2.70,11.26,-0.15,0.16,-0.06,1721199358158
-0.77,1.30,11.37,0.01,0.04,0.00,1721199358168
0.13,0.28,7.46,-0.11,0.12,-0.05,1721199358178
0.05,-2.07,11.20,-0.08,0.03,-0.03,1721199358188
0.31,-0.78,9.96,-0.08,0.15,-0.07,1721199358198
0.14,2.16,11.83,-0.06,0.10,-0.12,1721199358208
-0.23,0.26,9.45,-0.08,0.06,-0.09,1721199358218
-2.55,2.14,11.32,0.01,0.08,-0.06,1721199358228
-0.65,-1.91,8.35,-0.02,0.12,0.01,1721199358238
-0.38,0.00,11.22,-0.01,0.07,0.09,1721199358248
0.44,1.13,9.64,0.01,0.11,-0.01,1721199358258
0.69,1.31,12.77,-0.02,0.11,-0.11,1721199358268
-0.74,0.55,9.80,0.05,0.04,-0.09,1721199358278
-1.65,-0.99,9.84,-0.01,0.07,-0.03,1721199358288
-1.56,2.11,12.15,0.06,0.09,0.04,1721199358298
0.11,2.43,9.54,0.10,0.12,0.06,1721199358308
-0.88,1.29,9.82,0.09,-0.01,0.03,1721199358318
-0.66,1.55,10.42,0.12,0.10,0.04,1721199358328
0.00,1.73,10.62,0.09,0.06,0.04,1721199358338
-0.06,1.88,11.90,0.12,0.04,0.01,1721199358348
-0.53,1.41,8.97,0.14,0.00,0.03,1721199358358
-0.68,0.39,10.00,0.13,0.07,0.06,1721199358368
0.02,0.91,10.27,0.09,0.08,-0.01,1721199358378
-0.48,0.52,10.82,0.11,-0.01,0.04,1721199358388
-0.50,1.39,9.81,0.07,0.07,0.04,1721199358398
0.28,0.18,10.83,0.07,0.06,0.01,1721199358408
0.03,0.71,7.94,0.06,-0.01,0.00,1721199358418
0.02,-0.85,9.58,-0.02,0.07,0.03,1721199358428
0.03,2.60,11.09,0.04,0.09,-0.02,1721199358438
-0.35,-0.08,9.34,-0.05,0.02,0.00,1721199358448
-1.30,0.74,8.98,-0.03,0.01,0.03,1721199358458
1.11,-0.11,11.71,-0.04,0.15,0.05,1721199358468
1.80,-0.39,9.18,-0.07,-0.02,0.03,1721199358478
-0.01,-0.52,10.84,-0.07,0.02,-0.10,1721199358488
-0.91,0.45,9.16,-0.04,0.05,-0.11,1721199358498
-0.38,0.81,11.48,-0.08,0.05,0.02,1721199358508
-0.09,-0.25,11.15,-0.08,0.03,0.03,1721199358518
0.95,-0.54,9.74,-0.11,0.07,-0.00,1721199358528
0.68,0.53,10.41,-0.09,0.02,-0.04,1721199358538
0.32,-2.62,9.54,-0.09,0.09,-0.17,1721199358548
-1.64,-0.15,11.06,-0.08,-0.00,-0.13,1721199358558
-1.28,2.82,10.17,-0.01,0.09,0.00,1721199358568
-0.22,-0.17,9.45,-0.08,0.01,0.08,1721199358578
-0.98,-1.72,11.99,-0.09,-0.05,-0.01,1721199358588
0.07,1.06,8.06,-0.01,0.04,0.01,1721199358598
0.93,-0.21,10.80,-0.11,0.10,-0.05,1721199358608
0.48,-1.61,10.86,-0.04,-0.06,-0.07,1721199358618
-0.35,-0.79,12.39,-0.10,0.18,-0.10,1721199358628
-1.42,0.69,10.36,0.05,-0.04,-0.11,1721199358638
-1.53,-0.28,7.55,-0.06,0.05,-0.03,1721199358648
0.54,1.28,11.96,0.05,0.09,0.04,1721199358658
1.12,-1.83,10.40,-0.06,0.05,-0.07,1721199358668
-0.88,2.00,10.24,0.06,-0.08,-0.14,1721199358678
0.12,0.80,10.07,-0.04,0.14,-0.10,1721199358688
-1.07,3.40,12.21,0.06,-0.05,-0.05,1721199358698
-0.08,0.76,9.86,-0.01,0.06,-0.05,1721199358708
0.34,-0.80,11.21,0.03,0.03,-0.08,1721199358718
-1.21,1.74,8.84,0.11,-0.08,-0.09,1721199358728
-0.11,2.56,10.61,0.07,0.18,-0.11,1721199358738
-0.74,1.93,11.82,0.19,-0.10,-0.11,1721199358748
-1.07,-0.11,7.93,0.10,-0.00,-0.05,1721199358758
-0.53,0.82,11.99,0.11,0.12,-0.08,1721199358768
0.45,2.48,11.51,0.13,0.05,-0.11,1721199358778
-0.29,2.60,9.93,0.12,-0.01,-0.09,1721199358788
-0.57,0.53,9.92,0.16,0.04,-0.15,1721199358798
-1.31,1.90,10.83,0.15,0.10,-0.15,1721199358808
-1.76,1.30,10.30,0.16,-0.06,-0.02,1721199358818
-1.06,1.11,9.52,0.11,0.01,0.02,1721199358828
-0.09,1.13,10.07,0.16,0.04,-0.02,1721199358838
-0.64,2.16,6.99,0.14,-0.06,-0.08,1721199358848
-0.49,0.86,8.98,0.07,0.06,-0.07,1721199358858
-0.76,2.03,10.76,0.08,0.03,-0.08,1721199358868
-1.10,0.45,9.20,-0.00,-0.02,-0.03,1721199358878
-1.72,1.15,9.29,0.00,-0.02,-0.03,1721199358888
0.38,-1.18,9.80,-0.04,0.04,0.10,1721199358898
-0.03,-0.16,10.27,-0.02,-0.04,0.01,1721199358908
-0.02,1.13,9.26,0.00,-0.02,-0.10,1721199358918
-0.12,1.18,10.40,-0.05,0.02,-0.08,1721199358928
-1.28,-1.17,9.72,-0.04,-0.07,-0.05,1721199358938
-1.84,1.67,12.28,-0.08,0.08,0.01,1721199358948
0.38,-2.24,7.79,-0.06,-0.08,0.05,1721199358958
1.02,-1.20,10.50,-0.15,0.08,0.01,1721199358968
0.38,-0.40,11.51,-0.06,-0.04,-0.17,1721199358978
-0.44,0.51,9.45,-0.06,-0.01,-0.12,1721199358988
-1.55,-0.59,10.21,-0.05,0.01,0.00,1721199358998
-0.46,0.56,11.14,-0.08,0.04,0.04,1721199359008
-0.77,0.44,10.18,-0.02,-0.07,-0.03,1721199359018
-0.73,-0.57,8.87,-0.12,0.04,-0.04,1721199359028
1.28,-1.54,11.93,-0.05,0.03,-0.02,1721199359038
0.57,-0.80,9.40,-0.07,0.04,-0.01,1721199359048
-0.75,0.65,11.59,-0.06,0.03,-0.09,1721199359058
0.10,1.32,11.47,-0.00,0.03,-0.09,1721199359068
-0.10,2.61,11.09,0.04,0.07,-0.14,1721199359078
-0.53,0.34,9.65,0.02,-0.00,-0.13,1721199359088
-0.82,-0.74,10.58,0.02,0.11,-0.03,1721199359098
-1.11,-0.04,8.73,0.04,0.02,-0.05,1721199359108
0.51,2.63,12.86,0.05,0.17,-0.03,1721199359118
0.57,2.55,9.18,0.11,-0.04,-0.16,1721199359128
0.54,0.43,10.54,0.01,0.14,-0.14,1721199359138
-0.38,0.53,10.99,0.17,0.05,-0.20,1721199359148
-1.98,-0.44,9.34,0.11,0.10,-0.08,1721199359158
-1.71,1.47,9.95,0.19,0.08,0.05,1721199359168
0.62,-0.18,10.12,0.13,0.13,0.03,1721199359178
1.58,1.71,11.53,0.19,0.08,-0.04,1721199359188
1.30,0.26,10.14,0.10,0.10,-0.19,1721199359198
-0.23,0.92,10.62,0.16,0.04,-0.14,1721199359208
-0.54,1.92,9.55,0.16,0.14,-0.13,1721199359218
0.64,-1.22,10.35,0.10,0.15,-0.09,1721199359228
-0.42,0.87,10.97,0.14,0.10,-0.15,1721199359238
-0.41,1.40,8.80,0.10,0.13,-0.14,1721199359248
-0.36,1.36,10.50,0.05,0.19,-0.17,1721199359258
-0.85,-0.64,8.03,0.02,0.06,-0.09,1721199359268
-0.65,1.62,9.84,-0.01,0.24,-0.08,1721199359278
0.76,0.87,9.82,-0.02,0.15,-0.10,1721199359288
0.00,2.00,10.97,-0.07,0.13,-0.15,1721199359298
-1.01,0.08,9.00,-0.11,0.13,-0.19,1721199359308
-1.29,0.70,11.38,-0.08,0.15,-0.12,1721199359318
-1.07,-1.27,8.68,-0.16,0.10,-0.02,1721199359328
-0.95,-0.90,11.72,-0.10,0.16,-0.08,1721199359338
-0.07,0.61,10.32,-0.03,0.13,-0.07,1721199359348
0.10,-1.27,9.70,-0.11,0.13,-0.02,1721199359358
-0.94,1.27,12.16,-0.06,0.12,-0.08,1721199359368
0.02,0.56,9.55,-0.05,0.13,-0.09,1721199359378
-0.37,-1.54,9.19,-0.15,0.04,-0.06,1721199359388
0.10,-3.98,10.21,-0.13,0.22,-0.14,1721199359398
-1.36,-1.54,9.25,-0.05,0.00,-0.14,1721199359408
-2.22,1.30,9.62,-0.09,0.22,-0.10,1721199359418
-1.23,0.89,11.64,-0.03,0.04,0.04,1721199359428
-2.03,0.94,13.34,-0.12,0.14,0.08,1721199359438
-0.38,-2.49,7.26,-0.09,-0.01,0.08,1721199359448
1.09,-0.23,12.08,-0.11,0.22,0.08,1721199359458
1.18,-3.46,10.46,-0.06,-0.01,0.02,1721199359468
-1.80,-0.25,10.98,-0.07,0.10,-0.09,1721199359478
-0.38,1.81,11.08,0.04,0.11,-0.00,1721199359488
-2.48,-2.20,9.28,-0.10,0.01,0.06,1721199359498
-2.12,3.08,12.59,0.02,0.15,0.05,1721199359508
0.89,-1.28,8.43,0.00,-0.07,0.14,1721199359518
-0.39,-2.65,8.06,0.00,0.02,0.08,1721199359528
0.07,3.58,11.64,0.08,0.19,-0.00,1721199359538
0.52,1.41,9.48,0.02,-0.04,-0.08,1721199359548
-3.04,2.46,12.13,0.02,-0.06,-0.07,1721199359558
-1.82,1.04,10.49,0.04,0.15,-0.01,1721199359568
-2.67,0.25,9.21,0.10,-0.16,0.13,1721199359578
-2.21,3.01,9.59,0.11,0.09,0.13,1721199359588
0.90,2.77,10.35,0.19,-0.04,0.10,1721199359598
-0.11,2.94,8.97,0.17,-0.12,0.05,1721199359608
0.76,-1.99,9.51,0.12,-0.02,0.06,1721199359618
0.71,2.18,13.16,0.12,0.06,0.03,1721199359628
0.33,1.35,10.96,0.08,-0.05,-0.04,1721199359638
-1.50,2.90,10.67,0.16,-0.11,-0.03,1721199359648
-0.60,1.58,9.49,0.16,0.04,0.09,1721199359658
-0.48,0.27,9.88,0.15,-0.08,0.16,1721199359668
-0.97,1.48,11.13,0.07,-0.08,0.00,1721199359683
-1.83,0.68,10.32,0.12,-0.18,0.01,1721199359687
-1.77,-0.17,9.02,0.05,-0.02,0.19,1721199359697
-0.18,0.49,10.08,0.08,-0.10,0.25,1721199359707
0.52,1.07,9.03,-0.01,-0.11,0.15,1721199359717
0.08,0.79,11.46,-0.03,-0.09,0.08,1721199359727
-0.86,-0.46,8.60,-0.08,-0.14,0.06,1721199359737
-0.75,-2.87,12.75,-0.15,-0.06,0.18,1721199359747
-0.14,-1.94,7.53,-0.07,-0.10,0.17,1721199359757
1.10,-0.51,11.96,-0.09,-0.00,0.14,1721199359767
1.22,-1.81,8.96,-0.11,-0.14,0.00,1721199359777
-0.25,1.91,12.93,-0.03,-0.07,-0.02,1721199359787
-0.25,0.30,7.46,-0.10,-0.07,-0.02,1721199359797
-2.16,-2.19,10.42,-0.19,-0.11,-0.01,1721199359807
-1.13,0.14,12.93,-0.11,-0.06,0.04,1721199359817
0.26,-2.13,7.68,-0.11,-0.10,0.08,1721199359827
0.47,-0.01,8.99,-0.05,-0.02,0.06,1721199359837
1.48,0.15,12.36,-0.11,0.00,-0.02,1721199359847
1.13,3.36,10.61,0.02,-0.10,-0.06,1721199359857
0.13,-1.82,9.31,-0.17,-0.03,-0.16,1721199359867
-0.30,-1.57,12.58,-0.10,-0.06,-0.05,1721199359877
-0.44,0.32,9.90,-0.05,-0.05,-0.04,1721199359887
1.27,-0.28,12.94,-0.00,0.09,-0.04,1721199359897
1.02,2.04,8.31,0.10,-0.07,-0.14,1721199359907
-0.54,3.15,11.02,-0.01,0.11,-0.18,1721199359917
-1.85,1.51,9.80,0.09,-0.08,-0.20,1721199359927
-1.19,0.67,9.56,0.05,0.08,-0.03,1721199359937
0.98,-2.95,9.00,0.06,0.02,0.06,1721199359947
0.48,1.33,10.83,0.11,-0.05,-0.01,1721199359957
1.92,2.88,11.77,0.11,0.15,-0.17,1721199359967
-0.30,2.13,10.86,0.17,-0.06,-0.20,1721199359977
-1.66,3.78,10.35,0.14,0.12,-0.19,1721199359987
-1.84,3.12,10.23,0.14,0.01,-0.15,1721199359997
-1.50,-1.31,9.57,0.09,0.03,-0.00,1721199360007
-0.86,-3.44,8.35,0.07,-0.00,0.00,1721199360017
0.66,-1.17,10.35,0.07,0.09,-0.01,1721199360027
1.29,0.95,10.39,0.16,0.03,-0.10,1721199360037
0.61,1.76,10.12,0.14,0.07,-0.15,1721199360047
-0.02,4.06,10.92,0.21,0.09,-0.17,1721199360057
0.30,0.41,9.84,0.07,0.03,-0.08,1721199360067
0.46,2.49,11.34,0.03,0.12,-0.10,1721199360077
1.47,0.10,8.98,0.00,0.08,-0.11,1721199360087
0.61,-0.38,8.42,-0.01,0.08,-0.27,1721199360097
-0.63,-2.21,7.65,-0.03,0.05,-0.22,1721199360107
-2.04,1.62,12.20,-0.04,0.16,-0.15,1721199360117
-2.56,2.31,10.58,-0.01,0.02,-0.08,1721199360127
-0.74,2.75,11.65,-0.09,0.13,-0.04,1721199360137
0.80,0.86,8.87,-0.06,0.01,0.05,1721199360147
1.67,-2.84,8.58,-0.18,0.12,-0.08,1721199360157
0.49,-0.84,9.75,-0.09,0.06,-0.23,1721199360167
0.27,-1.71,8.46,-0.14,0.14,-0.26,1721199360177
-1.51,-2.13,12.96,-0.15,0.04,-0.17,1721199360187
-2.26,-0.32,16.36,-0.18,0.15,-0.20,1721199360197
-1.92,4.01,16.39,-0.05,0.07,-0.06,1721199360207
-0.50,1.02,8.67,-0.06,0.06,-0.01,1721199360217
-0.74,-0.49,8.64,0.01,-0.00,0.03,1721199360227
1.65,-2.44,2.85,0.06,0.11,-0.07,1721199360237
1.17,-1.32,9.78,-0.00,0.18,-0.16,1721199360247
-0.88,-0.61,12.01,-0.01,0.09,-0.36,1721199360257
-3.62,4.53,11.32,0.02,0.04,-0.22,1721199360267
-3.77,-4.44,11.02,-0.14,0.05,-0.04,1721199360277
-2.13,2.44,14.64,-0.05,0.09,0.12,1721199360287
0.91,-2.12,8.49,0.04,-0.00,0.09,1721199360297
0.00,0.28,8.36,0.02,-0.00,-0.07,1721199360307
0.41,0.25,9.53,0.07,0.13,-0.19,1721199360317
-1.47,0.86,10.41,0.02,-0.09,-0.12,1721199360327
-3.52,1.02,9.52,0.04,-0.04,-0.05,1721199360337
-1.74,-0.79,9.74,-0.06,0.02,0.07,1721199360347
-0.11,-1.44,11.59,0.00,0.01,0.11,1721199360357
-0.47,0.89,8.97,0.04,-0.06,-0.03,1721199360367
0.30,3.25,11.92,0.06,0.08,-0.03,1721199360377
0.79,3.17,12.27,0.09,-0.00,-0.04,1721199360387
-3.17,0.55,8.71,0.07,-0.15,-0.08,1721199360397
-2.69,-0.30,9.32,0.02,0.01,0.01,1721199360407
0.01,1.01,11.01,0.15,-0.01,0.23,1721199360417
1.44,1.07,8.53,0.12,-0.09,0.17,1721199360427
2.06,3.49,10.75,0.19,0.01,-0.05,1721199360437
1.77,1.23,8.84,0.17,-0.07,-0.18,1721199360447
-1.42,0.91,11.72,0.04,0.00,-0.22,1721199360457
-2.67,2.92,12.40,0.15,-0.10,0.00,1721199360467
-1.07,-0.61,9.78,0.07,-0.03,0.18,1721199360477
-0.50,1.25,10.02,0.12,-0.10,0.14,1721199360487
0.36,-0.97,9.03,0.02,-0.05,-0.03,1721199360497
-1.76,1.93,11.33,0.05,-0.16,-0.03,1721199360507
-1.74,0.27,9.30,0.03,-0.06,0.09,1721199360517
-0.89,1.34,8.16,0.04,-0.10,0.13,1721199360527
0.16,0.61,11.06,-0.05,-0.05,0.12,1721199360537
0.17,0.96,12.21,-0.04,-0.16,0.10,1721199360547
-0.53,1.66,8.75,-0.06,-0.14,0.05,1721199360557
-0.67,-2.00,10.51,-0.18,-0.06,-0.05,1721199360567
-0.89,-4.10,8.77,-0.03,-0.24,0.16,1721199360577
0.62,-1.30,11.11,-0.20,0.05,0.21,1721199360587
1.11,0.10,12.23,0.01,-0.24,0.05,1721199360597
1.97,0.77,10.12,-0.06,-0.06,-0.02,1721199360607
0.07,0.97,6.77,-0.05,-0.15,-0.13,1721199360617
-2.39,-1.22,12.20,-0.14,-0.07,-0.10,1721199360627
-1.36,-2.08,9.60,-0.04,-0.20,0.15,1721199360637
1.08,-1.53,7.04,-0.10,0.01,0.18,1721199360647
2.45,-3.25,10.81,-0.17,-0.10,-0.03,1721199360657
1.29,1.14,12.57,-0.06,-0.24,-0.16,1721199360667
-0.61,2.42,9.92,-0.02,-0.02,-0.13,1721199360677
0.91,-3.19,12.14,-0.13,-0.04,-0.09,1721199360687
-1.44,0.97,11.06,0.01,-0.18,0.01,1721199360697
-0.70,1.02,10.41,-0.07,0.01,-0.02,1721199360707
0.89,0.17,8.13,0.04,-0.09,-0.04,1721199360717
0.87,0.65,9.29,0.01,-0.03,-0.07,1721199360727
0.86,-0.19,9.56,0.06,-0.07,-0.13,1721199360737
-0.82,3.25,12.31,0.03,0.03,-0.10,1721199360747
-0.90,-0.05,11.65,0.02,-0.08,-0.08,1721199360757
-0.11,-0.05,10.58,0.05,-0.02,-0.13,1721199360767
0.29,2.11,10.96,0.09,-0.09,-0.13,1721199360777
0.27,0.61,11.33,0.12,0.01,-0.12,1721199360787
-0.94,1.10,10.59,0.20,-0.06,-0.20,1721199360797
-1.45,0.51,7.93,0.15,-0.02,-0.08,1721199360807
-1.06,0.82,11.12,0.12,-0.04,-0.01,1721199360817
0.55,1.70,10.93,0.17,-0.03,-0.05,1721199360827
1.07,1.53,10.90,0.14,-0.04,-0.13,1721199360837
1.08,3.31,9.89,0.23,-0.06,-0.12,1721199360847
1.31,-0.88,8.07,0.10,0.02,-0.22,1721199360857
-0.53,0.35,11.03,0.05,-0.04,-0.22,1721199360867
-0.93,-0.31,9.10,0.02,0.01,-0.19,1721199360877
-1.13,1.23,10.39,0.07,-0.02,-0.13,1721199360887
-0.04,-1.20,9.69,-0.07,0.06,-0.10,1721199360897
-1.00,0.47,10.29,-0.00,-0.09,-0.12,1721199360907
-0.15,0.83,10.35,-0.12,0.09,-0.13,1721199360917
0.94,0.42,9.32,-0.03,-0.04,-0.17,1721199360927
-0.13,0.25,8.72,-0.10,-0.02,-0.17,1721199360937
-0.24,0.02,13.41,-0.12,0.03,-0.19,1721199360947
-0.61,2.09,10.34,-0.07,-0.05,-0.17,1721199360957
1.08,-0.25,10.08,-0.19,0.05,-0.14,1721199360967
0.65,-2.10,9.57,-0.12,-0.08,-0.19,1721199360977
0.11,-1.09,11.02,-0.11,0.10,-0.25,1721199360987
-0.07,-1.79,8.06,-0.08,-0.09,-0.30,1721199360997
-2.26,0.37,11.07,-0.07,0.02,-0.31,1721199361007
-1.70,1.58,9.19,-0.06,-0.01,-0.18,1721199361017
-0.67,0.71,12.10,-0.05,0.11,-0.14,1721199361027
0.38,-2.33,8.88,-0.07,-0.12,-0.14,1721199361037
-0.09,-1.74,10.36,-0.09,0.09,-0.26,1721199361047
0.14,-0.53,12.84,-0.07,0.01,-0.33,1721199361057
-2.00,2.28,10.83,0.05,-0.02,-0.35,1721199361067
-2.12,-0.41,7.92,-0.05,-0.01,-0.21,1721199361077
-1.52,-0.29,14.13,-0.02,0.12,-0.14,1721199361087
-0.23,0.27,11.74,0.01,0.01,-0.16,1721199361097
-0.14,0.41,9.87,0.03,-0.05,-0.16,1721199361107
-0.65,0.88,8.14,0.09,0.00,-0.21,1721199361117
-0.15,0.60,9.20,0.14,0.04,-0.27,1721199361127
-0.92,1.08,9.35,0.10,0.03,-0.25,1721199361137
-1.93,0.57,10.68,0.07,0.03,-0.24,1721199361147
-0.41,1.91,13.60,0.06,0.11,-0.21,1721199361157
-1.15,-0.98,8.47,0.08,-0.12,-0.18,1721199361167
-1.51,1.30,12.04,0.08,0.03,-0.13,1721199361177
0.30,3.31,9.69,0.20,0.06,-0.22,1721199361187
-1.35,1.51,9.36,0.13,-0.09,-0.25,1721199361197
-1.50,-1.06,9.54,0.09,0.01,-0.23,1721199361207
-1.57,0.05,9.82,0.09,-0.01,-0.18,1721199361217
0.21,0.79,11.06,0.09,0.10,-0.12,1721199361227
0.49,2.67,10.87,0.14,-0.03,-0.22,1721199361237
-0.26,2.80,9.88,0.13,0.04,-0.27,1721199361247
-1.13,-0.86,9.70,0.07,-0.04,-0.27,1721199361257
-2.52,1.17,11.97,0.06,0.05,-0.18,1721199361267
-1.94,1.82,10.34,0.10,-0.03,-0.09,1721199361277
-0.61,0.40,9.91,0.07,0.00,-0.04,1721199361287
0.10,1.64,9.34,0.11,-0.00,-0.13,1721199361297
0.77,1.06,7.97,0.05,-0.03,-0.16,1721199361307
-0.53,0.63,11.81,-0.02,-0.02,-0.27,1721199361317
-2.46,1.76,9.48,0.03,-0.10,-0.21,1721199361327
-1.54,0.87,12.11,-0.04,0.03,-0.09,1721199361337
0.18,0.12,10.16,-0.01,-0.04,-0.04,1721199361347
-0.74,1.08,10.84,-0.11,-0.05,-0.22,1721199361357
-0.74,-0.63,10.34,-0.03,0.03,-0.25,1721199361367
-1.33,-3.45,8.65,-0.19,-0.06,-0.07,1721199361377
-0.79,-1.10,12.81,-0.04,0.03,-0.03,1721199361387
2.66,-3.38,8.64,-0.12,-0.03,-0.11,1721199361397
0.72,2.02,10.68,0.06,-0.01,-0.24,1721199361407
-0.15,2.37,10.79,-0.07,0.09,-0.36,1721199361417
-1.87,3.27,11.45,0.09,-0.04,-0.25,1721199361427
-1.32,-2.57,7.80,-0.09,0.08,-0.11,1721199361437
0.35,-4.09,10.27,-0.08,0.05,-0.08,1721199361447
0.50,0.41,11.55,-0.05,0.10,-0.27,1721199361457
1.54,1.62,7.94,0.03,0.10,-0.25,1721199361467
-0.16,0.81,11.11,-0.02,0.11,-0.35,1721199361477
-0.45,-0.91,11.10,-0.06,0.12,-0.26,1721199361487
-2.16,-0.90,11.10,-0.06,0.11,-0.36,1721199361497
-1.92,0.96,10.47,-0.03,0.15,-0.14,1721199361507
0.23,-0.18,9.04,0.02,0.13,-0.12,1721199361517
1.34,-0.40,8.73,0.03,0.15,-0.17,1721199361527
0.01,2.16,11.60,0.06,0.19,-0.36,1721199361537
-1.02,0.51,11.26,-0.04,0.13,-0.31,1721199361547
-2.55,2.81,12.24,0.08,0.10,-0.24,1721199361557
-0.89,-1.17,9.51,0.05,0.17,-0.09,1721199361567
0.14,1.98,12.16,0.14,0.22,-0.19,1721199361577
0.18,4.22,8.96,0.21,0.17,-0.23,1721199361587
-0.68,1.78,9.32,0.13,0.22,-0.20,1721199361597
-1.00,-2.95,9.63,0.08,0.12,-0.15,1721199361607
-0.98,0.35,13.03,0.12,0.25,-0.13,1721199361617
0.82,1.98,10.17,0.16,0.15,-0.04,1721199361627
1.50,1.03,9.18,0.13,0.18,-0.04,1721199361637
1.29,4.18,11.04,0.17,0.24,-0.27,1721199361647
0.40,-0.82,9.53,0.05,0.18,-0.31,1721199361657
-2.30,1.02,11.33,0.13,0.16,-0.17,1721199361667
-0.38,0.45,10.48,0.06,0.36,-0.08,1721199361677
1.83,1.26,8.61,0.07,0.32,-0.15,1721199361692
0.56,1.89,8.27,0.07,0.30,-0.19,1721199361696
0.89,-0.32,9.42,-0.03,0.25,-0.21,1721199361706
-0.71,-0.65,11.41,-0.00,0.20,-0.21,1721199361716
-1.49,0.43,8.37,-0.00,0.24,-0.11,1721199361726
0.26,1.17,10.27,-0.03,0.27,-0.10,1721199361736
1.51,-0.04,10.60,-0.04,0.25,-0.16,1721199361746
-0.54,0.36,11.23,-0.05,0.21,-0.30,1721199361756
-1.52,-1.35,9.24,-0.05,0.21,-0.18,1721199361766
-0.67,-2.93,10.02,-0.13,0.34,-0.06,1721199361776
0.14,-1.53,11.61,-0.07,0.26,-0.10,1721199361786
-0.03,0.83,8.95,0.00,0.21,-0.21,1721199361796
-0.82,-0.54,9.00,-0.09,0.31,-0.23,1721199361806
-1.60,0.40,12.22,-0.06,0.24,-0.19,1721199361816
-2.26,0.51,10.24,-0.07,0.17,-0.02,1721199361826
-0.17,-1.23,9.45,-0.14,0.33,-0.01,1721199361836
0.73,-2.68,12.61,-0.11,0.22,-0.07,1721199361846
-1.03,1.21,7.65,0.01,0.15,-0.15,1721199361856
-0.51,-2.13,9.96,-0.16,0.31,-0.10,1721199361866
-1.74,3.63,12.56,-0.01,0.18,-0.06,1721199361876
-1.63,2.13,10.20,-0.04,0.21,-0.06,1721199361886
-2.63,0.79,9.96,-0.03,0.05,0.08,1721199361896
-0.54,-2.15,10.93,-0.11,0.35,0.15,1721199361906
-0.27,1.81,10.07,0.01,0.08,0.08,1721199361916
-0.62,1.47,9.96,0.01,0.16,-0.02,1721199361926
-0.94,0.94,9.13,0.07,0.07,0.01,1721199361936
-1.19,-0.39,12.22,-0.02,0.19,0.11,1721199361946
-1.42,3.23,11.10,0.14,0.04,0.14,1721199361956
0.29,-0.20,9.38,-0.01,0.18,0.17,1721199361966
-0.52,1.78,11.86,0.11,0.04,0.10,1721199361976
0.40,1.01,8.46,0.09,0.14,0.08,1721199361986
0.61,1.75,11.62,0.10,0.13,0.04,1721199361996
0.29,0.08,9.62,0.06,0.09,0.02,1721199362006
-2.22,1.70,11.69,0.05,0.02,-0.02,1721199362016
-2.35,3.02,9.60,0.13,0.06,0.16,1721199362026
-0.64,-0.06,8.21,0.05,0.06,0.26,1721199362036
0.06,-0.57,9.59,0.04,0.05,0.16,1721199362046
0.94,3.71,12.04,0.04,0.17,0.05,1721199362056
-0.23,0.01,8.31,-0.00,-0.10,0.09,1721199362066
-2.15,-0.33,10.88,-0.09,0.03,0.12,1721199362076
-0.99,1.05,12.20,0.02,0.07,0.12,1721199362086
0.59,2.71,10.49,0.01,0.04,0.25,1721199362096
0.03,-0.36,9.19,-0.09,-0.05,0.14,1721199362106
-0.83,0.38,12.11,-0.04,-0.00,0.15,1721199362116
-0.35,0.64,10.61,-0.02,0.03,0.14,1721199362126
0.84,1.27,10.19,0.01,0.04,0.19,1721199362136
0.61,-0.98,10.05,-0.10,-0.01,0.09,1721199362146
-0.93,-1.76,11.40,-0.06,-0.08,0.06,1721199362156
-1.53,0.68,9.54,-0.08,0.05,0.02,1721199362166
-1.02,-1.78,9.50,-0.07,-0.05,0.20,1721199362176
0.02,-2.67,7.28,-0.06,-0.02,0.34,1721199362186
0.97,1.00,11.49,-0.06,0.13,0.17,1721199362196
-0.03,3.28,11.04,-0.01,-0.11,-0.05,1721199362206
-0.65,0.02,9.36,-0.04,-0.02,0.09,1721199362216
-0.52,-2.67,11.47,-0.09,-0.03,0.22,1721199362226
0.02,0.24,10.46,-0.06,0.02,0.22,1721199362236
-0.11,0.75,9.41,-0.04,-0.06,0.16,1721199362246
0.90,-1.01,9.96,-0.10,-0.01,0.18,1721199362256
0.41,1.94,14.47,-0.03,-0.01,0.11,1721199362266
0.34,2.44,10.61,-0.00,-0.02,0.02,1721199362276
-0.86,-0.25,9.93,-0.05,-0.10,0.08,1721199362286
-1.35,-0.16,10.23,0.01,0.00,0.17,1721199362296
0.27,-1.74,9.09,-0.01,0.02,0.21,1721199362306
0.50,1.25,10.65,0.09,-0.07,0.22,1721199362316
1.81,1.58,8.49,0.04,0.02,0.11,1721199362326
1.97,4.15,13.82,0.06,0.00,-0.02,1721199362336
0.61,-1.79,8.35,0.06,-0.11,-0.08,1721199362346
-2.11,1.68,12.89,0.03,0.04,-0.00,1721199362356
-1.75,3.47,9.17,0.19,-0.06,0.15,1721199362366
0.54,0.95,9.82,0.04,0.09,0.17,1721199362376
1.14,-0.50,10.25,0.09,-0.10,0.03,1721199362386
0.67,0.62,10.51,0.01,0.02,-0.02,1721199362396
0.26,2.16,11.19,0.08,-0.02,-0.01,1721199362406
0.74,0.75,8.97,0.03,-0.02,0.09,1721199362416
0.52,2.46,11.42,0.06,0.00,-0.02,1721199362426
1.01,0.35,10.49,0.02,0.04,-0.06,1721199362436
-0.79,1.70,10.95,0.03,-0.08,-0.05,1721199362446
-0.58,0.90,9.60,-0.04,0.12,-0.00,1721199362456
-0.69,0.14,10.76,-0.04,-0.02,-0.06,1721199362466
-0.00,-0.18,8.17,-0.04,0.02,-0.01,1721199362476
0.61,2.52,11.70,-0.03,0.11,-0.08,1721199362486
0.99,-0.37,9.41,-0.07,-0.01,-0.11,1721199362496
-0.16,-0.55,10.39,-0.08,-0.01,-0.09,1721199362506
-0.66,-0.94,8.83,-0.09,0.05,-0.13,1721199362516
-0.38,0.79,14.19,-0.14,0.07,-0.17,1721199362526
-0.93,-0.39,9.60,-0.07,-0.02,-0.17,1721199362536
-0.55,-1.61,9.76,-0.17,0.02,-0.06,1721199362546
-0.62,-1.53,11.21,-0.13,0.09,-0.17,1721199362556
-0.68,-1.58,9.13,-0.12,-0.05,-0.12,1721199362566
-0.55,0.37,9.51,-0.12,0.14,-0.17,1721199362576
-1.08,-1.29,12.98,-0.16,-0.01,-0.15,1721199362586
-1.81,1.29,9.73,-0.05,-0.00,-0.07,1721199362596
-0.43,-1.37,8.22,-0.15,0.09,-0.02,1721199362606
0.10,-0.30,11.65,-0.13,0.03,-0.12,1721199362616
-1.13,0.20,9.26,-0.09,-0.01,-0.10,1721199362626
-0.57,-1.13,10.60,-0.15,0.17,-0.14,1721199362636
-0.41,0.14,13.42,-0.12,-0.03,-0.04,1721199362646
-1.75,4.43,12.44,-0.02,0.02,-0.09,1721199362656
-1.59,-0.93,8.64,-0.06,-0.04,-0.02,1721199362666
-1.87,1.68,11.94,-0.03,0.04,-0.01,1721199362676
0.12,-0.98,9.11,0.01,-0.03,0.04,1721199362686
-1.08,2.53,11.00,0.07,0.01,-0.06,1721199362696
-0.30,0.21,7.44,0.08,-0.09,-0.01,1721199362706
0.23,2.75,13.64,0.02,0.11,-0.03,1721199362716
-0.76,3.27,10.47,0.12,-0.14,-0.16,1721199362726
-2.19,-0.07,10.76,-0.04,0.05,-0.15,1721199362736
-2.64,2.14,11.97,0.15,-0.09,0.03,1721199362746
0.39,2.57,9.33,0.06,0.12,0.09,1721199362756
1.19,0.82,10.96,0.15,-0.08,0.04,1721199362766
1.31,-1.89,9.89,0.05,0.04,-0.05,1721199362776
0.28,-1.29,11.04,0.12,-0.08,-0.23,1721199362786
-0.84,3.24,9.41,0.19,-0.05,-0.03,1721199362796
-1.30,1.59,9.46,0.16,-0.02,0.06,1721199362806
0.03,-0.35,10.24,0.16,0.01,-0.02,1721199362816
-0.99,-0.91,9.39,0.08,-0.05,-0.07,1721199362826
-1.79,2.74,10.81,0.05,0.03,-0.02,1721199362836
-0.49,2.02,10.86,0.07,0.06,0.02,1721199362846
0.48,0.87,8.38,0.10,-0.06,0.16,1721199362856
1.07,0.04,8.15,0.06,0.01,0.08,1721199362866
1.18,1.75,11.23,0.07,-0.08,-0.06,1721199362876
-0.86,0.21,9.88,-0.01,-0.05,-0.12,1721199362886
-1.85,-2.56,10.57,-0.05,-0.15,-0.06,1721199362896
-1.97,-1.00,10.87,-0.00,-0.02,0.07,1721199362906
-0.85,1.43,11.45,0.04,-0.02,0.01,1721199362916
-1.06,2.35,11.71,0.01,-0.06,-0.05,1721199362926
-1.70,0.31,12.11,-0.03,-0.04,0.01,1721199362936
-1.72,-2.67,10.99,-0.07,-0.07,0.04,1721199362946
-0.89,-2.52,9.86,-0.02,-0.10,0.17,1721199362956
0.20,-0.08,10.25,-0.04,0.03,0.20,1721199362966
1.14,3.69,8.78,0.16,-0.06,0.04,1721199362976
1.66,-1.07,4.64,0.01,-0.05,-0.04,1721199362986
-0.34,-2.31,12.31,-0.02,-0.03,-0.08,1721199362996
-1.18,2.67,13.38,0.03,-0.05,-0.00,1721199363006
-1.20,1.46,5.90,0.10,-0.15,0.17,1721199363016
0.10,-1.73,8.69,-0.08,0.02,0.17,1721199363026
2.37,1.50,13.56,0.08,-0.02,-0.00,1721199363036
0.57,1.56,8.76,-0.01,-0.09,-0.23,1721199363046
-2.32,1.27,11.61,0.00,-0.07,-0.07,1721199363056
-1.56,-1.84,8.32,0.00,-0.02,0.09,1721199363066
0.41,-1.29,10.67,-0.02,0.01,0.13,1721199363076
2.16,2.03,6.95,0.08,-0.06,0.03,1721199363086
2.19,1.48,8.67,-0.05,0.06,-0.14,1721199363096
-0.11,1.12,11.30,0.00,-0.11,-0.29,1721199363106
-2.68,-0.96,11.69,-0.07,-0.02,-0.16,1721199363116
-2.96,0.50,16.38,-0.04,0.01,-0.00,1721199363126
-1.59,2.97,11.68,0.07,-0.06,0.13,1721199363136
0.92,3.50,11.42,0.07,0.04,0.10,1721199363146
2.15,-0.72,9.96,0.08,-0.09,-0.02,1721199363156
0.58,1.32,11.54,0.10,-0.03,-0.18,1721199363166
0.53,4.02,9.08,0.17,0.04,-0.08,1721199363176
0.93,2.77,5.81,0.16,-0.01,0.01,1721199363186
-0.18,0.11,11.33,0.05,0.01,-0.12,1721199363196
-1.56,1.30,12.66,0.13,-0.03,-0.18,1721199363206
-2.02,0.75,8.13,0.13,-0.04,-0.04,1721199363216
-0.71,0.02,10.14,-0.01,0.06,0.06,1721199363226
0.68,1.26,11.78,0.06,-0.03,-0.05,1721199363236
1.45,-0.47,8.39,-0.01,-0.05,-0.12,1721199363246
-1.03,0.06,10.51,0.03,-0.01,-0.23,1721199363256
-0.95,1.58,9.59,-0.02,0.02,-0.17,1721199363266
-0.25,-0.46,11.66,-0.08,0.01,-0.03,1721199363276
-1.02,-3.28,9.07,-0.07,-0.12,-0.02,1721199363286
0.01,-0.78,10.86,-0.05,0.08,-0.13,1721199363296
1.22,-1.08,9.63,-0.10,0.05,-0.21,1721199363306
-0.15,-0.55,9.90,-0.13,-0.03,-0.19,1721199363316
-1.03,-0.87,10.08,-0.13,-0.01,-0.23,1721199363326
-0.58,-1.97,10.63,-0.10,0.08,-0.17,1721199363336
0.25,-2.11,8.04,-0.10,0.02,-0.04,1721199363346
0.30,0.59,11.60,-0.11,0.07,-0.16,1721199363356
-0.28,1.94,10.52,-0.04,-0.10,-0.22,1721199363366
-0.80,3.72,8.53,-0.06,0.14,-0.32,1721199363376
-0.74,-1.01,11.90,-0.18,-0.03,-0.27,1721199363386
-2.36,0.40,8.51,-0.10,-0.09,-0.14,1721199363396
0.07,-3.17,11.77,-0.20,0.18,-0.06,1721199363406
1.49,1.93,11.46,-0.08,-0.00,-0.20,1721199363416
-0.67,3.37,12.31,-0.04,-0.00,-0.37,1721199363426
-0.62,2.21,9.69,-0.02,0.05,-0.32,1721199363436
-2.77,-1.65,10.16,-0.07,0.01,-0.19,1721199363446
-2.16,2.12,10.66,0.03,0.04,-0.10,1721199363456
-0.19,-0.44,12.08,0.01,0.12,-0.10,1721199363466
1.05,2.56,12.06,0.11,0.07,-0.23,1721199363476
0.45,1.84,7.46,0.16,-0.03,-0.29,1721199363486
-1.02,3.46,12.50,0.11,0.16,-0.34,1721199363496
-2.10,2.40,13.03,0.20,-0.02,-0.22,1721199363506
-2.24,0.76,8.35,0.23,0.00,-0.05,1721199363516
-0.95,1.14,9.20,0.27,0.13,-0.00,1721199363526
1.11,1.60,8.68,0.20,0.05,-0.07,1721199363536
1.41,3.15,11.95,0.23,0.06,-0.18,1721199363546
0.79,0.60,9.48,0.17,0.05,-0.32,1721199363556
-2.81,-0.86,9.09,0.11,0.00,-0.29,1721199363566
-3.46,-0.05,10.96,0.07,0.13,-0.10,1721199363576
-1.45,0.67,12.82,0.11,0.11,0.05,1721199363586
0.19,2.88,6.90,0.15,0.02,0.03,1721199363596
1.12,-0.22,7.83,-0.03,0.11,-0.14,1721199363606
-0.32,0.95,14.20,-0.00,0.02,-0.28,1721199363616
-2.12,-0.33,7.48,0.02,-0.06,-0.10,1721199363626
-1.71,-1.05,8.15,-0.09,0.09,0.07,1721199363636
-0.13,-1.27,12.16,-0.08,0.08,-0.01,1721199363646
0.15,-0.54,7.31,-0.04,-0.06,0.00,1721199363656
-0.47,0.04,10.38,-0.16,0.10,-0.09,1721199363666
0.03,-0.77,12.64,-0.13,0.03,-0.06,1721199363676
-1.44,0.90,8.68,-0.12,0.03,-0.16,1721199363686
-2.54,-0.11,12.95,-0.15,0.14,-0.10,1721199363701
-1.67,-1.07,11.08,-0.12,-0.04,-0.07,1721199363705
0.03,-0.79,10.09,-0.16,0.10,0.09,1721199363715
0.48,1.38,7.80,-0.02,0.04,-0.02,1721199363725
-0.04,-1.32,10.69,-0.15,0.14,-0.15,1721199363735
-1.21,2.26,11.98,-0.02,-0.01,-0.21,1721199363745
-1.14,2.93,11.29,-0.05,0.15,-0.07,1721199363755
-1.41,-0.26,11.86,-0.03,0.02,0.05,1721199363765
0.04,0.46,10.07,0.03,0.11,0.13,1721199363775
0.41,2.39,7.89,0.06,0.06,-0.07,1721199363785
0.83,0.55,12.72,-0.04,0.05,-0.10,1721199363795
-1.35,1.36,12.36,0.03,0.03,-0.15,1721199363805
-0.97,-1.51,12.55,-0.00,0.10,-0.12,1721199363815
-1.38,2.38,10.35,0.19,0.00,0.03,1721199363825
-0.58,3.22,9.69,0.15,0.11,0.08,1721199363835
-0.17,1.51,10.26,0.23,0.05,-0.06,1721199363845
-0.38,-0.25,9.11,0.19,0.03,-0.05,1721199363855
-0.74,0.23,12.74,0.19,0.05,-0.06,1721199363865
-0.57,2.19,9.45,0.26,-0.01,0.02,1721199363875
0.05,3.73,9.37,0.26,0.09,0.06,1721199363885
1.51,-0.08,8.08,0.29,0.00,-0.01,1721199363895
0.87,-2.13,7.42,0.21,0.06,-0.10,1721199363905
-1.56,2.45,9.66,0.22,0.02,-0.05,1721199363915
-0.18,1.84,10.92,0.09,0.11,0.06,1721199363925
1.10,-0.41,11.07,0.10,-0.02,0.09,1721199363935
1.32,-1.15,8.73,0.06,0.07,-0.05,1721199363945
0.97,-0.45,8.54,0.01,0.08,-0.17,1721199363955
-0.69,0.93,10.83,-0.00,0.08,-0.18,1721199363965
-0.63,1.78,10.76,0.02,0.11,-0.08,1721199363975
-0.63,-0.90,10.15,-0.04,0.08,0.00,1721199363985
-0.54,0.19,13.84,-0.00,0.12,-0.05,1721199363995
0.41,3.13,7.56,0.05,0.07,-0.13,1721199364005
2.04,-0.21,5.91,-0.12,0.14,-0.08,1721199364015
0.39,-1.30,14.15,-0.12,0.09,-0.29,1721199364025
-2.18,-0.22,9.72,0.02,-0.02,-0.28,1721199364035
-2.66,1.46,7.94,-0.11,0.23,-0.16,1721199364045
-0.89,-2.13,10.90,-0.14,0.05,0.01,1721199364055
-0.03,1.54,12.21,-0.08,0.10,-0.09,1721199364065
1.00,0.69,8.28,-0.03,0.11,-0.22,1721199364075
-0.52,0.36,11.05,-0.07,0.16,-0.25,1721199364085
-1.85,-2.15,10.96,-0.05,0.06,-0.13,1721199364095
-1.77,0.27,10.22,-0.04,0.06,0.01,1721199364105
1.35,-0.79,10.24,-0.09,0.27,-0.05,1721199364115
0.22,-0.30,12.52,0.02,-0.00,-0.18,1721199364125
-0.99,0.99,7.27,0.07,0.05,-0.15,1721199364135
-1.49,1.84,10.55,0.04,0.15,-0.06,1721199364145
0.26,3.47,12.57,0.07,0.09,-0.03,1721199364155
0.13,0.31,8.17,0.03,0.05,-0.04,1721199364165
-0.23,-3.86,7.88,-0.06,0.12,-0.16,1721199364175
-0.40,-1.72,12.45,-0.01,0.13,-0.14,1721199364185
-0.48,2.75,12.72,0.09,0.11,-0.13,1721199364195
-0.94,4.24,8.77,0.13,0.06,-0.10,1721199364205
-1.41,1.05,9.11,0.08,0.12,-0.14,1721199364215
-2.20,-2.55,9.28,0.05,-0.01,0.01,1721199364225
-1.60,1.50,12.15,0.08,0.15,0.01,1721199364235
1.01,0.89,8.83,0.11,0.08,-0.04,1721199364245
-0.41,0.75,8.40,0.11,0.01,-0.14,1721199364255
-1.41,1.01,9.74,0.12,0.11,-0.15,1721199364265
-1.06,1.01,12.37,0.11,0.13,-0.11,1721199364275
-1.86,1.16,7.60,0.17,-0.02,0.03,1721199364285
0.19,1.11,8.85,0.08,0.23,0.07,1721199364295
1.44,1.41,11.65,0.14,0.08,0.01,1721199364305
1.12,2.56,10.17,0.08,0.08,-0.11,1721199364315
0.22,-0.76,10.37,-0.01,0.06,-0.24,1721199364325
-2.66,0.56,11.35,0.01,0.05,-0.18,1721199364335
-3.06,1.08,11.57,-0.01,0.10,-0.03,1721199364345
-2.36,0.44,11.61,0.04,0.04,0.13,1721199364355
-0.63,3.14,8.77,0.14,-0.00,0.16,1721199364365
1.27,-0.67,6.25,-0.03,0.13,-0.04,1721199364375
-1.35,1.14,9.43,-0.03,-0.03,-0.21,1721199364385
-2.79,0.86,10.37,-0.03,0.06,-0.05,1721199364395
-2.25,0.28,10.21,-0.02,0.02,0.19,1721199364405
0.28,1.73,10.30,-0.04,0.06,0.26,1721199364415
1.13,1.25,11.14,-0.05,-0.02,0.11,1721199364425
0.76,-1.10,11.00,-0.06,-0.04,-0.03,1721199364435
-2.29,0.07,10.08,-0.09,-0.02,-0.04,1721199364445
-1.58,-0.38,9.93,-0.00,-0.02,0.17,1721199364455
0.10,-3.85,8.44,-0.12,-0.01,0.26,1721199364465
1.07,-0.44,10.95,-0.07,0.05,0.11,1721199364475
0.70,0.25,10.22,-0.11,-0.01,-0.01,1721199364485
-2.02,-0.92,9.07,-0.08,-0.07,0.01,1721199364495
-2.08,-3.00,11.07,-0.11,-0.01,0.16,1721199364505
0.21,0.46,10.62,-0.01,0.10,0.22,1721199364515
0.94,-1.30,9.53,-0.13,-0.08,0.13,1721199364525
-0.63,4.98,13.44,-0.04,0.03,-0.05,1721199364535
-0.63,1.77,8.21,0.02,-0.07,0.04,1721199364545
-0.35,-1.94,8.45,-0.12,0.09,0.06,1721199364555
-0.55,-3.38,13.13,-0.08,-0.06,0.11,1721199364565
-0.40,3.39,10.91,0.02,0.04,0.04,1721199364575
0.94,3.03,11.26,0.03,0.01,0.08,1721199364585
0.66,4.24,10.61,0.17,-0.02,0.02,1721199364595
0.72,-1.36,7.27,0.08,-0.03,-0.09,1721199364605
-2.54,1.33,11.55,0.12,-0.01,-0.07,1721199364615
-1.44,-0.69,8.12,0.03,0.02,0.13,1721199364625
0.04,1.34,14.09,0.09,0.01,0.19,1721199364635
2.22,0.77,10.09,0.17,-0.03,0.06,1721199364645
1.40,3.35,11.98,0.12,0.04,-0.15,1721199364655
-0.87,2.21,8.80,0.16,-0.10,-0.18,1721199364665
-2.06,0.76,11.81,0.07,0.10,-0.07,1721199364675
-0.34,1.13,10.84,0.19,-0.06,0.23,1721199364685
2.61,1.22,8.06,0.07,0.12,0.17,1721199364695
3.31,-0.23,10.24,0.05,0.01,-0.17,1721199364705
0.43,1.43,9.99,0.01,0.04,-0.32,1721199364715
-1.98,0.06,10.35,-0.02,0.07,-0.15,1721199364725
-1.35,-1.33,10.83,-0.06,0.11,0.01,1721199364735
-0.05,0.45,11.54,0.07,0.00,0.08,1721199364745
1.98,1.45,9.12,-0.04,0.19,-0.06,1721199364755
0.84,0.98,9.63,-0.04,0.02,-0.19,1721199364765
-0.54,-1.15,8.92,-0.07,0.06,-0.17,1721199364775
-0.15,-2.72,9.45,-0.07,0.14,-0.09,1721199364785
0.25,1.02,11.21,-0.06,0.11,-0.11,1721199364795
1.50,0.64,8.57,-0.06,0.13,-0.07,1721199364805
0.19,-0.33,12.08,-0.15,0.11,-0.22,1721199364815
-0.14,-0.76,10.89,-0.07,0.17,-0.31,1721199364825
-1.75,0.25,9.74,-0.07,0.06,-0.12,1721199364835
-1.10,-1.75,10.10,-0.09,0.20,-0.07,1721199364845
-0.02,1.66,12.04,-0.06,0.09,-0.08,1721199364855
0.60,0.59,8.43,-0.04,0.11,-0.12,1721199364865
-0.21,-3.57,9.94,-0.20,0.12,-0.13,1721199364875
-1.35,-0.68,12.30,0.01,0.13,-0.21,1721199364885
-0.87,0.35,7.10,-0.04,0.11,-0.09,1721199364895
0.16,-0.17,13.56,-0.07,0.24,-0.10,1721199364905
-0.06,2.61,12.31,0.06,0.06,-0.12,1721199364915
-1.06,1.16,7.30,0.02,0.21,-0.21,1721199364925
-1.24,-0.55,11.10,-0.04,0.18,-0.18,1721199364935
-1.45,2.97,13.49,0.06,0.12,-0.08,1721199364945
-1.34,0.68,10.22,0.14,0.11,-0.10,1721199364955
-0.75,-0.86,9.50,0.09,0.22,-0.12,1721199364965
-2.58,2.50,9.83,0.14,0.07,-0.11,1721199364975
-2.09,0.86,9.53,0.07,0.09,-0.06,1721199364985
-2.75,-0.36,9.53,0.20,0.02,0.03,1721199364995
-0.20,-0.71,8.36,0.11,0.19,0.09,1721199365005
0.52,1.60,12.37,0.14,0.09,0.01,1721199365015
-0.32,3.73,11.43,0.11,0.04,-0.04,1721199365025
-1.21,2.47,10.75,0.15,0.07,-0.11,1721199365035
-1.75,-2.55,7.73,0.03,0.06,-0.06,1721199365045
-2.58,-0.53,11.90,0.01,0.07,0.06,1721199365055
-0.74,1.95,10.44,0.06,0.02,0.25,1721199365065
0.63,0.36,11.14,-0.04,0.06,0.15,1721199365075
0.50,2.54,9.11,0.09,-0.04,0.01,1721199365085
-0.12,2.76,10.59,-0.02,0.12,-0.07,1721199365095
-2.32,-1.55,10.45,-0.05,-0.09,0.01,1721199365105
-2.89,0.10,7.21,-0.02,-0.02,0.22,1721199365115
-0.06,0.75,11.55,-0.09,0.14,0.28,1721199365125
1.91,0.64,14.20,-0.01,-0.10,0.20,1721199365135
0.50,3.56,6.02,0.09,-0.08,0.02,1721199365145
0.35,-0.04,7.27,-0.12,0.12,-0.06,1721199365155
-1.91,-0.29,12.92,-0.12,-0.08,0.07,1721199365165
-1.87,0.53,10.35,-0.03,-0.04,0.19,1721199365175
0.80,-0.68,5.92,-0.06,0.04,0.24,1721199365185
1.44,-4.65,9.19,-0.23,-0.01,0.09,1721199365195
-0.98,0.82,15.78,-0.17,0.05,-0.05,1721199365205
-2.52,0.79,13.20,-0.12,-0.13,-0.05,1721199365215
-2.07,-1.36,9.92,-0.11,-0.01,0.09,1721199365225
-0.72,-1.03,13.01,-0.04,-0.01,0.28,1721199365235
0.45,0.37,7.91,-0.08,-0.07,0.24,1721199365245
-0.48,-0.76,11.77,-0.12,-0.05,0.01,1721199365255
-0.75,-0.25,7.01,0.01,-0.08,0.01,1721199365265
0.03,-1.90,9.88,-0.12,0.07,0.16,1721199365275
0.26,0.75,16.79,-0.05,-0.13,0.12,1721199365285
0.44,6.43,8.34,0.18,-0.12,0.10,1721199365295
0.26,0.40,5.19,-0.05,0.01,0.01,1721199365305
-1.87,-0.31,14.60,-0.03,-0.16,-0.04,1721199365315
-2.99,-0.50,10.45,0.03,-0.10,0.04,1721199365325
-1.12,-0.75,9.91,0.04,-0.02,0.24,1721199365335
-0.08,2.65,9.10,0.14,-0.10,0.20,1721199365345
0.48,4.73,12.15,0.07,-0.07,0.04,1721199365355
-0.08,3.43,10.02,0.16,-0.16,-0.09,1721199365365
0.19,-2.35,7.71,0.06,-0.08,0.04,1721199365375
-0.58,-1.17,11.80,0.08,-0.10,0.11,1721199365385
0.24,3.97,10.56,0.13,-0.09,0.10,1721199365395
1.36,2.88,11.06,0.13,-0.06,-0.03,1721199365405
0.51,2.65,9.73,0.21,-0.14,-0.08,1721199365415
-0.58,0.00,11.16,0.03,0.01,-0.09,1721199365425
-1.38,0.16,15.34,0.12,-0.10,0.07,1721199365435
0.23,3.55,9.22,0.23,-0.07,0.18,1721199365445
3.11,2.34,7.14,0.14,0.01,0.09,1721199365455
2.59,0.85,8.10,0.06,-0.08,-0.16,1721199365465
-0.87,0.89,11.45,-0.01,-0.03,-0.32,1721199365475
-3.83,-1.27,9.94,0.01,-0.08,-0.13,1721199365485
-3.70,-0.69,10.46,-0.06,-0.06,0.21,1721199365495
0.48,1.60,12.94,0.06,-0.02,0.30,1721199365505
2.91,4.08,10.09,0.10,-0.03,-0.01,1721199365515
1.19,2.63,6.71,-0.01,-0.11,-0.22,1721199365525
-1.10,-1.44,9.18,-0.14,-0.05,-0.20,1721199365535
-1.66,-2.91,12.43,-0.03,-0.04,-0.04,1721199365545
-0.20,-0.07,9.99,0.08,-0.04,0.06,1721199365555
1.78,1.57,8.87,0.05,-0.02,-0.02,1721199365565
1.99,1.08,10.11,0.00,-0.01,-0.20,1721199365575
-0.09,-0.45,10.31,-0.04,-0.04,-0.25,1721199365585
-0.67,-0.37,12.14,-0.03,0.05,-0.05,1721199365595
0.43,-0.84,11.54,0.01,0.00,0.06,1721199365605
1.48,1.45,9.46,0.04,0.05,-0.05,1721199365615
1.89,-0.72,7.31,-0.08,0.04,-0.15,1721199365625
-0.45,-0.76,11.25,-0.12,-0.02,-0.16,1721199365635
-0.08,1.92,9.83,0.13,-0.10,-0.20,1721199366175
-0.24,1.55,7.91,0.06,-0.08,-0.20,1721199366180
-1.94,1.05,9.84,-0.06,-0.03,-0.22,1721199366190
-1.72,-1.59,10.92,-0.04,-0.07,-0.09,1721199366200
-0.83,1.73,12.41,0.06,-0.06,0.00,1721199366210
1.18,2.16,8.52,0.04,-0.04,-0.03,1721199366220
1.52,2.41,10.29,-0.00,-0.04,-0.15,1721199366230
0.60,-0.59,10.76,-0.06,-0.04,-0.24,1721199366240
-1.68,0.50,11.99,-0.01,-0.11,-0.16,1721199366250
-1.68,2.69,10.17,0.09,-0.06,-0.04,1721199366260
0.32,1.61,7.95,0.03,-0.02,-0.02,1721199366270
0.07,3.38,10.33,0.06,-0.08,-0.17,1721199366280
0.46,-0.92,7.34,-0.09,-0.03,-0.17,1721199366290
-0.95,1.05,12.95,-0.01,-0.08,-0.14,1721199366300
-0.00,-0.72,8.05,-0.04,-0.04,-0.11,1721199366310
-0.44,0.98,12.97,-0.03,-0.06,-0.16,1721199366320
-0.34,0.58,10.97,0.02,-0.08,-0.17,1721199366330
-0.69,1.24,12.32,-0.03,-0.02,-0.13,1721199366340
-0.67,0.68,8.98,0.01,-0.09,-0.10,1721199366350
0.37,0.49,10.80,-0.02,0.01,-0.12,1721199366360
0.66,0.53,10.24,0.04,-0.08,-0.20,1721199366370
-0.95,3.98,9.77,0.08,-0.06,-0.19,1721199366380
-0.49,1.25,7.09,-0.04,-0.03,-0.11,1721199366390
0.01,-1.50,13.26,-0.11,-0.02,-0.14,1721199366400
0.13,-0.85,9.56,0.04,-0.09,-0.18,1721199366410
0.36,0.46,8.81,-0.06,0.02,-0.18,1721199366420
-0.06,0.76,11.24,0.01,-0.06,-0.22,1721199366430
-0.82,2.71,10.28,0.08,-0.04,-0.19,1721199366440
-0.60,2.28,8.35,-0.02,-0.00,-0.18,1721199366450
-0.20,0.28,13.00,-0.07,-0.05,-0.18,1721199366460
-0.09,-0.65,12.12,0.01,-0.02,-0.22,1721199366470
-0.66,-0.11,11.04,0.02,-0.03,-0.21,1721199366480
-0.63,1.06,8.37,0.07,-0.03,-0.13,1721199366490
0.92,4.13,10.23,0.01,0.09,-0.17,1721199366500
1.41,1.19,8.77,-0.07,0.01,-0.30,1721199366510
-0.80,-0.77,12.84,-0.08,-0.06,-0.33,1721199366520
-1.68,-0.77,12.39,-0.02,0.05,-0.28,1721199366530
-1.19,-0.50,8.77,0.01,-0.03,-0.14,1721199366540
0.44,2.36,9.69,-0.01,0.05,-0.13,1721199366550
1.64,1.83,8.37,-0.01,0.04,-0.28,1721199366560
-0.65,2.08,9.88,-0.03,0.05,-0.43,1721199366570
-2.68,-0.32,11.09,-0.07,0.01,-0.36,1721199366580
-2.58,-1.63,11.82,-0.02,0.01,-0.09,1721199366590
0.20,1.51,11.76,0.00,0.08,-0.06,1721199366600
2.43,2.94,9.92,0.02,0.04,-0.21,1721199366610
1.19,1.76,9.48,-0.03,0.03,-0.43,1721199366620
-1.98,-0.08,11.45,-0.05,0.03,-0.48,1721199366630
-3.80,0.13,9.89,-0.02,0.03,-0.25,1721199366640
-1.38,-0.75,10.34,-0.07,0.13,-0.02,1721199366650
1.34,3.07,11.36,0.04,0.09,-0.11,1721199366660
1.73,2.25,8.73,-0.05,0.03,-0.33,1721199366670
-0.53,-0.72,10.37,-0.06,0.02,-0.37,1721199366680
-2.24,-0.19,12.02,0.01,0.09,-0.32,1721199366690
-1.69,1.49,10.97,0.04,0.08,-0.09,1721199366700
0.12,0.90,8.89,0.05,0.04,-0.07,1721199366710
1.16,2.20,11.93,0.06,0.12,-0.23,1721199366720
0.63,1.20,9.12,0.07,0.07,-0.35,1721199366730
-1.72,-0.58,8.94,0.02,0.05,-0.29,1721199366740
-1.29,1.35,12.86,0.02,0.16,-0.16,1721199366750
0.25,2.82,8.98,0.08,0.06,-0.11,1721199366760
0.85,3.04,10.76,0.04,0.12,-0.23,1721199366770
0.87,-0.09,8.46,-0.01,0.12,-0.37,1721199366780
-2.37,0.26,12.18,-0.02,0.03,-0.35,1721199366790
-1.87,-0.56,8.96,0.06,0.08,-0.13,1721199366800
0.46,1.45,6.50,0.03,0.12,-0.07,1721199366810
2.00,-0.75,11.52,-0.05,0.16,-0.30,1721199366820
-0.26,0.39,14.25,0.15,0.03,-0.37,1721199366830
-2.68,3.15,8.36,0.07,0.11,-0.28,1721199366840
-2.24,3.25,12.10,0.05,0.16,-0.10,1721199366850
0.43,-0.60,10.03,0.02,0.15,-0.10,1721199366860
0.42,-0.80,11.88,0.04,0.06,-0.24,1721199366870
-0.18,-0.57,3.80,0.11,0.05,-0.29,1721199366880
-0.14,4.94,11.90,0.03,0.34,-0.31,1721199366890
-0.55,-0.30,7.31,0.09,0.02,-0.26,1721199366900
-3.62,1.70,10.21,-0.01,0.07,-0.22,1721199366910
-0.86,-0.31,10.08,-0.06,0.22,-0.13,1721199366920
0.59,-0.03,11.66,-0.04,0.08,-0.11,1721199366930
0.85,0.16,10.98,-0.03,0.15,-0.18,1721199366940
0.01,1.05,11.03,0.02,0.13,-0.32,1721199366950
-1.61,-0.48,8.73,-0.01,0.09,-0.25,1721199366960
-2.24,0.94,12.19,0.02,0.15,-0.13,1721199366970
0.34,0.36,9.56,-0.01,0.19,-0.07,1721199366980
0.43,0.82,11.88,0.02,0.11,-0.16,1721199366990
-0.38,2.85,9.90,0.10,0.12,-0.23,1721199367000
-0.36,4.08,9.25,0.08,0.17,-0.19,1721199367010
-0.38,0.51,8.99,-0.06,0.15,-0.14,1721199367020
-1.27,-1.69,10.33,-0.05,0.11,-0.14,1721199367030
-0.48,0.87,11.25,0.03,0.20,-0.19,1721199367040
0.08,0.76,8.79,0.03,0.11,-0.17,1721199367050
-1.53,1.74,10.65,0.04,0.12,-0.14,1721199367060
-0.61,0.21,8.49,-0.01,0.19,-0.09,1721199367070
0.23,0.18,10.52,-0.01,0.15,-0.11,1721199367080
0.85,1.63,8.56,0.02,0.16,-0.13,1721199367090
0.31,0.65,10.44,-0.06,0.18,-0.18,1721199367100
-1.07,0.36,12.72,0.02,0.12,-0.18,1721199367110
-0.99,0.17,12.69,-0.00,0.19,-0.12,1721199367120
-0.95,2.61,12.74,0.03,0.16,-0.12,1721199367130
0.25,1.74,10.32,0.05,0.16,-0.08,1721199367140
0.54,-0.32,7.58,0.01,0.17,-0.18,1721199367150
-1.30,-0.04,10.46,0.02,0.16,-0.21,1721199367160
-2.54,3.67,9.03,0.10,0.16,-0.14,1721199367170
-0.85,0.71,8.06,-0.07,0.21,0.01,1721199367180
-0.17,-0.00,10.00,-0.02,0.09,0.00,1721199367190
1.29,-2.34,8.63,-0.06,0.18,-0.08,1721199367200
0.07,-0.20,12.30,-0.06,0.16,-0.21,1721199367210
-1.70,0.22,12.18,0.06,0.10,-0.19,1721199367220
-1.69,2.70,8.35,0.09,0.14,0.01,1721199367230
-0.13,3.53,9.66,-0.02,0.18,0.09,1721199367240
1.55,0.01,12.05,-0.04,0.20,-0.07,1721199367250
0.50,-0.73,12.74,-0.02,0.16,-0.25,1721199367260
-1.65,0.11,8.34,0.09,0.09,-0.13,1721199367270
-1.36,0.83,6.64,0.01,0.20,0.01,1721199367280
0.29,1.32,9.18,0.02,0.20,-0.00,1721199367290
0.41,1.76,11.61,0.01,0.16,-0.14,1721199367300
-0.53,-1.35,11.61,-0.11,0.16,-0.20,1721199367310
-2.47,0.61,14.84,0.05,0.09,-0.06,1721199367320
-0.55,0.51,8.62,0.03,0.19,0.14,1721199367330
1.54,1.10,11.37,0.01,0.22,0.07,1721199367340
1.10,3.43,8.50,0.18,0.08,-0.15,1721199367350
0.32,0.41,7.06,-0.08,0.27,-0.19,1721199367360
-3.07,-1.06,10.68,0.00,0.03,-0.10,1721199367370
-3.02,2.66,12.52,0.06,0.23,0.10,1721199367380
1.51,0.92,10.24,0.05,0.23,0.15,1721199367390
1.81,-1.14,10.04,0.03,0.02,0.06,1721199367400
-0.60,3.13,9.20,0.05,0.13,-0.14,1721199367410
-0.32,3.24,13.85,0.03,0.34,-0.18,1721199367420
-1.60,-2.27,8.45,0.01,0.01,0.07,1721199367430
-2.13,-1.74,9.80,0.01,0.05,0.22,1721199367440
2.41,1.20,10.88,0.05,0.33,0.04,1721199367450
1.33,1.85,9.85,0.07,0.06,-0.08,1721199367460
-1.86,4.70,10.15,0.13,0.07,-0.04,1721199367470
0.04,0.56,6.73,0.00,0.24,0.07,1721199367480
-0.57,-1.45,11.06,-0.01,0.09,0.10,1721199367490
0.01,1.57,11.25,0.08,0.20,-0.01,1721199367500
0.45,0.35,8.44,0.00,0.14,-0.01,1721199367510
-0.56,1.21,12.20,0.10,0.09,0.06,1721199367520
0.28,-1.23,9.18,0.01,0.22,-0.01,1721199367530
-0.94,-0.07,11.64,0.07,0.10,0.03,1721199367540
-0.80,1.09,10.58,0.06,0.17,0.06,1721199367550
-0.10,3.78,10.89,0.14,0.17,0.10,1721199367560
0.76,2.63,6.47,0.05,0.13,0.13,1721199367570
0.69,-0.76,11.01,-0.09,0.17,-0.01,1721199367580
-1.22,0.28,12.42,0.06,0.10,-0.07,1721199367590
-1.11,0.05,7.37,0.02,0.11,0.09,1721199367600
-0.22,-0.78,10.58,-0.03,0.12,0.17,1721199367610
0.00,0.57,11.26,0.06,0.12,0.05,1721199367620
0.21,1.73,7.64,0.05,0.13,0.02,1721199367630
-0.34,3.24,11.07,-0.08,0.16,0.02,1721199367640
-0.66,-0.03,8.36,0.02,0.03,0.14,1721199367650
-0.33,-0.21,13.20,-0.08,0.22,0.08,1721199367660
0.33,-0.72,9.67,0.05,0.05,0.09,1721199367670
-1.16,0.09,10.18,-0.06,0.11,0.05,1721199367680
-1.14,3.17,7.45,0.11,0.04,0.14,1721199367690
0.55,0.37,13.28,-0.16,0.23,0.13,1721199367700
-0.13,0.96,10.98,0.11,-0.06,0.15,1721199367710
0.64,-0.01,8.03,-0.14,0.21,0.12,1721199367720
0.56,2.16,10.96,0.02,0.01,0.10,1721199367730
0.66,1.25,7.02,-0.12,0.11,0.10,1721199367740
-0.09,-0.57,11.00,-0.07,0.04,0.01,1721199367750
-0.56,-0.45,11.15,-0.09,0.11,-0.02,1721199367760
-2.22,-1.04,10.85,-0.07,0.04,0.10,1721199367770
-2.19,1.76,13.24,-0.02,0.11,0.22,1721199367780
0.98,0.94,10.40,-0.05,0.11,0.24,1721199367790
1.33,2.70,11.75,0.03,0.01,0.19,1721199367800
2.51,1.31,8.94,-0.04,0.19,0.02,1721199367810
0.02,1.49,11.44,-0.01,-0.01,-0.09,1721199367820
-2.54,-1.32,10.33,-0.07,0.03,-0.03,1721199367830
-1.97,-0.87,10.50,0.00,0.09,0.18,1721199367840
0.24,1.08,8.47,-0.02,0.06,0.26,1721199367850
1.41,2.55,10.66,0.01,0.10,0.02,1721199367860
0.02,1.94,9.31,0.00,0.00,-0.04,1721199367870
-1.30,0.84,9.83,-0.06,0.09,0.13,1721199367880
-0.72,1.98,12.45,-0.00,0.11,0.14,1721199367890
0.75,-0.61,8.43,-0.04,0.01,0.15,1721199367900
0.05,0.23,8.86,-0.02,-0.01,0.12,1721199367910
0.95,1.25,12.48,-0.08,0.22,0.03,1721199367920
-1.25,1.46,13.47,0.06,-0.08,-0.05,1721199367930
-2.27,-0.82,9.28,-0.03,0.01,0.14,1721199367940
-0.18,0.47,11.33,0.03,0.13,0.26,1721199367950
1.91,-1.02,9.21,0.04,0.05,0.17,1721199367960
0.13,3.30,9.58,0.20,-0.03,0.04,1721199367970
0.18,4.60,8.88,0.08,0.11,0.09,1721199367980
-1.00,4.49,12.89,0.10,-0.04,0.16,1721199367990
-0.23,-0.08,10.10,-0.03,0.07,0.12,1721199368000
0.08,-1.85,10.40,-0.02,0.02,0.16,1721199368010
0.42,-0.19,9.82,0.05,0.04,0.11,1721199368020
0.49,0.77,7.99,0.13,-0.02,0.08,1721199368030
0.24,1.59,8.73,0.08,0.05,0.03,1721199368040
-0.91,3.23,11.26,0.07,0.02,0.04,1721199368050
-1.43,0.03,11.43,0.01,0.02,0.11,1721199368060
-1.76,0.28,12.71,0.06,-0.03,0.22,1721199368070
0.32,0.19,9.28,0.12,0.06,0.25,1721199368080
2.21,-0.15,8.61,0.07,0.04,0.14,1721199368090
0.41,3.04,9.06,0.09,-0.06,0.03,1721199368100
-0.43,4.22,12.29,0.06,0.09,-0.07,1721199368110
-1.71,0.22,9.57,0.03,-0.07,0.11,1721199368120
-1.78,-1.67,12.05,-0.03,-0.00,0.21,1721199368130
0.66,1.68,10.00,0.08,0.06,0.15,1721199368140
1.30,0.26,6.35,0.01,-0.06,0.12,1721199368150
-0.02,3.51,7.30,0.09,-0.03,0.01,1721199368160
0.68,1.29,2.63,-0.10,0.06,0.02,1721199368170
-0.89,-3.14,15.73,-0.21,0.01,0.03,1721199368185
-2.13,-3.81,16.52,-0.18,-0.01,0.04,1721199368189
-2.04,-2.84,17.67,-0.00,-0.07,0.11,1721199368199
-0.87,3.06,11.01,0.12,-0.09,0.29,1721199368209
2.15,3.65,8.84,0.04,0.04,0.27,1721199368219
2.72,4.92,9.45,0.02,-0.00,0.00,1721199368229
0.18,-0.06,8.38,-0.05,-0.04,-0.16,1721199368239
-2.74,-2.06,9.22,-0.07,-0.05,-0.03,1721199368249
-2.04,0.20,11.28,-0.01,0.01,0.21,1721199368259
1.58,2.02,7.90,0.03,-0.03,0.24,1721199368269
2.15,3.56,8.27,0.02,-0.03,0.01,1721199368279
0.57,0.36,9.11,-0.12,0.04,-0.19,1721199368289
-3.50,0.42,11.87,-0.04,-0.12,-0.14,1721199368299
-3.67,-0.64,10.68,-0.07,0.00,0.17,1721199368309
-0.28,0.80,13.22,0.01,-0.00,0.35,1721199368319
3.21,2.47,8.61,0.04,-0.05,0.22,1721199368329
3.17,3.11,12.15,-0.04,0.01,-0.14,1721199368339
-0.47,2.07,9.07,0.08,-0.16,-0.20,1721199368349
-2.62,-1.69,10.83,-0.09,0.07,-0.09,1721199368359
-2.62,-0.82,11.04,0.05,-0.07,0.17,1721199368369
-0.52,2.53,12.53,0.05,0.06,0.26,1721199368379
2.55,3.93,10.31,0.13,-0.05,0.14,1721199368389
1.73,1.49,9.02,-0.04,-0.02,-0.12,1721199368399
-1.44,2.17,9.93,0.11,-0.09,-0.15,1721199368409
-1.16,-1.18,6.54,-0.04,0.02,0.09,1721199368419
-0.35,-1.29,12.35,-0.00,-0.03,0.21,1721199368429
1.57,-0.52,9.33,0.05,-0.04,0.08,1721199368439
1.08,1.92,8.57,0.06,-0.05,-0.05,1721199368449
-0.62,2.23,9.81,-0.00,-0.02,-0.10,1721199368459
-1.75,1.39,11.03,0.03,-0.05,0.04,1721199368469
-0.88,0.92,12.17,-0.03,0.04,0.13,1721199368479
0.26,-1.09,11.37,-0.01,-0.06,0.11,1721199368489
-0.06,-0.19,9.18,0.04,-0.09,0.02,1721199368499
0.51,0.71,8.14,0.03,0.02,0.00,1721199368509
0.28,1.95,10.59,0.07,0.01,-0.03,1721199368519
-0.62,1.53,8.92,0.02,-0.05,0.02,1721199368529
-0.97,0.01,11.76,-0.06,-0.02,0.05,1721199368539
-0.17,-0.06,11.58,-0.02,-0.02,0.05,1721199368549
0.25,-0.11,10.60,-0.00,-0.07,0.07,1721199368559
0.34,1.11,9.26,0.06,-0.03,0.01,1721199368569
0.45,0.49,7.86,-0.00,-0.03,-0.01,1721199368579
-1.17,3.31,11.83,0.05,-0.04,-0.06,1721199368589
-1.35,2.41,10.31,0.01,0.01,0.03,1721199368599
-0.47,-1.29,10.85,-0.06,-0.06,0.13,1721199368609
0.23,0.51,11.22,0.03,-0.07,0.07,1721199368619
0.85,0.66,11.51,0.01,-0.01,-0.01,1721199368629
-0.62,4.07,8.78,0.10,-0.12,-0.03,1721199368639
-0.42,1.70,10.77,-0.06,0.07,-0.04,1721199368649
-0.24,-0.98,9.16,0.02,-0.11,0.04,1721199368659
-0.68,-0.88,11.75,-0.05,0.01,0.03,1721199368669
-0.02,1.15,9.97,0.07,-0.04,0.01,1721199368679
-0.11,3.22,10.31,0.04,-0.03,0.04,1721199368689
0.91,2.00,9.91,0.03,0.00,0.03,1721199368699
0.67,1.00,9.06,0.01,-0.06,-0.07,1721199368709
-0.17,-1.41,9.70,-0.04,-0.02,-0.07,1721199368719
-1.09,-0.02,10.39,-0.01,-0.02,-0.02,1721199368729
-0.55,0.27,11.08,0.03,-0.01,0.03,1721199368739
1.22,-0.59,11.11,-0.04,0.04,-0.01,1721199368749
-0.56,4.99,12.39,0.12,-0.09,-0.06,1721199368759
0.72,1.29,9.20,-0.08,0.10,-0.06,1721199368769
-0.71,0.42,9.03,0.00,-0.12,-0.08,1721199368779
-1.17,-0.89,10.06,-0.05,0.05,-0.10,1721199368789
-0.05,0.95,10.57,0.03,0.05,-0.08,1721199368799
-0.08,2.25,12.44,-0.01,0.02,-0.06,1721199368809
-0.24,1.49,10.24,0.03,-0.06,-0.11,1721199368819
-0.49,1.83,6.59,0.02,-0.03,-0.06,1721199368829
0.88,0.75,11.59,-0.11,0.17,-0.09,1721199368839
0.16,-1.33,9.90,-0.03,-0.11,-0.19,1721199368849
-2.44,1.77,9.63,0.05,-0.05,-0.11,1721199368859
0.52,0.29,8.12,-0.07,0.16,-0.02,1721199368869
0.84,1.77,13.33,-0.02,0.01,-0.07,1721199368879
0.76,1.53,11.71,-0.00,0.06,-0.23,1721199368889
-0.39,-0.03,10.89,-0.00,-0.01,-0.25,1721199368899
-1.95,0.23,9.39,0.02,0.06,-0.17,1721199368909
-0.79,-0.65,9.76,0.01,0.11,-0.09,1721199368919
0.61,1.68,9.06,0.06,0.05,-0.09,1721199368929
1.15,2.16,9.79,0.02,0.09,-0.21,1721199368939
-0.87,1.60,9.60,0.03,0.05,-0.26,1721199368949
-2.49,-0.60,9.31,-0.08,0.07,-0.20,1721199368959
-2.21,-0.36,14.24,-0.08,0.10,-0.05,1721199368969
0.02,0.50,10.84,0.04,0.07,0.05,1721199368979
0.90,1.46,8.82,0.04,0.07,-0.07,1721199368989
0.78,1.69,8.55,0.03,0.12,-0.25,1721199368999
-1.09,1.13,11.06,-0.01,0.10,-0.29,1721199369009
-2.42,1.44,11.01,0.09,0.04,-0.07,1721199369019
-1.02,-0.91,11.29,-0.02,0.15,-0.04,1721199369029
-0.18,-0.18,10.49,0.09,-0.01,-0.04,1721199369039
0.64,1.75,9.25,0.05,0.16,-0.12,1721199369049
-0.18,2.06,11.09,0.03,0.10,-0.24,1721199369059
-1.93,0.35,11.41,0.08,0.05,-0.18,1721199369069
-1.77,0.65,9.64,0.04,0.14,-0.05,1721199369079
-0.01,-1.62,10.51,0.01,0.11,-0.01,1721199369089
-0.05,2.16,10.69,0.11,0.06,-0.08,1721199369099
0.43,0.22,8.52,0.05,0.11,-0.07,1721199369109
-0.62,1.41,10.81,0.11,0.06,-0.08,1721199369119
-1.17,0.23,9.05,0.05,0.09,-0.11,1721199369129
-1.14,-0.13,10.53,0.00,0.09,-0.07,1721199369139
-1.24,-0.51,10.54,-0.00,0.07,0.05,1721199369149
-0.17,-0.21,10.63,-0.00,0.12,0.08,1721199369159
0.54,2.51,10.15,0.03,0.12,-0.09,1721199369169
-0.09,0.73,10.67,0.00,0.07,-0.10,1721199369179
-1.24,1.21,10.29,-0.00,0.05,0.00,1721199369189
-1.11,-0.56,11.05,-0.01,0.11,0.06,1721199369199
0.02,1.06,9.76,0.05,0.08,0.06,1721199369209
0.49,0.89,9.93,-0.03,0.10,-0.04,1721199369219
0.18,0.32,11.84,-0.01,0.08,-0.08,1721199369229
-1.81,2.81,11.07,0.06,0.02,-0.04,1721199369239
-0.66,1.24,8.35,-0.00,0.15,0.06,1721199369249
0.59,-1.11,10.19,-0.08,0.07,0.03,1721199369259
-0.43,-0.11,10.98,0.01,0.01,-0.05,1721199369269
-0.34,1.09,7.23,-0.01,0.11,-0.05,1721199369279
-0.61,0.40,11.64,-0.03,0.05,-0.02,1721199369289
-0.62,0.62,9.59,0.04,0.04,0.07,1721199369299
-0.50,2.00,12.16,-0.00,0.14,-0.04,1721199369309
-0.07,1.04,9.42,0.11,0.00,0.05,1721199369319
0.05,0.68,8.99,0.01,0.12,0.03,1721199369329
-0.25,0.90,9.45,0.11,0.02,0.04,1721199369339
-0.16,3.87,11.10,0.07,0.12,0.03,1721199369349
0.44,3.66,10.62,0.10,0.07,0.00,1721199369359
0.35,-0.88,9.68,-0.06,0.05,-0.07,1721199369369
-1.27,-0.28,12.14,0.05,0.03,-0.04,1721199369379
-0.26,-1.33,9.70,-0.05,0.16,0.03,1721199369389
-1.16,0.03,11.81,0.05,0.00,0.04,1721199369399
0.33,1.62,8.56,0.04,0.09,0.03,1721199369409
0.08,1.56,10.23,0.01,0.09,-0.04,1721199369419
-1.45,0.40,10.99,-0.03,0.04,-0.01,1721199369429
-0.80,1.49,12.43,0.03,0.08,0.05,1721199369439
0.91,-1.14,8.89,-0.02,0.09,0.08,1721199369449
0.30,1.98,11.67,0.03,0.07,0.01,1721199369459
0.11,3.53,8.74,-0.00,0.08,-0.11,1721199369469
-1.04,1.13,12.10,-0.00,0.05,-0.07,1721199369479
-1.55,0.62,7.40,0.02,0.04,0.08,1721199369489
-0.62,-1.36,10.16,-0.07,0.13,0.11,1721199369499
0.81,0.52,8.22,0.00,0.06,0.02,1721199369509
0.26,1.76,5.85,-0.06,0.05,-0.03,1721199369519
-0.17,2.28,7.34,-0.09,0.10,-0.03,1721199369529
-0.43,-0.20,7.75,-0.13,0.09,-0.00,1721199369539
-0.14,-3.21,13.01,-0.30,0.10,-0.04,1721199369549
-1.33,-0.20,17.41,-0.10,0.00,0.00,1721199369559
-1.09,1.50,12.59,-0.04,0.08,0.04,1721199369569
-0.32,2.39,12.45,-0.04,0.07,0.03,1721199369579
-0.27,1.70,11.25,0.02,0.05,0.00,1721199369589
-0.70,-0.53,6.98,-0.04,0.04,0.08,1721199369599
-2.47,4.75,12.90,0.02,0.06,0.06,1721199369609
0.96,0.00,9.65,-0.01,0.14,0.12,1721199369619
-0.33,4.98,10.41,0.12,-0.01,0.15,1721199369629
1.61,0.22,9.64,-0.08,0.17,0.03,1721199369639
-0.63,1.98,13.17,0.08,-0.10,-0.02,1721199369649
-0.98,-0.28,7.78,-0.05,0.09,0.02,1721199369659
-1.81,0.12,12.23,-0.03,-0.01,0.12,1721199369669
-1.00,-0.41,9.79,0.02,0.01,0.13,1721199369679
0.66,1.84,10.97,0.08,0.06,0.15,1721199369689
0.96,1.88,7.14,0.06,0.02,0.05,1721199369699
-0.38,3.26,11.99,0.02,0.03,-0.00,1721199369709
-0.26,2.33,10.18,0.08,0.01,0.04,1721199369719
-0.20,2.72,11.70,0.03,0.04,0.04,1721199369729
0.38,1.27,9.62,0.03,0.01,0.01,1721199369739
-0.54,0.80,8.99,0.00,0.04,-0.07,1721199369749
-1.36,-0.97,8.78,-0.09,0.08,-0.04,1721199369759
-2.68,-1.19,9.47,-0.02,-0.02,0.03,1721199369769
-0.52,0.50,9.49,-0.06,0.12,0.10,1721199369779
0.89,1.67,11.43,0.05,-0.04,0.12,1721199369789
0.57,1.44,8.61,-0.03,0.03,-0.00,1721199369799
-0.42,-0.45,12.70,-0.05,0.02,-0.05,1721199369809
-1.72,-0.31,8.66,0.04,-0.05,-0.02,1721199369819
-1.23,1.31,10.58,0.00,0.08,0.09,1721199369829
0.57,2.40,11.36,0.04,0.04,0.09,1721199369839
-0.48,4.53,11.37,0.07,-0.05,-0.02,1721199369849
-0.97,1.02,9.66,-0.03,0.05,-0.11,1721199369859
-2.89,1.52,12.44,0.03,-0.08,-0.06,1721199369869
-2.33,1.89,8.73,0.09,0.01,0.08,1721199369879
-1.08,3.86,8.89,0.13,-0.01,0.11,1721199369889
0.45,3.23,9.18,0.11,0.01,-0.00,1721199369899
-0.75,2.15,10.09,0.08,-0.07,-0.07,1721199369909
-2.21,1.27,11.66,-0.01,-0.04,-0.05,1721199369919
-2.81,-0.04,11.42,0.06,-0.12,0.08,1721199369929
-1.30,2.21,12.22,0.13,-0.00,0.19,1721199369939
1.25,1.16,8.83,0.09,-0.04,0.16,1721199369949
1.09,2.73,13.82,0.05,-0.06,-0.03,1721199369959
-0.59,3.06,12.11,0.13,-0.10,-0.09,1721199369969
-1.35,3.11,9.95,0.06,-0.01,0.01,1721199369979
-0.77,3.00,6.92,0.13,-0.09,0.20,1721199369989
1.90,1.64,2.67,-0.05,0.00,0.10,1721199369999
1.95,-1.00,12.19,-0.01,-0.02,-0.16,1721199370009
-2.35,2.64,10.53,0.16,-0.12,-0.27,1721199370019
-3.87,2.91,9.27,0.12,-0.09,0.09,1721199370029
-0.96,4.12,7.77,0.03,-0.00,0.31,1721199370039
2.34,0.40,10.48,-0.04,0.02,0.04,1721199370049
0.60,1.50,13.63,0.04,-0.11,-0.23,1721199370059
-1.79,1.17,12.92,0.12,-0.07,-0.17,1721199370069
-2.42,3.69,8.68,0.13,-0.06,0.09,1721199370079
1.39,3.17,9.39,-0.02,0.06,0.14,1721199370089
2.76,1.46,6.29,0.00,-0.13,-0.02,1721199370099
1.04,2.40,9.79,-0.06,0.04,-0.28,1721199370109
-1.07,-1.52,12.74,0.03,-0.05,-0.26,1721199370119
-3.64,0.70,12.36,0.13,-0.08,0.05,1721199370129
0.66,0.76,6.38,0.09,0.02,0.24,1721199370139
3.37,2.09,10.47,0.06,0.07,0.09,1721199370149
2.92,1.64,9.59,0.09,-0.05,-0.22,1721199370159
-1.13,0.38,17.75,0.14,-0.03,-0.29,1721199370169
-2.37,1.40,12.01,0.29,0.03,0.03,1721199370179
2.15,2.66,9.17,0.07,0.14,0.20,1721199370194
2.48,2.29,10.09,0.14,0.09,0.11,1721199370198
2.98,0.64,7.87,0.10,0.04,-0.30,1721199370208
-1.26,2.34,9.43,0.21,-0.05,-0.36,1721199370218
-3.65,1.06,7.55,0.11,0.11,-0.03,1721199370228
-2.60,3.66,7.60,0.07,0.01,0.22,1721199370238
0.97,0.97,8.71,-0.01,0.03,0.17,1721199370248
1.01,0.25,13.73,0.08,0.01,-0.02,1721199370258
0.64,1.56,9.61,0.23,0.05,-0.07,1721199370268
0.30,3.41,8.26,0.07,0.07,0.02,1721199370278
-0.02,4.68,12.54,0.04,0.08,0.06,1721199370288
1.98,1.34,12.11,0.08,0.03,0.04,1721199370298
0.32,4.36,9.83,0.09,-0.03,-0.03,1721199370308
0.76,1.91,9.30,-0.05,0.11,-0.17,1721199370318
-1.21,-0.65,11.65,-0.04,-0.04,-0.13,1721199370328
-5.67,4.69,11.22,0.09,-0.02,0.01,1721199370338
-3.00,1.95,7.81,-0.10,0.02,0.22,1721199370348
-2.14,2.25,11.61,0.00,-0.06,0.18,1721199370358
-2.16,0.27,6.12,-0.15,-0.05,0.02,1721199370368
-4.93,2.16,10.10,0.01,-0.26,0.18,1721199370378
-3.63,0.85,5.95,-0.15,-0.07,0.44,1721199370388
-1.65,1.96,6.03,-0.13,-0.23,0.48,1721199370398
1.38,0.64,7.84,-0.14,-0.15,0.38,1721199370408
3.53,1.28,16.01,-0.01,-0.16,0.40,1721199370418
3.61,3.99,8.33,-0.05,-0.18,0.44,1721199370428
5.61,3.55,11.09,-0.19,-0.01,0.34,1721199370438
7.64,-2.87,13.52,-0.15,-0.11,0.24,1721199370448
3.90,1.12,11.22,-0.06,-0.14,0.07,1721199370458
4.16,1.50,8.11,-0.07,-0.00,0.09,1721199370468
5.72,-2.72,8.02,-0.10,0.07,0.25,1721199370478
2.67,0.56,7.43,-0.07,-0.09,0.15,1721199370488
0.81,0.84,8.86,-0.13,0.07,0.10,1721199370498
0.15,0.05,10.89,-0.14,0.06,0.24,1721199370508
0.54,-4.84,12.97,-0.17,-0.02,0.31,1721199370518
1.17,-2.27,15.83,0.16,0.01,0.41,1721199370528
2.36,3.81,7.11,0.06,0.16,0.34,1721199370538
3.21,4.29,11.64,0.01,0.20,0.13,1721199370548
2.42,-3.74,17.92,0.04,0.14,0.00,1721199370558
-3.59,-1.78,14.20,0.31,-0.09,0.16,1721199370568
-3.23,-1.50,10.75,0.16,0.18,0.42,1721199370578
-0.54,3.99,15.74,0.34,0.03,0.49,1721199370588
1.94,7.03,5.16,0.05,-0.03,0.40,1721199370598
-1.96,3.90,3.71,-0.12,-0.16,0.23,1721199370608
-4.17,-5.34,7.83,-0.08,-0.03,-0.09,1721199370618
-6.83,-2.85,16.38,0.16,-0.28,0.22,1721199370628
-6.70,6.83,7.13,0.07,-0.37,0.96,1721199370638
1.73,8.83,10.38,-0.04,-0.06,1.09,1721199370648
8.95,-1.20,1.81,-0.27,-0.30,0.48,1721199370658
0.94,-3.92,19.21,-0.21,-0.28,-0.16,1721199370668
-5.84,-0.64,13.14,0.16,-0.53,0.05,1721199370678
-3.47,5.10,9.31,0.17,-0.25,0.99,1721199370688
8.09,5.76,2.31,-0.01,-0.03,1.28,1721199370698
13.86,1.35,9.23,-0.32,-0.07,0.39,1721199370708
6.32,0.80,15.66,-0.06,-0.59,-0.43,1721199370718
-5.33,2.24,12.78,0.01,-0.43,-0.12,1721199370728
-4.28,1.70,8.51,0.07,-0.18,0.86,1721199370738
6.99,1.62,6.55,-0.09,0.03,1.09,1721199370748
9.86,5.42,9.08,0.04,-0.33,0.38,1721199370758
6.26,5.13,9.46,-0.19,-0.11,-0.28,1721199370768
0.59,-0.30,10.96,-0.11,-0.36,-0.03,1721199370778
-3.79,1.07,9.70,0.05,-0.16,0.35,1721199370788
2.48,3.51,6.06,-0.17,-0.07,0.62,1721199370798
8.25,0.81,13.01,-0.36,-0.17,0.48,1721199370808
5.30,9.85,1.74,0.18,-0.32,0.20,1721199370818
6.39,-0.75,14.46,-0.70,0.45,-0.28,1721199370828
-3.79,-8.47,17.03,-0.15,-1.32,0.09,1721199370838
-3.30,2.70,21.89,0.34,0.12,0.39,1721199370848
3.57,10.65,-1.68,0.20,-0.10,0.87,1721199370858
6.53,-1.34,3.26,-0.66,0.15,0.57,1721199370868
4.75,-2.59,23.96,0.25,-0.33,-0.30,1721199370878
1.82,-3.24,21.26,0.22,0.10,-0.80,1721199370888
-8.06,2.92,7.96,0.14,-0.43,0.05,1721199370898
-5.66,6.19,7.57,-0.16,-0.10,1.06,1721199370908
6.94,3.59,11.50,-0.15,0.25,1.01,1721199370918
10.46,-2.99,13.56,-0.18,-0.13,-0.06,1721199370928
2.37,-2.77,6.78,0.12,-0.56,-0.55,1721199370938
-6.17,4.63,12.70,0.14,0.11,0.04,1721199370948
-3.05,6.67,7.51,-0.11,0.08,0.69,1721199370958
6.30,1.67,10.82,-0.26,-0.04,0.62,1721199370968
10.59,-2.72,13.78,0.04,-0.22,0.16,1721199370978
2.85,2.70,9.74,0.05,-0.08,-0.26,1721199370988
-2.17,6.38,9.15,0.02,-0.09,-0.15,1721199370998
2.24,-2.94,12.26,-0.21,0.08,0.20,1721199371008
0.83,-3.00,10.90,0.08,-0.33,0.45,1721199371018
-0.40,6.47,12.42,0.15,0.18,0.08,1721199371028
3.13,7.42,5.59,-0.01,-0.15,0.07,1721199371038
2.82,4.18,6.39,-0.33,-0.07,0.10,1721199371048
3.07,0.50,20.73,0.09,0.18,-0.04,1721199371058
0.85,-1.78,8.03,0.02,-0.19,-0.05,1721199371068
-3.11,7.90,5.50,0.00,-0.24,0.11,1721199371078
6.35,2.28,14.18,-0.02,0.45,0.12,1721199371088
6.55,-2.43,10.69,0.03,-0.22,-0.09,1721199371098
-1.65,5.77,8.66,0.29,-0.21,-0.32,1721199371108
1.07,6.64,11.27,-0.01,0.49,-0.22,1721199371118
3.65,3.40,10.44,0.03,-0.06,0.02,1721199371128
2.97,-0.20,8.41,-0.10,0.16,-0.18,1721199371138
-1.72,2.35,15.16,0.12,0.02,-0.36,1721199371148
-3.83,3.90,6.88,0.02,-0.12,-0.26,1721199371158
-2.36,4.24,10.10,-0.08,0.10,-0.09,1721199371168
-0.59,-0.84,7.70,-0.13,-0.02,-0.04,1721199371178
-2.57,1.00,15.65,0.08,-0.13,-0.05,1721199371188
0.54,4.09,5.47,0.18,-0.06,0.00,1721199371198
3.25,2.48,8.18,-0.26,0.14,-0.06,1721199371208
0.09,3.42,12.86,0.05,-0.29,-0.03,1721199371218
2.26,-1.94,12.48,-0.08,0.14,-0.04,1721199371228
2.87,5.09,12.66,0.32,-0.09,-0.05,1721199371238
5.10,3.93,0.20,-0.19,0.12,-0.22,1721199371248
0.32,4.96,15.65,-0.01,-0.10,-0.34,1721199371258
2.74,-2.60,9.30,-0.00,0.18,-0.28,1721199371268
0.40,0.87,15.26,0.21,0.05,-0.17,1721199371278
0.54,1.79,3.64,0.13,-0.06,-0.16,1721199371288
1.35,4.49,10.81,-0.09,0.27,-0.10,1721199371298
5.78,-3.38,7.21,-0.14,0.07,-0.14,1721199371308
-0.13,1.44,13.69,0.15,0.09,-0.47,1721199371318
-0.50,-2.03,9.76,0.04,0.22,-0.43,1721199371328
-0.42,0.18,12.75,-0.02,-0.02,0.10,1721199371338
4.05,3.55,10.57,0.02,0.41,0.06,1721199371348
6.13,2.86,10.69,0.03,0.20,-0.41,1721199371358
0.33,1.60,2.09,0.02,0.03,-0.65,1721199371368
-1.37,-2.39,11.45,-0.03,0.52,-0.43,1721199371378
-2.14,-1.49,12.55,0.05,0.22,-0.17,1721199371388
-1.18,-0.39,12.55,-0.11,0.27,-0.13,1721199371398
1.44,1.49,14.53,0.28,0.12,-0.01,1721199371408
4.73,-1.53,6.15,-0.06,0.42,-0.16,1721199371418
0.34,-0.35,12.57,0.09,0.09,-0.37,1721199371428
-2.26,-2.47,5.09,-0.16,0.18,-0.38,1721199371438
-2.74,0.71,18.74,0.12,0.24,-0.04,1721199371448
1.99,-1.03,1.48,0.04,0.21,0.17,1721199371458
1.12,4.28,12.83,-0.06,0.36,-0.10,1721199371468
2.73,2.01,7.98,0.17,0.20,-0.43,1721199371478
-0.86,1.12,10.47,-0.07,0.30,-0.46,1721199371488
-3.28,-2.51,10.65,0.04,0.16,-0.09,1721199371498
-1.46,0.76,10.90,0.09,0.38,0.13,1721199371508
2.33,2.36,10.01,0.04,0.28,-0.08,1721199371518
0.54,0.11,9.75,-0.08,0.11,-0.31,1721199371528
-4.03,-0.22,14.63,0.02,0.12,-0.29,1721199371538
-4.79,3.19,7.13,0.17,0.16,-0.08,1721199371548
0.05,1.75,9.44,-0.14,0.34,0.17,1721199371558
1.41,2.11,7.84,-0.03,0.03,0.18,1721199371568
0.65,2.69,13.29,-0.06,0.32,-0.28,1721199371578
-1.92,1.05,9.85,0.11,-0.02,-0.33,1721199371588
-5.00,2.55,7.69,-0.04,0.07,0.02,1721199371598
-1.95,1.51,5.82,-0.07,0.10,0.30,1721199371608
1.36,-0.02,13.11,-0.13,0.16,0.16,1721199371618
1.73,1.62,11.45,0.13,-0.02,-0.05,1721199371628
1.04,-0.27,13.65,-0.00,0.19,-0.04,1721199371638
-1.40,2.80,10.34,0.17,-0.10,0.21,1721199371648
2.46,0.94,10.41,-0.11,0.22,0.30,1721199371658
