AccX,AccY,AccZ,GyrX,GyrY,GyrZ,Time
1.58,-4.42,27.38,0.07,-0.12,0.20,1721199777134
0.57,-0.38,19.53,0.40,-0.12,0.22,1721199777138
5.85,2.07,1.88,-0.15,0.11,0.10,1721199777148
-0.01,-0.99,18.29,-0.27,-0.10,-0.01,1721199777158
-2.32,-3.91,10.68,0.06,-0.03,-0.08,1721199777168
-1.40,3.14,4.75,-0.05,0.10,-0.06,1721199777178
0.60,1.30,11.64,-0.20,0.16,-0.02,1721199777188
1.46,-1.04,14.08,-0.08,-0.14,0.02,1721199777198
-2.09,3.67,6.18,0.05,-0.14,0.01,1721199777208
-0.64,3.59,11.05,-0.25,0.31,-0.11,1721199777218
-0.93,1.62,9.60,-0.12,-0.11,-0.18,1721199777228
-3.88,1.68,10.72,-0.31,-0.01,-0.12,1721199777238
-3.77,2.21,9.42,-0.08,-0.07,0.10,1721199777248
0.13,6.75,10.51,-0.19,0.21,0.17,1721199777258
2.77,5.19,7.49,-0.22,-0.13,0.05,1721199777268
0.79,3.22,8.78,-0.37,-0.03,-0.22,1721199777278
-0.11,4.12,16.56,-0.19,0.07,-0.32,1721199777288
-3.22,0.73,6.71,-0.08,-0.20,-0.19,1721199777298
-4.17,6.62,11.76,-0.12,0.14,-0.04,1721199777308
-0.86,5.13,9.28,0.09,-0.06,0.04,1721199777318
-0.26,1.01,11.67,-0.16,0.04,-0.08,1721199777328
-2.41,6.59,15.21,0.20,-0.11,-0.15,1721199777338
-3.22,1.03,6.16,0.01,-0.06,-0.13,1721199777348
-5.52,6.41,12.79,0.16,-0.12,0.06,1721199777358
-0.79,-1.79,4.54,-0.02,0.02,0.20,1721199777368
-0.24,4.02,16.44,0.11,-0.09,0.09,1721199777378
1.52,3.08,5.31,0.26,-0.09,0.01,1721199777388
-0.21,1.26,8.42,-0.05,-0.01,-0.08,1721199777398
-1.46,4.52,13.85,0.11,-0.07,-0.08,1721199777408
-1.67,-2.41,3.44,0.02,-0.17,0.06,1721199777418
-4.92,-1.28,11.10,-0.13,-0.15,0.11,1721199777428
1.51,0.51,11.64,0.06,0.11,0.31,1721199777438
1.11,0.90,7.87,0.06,-0.10,0.11,1721199777448
4.34,0.53,10.38,-0.14,0.08,-0.08,1721199777458
3.41,-0.02,11.21,0.01,-0.04,-0.27,1721199777468
-2.76,-0.84,9.12,-0.08,-0.01,-0.33,1721199777478
-7.06,-0.40,9.66,-0.01,-0.05,-0.06,1721199777488
-4.99,-3.00,9.19,-0.10,0.09,0.30,1721199777498
-0.67,-2.44,10.90,-0.08,0.04,0.35,1721199777508
1.94,0.79,9.16,-0.03,-0.02,0.16,1721199777518
3.39,-0.25,11.08,-0.22,0.10,-0.06,1721199777528
1.22,-0.05,13.65,-0.12,-0.05,-0.23,1721199777538
-0.80,-2.77,7.13,-0.18,-0.02,-0.19,1721199777548
-2.04,-0.78,11.13,-0.23,0.03,-0.18,1721199777558
-0.89,0.36,9.58,-0.17,0.06,-0.18,1721199777568
-1.33,-0.61,11.34,-0.27,0.07,-0.26,1721199777578
-3.12,0.77,9.90,-0.14,-0.03,-0.27,1721199777588
-2.67,-1.30,9.63,-0.32,0.15,-0.13,1721199777598
-1.94,2.79,13.44,-0.16,0.06,-0.03,1721199777608
-1.90,-1.36,6.94,-0.13,-0.09,0.03,1721199777618
-0.95,-0.67,10.13,-0.22,0.14,0.03,1721199777628
0.59,1.29,12.76,-0.16,0.04,-0.04,1721199777638
-0.20,0.37,10.83,-0.17,-0.02,-0.05,1721199777648
-1.18,1.03,10.22,-0.10,0.01,-0.01,1721199777658
-1.08,0.70,9.33,-0.04,-0.03,0.15,1721199777668
-0.13,0.36,12.48,-0.10,0.07,0.18,1721199777678
-0.47,1.14,12.34,0.00,-0.04,0.08,1721199777688
-1.76,1.13,8.22,0.08,-0.07,0.05,1721199777698
-1.62,-0.90,9.59,-0.06,0.10,0.12,1721199777708
-2.16,1.64,13.44,0.08,-0.10,0.25,1721199777718
-0.23,1.74,8.53,0.10,0.06,0.30,1721199777728
1.38,1.85,12.15,0.00,0.03,0.18,1721199777738
-0.95,0.65,8.60,0.11,-0.23,0.13,1721199777748
-1.81,-0.55,10.88,-0.06,0.12,0.18,1721199777758
-2.02,3.34,12.23,0.16,-0.12,0.34,1721199777768
-0.97,-1.92,4.35,0.09,-0.10,0.48,1721199777778
0.33,0.35,13.01,-0.07,0.08,0.34,1721199777788
-0.15,4.53,14.30,0.11,-0.11,0.22,1721199777798
-1.04,0.51,7.89,-0.01,-0.09,0.29,1721199777808
-2.15,-0.43,9.45,0.04,-0.16,0.52,1721199777818
0.05,-0.30,8.63,0.03,-0.05,0.57,1721199777828
1.03,0.38,12.51,-0.04,-0.09,0.39,1721199777838
-0.94,2.27,11.06,0.10,-0.21,0.32,1721199777848
-1.49,-0.28,8.66,-0.02,-0.05,0.41,1721199777858
-2.05,-0.72,11.60,0.02,-0.17,0.63,1721199777868
0.31,3.41,11.97,0.06,0.00,0.65,1721199777878
2.12,0.42,8.05,0.09,-0.17,0.56,1721199777888
0.39,-0.43,11.52,-0.03,-0.14,0.41,1721199777898
-1.27,0.64,10.66,0.12,-0.22,0.41,1721199777908
-1.34,0.62,8.59,0.05,-0.14,0.53,1721199777918
-0.72,0.88,10.58,0.01,-0.16,0.62,1721199777928
-1.02,-1.20,10.36,0.02,-0.27,0.53,1721199777938
-0.22,-3.46,10.58,-0.05,-0.17,0.48,1721199777948
-0.80,-0.13,9.71,0.10,-0.28,0.56,1721199777958
-1.08,0.62,9.14,0.00,-0.18,0.53,1721199777968
-0.15,0.52,11.10,0.03,-0.24,0.55,1721199777978
0.65,-2.53,9.67,-0.07,-0.23,0.58,1721199777988
0.93,0.58,12.10,-0.00,-0.15,0.48,1721199777998
0.78,-0.90,8.14,0.00,-0.29,0.47,1721199778008
-0.41,0.69,11.48,-0.10,-0.18,0.40,1721199778018
0.75,-0.38,10.17,-0.00,-0.19,0.36,1721199778028
0.10,-2.79,9.06,-0.10,-0.25,0.35,1721199778038
-0.38,1.16,13.41,0.05,-0.17,0.35,1721199778048
0.68,-1.99,5.29,-0.01,-0.25,0.40,1721199778058
1.20,-0.67,13.90,-0.18,-0.06,0.34,1721199778068
1.91,-0.30,11.37,0.06,-0.29,0.22,1721199778078
0.77,-1.81,7.68,-0.08,-0.18,0.10,1721199778088
0.49,0.42,14.42,-0.07,-0.08,0.11,1721199778098
0.91,0.92,7.43,0.05,-0.25,0.17,1721199778108
2.20,-1.64,8.23,-0.18,0.02,0.03,1721199778118
1.40,-1.18,12.79,-0.01,-0.19,-0.10,1721199778128
-0.66,-2.00,9.49,-0.04,-0.15,-0.17,1721199778138
-0.89,0.37,13.42,-0.02,-0.07,-0.03,1721199778148
0.91,2.09,7.54,0.05,-0.12,0.08,1721199778158
2.52,-1.44,5.17,-0.15,-0.03,-0.12,1721199778168
1.91,-1.71,15.19,-0.19,-0.02,-0.49,1721199778178
-1.19,-0.11,11.91,0.04,-0.19,-0.54,1721199778188
-2.60,-1.51,6.34,-0.16,0.02,-0.32,1721199778198
-2.22,3.05,12.49,-0.02,-0.07,-0.14,1721199778208
1.30,-0.63,8.01,-0.11,0.00,-0.30,1721199778218
0.99,1.39,14.44,-0.06,-0.02,-0.51,1721199778228
-1.23,0.43,8.70,0.01,-0.13,-0.58,1721199778238
-3.47,-1.06,9.65,-0.08,-0.06,-0.42,1721199778248
-2.54,-0.01,10.06,-0.02,-0.03,-0.29,1721199778258
-0.15,0.96,11.67,-0.06,-0.04,-0.27,1721199778268
0.28,1.90,10.07,0.04,-0.15,-0.31,1721199778278
0.34,-1.36,7.79,-0.09,-0.05,-0.45,1721199778288
-1.52,0.12,12.52,-0.00,-0.12,-0.43,1721199778298
-1.53,0.51,10.87,0.01,-0.06,-0.25,1721199778308
-1.32,0.74,10.22,0.06,-0.12,-0.17,1721199778318
-0.03,0.48,9.24,0.04,-0.09,-0.25,1721199778328
0.69,1.93,12.07,0.07,-0.04,-0.31,1721199778338
0.29,2.22,10.31,0.16,-0.11,-0.24,1721199778348
-0.19,-0.56,10.38,0.02,-0.04,-0.32,1721199778358
0.02,3.88,13.95,0.20,-0.06,-0.31,1721199778368
1.05,-0.67,6.17,0.16,-0.11,-0.31,1721199778378
-0.53,1.85,11.60,0.10,-0.03,-0.39,1721199778388
-0.60,-0.08,9.29,0.18,-0.10,-0.39,1721199778398
-1.35,-0.98,10.23,0.11,-0.06,-0.31,1721199778408
-0.83,0.47,13.20,0.10,0.00,-0.23,1721199778418
-0.15,0.28,7.32,0.20,-0.14,-0.20,1721199778428
0.74,-0.97,9.71,0.02,0.02,-0.22,1721199778438
0.61,3.29,13.23,0.20,-0.08,-0.30,1721199778448
0.51,-1.64,6.12,0.10,-0.11,-0.30,1721199778458
-0.89,-1.06,14.15,-0.01,-0.02,-0.30,1721199778468
-0.80,2.00,9.60,0.27,-0.14,-0.17,1721199778478
0.64,-2.38,8.04,-0.04,0.04,-0.20,1721199778488
0.14,3.12,12.62,0.20,-0.11,-0.21,1721199778498
1.74,-1.08,6.94,0.01,0.07,-0.29,1721199778508
-0.76,2.01,14.03,0.07,-0.10,-0.36,1721199778518
-0.33,0.11,7.37,0.12,-0.04,-0.30,1721199778528
-0.20,-1.87,11.55,-0.03,-0.00,-0.21,1721199778538
-0.64,2.82,10.78,0.22,-0.08,-0.16,1721199778548
1.68,-1.48,8.58,-0.03,0.11,-0.26,1721199778558
-0.89,0.90,13.84,0.09,-0.15,-0.36,1721199778568
-1.88,2.18,9.35,0.10,0.02,-0.35,1721199778578
-0.37,0.12,11.65,0.05,0.01,-0.25,1721199778588
0.22,1.90,7.83,0.25,-0.10,-0.15,1721199778598
2.56,-0.84,7.93,-0.00,0.14,-0.33,1721199778608
0.80,0.15,15.75,0.12,-0.10,-0.50,1721199778618
-1.38,1.63,7.39,0.22,-0.04,-0.49,1721199778628
-0.65,-2.63,6.34,-0.03,0.09,-0.36,1721199778638
-1.09,3.21,13.97,0.14,0.00,-0.31,1721199778648
1.03,0.23,8.33,0.02,0.08,-0.41,1721199778658
-0.44,0.05,12.69,0.07,-0.03,-0.47,1721199778668
-1.15,-0.67,9.78,0.01,0.04,-0.44,1721199778678
-1.64,-0.58,10.07,0.04,-0.04,-0.39,1721199778688
-0.38,1.83,9.98,0.09,0.05,-0.38,1721199778698
1.43,-2.02,8.73,-0.08,0.09,-0.47,1721199778708
-0.48,-0.74,10.62,0.03,-0.07,-0.57,1721199778718
-0.55,1.12,11.20,-0.01,0.14,-0.58,1721199778728
-0.66,-1.14,7.62,-0.01,0.00,-0.51,1721199778738
-1.94,2.95,12.96,0.02,0.08,-0.53,1721199778748
-0.35,-0.70,7.53,-0.03,0.06,-0.53,1721199778758
0.69,-0.87,14.18,-0.09,0.15,-0.47,1721199778768
0.16,0.70,8.34,0.07,-0.15,-0.59,1721199778778
-2.36,1.01,10.59,-0.11,0.11,-0.80,1721199778788
-2.32,1.77,9.39,0.10,0.01,-0.60,1721199778798
-0.38,-0.68,8.74,-0.17,0.15,-0.40,1721199778808
-1.30,0.22,12.32,-0.03,-0.06,-0.48,1721199778818
-1.00,0.53,12.37,-0.06,0.11,-0.62,1721199778828
-0.69,1.95,6.25,0.10,-0.02,-0.49,1721199778838
-0.10,1.40,10.29,-0.18,0.22,-0.47,1721199778848
-0.19,2.29,12.88,0.04,-0.07,-0.44,1721199778858
0.52,2.38,11.65,-0.09,0.13,-0.53,1721199778868
0.20,1.48,10.68,0.03,0.01,-0.52,1721199778878
-0.63,-0.01,8.78,-0.14,0.09,-0.49,1721199778888
-0.65,4.19,15.05,0.04,0.12,-0.50,1721199778898
0.48,0.11,4.46,0.04,-0.01,-0.47,1721199778908
-0.32,-4.71,11.64,-0.13,0.17,-0.65,1721199778918
-5.45,6.47,13.02,0.24,-0.15,-0.68,1721199778928
-5.20,-2.27,4.97,-0.19,0.13,-0.25,1721199778938
0.40,0.59,16.41,0.08,0.09,0.36,1721199778948
10.62,0.63,-0.31,0.06,0.15,-0.12,1721199778958
10.72,1.14,16.91,-0.19,0.41,-1.15,1721199778968
0.21,-0.44,12.62,0.15,-0.21,-1.63,1721199778978
-12.41,-4.91,8.23,-0.27,-0.02,-1.16,1721199778988
-13.54,1.09,13.03,0.00,0.14,-0.17,1721199778998
-1.45,-5.08,8.80,-0.26,0.31,0.34,1721199779008
5.09,-0.46,11.12,-0.08,0.02,-0.04,1721199779018
7.56,0.69,8.67,-0.10,0.23,-0.69,1721199779028
1.07,-4.47,10.34,-0.34,-0.06,-1.06,1721199779038
-4.55,1.33,12.86,-0.11,0.10,-0.82,1721199779048
-1.60,-0.94,7.52,-0.13,0.23,-0.40,1721199779058
-0.96,-3.11,10.17,-0.22,0.03,-0.26,1721199779068
1.47,-0.25,11.52,-0.17,0.25,-0.43,1721199779078
2.40,-0.85,11.12,-0.14,0.09,-0.69,1721199779088
-1.80,1.27,9.55,-0.10,0.09,-0.84,1721199779098
-3.56,-1.65,9.75,-0.19,0.13,-0.71,1721199779108
-3.88,-0.46,11.69,-0.08,0.09,-0.35,1721199779118
-0.21,-0.69,11.13,-0.12,0.29,-0.21,1721199779128
2.53,0.54,11.92,-0.05,0.18,-0.52,1721199779143
1.55,1.98,11.05,-0.02,0.16,-0.67,1721199779148
-0.24,-0.51,11.25,-0.02,0.13,-0.75,1721199779158
-3.69,-0.68,8.13,0.14,0.11,-0.65,1721199779168
-1.07,-1.15,12.56,-0.00,0.45,-0.51,1721199779178
-3.62,0.74,9.88,0.21,-0.19,-0.37,1721199779188
-0.18,0.09,8.72,0.07,0.47,-0.34,1721199779198
1.77,1.85,15.25,0.14,0.13,-0.48,1721199779208
-1.45,-2.06,6.93,0.12,0.04,-0.62,1721199779218
-2.18,-0.45,9.52,0.10,0.32,-0.60,1721199779228
-1.41,-0.04,10.91,0.20,0.06,-0.39,1721199779238
-0.91,0.22,11.43,0.17,0.17,-0.26,1721199779248
0.96,0.05,12.47,0.14,0.26,-0.39,1721199779258
-0.47,0.62,7.53,0.19,0.06,-0.57,1721199779268
-2.26,-5.37,7.64,-0.03,0.22,-0.65,1721199779278
-4.92,0.67,13.91,0.23,0.12,-0.51,1721199779288
-2.00,-5.37,3.65,0.17,0.05,-0.23,1721199779298
-0.54,0.65,11.47,0.10,0.33,-0.23,1721199779308
1.19,-1.53,9.28,0.12,0.12,-0.45,1721199779318
-1.39,-1.18,12.79,-0.08,0.09,-0.63,1721199779328
-3.61,-1.01,8.20,0.22,-0.03,-0.47,1721199779338
-1.87,-1.82,6.68,-0.04,0.37,-0.32,1721199779348
-2.09,-1.45,13.50,0.02,-0.04,-0.19,1721199779358
-0.80,-0.92,11.71,0.01,0.23,-0.27,1721199779368
-0.03,4.35,13.09,0.15,0.26,-0.52,1721199779378
-1.96,-0.03,5.87,-0.00,0.01,-0.52,1721199779388
-6.56,-0.23,8.49,0.07,-0.10,-0.30,1721199779398
-2.73,-1.00,10.45,0.18,0.27,0.00,1721199779408
2.33,1.09,14.47,0.11,0.23,-0.08,1721199779418
-0.03,5.01,7.27,0.32,-0.19,-0.27,1721199779428
-0.72,0.64,6.81,-0.00,0.30,-0.45,1721199779438
-3.71,3.20,16.63,0.17,-0.11,-0.32,1721199779448
-3.43,-1.16,8.05,0.16,0.04,-0.05,1721199779458
-2.14,1.81,11.86,0.23,0.08,-0.00,1721199779468
-0.60,1.16,7.72,0.23,-0.06,-0.02,1721199779478
-0.85,1.56,10.98,0.18,-0.03,-0.01,1721199779488
-0.44,0.84,7.77,0.24,-0.03,-0.02,1721199779498
-0.36,-1.51,13.02,0.02,0.11,-0.04,1721199779508
-1.60,2.92,10.69,0.35,-0.19,0.11,1721199779518
0.86,-1.20,6.02,-0.04,0.19,0.15,1721199779528
1.05,3.11,14.98,0.13,-0.01,0.17,1721199779538
2.66,3.47,9.04,0.12,0.10,0.06,1721199779548
1.83,-1.57,9.37,-0.06,-0.06,-0.04,1721199779558
-1.72,1.66,7.88,0.14,-0.15,-0.04,1721199779568
0.74,-1.35,8.09,-0.13,0.29,0.01,1721199779578
1.30,-2.15,11.19,0.03,-0.07,0.13,1721199779588
1.19,-2.06,10.03,-0.09,0.12,0.04,1721199779598
1.48,2.12,14.27,0.00,0.16,-0.10,1721199779608
0.95,-0.18,7.48,-0.10,-0.00,-0.15,1721199779618
-1.53,0.88,12.29,-0.12,0.12,-0.15,1721199779628
-0.50,-6.12,6.06,-0.21,0.07,-0.07,1721199779638
-2.64,-2.32,11.48,-0.12,0.08,-0.14,1721199779648
-1.77,-2.76,8.29,-0.15,0.13,-0.12,1721199779658
-1.02,0.09,12.05,-0.19,0.14,-0.02,1721199779668
0.19,-2.60,7.38,-0.28,0.11,0.05,1721199779678
-0.61,-1.47,12.43,-0.42,0.14,-0.16,1721199779688
0.28,-2.21,11.43,-0.33,0.06,-0.21,1721199779698
-0.43,-4.13,5.96,-0.30,0.02,-0.10,1721199779708
-0.39,-0.90,10.14,-0.34,0.20,-0.17,1721199779718
-0.91,1.37,12.52,-0.22,0.11,-0.25,1721199779728
-1.82,-2.21,8.94,-0.31,0.12,-0.23,1721199779738
-2.86,2.44,13.56,-0.28,0.09,-0.12,1721199779748
-1.57,-0.18,10.43,-0.11,0.09,-0.02,1721199779758
0.53,0.82,10.15,-0.12,0.23,-0.05,1721199779768
1.53,1.05,10.58,-0.01,0.10,-0.11,1721199779778
1.02,0.75,11.42,-0.01,0.14,-0.31,1721199779788
0.26,1.10,12.49,0.09,0.17,-0.38,1721199779798
-0.74,1.41,11.97,0.12,0.18,-0.29,1721199779808
-1.71,-0.65,9.89,0.10,0.16,-0.20,1721199779818
-0.28,1.99,12.96,0.17,0.26,-0.15,1721199779828
1.06,1.97,9.03,0.34,0.14,-0.21,1721199779838
2.15,-2.81,8.17,0.13,0.21,-0.33,1721199779848
-0.85,0.77,11.54,0.31,0.17,-0.50,1721199779858
-1.07,-4.07,8.10,0.20,0.24,-0.45,1721199779868
-4.13,-1.37,10.58,0.23,0.25,-0.34,1721199779878
-2.32,-2.05,7.77,0.18,0.31,-0.24,1721199779888
-1.93,-3.34,9.79,0.08,0.15,-0.12,1721199779898
0.65,1.20,12.76,0.10,0.32,-0.21,1721199779908
0.52,-2.32,9.16,0.06,0.16,-0.32,1721199779918
-2.67,0.71,10.27,0.05,0.26,-0.37,1721199779928
-3.24,-3.98,7.29,0.02,0.17,-0.26,1721199779938
-4.24,-0.81,11.10,0.01,0.20,-0.04,1721199779948
-0.87,-2.11,9.57,-0.03,0.23,0.03,1721199779958
0.06,-1.51,11.16,0.02,0.16,0.01,1721199779968
0.51,1.16,12.62,-0.04,0.31,-0.11,1721199779978
-0.46,-0.50,11.21,0.04,0.10,-0.01,1721199779988
-2.26,2.02,11.11,0.01,0.24,0.05,1721199779998
-0.47,0.86,9.57,0.19,0.14,0.14,1721199780008
0.79,-0.86,9.16,0.12,0.17,0.23,1721199780018
1.24,0.55,11.20,0.15,0.22,0.18,1721199780028
1.20,2.54,11.79,0.14,0.29,0.03,1721199780038
-0.31,1.71,10.95,0.23,0.08,-0.02,1721199780048
-1.06,-3.62,8.73,0.16,0.14,0.14,1721199780058
-3.20,0.68,10.39,0.21,0.16,0.21,1721199780068
-1.22,2.59,10.91,0.20,0.29,0.27,1721199780078
0.67,1.84,12.85,0.19,0.18,0.29,1721199780088
-0.61,-0.03,7.97,0.22,0.12,0.19,1721199780098
-3.15,-1.12,8.69,0.15,0.13,0.24,1721199780108
-2.54,1.13,14.29,0.18,0.19,0.51,1721199780118
1.67,4.46,8.71,0.33,0.16,0.67,1721199780128
4.12,-2.85,4.83,-0.07,0.24,0.38,1721199780138
1.42,1.21,17.60,0.05,0.19,-0.02,1721199780148
-1.71,1.91,7.14,0.25,0.11,0.07,1721199780158
-4.07,-0.99,6.79,-0.15,0.21,0.39,1721199780168
-2.45,3.76,14.93,0.11,0.21,0.61,1721199780178
2.91,0.58,7.51,-0.07,0.24,0.53,1721199780188
2.71,0.17,12.81,-0.13,0.10,0.28,1721199780198
-1.63,1.62,9.08,0.00,0.01,0.17,1721199780208
-3.15,-4.83,7.27,-0.21,0.06,0.36,1721199780218
-3.98,0.63,12.15,-0.07,-0.04,0.62,1721199780228
0.93,-1.80,7.38,-0.30,0.17,0.71,1721199780238
0.54,-3.14,14.58,-0.23,-0.12,0.53,1721199780248
0.07,-2.96,8.71,-0.22,0.10,0.45,1721199780258
-0.02,-3.37,12.76,-0.38,-0.00,0.56,1721199780268
-1.26,-0.25,11.23,-0.09,-0.20,0.71,1721199780278
0.96,-0.41,7.39,-0.27,0.06,0.60,1721199780288
-1.28,-4.49,9.66,-0.44,-0.27,0.62,1721199780298
-0.96,-1.19,15.99,-0.36,0.23,0.61,1721199780308
0.78,-7.71,8.38,-0.41,-0.27,0.72,1721199780318
-3.62,2.03,6.27,-0.24,-0.16,0.57,1721199780328
2.63,0.22,11.37,-0.31,0.13,0.54,1721199780338
-1.88,-2.27,13.57,-0.47,-0.52,0.67,1721199780348
-2.38,4.54,11.82,-0.26,0.00,0.64,1721199780358
-0.54,-1.75,8.66,-0.27,-0.48,0.78,1721199780368
-0.11,0.14,11.21,-0.28,-0.08,0.77,1721199780378
3.90,5.57,14.81,-0.10,-0.23,0.86,1721199780388
1.84,-0.93,6.86,-0.24,-0.34,0.67,1721199780398
1.87,-1.06,14.65,-0.26,-0.00,0.41,1721199780408
0.77,1.00,10.16,0.09,-0.50,0.48,1721199780418
-0.99,-0.52,8.94,-0.05,-0.15,0.58,1721199780428
1.69,2.98,15.36,0.10,-0.06,0.53,1721199780438
0.27,-3.09,5.06,0.05,-0.47,0.39,1721199780448
-1.06,-2.23,12.08,-0.10,0.04,0.18,1721199780458
-0.79,-0.30,15.05,0.18,-0.43,0.27,1721199780468
-1.87,-4.98,3.92,0.02,-0.30,0.54,1721199780478
1.89,-1.43,15.77,-0.05,0.12,0.39,1721199780488
1.48,1.87,10.62,0.09,-0.47,0.17,1721199780498
0.30,-1.37,7.38,-0.11,-0.06,0.00,1721199780508
-0.27,1.32,13.90,-0.00,-0.23,0.09,1721199780518
-2.57,0.59,9.75,0.04,-0.38,0.37,1721199780528
0.43,2.03,9.36,0.04,-0.12,0.51,1721199780538
4.91,2.29,10.81,0.00,-0.25,0.32,1721199780548
2.79,4.42,9.49,0.05,-0.39,-0.01,1721199780558
1.56,-2.02,5.47,-0.04,-0.20,-0.28,1721199780568
-0.66,2.28,13.52,-0.05,-0.10,-0.34,1721199780578
-1.43,1.67,7.60,0.19,-0.13,-0.15,1721199780588
-0.72,-0.32,9.77,-0.07,0.01,-0.13,1721199780598
0.22,8.19,15.94,0.18,-0.17,-0.15,1721199780608
2.15,3.19,6.72,0.09,-0.01,-0.40,1721199780618
0.81,-0.39,14.13,-0.10,-0.15,-0.35,1721199780628
-5.49,6.10,6.95,0.42,-0.25,-0.62,1721199780638
-5.21,1.47,6.14,0.06,-0.03,-0.42,1721199780648
-5.40,0.21,15.80,0.15,-0.18,0.01,1721199780658
-1.36,4.16,13.18,0.15,-0.06,0.31,1721199780668
3.28,1.56,5.41,0.13,-0.16,0.04,1721199780678
5.73,-0.49,10.41,-0.02,-0.01,-0.30,1721199780688
4.08,0.81,9.69,0.17,-0.11,-0.70,1721199780698
-1.27,-2.33,8.18,0.05,-0.10,-0.79,1721199780708
-5.62,-3.78,9.69,0.04,-0.18,-0.43,1721199780718
-4.71,-0.42,12.46,0.08,-0.02,-0.08,1721199780728
-0.56,-0.70,10.27,-0.01,-0.07,0.05,1721199780738
1.84,1.24,10.30,0.08,-0.12,-0.12,1721199780748
3.02,-1.86,7.13,-0.08,-0.03,-0.36,1721199780758
-0.79,-2.75,12.78,-0.17,-0.15,-0.45,1721199780768
-1.43,-0.51,13.65,-0.09,0.01,-0.20,1721199780778
-1.05,-1.19,5.00,-0.17,-0.14,-0.08,1721199780788
0.88,-1.26,13.21,-0.30,0.07,-0.17,1721199780798
2.34,1.55,13.50,-0.07,-0.13,-0.25,1721199780808
0.99,-4.84,4.64,-0.31,-0.06,-0.37,1721199780818
-1.63,-0.20,14.21,-0.10,-0.07,-0.32,1721199780828
0.51,0.93,6.36,0.01,0.04,-0.14,1721199780838
0.18,-5.35,7.45,-0.25,0.11,-0.21,1721199780848
-3.06,1.96,15.47,-0.02,0.05,-0.26,1721199780858
-2.30,-1.06,7.37,-0.04,0.01,-0.11,1721199780868
-0.42,1.71,10.67,0.01,0.06,0.10,1721199780878
5.55,2.61,11.37,0.09,0.18,0.04,1721199780888
4.67,-0.33,11.88,-0.06,-0.05,-0.32,1721199780898
-0.12,-0.06,9.79,0.11,-0.05,-0.43,1721199780908
-2.55,-3.38,6.32,-0.03,0.23,-0.55,1721199780918
-2.07,1.71,14.99,0.04,0.09,-0.28,1721199780928
-0.80,2.15,7.72,0.15,0.10,-0.18,1721199780938
0.79,-3.00,10.02,-0.08,0.17,-0.35,1721199780948
-1.34,-0.60,11.94,0.11,0.02,-0.48,1721199780958
-0.29,-0.28,10.65,-0.02,0.24,-0.45,1721199780968
-2.24,1.52,13.40,0.13,-0.07,-0.33,1721199780978
-1.69,0.16,4.94,0.07,0.19,-0.30,1721199780988
-0.93,-2.31,14.00,-0.09,0.09,-0.53,1721199780998
-1.87,1.53,12.37,0.19,0.04,-0.53,1721199781008
-1.24,-4.54,4.83,-0.04,0.16,-0.43,1721199781018
-3.48,-0.93,13.30,0.09,0.15,-0.28,1721199781028
-0.38,-0.60,8.01,0.17,0.18,-0.15,1721199781038
-0.51,-0.91,12.78,-0.06,0.11,-0.35,1721199781048
-1.50,7.08,14.21,0.26,-0.01,-0.33,1721199781058
0.36,-2.22,3.80,-0.00,0.12,-0.21,1721199781068
-1.61,0.11,15.54,-0.03,0.17,-0.22,1721199781078
0.87,0.68,9.69,0.18,0.15,-0.14,1721199781088
0.77,-3.65,6.86,0.04,0.07,-0.12,1721199781098
-1.17,5.17,16.58,0.18,0.21,-0.21,1721199781108
0.92,6.90,6.65,0.39,0.18,-0.11,1721199781118
-0.72,-4.20,7.28,-0.01,0.07,-0.18,1721199781128
-2.12,2.26,15.78,0.30,0.12,-0.24,1721199781138
-1.25,-0.78,8.01,0.12,0.29,-0.15,1721199781153
-1.07,1.76,13.77,0.14,0.21,-0.09,1721199781158
-0.94,4.92,10.41,0.39,0.09,-0.11,1721199781168
0.55,4.52,8.13,0.20,0.33,-0.23,1721199781178
0.12,-4.34,11.30,0.04,0.13,-0.25,1721199781188
-3.31,1.83,12.12,0.33,0.10,-0.18,1721199781198
-0.49,-1.46,5.19,0.14,0.27,-0.00,1721199781208
0.90,2.68,12.75,0.10,0.17,0.02,1721199781218
2.01,2.68,10.54,0.18,0.23,-0.21,1721199781228
0.04,-2.80,7.85,-0.09,0.16,-0.37,1721199781238
-4.02,-2.75,12.31,0.05,0.06,-0.16,1721199781248
-1.47,-1.80,3.12,0.10,0.18,0.13,1721199781258
2.80,-0.39,13.16,-0.17,0.37,0.14,1721199781268
2.56,2.46,13.81,0.09,0.06,-0.14,1721199781278
0.55,-2.85,4.56,-0.22,0.07,-0.30,1721199781288
-2.85,-2.17,12.25,-0.20,0.08,-0.13,1721199781298
1.82,-5.26,12.92,-0.18,0.41,0.07,1721199781308
0.16,-1.27,8.07,-0.07,0.06,-0.01,1721199781318
-0.70,-2.63,8.28,-0.37,0.29,-0.25,1721199781328
-2.24,2.16,17.24,-0.19,0.06,-0.09,1721199781338
-2.69,-0.28,5.66,-0.23,0.07,0.14,1721199781348
-0.54,-3.18,7.58,-0.35,0.27,0.09,1721199781358
1.33,-5.57,13.47,-0.27,0.20,0.10,1721199781368
0.18,-1.63,9.73,-0.21,-0.02,0.12,1721199781378
0.02,4.58,11.72,-0.16,0.31,-0.08,1721199781388
-0.60,-1.71,11.97,-0.22,0.14,-0.17,1721199781398
-4.30,1.41,11.37,-0.09,-0.03,-0.02,1721199781408
-1.70,0.18,11.87,-0.01,0.22,0.17,1721199781418
-0.80,-0.83,7.24,-0.01,-0.08,0.28,1721199781428
1.25,-1.41,10.10,0.03,0.27,0.17,1721199781438
2.42,3.99,16.03,0.18,0.18,-0.08,1721199781448
-2.13,-0.84,6.08,0.17,-0.27,-0.04,1721199781458
-4.03,-4.71,10.61,-0.04,0.34,0.05,1721199781468
-0.86,8.73,16.32,0.44,0.15,0.17,1721199781478
0.49,-7.83,2.49,-0.01,-0.11,0.15,1721199781488
-0.84,-5.61,16.18,-0.11,0.43,-0.05,1721199781498
-0.75,1.47,11.08,0.38,0.10,-0.11,1721199781508
-1.94,-3.68,5.63,-0.09,0.01,-0.02,1721199781518
-4.25,4.95,14.49,0.18,-0.10,0.11,1721199781528
1.40,-1.15,4.55,0.13,0.13,0.15,1721199781538
1.42,-2.42,10.46,-0.08,-0.01,-0.03,1721199781548
-0.46,-3.82,9.74,0.00,0.05,-0.13,1721199781558
-4.58,-1.68,5.98,0.05,-0.03,-0.18,1721199781568
-2.88,2.70,12.85,-0.03,0.40,-0.05,1721199781578
-0.69,2.39,10.54,0.04,-0.08,0.05,1721199781588
-1.02,2.79,10.88,-0.15,0.10,0.00,1721199781598
-0.02,1.58,9.63,0.02,0.00,-0.04,1721199781608
-0.46,0.51,11.20,-0.05,0.08,-0.09,1721199781618
-1.25,2.32,10.84,0.12,-0.10,-0.08,1721199781628
-1.98,2.61,5.35,0.14,-0.07,-0.09,1721199781638
-1.40,5.28,13.72,0.07,0.15,-0.10,1721199781648
-2.88,-0.86,9.50,-0.06,-0.19,-0.04,1721199781658
-4.84,4.02,13.55,-0.06,0.11,0.02,1721199781668
-0.15,0.83,5.18,0.08,-0.10,0.23,1721199781678
0.79,-1.20,11.70,-0.18,0.02,0.27,1721199781688
0.39,10.66,11.18,0.32,-0.08,0.12,1721199781698
2.19,-1.87,6.23,-0.23,-0.00,-0.02,1721199781708
-4.65,2.09,13.30,-0.02,-0.57,0.10,1721199781718
-1.75,-1.08,6.36,-0.07,0.19,0.30,1721199781728
-0.28,4.32,14.88,0.02,-0.11,0.40,1721199781738
0.34,3.69,5.79,-0.01,-0.19,0.26,1721199781748
-1.30,-2.21,10.25,-0.22,-0.06,-0.12,1721199781758
-4.14,0.83,9.06,0.01,-0.18,0.03,1721199781768
-3.71,-9.07,8.52,-0.33,-0.11,0.34,1721199781778
-3.25,1.26,15.91,0.05,-0.32,0.83,1721199781788
3.81,-0.37,6.25,-0.07,0.05,0.77,1721199781798
2.55,1.45,13.53,-0.12,-0.27,0.24,1721199781808
0.63,-0.21,12.38,-0.08,-0.22,0.06,1721199781818
-3.02,-4.07,4.97,0.01,-0.40,0.38,1721199781828
-0.98,-5.87,10.91,-0.08,-0.00,0.69,1721199781838
3.59,2.16,14.65,0.19,-0.21,0.78,1721199781848
4.87,0.57,6.32,0.05,-0.23,0.39,1721199781858
3.64,-2.45,9.58,-0.17,-0.06,-0.01,1721199781868
-1.67,-2.38,14.41,-0.01,-0.27,0.02,1721199781878
-1.75,-1.16,12.62,-0.02,0.02,0.31,1721199781888
1.92,-4.99,8.80,0.09,-0.32,0.69,1721199781898
3.88,0.34,7.00,0.08,-0.08,0.42,1721199781908
6.29,2.26,16.29,-0.01,0.04,-0.01,1721199781918
1.29,2.21,9.01,0.24,-0.39,-0.22,1721199781928
0.46,-13.14,4.24,-0.20,0.11,-0.16,1721199781938
-1.62,-3.34,17.64,0.22,-0.17,0.28,1721199781948
0.69,0.41,6.18,0.13,0.06,0.31,1721199781958
3.79,4.08,16.03,-0.05,0.16,0.03,1721199781968
3.18,2.01,6.69,0.04,-0.24,-0.27,1721199781978
1.08,-5.00,14.81,-0.22,0.19,-0.46,1721199781988
-2.71,-3.30,14.16,0.05,-0.17,-0.30,1721199781998
-3.63,-1.39,1.03,0.14,0.03,0.10,1721199782008
2.96,-1.37,12.03,0.01,0.40,0.11,1721199782018
3.93,7.88,14.70,0.28,-0.03,-0.23,1721199782028
0.15,-0.19,6.26,-0.04,-0.02,-0.49,1721199782038
-2.76,1.46,15.36,0.13,0.14,-0.42,1721199782048
0.55,-5.06,9.77,0.12,0.20,-0.14,1721199782058
-2.79,11.18,11.27,0.47,0.08,-0.13,1721199782068
-0.24,5.71,0.19,0.36,0.18,-0.27,1721199782078
-1.01,0.33,14.23,-0.00,0.12,-0.45,1721199782088
-2.76,1.62,13.23,0.23,0.11,-0.38,1721199782098
-2.55,-1.88,7.75,0.09,0.10,-0.07,1721199782108
-1.28,5.66,11.77,0.22,0.16,0.03,1721199782118
2.21,2.35,7.59,0.13,0.19,-0.28,1721199782128
-1.42,0.99,7.92,0.05,-0.05,-0.43,1721199782138
-4.82,-3.80,13.12,-0.16,0.09,-0.30,1721199782148
-5.66,0.27,12.49,0.19,-0.05,0.09,1721199782158
-0.77,-0.59,5.75,-0.04,0.15,0.38,1721199782168
3.30,4.60,11.66,0.00,0.08,0.22,1721199782178
4.39,-2.51,6.20,-0.12,-0.06,-0.20,1721199782188
0.43,-6.04,11.75,-0.25,0.07,-0.39,1721199782198
-1.62,1.29,12.60,0.01,0.06,-0.07,1721199782208
-0.30,-1.40,6.07,-0.11,-0.04,0.20,1721199782218
2.34,-1.21,12.95,-0.22,0.08,0.06,1721199782228
3.35,-5.02,11.86,-0.18,0.05,-0.16,1721199782238
-1.19,-1.23,8.70,-0.19,-0.05,-0.29,1721199782248
-2.74,-2.08,13.11,-0.25,0.21,-0.28,1721199782258
-3.46,1.08,8.62,0.02,-0.10,0.07,1721199782268
-0.87,-3.31,10.15,-0.32,0.20,0.26,1721199782278
2.69,7.35,16.08,0.09,0.15,0.09,1721199782288
5.45,-6.30,3.86,-0.17,-0.00,-0.12,1721199782298
-0.60,0.39,12.77,-0.07,0.16,-0.57,1721199782308
-2.64,2.98,8.26,0.21,0.11,-0.57,1721199782318
-4.79,1.49,13.83,-0.06,0.25,-0.29,1721199782328
-3.72,-2.21,9.97,0.14,-0.10,0.21,1721199782338
-0.44,-3.55,4.88,0.03,0.26,0.06,1721199782348
3.52,-1.76,15.76,0.08,0.26,-0.32,1721199782358
0.06,0.18,8.63,0.19,0.04,-0.45,1721199782368
-2.52,0.01,11.15,-0.02,0.32,-0.29,1721199782378
-3.30,-3.32,12.13,0.05,0.07,-0.11,1721199782388
-1.10,1.30,9.08,0.10,0.08,0.02,1721199782398
4.00,-2.18,10.42,-0.01,0.27,-0.22,1721199782408
-0.53,1.55,7.03,0.24,-0.26,-0.38,1721199782418
-2.38,-3.99,6.40,-0.14,0.49,-0.40,1721199782428
-1.85,6.33,18.99,0.20,0.18,-0.31,1721199782438
-0.92,0.69,5.23,-0.00,0.15,-0.08,1721199782448
-0.41,3.15,17.50,0.06,0.39,-0.22,1721199782458
-0.50,1.77,4.21,0.24,-0.14,-0.29,1721199782468
-1.38,0.96,12.08,-0.13,0.31,-0.37,1721199782478
-1.69,5.42,13.58,0.22,0.11,-0.43,1721199782488
-3.95,2.36,7.40,-0.07,0.21,-0.46,1721199782498
-4.42,2.87,12.61,0.18,0.07,-0.09,1721199782508
-3.43,1.88,5.31,0.13,0.13,0.00,1721199782518
-0.71,1.58,12.16,0.09,0.15,0.02,1721199782528
0.59,2.21,10.88,0.09,0.09,0.07,1721199782538
-1.84,-0.50,10.17,-0.02,-0.10,0.04,1721199782548
-4.36,2.11,6.65,0.07,-0.11,-0.04,1721199782558
-2.08,-2.86,8.49,-0.11,0.10,0.04,1721199782568
-2.00,0.02,13.58,0.05,0.04,0.30,1721199782578
-0.27,-0.02,6.11,-0.03,0.04,0.38,1721199782588
2.28,2.48,17.48,-0.02,0.23,0.24,1721199782598
-1.47,0.28,6.22,0.11,-0.39,0.17,1721199782608
-4.62,-1.13,7.86,-0.24,-0.02,0.24,1721199782618
-2.54,2.43,12.56,0.06,-0.10,0.36,1721199782628
0.53,-5.91,5.42,-0.27,-0.02,0.45,1721199782638
-1.73,1.49,15.06,-0.07,-0.12,0.23,1721199782648
0.51,-2.95,7.79,-0.17,-0.09,0.40,1721199782658
1.04,2.84,11.90,-0.07,-0.03,0.43,1721199782668
2.71,2.71,9.30,-0.05,0.03,0.25,1721199782678
0.94,-1.85,12.82,-0.20,-0.31,0.11,1721199782688
-2.49,-6.77,6.84,-0.03,-0.43,0.34,1721199782698
-0.29,-1.92,12.37,-0.07,0.26,0.55,1721199782708
3.03,1.70,12.36,0.04,-0.26,0.59,1721199782718
1.44,0.54,10.19,-0.15,-0.20,0.38,1721199782728
-0.39,-0.73,11.33,-0.04,-0.30,0.12,1721199782738
0.63,-6.81,11.29,-0.09,-0.13,0.23,1721199782748
-1.15,-5.58,6.97,0.06,-0.32,0.50,1721199782758
1.54,0.57,10.34,-0.04,0.12,0.52,1721199782768
2.81,6.67,14.67,0.13,-0.21,0.14,1721199782778
2.78,-5.47,8.10,-0.09,-0.21,0.05,1721199782788
-2.05,1.85,16.32,0.06,-0.14,-0.01,1721199782798
-0.73,-4.91,6.41,0.01,-0.18,0.25,1721199782808
-2.82,3.31,13.52,0.07,-0.21,0.33,1721199782818
3.56,4.81,7.83,0.25,-0.05,0.32,1721199782828
4.33,-4.00,7.38,-0.02,-0.13,0.03,1721199782838
0.63,0.99,14.45,0.06,-0.04,-0.19,1721199782848
-2.01,3.56,7.76,0.18,-0.13,-0.14,1721199782858
-0.76,6.04,14.98,0.20,0.01,0.23,1721199782868
1.67,4.08,8.16,0.35,-0.25,0.16,1721199782878
1.37,1.61,8.83,0.16,-0.06,-0.10,1721199782888
-1.20,-1.42,9.28,0.07,-0.15,-0.28,1721199782898
-4.85,4.21,12.11,0.27,-0.18,-0.14,1721199782908
-0.80,2.54,6.10,0.24,0.00,0.22,1721199782918
2.13,6.13,12.25,0.27,-0.00,0.09,1721199782928
1.68,1.74,3.96,0.16,-0.18,-0.20,1721199782938
-0.01,1.35,19.31,-0.03,0.08,-0.27,1721199782948
-0.51,-1.45,6.11,0.41,-0.30,0.02,1721199782958
-0.19,4.27,7.72,0.11,0.14,-0.16,1721199782968
0.72,1.38,5.92,0.19,-0.25,-0.28,1721199782978
-2.00,-1.79,14.87,-0.12,-0.09,-0.38,1721199782988
-1.41,-2.28,8.66,0.24,-0.21,0.04,1721199782998
1.19,-5.18,6.11,-0.10,0.09,-0.01,1721199783008
0.39,-1.13,15.42,0.08,-0.19,-0.15,1721199783018
0.53,-2.22,2.25,-0.02,-0.18,-0.17,1721199783028
0.40,-1.58,13.64,-0.21,0.04,-0.09,1721199783038
1.48,-0.20,17.12,0.05,-0.05,0.02,1721199783048
3.67,0.16,12.61,-0.10,0.09,-0.01,1721199783058
3.31,0.17,10.48,0.03,-0.13,-0.15,1721199783068
-0.47,-5.83,0.80,-0.22,-0.25,-0.31,1721199783078
-3.97,-2.96,17.09,-0.29,0.08,-0.40,1721199783088
-2.81,-0.15,11.21,0.17,-0.08,-0.02,1721199783098
-2.15,-0.96,9.01,-0.30,0.12,0.14,1721199783108
-0.18,6.38,17.79,0.15,-0.12,0.08,1721199783118
3.65,-4.80,3.98,-0.25,-0.07,-0.12,1721199783128
-1.48,-1.67,17.98,-0.07,-0.38,-0.33,1721199783138
-2.87,-4.84,2.66,0.05,-0.25,-0.17,1721199783148
-3.35,3.56,18.58,0.20,-0.24,0.01,1721199783163
-0.86,-1.73,7.18,0.17,-0.39,0.10,1721199783168
0.23,-4.87,6.87,-0.26,0.13,-0.03,1721199783178
2.69,1.79,19.18,0.08,-0.01,-0.19,1721199783188
3.38,-2.24,4.64,0.11,-0.17,-0.20,1721199783198
-0.31,0.39,11.32,-0.12,-0.02,-0.33,1721199783208
0.16,-0.29,8.60,0.10,-0.11,-0.27,1721199783218
0.42,-3.35,8.14,-0.22,0.06,-0.34,1721199783228
0.02,3.18,16.13,0.07,0.08,-0.43,1721199783238
-0.17,-0.19,5.76,0.07,-0.03,-0.39,1721199783248
-0.10,1.51,11.82,-0.02,0.17,-0.40,1721199783258
1.20,6.61,11.60,0.20,0.10,-0.44,1721199783268
1.12,1.99,11.50,-0.09,0.12,-0.55,1721199783278
-4.01,2.05,10.87,0.15,-0.27,-0.53,1721199783288
-3.54,2.21,4.28,0.01,0.09,-0.47,1721199783298
-1.46,1.20,16.12,-0.03,0.21,-0.35,1721199783308
-2.04,3.04,9.95,0.14,-0.14,-0.37,1721199783318
-2.15,7.61,10.14,0.10,0.17,-0.58,1721199783328
-0.18,0.25,6.87,0.15,-0.10,-0.41,1721199783338
-2.71,6.42,14.33,0.10,0.32,-0.12,1721199783348
0.58,1.88,3.94,0.14,-0.08,-0.18,1721199783358
1.47,1.78,11.81,-0.14,0.15,-0.42,1721199783368
10.54,-2.16,18.20,0.40,0.21,0.25,1721199783378
10.29,-0.43,-2.84,-0.07,0.23,-0.84,1721199783388
2.28,-2.67,19.15,-0.36,0.10,-1.76,1721199783398
-14.34,1.27,5.89,0.42,-0.16,-1.47,1721199783408
-20.12,-7.97,-1.95,-0.19,0.21,-0.26,1721199783418
-15.19,1.03,12.48,-0.10,0.18,0.77,1721199783428
3.60,-2.28,13.07,-0.30,0.53,1.02,1721199783438
10.55,5.04,19.64,-0.02,0.16,0.24,1721199783448
9.85,-4.27,-0.38,-0.19,-0.23,-0.50,1721199783458
4.05,0.06,13.59,-0.47,0.28,-0.89,1721199783468
-3.37,5.66,13.78,0.09,0.13,-0.73,1721199783478
-7.71,-3.78,5.68,-0.26,-0.05,-0.08,1721199783488
-7.11,-1.00,13.53,-0.01,0.02,0.37,1721199783498
3.29,-4.67,7.20,-0.13,0.19,0.43,1721199783508
5.15,6.58,17.07,0.02,0.09,0.05,1721199783518
5.79,1.73,11.26,-0.00,0.03,-0.32,1721199783528
-4.92,1.00,7.09,0.12,-0.35,-0.40,1721199783538
-5.61,-4.95,10.53,-0.03,0.27,0.04,1721199783548
0.02,2.97,15.38,0.13,0.13,0.49,1721199783558
5.18,4.19,7.37,0.20,0.02,0.35,1721199783568
5.29,-3.35,8.64,-0.08,0.08,-0.22,1721199783578
-1.16,3.07,14.39,0.20,-0.03,-0.73,1721199783588
-3.84,-3.51,6.02,0.15,0.04,-0.36,1721199783598
-4.41,-0.81,13.67,0.12,0.11,0.20,1721199783608
2.53,1.58,10.90,0.21,0.17,0.30,1721199783618
2.91,3.25,7.20,0.14,0.03,-0.25,1721199783628
0.60,-1.65,11.69,-0.03,0.11,-0.59,1721199783638
-4.33,-5.40,11.02,0.05,-0.08,-0.38,1721199783648
-4.96,-2.12,12.27,0.10,0.15,0.07,1721199783658
0.81,-1.43,6.20,0.02,0.13,0.26,1721199783668
3.28,3.26,13.13,0.06,0.08,0.02,1721199783678
4.62,0.00,7.48,-0.06,0.17,-0.35,1721199783688
-1.14,-6.56,10.98,-0.25,-0.01,-0.46,1721199783698
-4.25,4.47,13.13,0.25,0.08,-0.22,1721199783708
1.65,-5.38,1.11,-0.19,0.27,0.20,1721199783718
1.40,5.37,17.89,-0.03,0.16,0.04,1721199783728
4.42,2.89,12.78,0.04,0.22,-0.56,1721199783738
-2.04,0.32,9.60,0.09,-0.09,-0.37,1721199783748
-2.84,-0.38,6.92,-0.06,0.37,-0.10,1721199783758
-0.91,2.72,15.75,0.05,0.20,-0.18,1721199783768
-1.88,2.88,2.93,0.28,-0.09,-0.28,1721199783778
0.97,-2.56,13.44,-0.18,0.59,-0.34,1721199783788
-2.21,4.89,15.86,0.28,-0.06,-0.19,1721199783798
-1.76,5.13,9.67,-0.01,0.43,-0.14,1721199783808
-0.74,-0.44,11.33,0.16,0.08,-0.07,1721199783818
0.15,1.50,6.65,0.27,0.21,-0.10,1721199783828
2.40,-1.41,7.26,0.10,0.35,-0.29,1721199783838
-1.37,9.25,14.63,0.43,0.08,-0.29,1721199783848
-1.22,0.73,3.72,0.10,0.18,-0.14,1721199783858
-2.24,2.23,11.48,0.12,0.09,-0.06,1721199783868
2.36,-3.11,9.31,-0.04,0.40,-0.25,1721199783878
1.71,-2.03,16.66,0.12,0.12,-0.42,1721199783888
-2.23,1.30,1.30,0.16,0.10,-0.40,1721199783898
-2.90,4.26,13.98,-0.07,0.46,-0.42,1721199783908
-0.91,-2.36,6.01,0.15,0.05,-0.17,1721199783918
-0.10,-0.27,17.55,-0.20,0.51,-0.18,1721199783928
1.46,0.82,12.72,0.30,0.15,-0.36,1721199783938
-0.21,0.15,5.76,-0.01,0.26,-0.42,1721199783948
-2.04,0.42,10.49,-0.09,0.28,-0.36,1721199783958
-1.89,-3.05,2.89,-0.19,0.17,-0.29,1721199783968
-1.41,-4.76,15.47,-0.28,0.34,-0.23,1721199783978
-1.16,2.93,11.67,0.16,0.25,-0.28,1721199783988
-1.02,2.33,3.86,-0.14,0.30,-0.20,1721199783998
-2.63,0.57,10.92,-0.30,0.21,-0.19,1721199784008
0.34,-4.88,15.99,-0.28,0.43,-0.21,1721199784018
0.88,-3.98,10.92,-0.00,0.14,-0.13,1721199784028
-2.25,1.59,5.86,-0.08,0.20,-0.17,1721199784038
-3.55,1.88,11.38,-0.10,0.29,-0.12,1721199784048
-2.89,2.76,13.69,-0.05,0.21,-0.07,1721199784058
0.26,-0.53,8.25,-0.16,0.17,0.01,1721199784068
0.19,-1.36,12.01,-0.11,0.24,0.06,1721199784078
-2.08,-0.44,2.06,0.07,0.05,-0.09,1721199784088
-2.79,0.18,14.78,-0.19,0.40,-0.09,1721199784098
-3.88,1.36,11.30,0.09,-0.10,0.12,1721199784108
-2.97,-1.24,12.33,-0.32,0.31,0.24,1721199784118
-2.72,1.35,12.46,-0.02,0.02,0.29,1721199784128
1.42,-0.69,8.64,-0.09,0.31,0.25,1721199784138
2.43,-2.13,14.36,0.02,0.23,0.14,1721199784148
0.62,2.59,14.32,0.07,0.20,0.01,1721199784158
-0.47,3.55,10.56,0.11,0.09,0.10,1721199784168
-3.22,5.33,9.31,0.09,-0.04,0.31,1721199784178
-0.75,1.95,8.77,0.07,-0.04,0.47,1721199784188
1.73,-5.18,9.86,-0.13,-0.03,0.32,1721199784198
1.05,-3.06,8.44,0.18,-0.19,0.08,1721199784208
-0.05,-6.19,4.96,-0.05,0.10,-0.07,1721199784218
-4.22,-4.56,9.86,-0.02,-0.21,0.09,1721199784228
-4.82,-1.17,9.77,0.05,0.00,0.29,1721199784238
-0.23,-0.71,12.30,-0.02,0.08,0.36,1721199784248
1.57,-3.17,10.51,-0.16,-0.03,0.28,1721199784258
-1.30,0.98,9.55,-0.00,-0.08,0.06,1721199784268
0.54,-2.48,13.46,-0.21,0.21,-0.03,1721199784278
-4.13,1.95,6.19,0.13,-0.43,0.24,1721199784288
-0.79,-2.57,13.54,-0.28,0.39,0.36,1721199784298
-0.35,4.87,13.33,0.11,-0.37,0.47,1721199784308
2.13,4.16,10.47,-0.25,0.20,0.33,1721199784318
2.13,2.33,13.72,0.04,-0.28,0.08,1721199784328
-0.05,-4.64,3.46,-0.13,-0.09,0.13,1721199784338
-0.64,4.10,22.13,0.07,0.05,0.34,1721199784348
0.60,8.42,4.86,0.42,-0.37,0.47,1721199784358
4.83,4.75,11.93,-0.23,0.37,0.17,1721199784368
3.10,1.68,11.36,0.10,-0.51,-0.04,1721199784378
-3.19,-1.61,7.86,-0.18,-0.00,-0.15,1721199784388
-2.70,2.52,9.10,0.25,-0.21,0.16,1721199784398
0.59,0.52,7.12,-0.07,0.05,0.34,1721199784408
3.46,9.76,17.87,0.14,0.01,0.04,1721199784418
4.00,2.84,6.63,-0.12,-0.16,-0.51,1721199784428
-4.96,0.06,13.62,-0.28,-0.31,-0.58,1721199784438
-6.18,4.62,11.34,0.15,-0.02,0.06,1721199784448
-0.98,-0.60,0.08,0.00,0.03,0.51,1721199784458
3.25,4.97,8.22,0.24,0.08,0.24,1721199784468
6.22,-3.39,6.04,-0.07,-0.01,-0.30,1721199784478
-2.05,6.34,18.67,0.01,-0.09,-0.59,1721199784488
-3.69,-4.95,4.53,-0.09,-0.15,-0.13,1721199784498
-6.11,4.51,16.28,-0.02,0.06,0.32,1721199784508
2.15,0.88,3.61,0.05,0.02,0.30,1721199784518
3.92,-0.00,12.21,-0.15,0.09,-0.15,1721199784528
0.91,-6.04,7.49,-0.05,-0.21,-0.47,1721199784538
-5.51,-0.54,12.27,-0.07,0.05,-0.28,1721199784548
-3.70,2.44,9.30,0.05,0.05,0.09,1721199784558
-0.65,8.40,12.84,0.08,0.05,0.02,1721199784568
1.81,-12.41,4.44,-0.25,-0.18,-0.04,1721199784578
-5.36,4.06,18.59,-0.09,0.05,-0.20,1721199784588
-1.58,-6.44,2.20,-0.01,-0.19,-0.03,1721199784598
-2.42,-1.24,16.17,-0.23,0.18,0.21,1721199784608
1.81,3.41,9.49,0.14,-0.10,0.08,1721199784618
2.73,-0.64,8.80,-0.24,0.05,-0.09,1721199784628
-1.58,-6.31,15.72,-0.25,-0.15,-0.11,1721199784638
-4.28,6.06,7.46,0.08,-0.11,0.16,1721199784648
0.12,-3.46,7.23,-0.17,0.10,0.24,1721199784658
1.91,-2.62,14.40,0.00,-0.18,0.27,1721199784668
3.65,-1.75,9.75,-0.04,0.07,0.05,1721199784678
-0.08,2.70,9.59,0.09,-0.16,0.05,1721199784688
-1.72,1.84,14.08,-0.07,0.10,0.11,1721199784698
-0.23,12.57,11.52,0.23,-0.15,0.21,1721199784708
2.29,-7.13,7.14,-0.24,-0.06,0.14,1721199784718
-0.82,-1.32,15.54,0.03,-0.24,-0.06,1721199784728
1.42,-9.80,1.63,-0.09,0.03,0.04,1721199784738
-2.77,2.43,13.37,0.08,-0.04,0.17,1721199784748
1.30,4.16,9.63,0.18,0.11,0.07,1721199784758
-0.56,3.13,12.84,-0.04,-0.23,0.01,1721199784768
-1.48,0.43,10.11,-0.11,-0.06,0.17,1721199784778
-0.43,-3.42,10.57,-0.19,-0.08,0.28,1721199784788
1.87,-3.97,9.96,-0.02,-0.10,0.19,1721199784798
2.32,-4.42,5.85,-0.03,-0.02,0.02,1721199784808
0.46,2.26,12.45,-0.04,0.04,-0.10,1721199784818
-1.83,-0.63,13.28,-0.15,-0.16,-0.06,1721199784828
-2.20,5.19,10.68,0.06,-0.15,0.29,1721199784838
2.83,-3.23,6.75,-0.04,0.14,0.32,1721199784848
1.76,1.45,11.08,0.19,-0.21,0.13,1721199784858
0.60,0.36,8.66,0.02,-0.01,-0.21,1721199784868
-2.66,-0.57,10.01,0.10,-0.31,-0.17,1721199784878
-3.17,-3.53,10.66,-0.04,0.06,0.08,1721199784888
-1.27,8.65,14.67,0.23,0.01,0.13,1721199784898
1.89,2.14,6.01,0.05,-0.11,0.14,1721199784908
2.05,1.66,16.90,-0.11,0.08,-0.09,1721199784918
2.36,-0.75,11.74,0.07,-0.09,-0.23,1721199784928
0.03,2.19,10.36,0.03,0.07,-0.16,1721199784938
-1.78,-0.25,8.16,0.11,-0.13,-0.15,1721199784948
-2.99,4.01,9.81,0.25,-0.10,0.02,1721199784958
1.31,1.70,7.81,0.09,0.09,0.13,1721199784968
2.86,3.41,9.79,0.15,-0.05,0.15,1721199784978
3.73,-1.88,9.22,-0.10,0.14,-0.22,1721199784988
0.46,5.05,16.10,0.18,-0.08,-0.44,1721199784998
-1.44,-2.76,4.95,-0.03,-0.08,-0.26,1721199785008
-2.64,-0.09,13.11,-0.04,-0.00,0.07,1721199785018
1.43,4.76,7.53,0.06,0.06,0.05,1721199785028
3.05,3.15,9.87,-0.09,0.15,-0.22,1721199785038
0.92,-4.32,9.98,-0.10,-0.11,-0.45,1721199785048
-2.44,0.05,10.01,0.04,0.04,-0.38,1721199785058
-1.08,-3.90,9.29,-0.10,0.18,-0.17,1721199785068
-1.60,2.18,10.50,0.07,-0.09,-0.03,1721199785078
1.20,-0.14,7.88,-0.10,0.24,-0.20,1721199785088
0.95,1.51,15.38,-0.04,0.06,-0.35,1721199785098
-1.42,-1.67,3.09,-0.06,-0.16,-0.20,1721199785108
-0.79,-1.46,12.84,-0.23,0.37,-0.18,1721199785118
0.95,-2.91,12.00,-0.07,-0.04,-0.17,1721199785128
-1.05,0.67,10.08,-0.17,0.07,-0.33,1721199785138
-0.95,-1.91,11.24,-0.24,0.11,-0.38,1721199785148
-2.83,-2.65,11.88,-0.30,0.03,-0.26,1721199785158
-0.23,-6.06,6.33,-0.22,0.02,-0.09,1721199785173
2.32,-1.78,14.17,-0.19,0.33,-0.21,1721199785178
-1.09,4.47,10.47,-0.02,-0.13,-0.24,1721199785188
-0.78,2.90,9.84,-0.10,0.34,-0.44,1721199785198
-0.49,-2.34,12.48,-0.10,-0.03,-0.30,1721199785208
-2.35,0.34,11.78,-0.06,0.21,-0.29,1721199785218
-2.02,0.39,8.71,0.08,0.10,-0.23,1721199785228
-3.90,-1.27,11.18,-0.00,0.14,-0.26,1721199785238
-1.28,5.58,12.03,0.20,0.15,-0.04,1721199785248
1.75,-1.95,13.98,-0.12,0.20,-0.01,1721199785258
0.08,6.34,13.45,0.16,0.20,-0.27,1721199785268
1.42,-6.06,10.96,-0.07,0.17,-0.34,1721199785278
-6.19,1.35,9.61,0.23,-0.29,-0.25,1721199785288
-1.81,-1.33,6.86,0.16,0.45,-0.13,1721199785298
-0.44,-1.08,12.03,0.10,-0.06,0.01,1721199785308
-1.49,2.68,7.87,0.17,0.05,-0.07,1721199785318
0.73,-4.50,7.44,0.01,0.08,-0.12,1721199785328
-1.27,-0.61,9.05,0.14,-0.01,-0.10,1721199785338
0.78,-4.33,11.70,-0.11,0.37,-0.20,1721199785348
-2.87,4.73,11.98,0.17,-0.20,-0.11,1721199785358
-1.72,-4.07,2.95,-0.17,0.19,-0.06,1721199785368
-1.91,3.93,19.77,0.05,0.12,-0.12,1721199785378
-0.09,-4.30,6.40,-0.06,-0.14,0.09,1721199785388
-2.74,0.88,11.83,-0.13,0.16,0.00,1721199785398
2.46,1.06,10.67,0.08,0.13,-0.02,1721199785408
-0.32,3.08,12.29,-0.03,-0.10,-0.04,1721199785418
-2.92,2.54,5.54,0.13,-0.07,-0.10,1721199785428
0.43,-3.60,10.76,-0.08,0.26,0.00,1721199785438
-1.25,-0.79,12.91,0.04,-0.17,0.08,1721199785448
-0.14,8.60,10.97,0.19,0.12,-0.01,1721199785458
1.34,-4.37,4.35,-0.01,-0.18,-0.01,1721199785468
-2.66,2.00,14.95,0.00,0.05,-0.07,1721199785478
1.01,-0.69,10.42,0.08,0.11,-0.03,1721199785488
-2.76,-1.47,10.04,-0.07,-0.26,0.15,1721199785498
-1.28,7.02,13.10,0.22,0.17,0.21,1721199785508
4.32,0.01,6.70,0.11,0.03,0.22,1721199785518
0.68,3.88,10.56,0.06,-0.08,0.03,1721199785528
2.81,7.66,12.41,0.21,0.15,-0.12,1721199785538
0.24,-1.95,3.77,0.02,-0.36,0.07,1721199785548
-1.20,-0.26,13.97,0.02,0.26,0.03,1721199785558
2.38,-3.39,7.21,0.16,-0.07,-0.01,1721199785568
-2.14,3.73,9.26,0.06,0.04,-0.05,1721199785578
-0.86,6.08,11.22,0.21,0.15,-0.06,1721199785588
-0.14,3.08,9.81,0.06,-0.03,0.16,1721199785598
-0.62,-5.31,9.50,-0.17,-0.02,0.05,1721199785608
-2.77,-4.29,11.32,-0.07,-0.06,-0.09,1721199785618
-1.48,-1.07,10.08,0.01,0.04,0.20,1721199785628
0.57,-0.01,7.64,0.01,0.01,0.29,1721199785638
0.86,0.45,6.12,0.03,-0.00,0.02,1721199785648
-0.82,-1.82,12.83,-0.17,0.04,-0.37,1721199785658
-5.32,-2.68,11.52,-0.14,-0.33,-0.08,1721199785668
-5.02,1.26,8.29,-0.06,0.08,0.47,1721199785678
1.59,-5.41,10.38,-0.21,0.09,0.45,1721199785688
0.91,5.07,12.18,0.01,-0.28,0.09,1721199785698
2.78,-1.77,5.69,-0.23,0.03,-0.19,1721199785708
-2.48,-0.29,15.40,-0.31,-0.06,-0.28,1721199785718
-5.09,-3.07,7.96,-0.15,-0.22,0.05,1721199785728
-2.08,-3.38,12.33,-0.14,0.09,0.46,1721199785738
2.15,-0.23,10.16,-0.01,-0.11,0.44,1721199785748
3.34,5.01,9.76,-0.14,0.00,0.10,1721199785758
2.59,-0.87,11.35,-0.16,-0.16,-0.18,1721199785768
-1.96,-0.73,12.83,-0.21,-0.22,-0.23,1721199785778
-1.29,-0.31,9.92,0.01,-0.07,0.06,1721199785788
-0.86,-1.72,11.38,-0.06,-0.03,0.21,1721199785798
0.21,3.39,8.00,0.10,-0.06,0.29,1721199785808
3.65,-3.43,9.69,-0.10,0.05,0.21,1721199785818
1.33,1.49,14.45,-0.06,-0.10,-0.24,1721199785828
0.10,3.79,7.72,0.20,-0.21,-0.34,1721199785838
-0.24,-9.91,6.89,-0.12,-0.07,-0.06,1721199785848
-3.11,5.22,13.37,0.17,-0.05,0.09,1721199785858
3.92,-2.17,11.71,0.03,0.09,0.24,1721199785868
1.83,8.24,11.12,0.10,0.06,0.03,1721199785878
3.41,-1.65,6.90,0.02,-0.00,-0.36,1721199785888
-0.68,-1.90,11.94,-0.00,-0.08,-0.43,1721199785898
-1.05,0.34,10.06,0.10,0.04,-0.18,1721199785908
-0.33,2.98,8.50,0.13,0.04,0.03,1721199785918
1.46,-0.30,8.52,0.08,0.11,-0.07,1721199785928
1.62,-3.36,11.69,-0.10,0.04,-0.25,1721199785938
-1.62,2.12,11.92,0.02,0.02,-0.34,1721199785948
-1.72,2.62,8.99,0.02,0.16,-0.28,1721199785958
-0.23,0.02,8.82,0.09,-0.01,-0.14,1721199785968
1.76,1.84,12.76,0.10,0.22,-0.24,1721199785978
1.94,1.54,9.69,0.13,0.11,-0.41,1721199785988
-3.61,-1.83,10.23,0.01,-0.05,-0.57,1721199785998
-5.39,8.26,11.02,0.30,0.12,-0.41,1721199786008
-2.43,-2.64,1.81,0.15,0.06,-0.01,1721199786018
-0.47,-1.14,17.67,-0.08,0.32,-0.04,1721199786028
1.04,-0.10,10.99,0.12,-0.05,-0.23,1721199786038
-0.07,5.37,13.07,-0.03,0.27,-0.26,1721199786048
1.40,2.94,7.94,0.13,0.12,-0.18,1721199786058
-0.79,-1.99,7.28,-0.03,0.10,-0.35,1721199786068
-2.32,2.55,13.36,0.15,0.07,-0.35,1721199786078
-2.07,2.13,8.57,0.14,0.15,-0.19,1721199786088
-2.66,0.52,9.34,0.05,0.03,-0.08,1721199786098
-1.17,-0.44,11.45,0.06,0.13,0.02,1721199786108
0.20,-2.41,10.77,-0.06,0.17,-0.09,1721199786118
0.33,2.80,8.97,0.20,-0.03,-0.08,1721199786128
2.09,-2.98,7.52,0.06,0.18,-0.16,1721199786138
0.03,3.66,16.30,0.17,0.07,-0.17,1721199786148
-0.65,-1.30,5.65,0.04,-0.04,-0.05,1721199786158
-0.15,-0.93,14.00,-0.07,0.22,-0.08,1721199786168
2.41,-2.39,10.26,0.00,0.01,-0.07,1721199786178
0.54,4.32,9.05,0.06,0.14,-0.23,1721199786188
2.07,-5.66,8.07,-0.11,0.26,-0.44,1721199786198
-3.71,0.37,13.75,0.06,-0.07,-0.35,1721199786208
-3.28,-1.63,3.17,-0.02,0.24,0.04,1721199786218
-0.38,-0.49,18.50,-0.14,0.27,0.09,1721199786228
1.82,2.35,6.00,0.16,-0.12,0.17,1721199786238
4.80,-3.48,7.37,-0.28,0.60,-0.32,1721199786248
0.31,1.22,18.28,-0.07,-0.08,-0.55,1721199786258
-5.57,3.75,3.90,0.04,0.00,-0.28,1721199786268
-2.18,-5.15,8.19,-0.13,0.42,-0.09,1721199786278
-2.85,-3.64,14.12,0.02,-0.03,0.01,1721199786288
-0.72,-0.10,9.31,0.00,0.09,0.14,1721199786298
2.55,0.60,12.74,-0.09,0.37,-0.04,1721199786308
0.00,9.34,10.60,0.12,-0.03,-0.26,1721199786318
-3.27,-4.27,2.96,-0.20,-0.01,-0.34,1721199786328
-3.70,1.12,15.73,0.00,0.31,-0.20,1721199786338
-1.03,-6.58,5.09,0.02,-0.03,0.17,1721199786348
-3.65,2.96,14.32,0.02,0.22,0.04,1721199786358
1.80,4.85,10.45,0.25,0.06,0.19,1721199786368
1.71,2.64,11.24,-0.18,0.28,-0.13,1721199786378
-3.14,-1.36,7.11,0.05,-0.38,-0.35,1721199786388
-2.68,-8.65,6.63,-0.15,0.39,-0.14,1721199786398
-2.46,0.83,15.38,0.13,-0.01,0.30,1721199786408
0.11,3.91,6.94,0.13,0.12,0.23,1721199786418
2.25,2.02,12.24,-0.01,0.14,-0.01,1721199786428
2.15,3.00,11.51,0.03,0.12,-0.11,1721199786438
-0.30,-5.08,9.94,-0.15,-0.04,-0.05,1721199786448
-4.17,-0.34,10.52,-0.01,-0.03,-0.08,1721199786458
-2.60,-0.57,6.92,0.07,0.11,0.03,1721199786468
-0.16,-2.50,9.46,-0.04,0.05,0.17,1721199786478
0.01,1.78,12.51,0.05,0.04,0.22,1721199786488
2.53,2.95,13.78,-0.04,0.19,0.13,1721199786498
0.76,-1.94,11.35,-0.08,-0.09,0.01,1721199786508
-0.64,3.33,12.63,0.07,0.05,-0.03,1721199786518
0.58,-2.02,6.02,0.10,-0.11,0.17,1721199786528
-0.23,2.38,14.25,0.00,0.15,0.12,1721199786538
1.34,1.76,10.79,0.21,-0.01,-0.04,1721199786548
-1.37,0.86,10.83,-0.02,0.15,-0.19,1721199786558
-3.92,3.40,12.10,0.12,-0.04,-0.11,1721199786568
-1.23,0.52,12.89,0.02,0.18,0.22,1721199786578
0.87,1.69,11.60,0.14,0.03,0.35,1721199786588
2.27,-0.07,6.42,0.14,0.05,0.18,1721199786598
2.87,4.50,10.20,0.19,0.05,-0.14,1721199786608
1.56,3.73,8.59,0.25,0.02,-0.23,1721199786618
-1.50,0.48,10.78,0.13,-0.04,-0.09,1721199786628
-2.43,-2.48,8.37,0.09,-0.02,0.23,1721199786638
-0.24,4.72,14.94,0.08,0.28,0.13,1721199786648
1.56,0.79,6.29,0.11,-0.25,-0.02,1721199786658
-1.76,0.64,12.70,-0.15,0.16,-0.12,1721199786668
-2.24,3.14,7.98,0.17,-0.05,-0.09,1721199786678
-1.54,-5.24,6.05,-0.13,0.14,-0.02,1721199786688
-1.19,-5.16,13.67,-0.10,0.02,0.07,1721199786698
-1.32,1.04,7.68,0.10,-0.03,0.07,1721199786708
-0.87,1.76,7.14,-0.02,0.12,-0.02,1721199786718
-1.46,3.56,11.54,0.01,-0.04,-0.02,1721199786728
-2.37,-7.07,9.41,-0.39,-0.02,-0.04,1721199786738
-4.92,3.67,17.67,-0.05,-0.03,0.02,1721199786748
-0.99,-9.16,-0.78,-0.22,-0.20,0.28,1721199786758
-0.76,1.57,13.06,-0.09,0.05,0.47,1721199786768
6.49,1.34,8.23,0.06,0.05,0.21,1721199786778
-0.26,-3.24,8.13,-0.35,-0.30,-0.34,1721199786788
-4.11,-0.57,12.61,-0.10,-0.19,-0.26,1721199786798
-2.37,-6.87,8.50,-0.25,0.07,0.27,1721199786808
-2.07,3.46,12.90,-0.02,-0.20,0.49,1721199786818
3.49,0.48,6.70,0.02,0.12,0.29,1721199786828
3.62,-4.22,12.68,-0.25,-0.06,-0.17,1721199786838
-1.07,3.20,13.55,-0.04,-0.23,-0.26,1721199786848
-2.75,-0.23,7.98,-0.12,-0.03,0.01,1721199786858
-2.54,0.26,11.43,0.03,-0.04,0.31,1721199786868
1.92,-1.95,12.78,-0.06,0.13,0.16,1721199786878
0.25,-2.95,8.11,-0.03,-0.25,0.02,1721199786888
0.47,-0.20,9.90,-0.04,0.17,0.12,1721199786898
2.24,4.16,12.32,0.13,0.07,0.03,1721199786908
0.41,2.12,9.65,0.07,-0.15,-0.05,1721199786918
-0.10,1.57,12.97,0.02,0.07,-0.22,1721199786928
-1.09,0.16,10.02,0.09,-0.10,-0.05,1721199786938
-2.96,-1.20,8.36,-0.01,-0.04,0.09,1721199786948
-0.91,-0.45,12.13,0.10,0.03,0.08,1721199786958
1.73,3.19,8.75,0.23,-0.05,0.11,1721199786968
0.66,-4.31,6.72,-0.01,-0.13,0.01,1721199786978
0.28,5.72,16.74,0.11,0.02,-0.00,1721199786988
1.61,-0.73,3.70,0.10,-0.07,0.15,1721199786998
0.53,-3.93,13.19,-0.09,0.14,-0.04,1721199787008
0.41,0.20,12.91,0.21,-0.22,-0.03,1721199787018
-0.31,5.04,7.81,0.00,0.20,-0.04,1721199787028
-0.84,1.29,9.57,0.02,-0.09,-0.11,1721199787038
-1.58,2.38,12.97,0.02,-0.07,0.04,1721199787048
0.17,-0.62,8.02,0.06,-0.01,0.11,1721199787058
-0.19,2.56,12.01,0.04,0.02,0.03,1721199787068
0.34,-1.82,5.67,0.04,-0.07,-0.03,1721199787078
0.39,-0.35,12.06,0.00,0.05,-0.02,1721199787088
-0.38,1.10,10.69,0.13,-0.04,-0.05,1721199787098
-1.62,7.23,12.00,0.21,0.03,-0.05,1721199787108
-1.06,-4.06,5.12,0.04,-0.16,0.09,1721199787118
-3.84,2.25,5.60,0.26,0.08,-0.07,1721199787655
-3.31,-0.88,7.19,0.12,0.09,-0.05,1721199787659
0.54,7.61,14.17,0.34,0.24,0.08,1721199787668
2.95,-0.26,9.58,0.04,0.03,-0.17,1721199787678
-1.23,4.75,16.59,-0.01,0.09,-0.38,1721199787687
-0.22,3.73,7.56,0.24,0.04,-0.36,1721199787697
-1.95,-1.72,6.96,0.02,-0.05,-0.16,1721199787706
-1.00,2.69,10.61,0.28,0.09,0.10,1721199787716
2.47,-4.08,7.83,0.07,0.21,-0.10,1721199787726
0.16,-0.25,14.99,0.03,0.05,-0.32,1721199787736
0.06,1.66,8.92,0.22,0.02,-0.20,1721199787745
-0.44,4.94,10.02,0.15,0.09,-0.09,1721199787755
0.46,4.86,11.89,0.22,0.11,-0.13,1721199787764
0.17,-5.55,7.29,-0.03,0.03,-0.23,1721199787774
-3.15,-6.57,10.35,-0.13,0.09,-0.28,1721199787783
-3.24,-3.45,11.91,-0.05,0.11,-0.05,1721199787793
-0.85,2.89,9.95,0.11,0.09,0.18,1721199787802
1.08,4.88,8.60,0.04,0.13,-0.10,1721199787812
0.45,2.49,7.65,0.05,-0.04,-0.19,1721199787822
0.18,-6.45,8.10,-0.26,0.06,-0.05,1721199787832
-1.26,-2.85,14.39,-0.08,-0.09,0.09,1721199787842
-0.02,0.47,8.80,-0.01,0.14,0.07,1721199787852
0.77,1.83,8.34,-0.10,0.03,-0.11,1721199787862
-0.02,1.81,12.69,-0.21,0.04,-0.22,1721199787872
-0.70,-6.77,11.76,-0.33,-0.01,-0.10,1721199787882
-4.38,1.74,13.04,-0.15,0.02,-0.02,1721199787892
0.60,-2.34,5.40,-0.09,-0.04,0.27,1721199787902
2.20,-1.79,10.31,-0.12,0.11,0.18,1721199787912
4.66,5.58,12.55,-0.03,0.15,-0.15,1721199787922
0.68,-0.77,7.65,-0.22,-0.16,-0.49,1721199787932
-4.25,1.33,12.33,-0.14,-0.05,-0.38,1721199787942
-2.03,-1.26,10.94,-0.02,0.15,-0.12,1721199787952
-1.16,-5.91,9.62,-0.08,-0.09,0.17,1721199787962
-0.86,1.30,11.93,0.04,0.18,0.14,1721199787972
1.95,1.05,9.13,0.01,0.12,-0.01,1721199787982
0.34,1.77,11.61,0.05,-0.06,-0.13,1721199787992
-0.38,-4.50,12.10,-0.07,0.08,-0.17,1721199788002
-1.98,4.22,11.96,0.18,-0.07,0.03,1721199788012
1.26,-4.63,8.32,0.02,0.12,0.09,1721199788022
-0.82,5.22,13.30,0.17,-0.09,0.13,1721199788032
2.60,-1.52,4.86,0.14,0.24,-0.19,1721199788042
0.98,-1.38,12.76,0.07,0.04,-0.26,1721199788052
-0.91,3.81,11.49,0.26,-0.08,-0.08,1721199788062
-0.10,-7.21,4.97,-0.01,-0.01,0.07,1721199788072
0.92,2.85,16.59,0.03,0.29,0.05,1721199788082
2.60,6.50,8.70,0.17,0.04,-0.14,1721199788092
-0.68,-4.81,6.80,-0.19,-0.10,-0.29,1721199788102
-1.91,-0.01,16.49,-0.10,0.17,-0.30,1721199788112
-0.52,0.53,5.80,0.05,0.08,-0.06,1721199788122
-0.97,0.92,11.07,-0.01,0.18,0.06,1721199788132
2.35,3.79,9.84,0.27,0.15,-0.09,1721199788142
1.44,-0.68,10.29,-0.10,0.20,-0.39,1721199788152
-4.22,4.73,16.52,0.09,-0.06,-0.39,1721199788162
-5.25,-1.38,2.91,0.10,0.02,-0.08,1721199788172
-1.85,2.38,11.45,0.09,0.30,0.18,1721199788182
3.79,0.60,13.50,0.17,0.15,0.09,1721199788192
0.39,2.00,5.96,0.15,-0.10,-0.14,1721199788202
1.42,2.83,16.30,-0.04,0.43,-0.43,1721199788212
-1.96,0.67,9.11,0.21,-0.18,-0.19,1721199788222
-4.23,2.73,9.41,0.01,0.18,0.04,1721199788232
-0.14,4.71,5.82,0.30,0.04,0.16,1721199788242
1.41,-2.83,7.94,-0.10,0.22,-0.25,1721199788252
-2.61,-5.65,13.98,-0.07,-0.18,-0.26,1721199788262
-4.62,7.37,13.78,0.20,0.13,-0.03,1721199788272
0.22,1.19,5.69,0.02,0.10,0.27,1721199788282
-0.28,5.00,11.70,-0.03,0.02,0.11,1721199788292
3.43,-2.93,9.48,-0.10,0.05,-0.21,1721199788302
2.46,-8.16,9.83,-0.16,-0.14,-0.27,1721199788312
-0.44,2.26,11.01,0.12,0.11,-0.16,1721199788322
1.24,1.00,5.35,0.10,0.14,-0.15,1721199788332
-2.47,-4.50,10.37,-0.10,-0.12,-0.18,1721199788342
-2.96,6.70,18.31,0.07,0.23,-0.06,1721199788352
2.83,-6.19,3.01,-0.14,-0.04,0.33,1721199788362
2.68,1.53,13.57,-0.15,0.28,-0.05,1721199788372
5.17,-3.18,7.49,-0.02,-0.08,-0.34,1721199788382
-3.36,-1.44,7.24,-0.21,-0.07,-0.42,1721199788392
-3.17,1.96,9.78,-0.05,0.20,-0.35,1721199788402
-1.83,-6.79,7.13,-0.31,0.01,0.05,1721199788412
-0.38,0.29,16.58,-0.22,0.25,0.16,1721199788422
4.80,1.92,9.05,-0.04,0.16,-0.08,1721199788432
0.39,-1.66,6.34,-0.17,-0.05,-0.37,1721199788442
-2.33,3.17,14.20,-0.09,0.24,-0.49,1721199788452
-2.66,-0.45,9.03,-0.00,0.01,-0.14,1721199788462
-3.15,-2.99,12.73,-0.25,0.31,-0.10,1721199788472
-2.07,-0.85,9.38,0.06,-0.05,-0.05,1721199788482
-0.61,5.83,10.35,0.06,0.32,0.00,1721199788492
1.58,1.57,9.35,0.16,0.00,-0.08,1721199788502
0.06,-0.26,10.50,0.01,0.21,-0.34,1721199788512
-1.17,-3.64,13.25,0.01,0.06,-0.31,1721199788522
-3.93,2.61,10.71,0.13,0.01,-0.04,1721199788532
-1.19,4.20,7.25,0.26,0.20,0.14,1721199788542
0.27,0.10,9.80,0.12,0.10,-0.10,1721199788552
0.79,5.73,13.04,0.27,0.08,-0.17,1721199788562
0.40,-7.13,4.98,0.08,0.08,-0.24,1721199788572
-2.52,0.82,15.24,0.05,0.21,-0.29,1721199788582
-1.35,1.55,8.48,0.30,-0.04,-0.07,1721199788592
-2.78,-4.33,6.03,-0.04,-0.02,0.08,1721199788602
-0.57,5.51,8.69,0.28,0.23,-0.01,1721199788612
2.38,-4.58,10.62,-0.12,0.19,-0.27,1721199788622
-3.55,1.79,13.83,0.03,-0.12,-0.26,1721199788632
-0.36,-0.68,6.47,0.05,0.31,-0.03,1721199788642
0.90,0.82,13.44,-0.03,0.04,0.07,1721199788652
-0.07,3.51,8.83,0.13,0.08,-0.18,1721199788662
-0.48,-1.01,11.44,-0.12,0.16,-0.35,1721199788672
-3.87,2.43,10.35,0.15,-0.22,-0.10,1721199788682
-1.44,0.53,7.85,0.01,0.31,0.03,1721199788692
-0.39,-1.19,9.41,0.10,-0.11,0.06,1721199788702
-0.40,1.80,7.42,0.10,0.12,-0.08,1721199788712
2.35,-1.00,16.07,-0.08,0.25,-0.16,1721199788722
-1.56,6.61,8.29,0.26,-0.23,-0.08,1721199788732
0.10,-2.02,8.11,-0.05,0.30,-0.09,1721199788742
-1.63,4.38,11.19,0.24,-0.14,0.13,1721199788752
-0.01,-1.62,7.99,-0.16,0.22,0.10,1721199788762
-1.17,7.85,12.85,0.18,-0.20,0.10,1721199788772
2.34,-3.31,6.52,-0.11,0.24,0.03,1721199788782
0.26,-1.06,14.11,-0.05,-0.07,-0.00,1721199788792
-0.61,2.41,7.54,0.04,0.11,-0.01,1721199788802
0.57,2.09,12.90,0.02,0.08,0.09,1721199788812
-0.52,4.59,9.05,0.28,-0.04,0.10,1721199788822
0.54,-1.06,9.82,-0.05,0.21,0.03,1721199788832
-1.68,-1.33,12.38,0.07,-0.19,0.05,1721199788842
-0.76,1.01,12.06,-0.03,0.30,0.09,1721199788852
-0.34,-1.28,7.29,0.01,-0.16,0.15,1721199788862
-1.36,4.04,11.07,0.09,0.08,0.01,1721199788872
1.97,-2.42,8.77,-0.05,0.19,-0.04,1721199788882
-2.02,1.08,12.48,-0.04,-0.14,0.05,1721199788892
-3.38,-1.77,7.30,-0.02,0.00,0.15,1721199788902
-0.18,-0.91,13.00,-0.04,0.19,0.21,1721199788912
0.68,-2.81,8.90,-0.06,-0.13,0.25,1721199788922
-2.77,1.67,11.96,-0.18,-0.03,0.14,1721199788932
0.33,2.40,7.89,0.06,-0.06,0.10,1721199788942
2.00,-2.13,12.83,-0.24,0.03,0.18,1721199788952
-1.29,2.06,7.66,0.16,-0.36,0.19,1721199788962
1.78,-4.02,8.12,-0.30,0.28,0.17,1721199788972
0.50,5.59,17.12,0.02,-0.26,0.08,1721199788982
-0.21,-3.90,2.00,-0.08,-0.13,0.11,1721199788992
-0.60,-0.97,15.49,-0.18,0.17,0.03,1721199789002
1.36,-1.88,11.22,0.06,-0.16,0.16,1721199789012
0.01,3.15,11.95,-0.02,0.00,0.25,1721199789022
0.75,-0.37,8.50,0.03,-0.13,0.10,1721199789032
-0.35,6.42,9.74,0.11,-0.06,0.05,1721199789042
0.75,-0.13,9.72,-0.07,-0.01,0.07,1721199789052
-1.72,-2.43,9.62,-0.03,-0.27,-0.00,1721199789062
-0.16,-3.84,10.70,-0.12,0.10,0.06,1721199789072
0.60,0.36,8.62,0.12,-0.08,0.10,1721199789082
1.57,2.00,14.73,-0.02,0.21,-0.05,1721199789092
-0.68,3.82,10.12,0.21,-0.32,0.00,1721199789102
-0.61,3.94,10.51,-0.04,0.22,0.11,1721199789112
-0.10,0.62,12.61,0.04,-0.26,0.03,1721199789122
-0.83,-2.09,7.02,0.08,-0.20,-0.02,1721199789132
3.51,-5.56,9.58,0.03,0.14,0.15,1721199789142
1.73,3.35,8.52,0.26,-0.15,0.07,1721199789152
-0.08,0.44,7.79,0.06,0.05,-0.24,1721199789162
-0.48,2.25,16.42,0.09,-0.01,-0.20,1721199789172
-2.01,-0.09,7.62,0.09,-0.15,0.11,1721199789182
-2.34,3.68,12.04,0.03,0.09,0.22,1721199789192
3.23,-0.49,8.87,0.13,0.07,0.19,1721199789202
2.62,1.71,9.47,0.12,-0.02,-0.13,1721199789212
0.04,-3.50,8.29,0.08,-0.11,-0.34,1721199789222
-3.62,2.59,13.12,0.19,0.01,-0.23,1721199789232
-2.19,6.95,10.02,0.24,0.07,0.08,1721199789242
-0.17,1.77,7.76,0.05,-0.01,0.19,1721199789252
-0.88,-1.83,13.28,-0.03,-0.11,-0.11,1721199789262
0.29,-0.76,12.77,0.11,0.01,-0.15,1721199789272
-0.30,0.12,7.64,0.07,-0.02,-0.01,1721199789282
-1.74,5.56,10.10,0.17,0.03,-0.11,1721199789292
-1.21,3.19,8.64,0.14,-0.04,-0.15,1721199789302
-2.38,0.45,11.38,-0.01,-0.06,0.02,1721199789312
-1.08,-0.59,8.59,0.02,-0.08,0.19,1721199789322
2.60,-2.91,9.26,-0.06,0.04,0.11,1721199789332
2.84,4.88,12.55,0.10,-0.13,-0.20,1721199789342
1.79,1.87,7.33,-0.01,-0.04,-0.41,1721199789352
-4.62,0.85,12.26,-0.02,-0.27,-0.34,1721199789362
-3.29,-6.96,8.32,-0.19,0.01,0.23,1721199789372
1.36,1.51,12.39,0.00,0.09,0.28,1721199789382
5.18,1.76,4.37,-0.01,-0.01,-0.12,1721199789392
2.43,0.80,14.64,-0.06,-0.05,-0.33,1721199789402
0.46,-1.98,8.42,-0.02,-0.18,-0.17,1721199789412
-0.66,-0.14,16.85,-0.26,0.30,-0.24,1721199789422
-1.41,-4.36,8.28,-0.11,-0.32,0.05,1721199789432
-0.34,1.07,8.41,-0.23,0.14,-0.12,1721199789442
4.23,-4.66,9.15,-0.11,-0.02,-0.34,1721199789452
-1.52,-1.65,9.12,-0.21,-0.13,-0.41,1721199789462
-1.75,2.07,11.05,-0.13,0.16,-0.23,1721199789472
-0.89,-5.27,12.21,-0.32,0.10,-0.05,1721199789482
-1.04,4.65,13.11,-0.09,-0.00,0.02,1721199789492
2.66,-2.54,7.10,-0.17,0.08,-0.13,1721199789502
2.24,4.01,15.63,-0.10,0.09,-0.17,1721199789512
2.09,5.33,8.99,0.09,0.08,-0.20,1721199789522
-0.35,0.29,9.61,-0.03,0.16,-0.55,1721199789532
-3.28,-1.04,12.84,-0.00,-0.07,-0.54,1721199789542
-5.02,4.47,8.77,0.15,0.09,-0.36,1721199789552
-3.04,-1.31,9.76,0.05,0.14,-0.13,1721199789562
-2.15,4.51,10.86,0.27,0.10,-0.12,1721199789572
0.74,0.62,9.85,0.13,0.19,-0.22,1721199789582
-1.17,0.52,14.87,0.18,0.03,-0.35,1721199789592
-1.72,3.10,8.95,0.33,0.12,-0.17,1721199789602
0.30,0.09,9.74,0.29,0.02,-0.03,1721199789612
0.88,0.86,10.36,0.27,0.09,-0.19,1721199789622
-1.76,-3.21,9.14,0.13,-0.07,-0.34,1721199789632
-3.82,-3.05,9.28,0.03,0.00,-0.24,1721199789642
-1.66,2.58,8.78,0.31,0.02,-0.01,1721199789657
1.07,-1.95,5.34,0.13,-0.07,-0.04,1721199789662
-1.07,-0.65,8.85,0.13,0.14,-0.28,1721199789672
1.70,0.16,11.69,0.13,0.32,-0.37,1721199789682
-0.89,-1.43,12.13,0.07,-0.11,-0.23,1721199789692
-3.88,2.01,8.00,0.11,-0.06,-0.12,1721199789702
0.15,2.27,8.03,0.08,0.08,0.02,1721199789712
1.19,2.83,13.57,-0.07,0.16,-0.15,1721199789722
-0.76,-5.34,5.36,-0.10,-0.25,-0.25,1721199789732
-2.46,-3.18,16.24,-0.25,0.40,-0.38,1721199789742
-0.68,6.06,11.22,0.23,-0.05,-0.21,1721199789752
-0.87,-1.90,4.88,-0.11,0.10,-0.02,1721199789762
-3.10,9.29,14.18,0.14,0.05,-0.11,1721199789772
1.70,-2.90,5.26,-0.12,-0.02,-0.12,1721199789782
-2.02,1.24,16.35,-0.18,-0.01,-0.31,1721199789792
-1.62,-1.14,4.34,0.06,-0.08,-0.32,1721199789802
-3.20,3.72,8.47,0.03,0.26,-0.17,1721199789812
1.60,-2.15,13.77,-0.01,0.21,-0.02,1721199789822
-1.13,5.47,11.89,0.13,-0.08,0.05,1721199789832
2.96,1.83,9.91,-0.05,0.33,-0.15,1721199789842
1.88,-0.06,12.90,0.05,-0.12,-0.24,1721199789852
-2.14,1.53,6.53,0.08,0.02,-0.20,1721199789862
-1.45,2.25,8.52,0.18,0.18,-0.15,1721199789872
-0.41,-5.91,7.59,-0.01,0.02,-0.06,1721199789882
-1.43,5.34,12.34,0.15,0.16,0.00,1721199789892
3.11,-1.99,7.82,0.05,0.22,0.00,1721199789902
0.15,7.22,13.31,0.25,0.19,-0.16,1721199789912
1.13,-5.20,4.96,-0.06,0.09,-0.22,1721199789922
-3.69,7.24,18.07,0.22,-0.02,-0.10,1721199789932
-0.00,-7.75,4.58,-0.06,0.28,-0.04,1721199789942
-4.57,1.55,15.96,0.05,-0.00,-0.02,1721199789952
-0.75,-3.10,2.18,0.05,0.13,0.16,1721199789962
1.28,5.39,17.28,0.15,0.25,0.14,1721199789972
2.25,-2.85,4.59,0.03,-0.04,-0.16,1721199789982
-4.57,4.30,14.72,0.04,-0.05,-0.31,1721199789992
-1.79,-8.50,5.66,-0.06,0.17,0.04,1721199790002
-2.05,-2.66,13.96,-0.05,0.03,0.35,1721199790012
1.41,2.92,8.00,0.13,0.15,0.14,1721199790022
1.81,3.12,14.60,-0.01,0.18,-0.15,1721199790032
-3.01,2.04,5.31,0.11,-0.30,-0.13,1721199790042
-0.60,-1.72,11.52,-0.10,0.41,0.10,1721199790052
2.34,-2.93,14.38,0.01,-0.03,0.33,1721199790062
0.56,4.16,7.28,0.10,-0.12,0.24,1721199790072
3.00,-0.23,9.37,-0.02,0.26,-0.18,1721199790082
0.04,-2.52,6.82,-0.05,-0.17,-0.19,1721199790092
-3.86,6.03,16.84,0.01,0.17,-0.03,1721199790102
-0.36,-0.87,8.38,-0.00,0.15,0.25,1721199790112
0.40,-2.12,8.57,-0.01,0.03,0.21,1721199790122
5.01,-5.36,12.22,-0.25,0.38,-0.01,1721199790132
-0.23,3.36,10.17,0.08,-0.20,-0.20,1721199790142
-0.71,1.16,10.83,-0.14,0.40,-0.13,1721199790152
0.17,1.00,11.94,-0.05,-0.06,0.20,1721199790162
0.55,5.06,6.26,0.09,0.03,0.19,1721199790172
4.76,-10.37,10.69,-0.38,0.38,-0.11,1721199790182
-2.24,7.73,22.15,0.13,-0.11,-0.32,1721199790192
-2.44,-3.16,1.78,-0.09,0.12,0.04,1721199790202
-2.28,4.57,19.27,-0.02,0.32,0.21,1721199790212
3.07,0.41,4.07,0.15,0.13,0.02,1721199790222
-1.42,3.63,12.05,-0.00,0.14,-0.07,1721199790232
-0.44,-5.54,6.00,-0.01,0.07,0.17,1721199790242
-1.25,5.12,17.72,0.04,0.27,-0.01,1721199790252
1.22,2.96,5.85,0.20,0.01,-0.06,1721199790262
-1.85,-3.88,11.51,-0.24,0.14,-0.09,1721199790272
-3.36,7.43,14.86,0.33,0.07,0.02,1721199790282
0.05,-4.31,3.02,-0.10,0.22,0.21,1721199790292
-2.53,3.02,16.76,0.14,0.03,0.19,1721199790302
2.92,-0.72,8.29,0.09,0.26,0.18,1721199790312
0.96,1.02,11.08,0.05,-0.14,0.16,1721199790322
-0.83,5.27,8.62,0.10,0.15,-0.09,1721199790332
-0.55,1.13,12.73,0.07,0.13,-0.08,1721199790342
-1.25,-5.86,3.73,0.02,-0.09,0.22,1721199790352
-1.76,5.15,17.30,0.06,0.34,0.07,1721199790362
0.68,-1.74,2.56,0.14,-0.17,0.08,1721199790372
-2.25,1.09,14.04,-0.25,0.17,0.07,1721199790382
1.88,5.37,12.56,0.26,0.22,0.02,1721199790392
1.95,-6.76,5.38,-0.30,0.07,0.01,1721199790402
-3.75,5.34,14.43,0.19,-0.21,0.11,1721199790412
1.79,-8.87,3.37,-0.28,0.29,0.14,1721199790422
-0.62,8.68,22.01,0.10,-0.07,0.21,1721199790432
5.11,2.31,2.27,0.12,0.13,0.05,1721199790442
0.21,-7.53,6.15,-0.45,-0.08,-0.21,1721199790452
-4.10,9.71,22.29,0.00,0.22,-0.32,1721199790462
0.14,-3.40,-2.64,-0.06,-0.06,0.11,1721199790472
2.38,-1.19,10.64,-0.38,0.21,0.14,1721199790482
3.65,0.79,13.14,-0.02,0.31,-0.02,1721199790492
1.59,4.53,9.17,-0.14,0.10,-0.11,1721199790502
-1.47,-1.97,8.57,-0.26,-0.01,-0.17,1721199790512
-3.23,-1.63,10.81,-0.28,0.02,-0.11,1721199790522
0.26,-1.23,11.18,-0.22,0.24,0.00,1721199790532
1.80,-1.60,10.44,-0.23,0.20,-0.08,1721199790542
-1.10,3.52,9.05,-0.10,0.01,-0.06,1721199790552
0.85,2.43,13.30,-0.20,0.29,-0.07,1721199790562
0.72,0.15,11.69,-0.06,0.04,-0.18,1721199790572
-1.21,-1.80,9.01,-0.19,0.11,-0.12,1721199790582
-2.08,3.36,9.78,0.06,0.09,0.00,1721199790592
0.28,0.51,9.05,-0.05,0.23,-0.03,1721199790602
-1.97,2.02,12.85,0.01,-0.03,-0.10,1721199790612
-3.35,1.94,9.56,0.04,0.13,-0.19,1721199790622
-1.47,0.52,7.38,0.06,0.04,0.05,1721199790632
-0.49,-5.37,11.06,-0.08,0.04,0.09,1721199790642
0.30,5.48,11.55,0.22,0.20,-0.11,1721199790652
1.80,2.69,9.85,0.06,0.20,-0.25,1721199790662
-3.38,1.97,12.11,0.20,-0.14,-0.14,1721199790672
-3.45,-2.04,6.74,0.06,0.22,-0.02,1721199790682
-3.69,-3.94,10.30,0.03,-0.07,0.05,1721199790692
-1.98,2.60,9.31,0.25,0.13,0.25,1721199790702
3.10,-2.40,16.11,0.04,0.33,0.24,1721199790712
-2.12,3.38,8.07,0.13,-0.51,0.11,1721199790722
0.56,5.83,9.75,0.07,0.49,-0.12,1721199790732
2.47,-6.41,14.09,-0.09,-0.14,-0.04,1721199790742
-5.21,0.58,8.87,0.18,-0.31,0.02,1721199790752
-0.86,-3.83,9.54,-0.00,0.27,0.20,1721199790762
-1.48,3.53,13.31,0.13,-0.15,0.26,1721199790772
1.08,10.14,11.64,0.12,0.30,0.06,1721199790782
-0.02,-10.08,4.77,-0.11,-0.50,-0.07,1721199790792
-8.45,6.39,8.09,0.12,0.01,-0.08,1721199790802
2.85,-3.73,10.17,0.03,0.23,0.24,1721199790812
0.30,7.25,16.68,0.21,-0.41,0.43,1721199790822
1.92,4.95,1.25,0.24,0.09,0.29,1721199790832
4.11,-1.92,16.22,-0.23,0.11,-0.04,1721199790842
-1.59,1.28,11.37,0.05,-0.44,-0.26,1721199790852
-3.58,-2.41,3.50,0.01,-0.00,0.07,1721199790862
-1.53,1.59,16.03,0.04,0.12,0.33,1721199790872
0.98,5.20,6.26,0.27,-0.20,0.39,1721199790882
2.32,-2.74,12.55,-0.32,0.13,0.09,1721199790892
-1.54,9.83,13.38,0.25,-0.33,-0.06,1721199790902
0.47,-5.01,7.44,-0.31,0.09,0.09,1721199790912
-2.14,8.57,19.40,0.25,-0.39,0.28,1721199790922
1.74,-9.10,-0.30,-0.06,-0.05,0.33,1721199790932
-1.19,3.52,15.22,-0.07,-0.04,0.11,1721199790942
2.58,5.36,11.45,0.23,0.04,-0.03,1721199790952
-1.81,-3.76,5.76,0.05,-0.48,0.19,1721199790962
-2.74,2.80,15.93,0.08,0.16,0.23,1721199790972
1.03,1.51,5.85,0.12,-0.14,0.07,1721199790982
-2.52,3.76,15.80,-0.14,-0.13,-0.02,1721199790992
-1.87,-3.36,5.23,0.10,-0.39,0.27,1721199791002
-0.49,-0.76,12.31,-0.07,0.09,0.27,1721199791012
2.54,-4.52,5.44,-0.01,-0.33,0.22,1721199791022
-0.52,-2.76,8.15,-0.20,-0.20,0.18,1721199791032
2.34,4.30,16.85,-0.07,0.11,0.10,1721199791042
2.29,4.84,9.90,0.02,-0.32,0.17,1721199791052
-1.23,-2.12,9.46,-0.36,-0.16,-0.00,1721199791062
-1.62,-2.41,9.78,-0.13,-0.25,-0.02,1721199791072
0.29,-0.50,9.29,-0.15,0.05,-0.02,1721199791082
0.18,-4.77,8.12,-0.12,-0.27,0.14,1721199791092
0.55,5.65,12.75,0.13,-0.08,0.23,1721199791102
4.49,0.48,6.88,-0.04,0.01,-0.05,1721199791112
-0.60,0.28,15.79,-0.28,-0.30,-0.29,1721199791122
-2.82,3.31,11.47,-0.05,-0.10,-0.16,1721199791132
-1.51,-1.01,7.77,-0.05,-0.10,0.04,1721199791142
2.12,-4.38,8.54,0.04,0.04,0.08,1721199791152
2.38,-2.13,10.45,-0.04,-0.05,-0.21,1721199791162
0.28,4.48,14.77,0.01,-0.10,-0.29,1721199791172
-0.21,1.03,13.72,-0.03,-0.03,-0.19,1721199791182
-1.16,3.44,10.28,0.20,-0.11,0.06,1721199791192
-0.86,-7.81,7.75,-0.10,0.00,-0.07,1721199791202
-1.28,1.79,12.38,0.20,-0.17,-0.09,1721199791212
3.48,0.23,10.74,0.03,0.15,-0.15,1721199791222
2.71,5.16,14.54,0.23,0.01,-0.10,1721199791232
-0.48,-1.98,7.40,0.06,-0.07,-0.21,1721199791242
-2.49,2.66,12.22,0.12,0.13,-0.32,1721199791252
-0.19,-4.68,5.50,0.17,-0.06,-0.17,1721199791262
-1.37,-2.62,10.69,0.03,0.01,-0.03,1721199791272
1.64,0.19,11.39,0.19,0.15,-0.16,1721199791282
0.35,4.75,14.44,-0.01,0.16,-0.36,1721199791292
-2.90,4.20,9.44,0.06,-0.12,-0.22,1721199791302
-2.93,-2.94,7.43,-0.09,0.02,0.02,1721199791312
1.76,-1.00,9.69,0.08,0.21,0.12,1721199791322
3.70,-0.52,8.80,0.07,0.15,-0.10,1721199791332
1.04,2.06,8.40,0.09,-0.00,-0.38,1721199791342
-1.90,2.26,10.73,-0.01,0.09,-0.51,1721199791352
-4.92,1.04,9.28,0.02,0.01,-0.21,1721199791362
-3.42,0.14,14.44,-0.09,0.24,0.04,1721199791372
-0.50,-3.40,5.17,0.12,-0.11,0.15,1721199791382
1.10,5.40,9.82,0.10,0.31,-0.05,1721199791392
2.93,1.39,12.09,0.05,0.02,-0.38,1721199791402
-3.67,-0.89,8.97,0.11,-0.20,-0.21,1721199791412
-4.46,2.35,11.25,-0.04,0.26,0.07,1721199791422
0.10,4.31,6.42,0.18,0.01,0.25,1721199791432
1.82,0.88,15.35,-0.23,0.13,-0.12,1721199791442
-1.19,0.53,10.72,0.09,-0.21,-0.21,1721199791452
-1.97,-0.04,10.37,-0.12,0.30,-0.06,1721199791462
-1.78,0.91,12.82,-0.05,-0.08,-0.01,1721199791472
-3.11,2.74,6.17,0.13,-0.27,0.13,1721199791482
-0.11,1.57,9.02,-0.03,0.20,0.08,1721199791492
2.47,1.97,13.73,0.15,-0.19,0.08,1721199791502
2.13,-3.30,7.53,-0.01,-0.06,0.07,1721199791512
1.16,1.53,13.42,0.00,0.07,-0.10,1721199791522
0.15,1.57,6.40,0.10,-0.19,-0.18,1721199791532
-2.68,2.25,11.20,0.10,-0.06,-0.15,1721199791542
0.85,-5.80,6.17,-0.00,0.02,0.08,1721199791552
-0.52,-5.37,12.64,-0.25,-0.07,0.04,1721199791562
-0.81,4.65,12.45,0.09,-0.09,0.03,1721199791572
2.86,-0.86,5.99,-0.14,0.05,0.08,1721199791582
-0.76,2.50,13.02,-0.05,-0.15,-0.19,1721199791592
0.57,-5.68,9.25,-0.25,0.20,-0.31,1721199791602
-3.92,-2.41,11.96,-0.10,-0.27,0.12,1721199791612
-1.42,-1.14,7.01,-0.13,0.14,0.16,1721199791622
2.69,1.68,13.72,-0.05,0.06,0.08,1721199791632
1.07,3.78,7.16,-0.04,-0.20,-0.16,1721199791642
0.72,-2.30,14.40,-0.28,0.16,-0.21,1721199791652
-0.81,-4.68,4.42,-0.06,-0.10,-0.12,1721199791667
-0.08,-2.11,7.37,-0.17,0.05,-0.19,1721199791672
-1.28,0.57,13.63,0.06,-0.23,-0.05,1721199791682
-0.29,5.09,8.52,0.11,0.05,0.02,1721199791692
1.51,-0.96,12.13,-0.14,0.11,-0.25,1721199791702
-3.31,-2.40,9.54,-0.04,-0.37,-0.14,1721199791712
-2.37,1.06,12.99,-0.11,0.30,-0.19,1721199791722
-1.34,4.21,5.84,0.25,-0.33,-0.01,1721199791732
0.48,-3.77,7.49,-0.21,0.15,-0.11,1721199791742
0.91,1.82,17.67,0.10,-0.15,-0.17,1721199791752
1.29,-2.94,6.52,-0.16,0.10,-0.29,1721199791762
-2.77,1.50,15.23,0.04,-0.19,-0.23,1721199791772
-1.38,-1.70,6.85,-0.02,0.02,-0.14,1721199791782
-0.47,5.26,13.38,0.12,0.00,-0.11,1721199791792
1.85,-8.90,9.22,-0.24,-0.01,-0.28,1721199791802
-3.56,4.94,12.18,0.11,-0.26,-0.24,1721199791812
1.52,-5.64,7.14,-0.10,0.34,-0.32,1721199791822
-2.26,1.25,15.46,0.12,-0.31,-0.10,1721199791832
-0.73,3.83,7.37,0.19,0.14,-0.04,1721199791842
1.84,2.79,12.51,0.07,0.09,-0.14,1721199791852
1.37,3.47,13.43,0.15,-0.01,-0.40,1721199791862
-1.05,-2.05,7.14,0.08,-0.18,-0.41,1721199791872
-2.49,1.54,9.34,0.30,-0.06,-0.21,1721199791882
1.36,-3.56,8.12,0.12,0.29,-0.21,1721199791892
-0.36,5.21,15.01,0.25,-0.07,-0.26,1721199791902
0.15,7.08,8.83,0.33,0.13,-0.25,1721199791912
-0.63,0.13,9.49,0.06,0.09,-0.36,1721199791922
-2.76,-2.29,10.53,0.06,-0.13,-0.25,1721199791932
-0.97,4.21,13.30,0.13,0.17,-0.21,1721199791942
0.81,0.36,6.36,0.08,-0.05,-0.27,1721199791952
-3.29,-0.85,7.74,0.00,-0.18,-0.27,1721199791962
0.04,1.11,12.59,-0.00,0.32,-0.28,1721199791972
-0.07,3.72,10.27,0.06,0.04,-0.16,1721199791982
-0.15,1.67,5.91,0.00,0.01,-0.10,1721199791992
1.31,-0.85,9.57,-0.06,0.22,-0.26,1721199792002
0.30,-0.41,10.90,0.04,0.02,-0.31,1721199792012
-2.09,0.38,9.45,-0.07,0.02,-0.26,1721199792022
-1.93,-0.19,13.93,-0.14,0.03,-0.17,1721199792032
-2.58,3.72,7.52,0.05,-0.09,-0.04,1721199792042
-0.79,-1.13,9.59,-0.19,0.17,-0.22,1721199792052
-1.62,-3.48,6.69,0.03,-0.13,-0.06,1721199792062
-2.53,-4.52,13.23,-0.33,0.25,-0.09,1721199792072
-2.92,1.47,7.76,0.12,-0.23,0.02,1721199792082
0.46,-2.57,8.15,-0.21,0.27,0.17,1721199792092
0.71,2.58,15.84,-0.03,-0.18,0.17,1721199792102
0.43,0.87,6.42,-0.17,-0.12,0.08,1721199792112
0.55,-0.26,12.05,-0.14,0.03,-0.00,1721199792122
-0.24,-3.13,5.67,-0.10,-0.16,-0.14,1721199792132
-1.08,-2.61,13.47,-0.18,-0.11,0.12,1721199792142
0.65,0.71,12.18,-0.08,-0.00,0.21,1721199792152
0.63,0.14,3.58,-0.07,-0.13,-0.03,1721199792162
-0.60,-4.23,14.02,-0.23,0.05,-0.16,1721199792172
-1.53,7.00,16.67,0.13,-0.22,0.24,1721199792182
-0.55,-3.81,1.70,-0.12,-0.16,0.51,1721199792192
1.15,-0.36,13.01,-0.09,0.06,0.15,1721199792202
4.44,-4.17,6.76,-0.01,-0.19,-0.16,1721199792212
-0.36,3.89,17.44,-0.05,-0.02,-0.22,1721199792222
-1.03,-0.93,4.26,0.18,-0.16,0.10,1721199792232
-0.30,3.18,14.59,-0.08,0.26,0.14,1721199792242
2.90,-1.99,11.42,0.14,-0.17,0.15,1721199792252
2.63,-0.95,9.79,-0.03,0.02,-0.03,1721199792262
0.19,-0.44,11.81,0.11,-0.08,-0.16,1721199792272
-1.22,6.75,11.21,0.24,-0.00,-0.18,1721199792282
1.43,-4.22,9.08,-0.03,-0.04,-0.01,1721199792292
-0.40,1.73,11.03,0.13,-0.07,-0.11,1721199792302
1.20,-6.25,8.81,0.01,0.06,-0.12,1721199792312
1.28,6.64,13.90,0.29,0.08,0.04,1721199792322
4.35,-2.01,6.00,0.10,0.07,-0.09,1721199792332
-1.46,5.88,12.17,0.09,-0.21,-0.36,1721199792342
1.58,-3.15,9.09,-0.05,0.15,-0.41,1721199792352
0.04,-3.47,20.51,-0.05,0.01,-0.24,1721199792362
-1.85,1.81,2.00,0.29,-0.09,0.04,1721199792372
1.29,3.46,9.60,0.02,0.55,-0.22,1721199792382
2.77,2.13,13.55,0.28,-0.11,-0.32,1721199792392
-1.30,-4.12,7.99,-0.15,0.03,-0.37,1721199792402
-2.76,4.99,16.07,0.23,0.04,-0.34,1721199792412
1.33,1.99,5.11,0.09,0.29,-0.18,1721199792422
-0.16,-0.30,9.58,0.01,-0.00,-0.24,1721199792432
-2.53,7.46,11.62,0.29,0.12,-0.47,1721199792442
-1.36,-3.94,4.81,-0.14,0.22,-0.34,1721199792452
-3.85,4.46,14.20,0.16,0.05,-0.11,1721199792462
1.65,-2.50,5.67,-0.05,0.34,-0.22,1721199792472
0.53,4.30,11.42,0.16,-0.10,-0.22,1721199792482
2.14,1.93,9.36,-0.04,0.40,-0.45,1721199792492
-2.10,-2.25,11.97,-0.04,-0.09,-0.49,1721199792502
-4.81,3.62,9.14,0.03,0.16,-0.32,1721199792512
0.85,-3.00,12.29,-0.24,0.37,-0.16,1721199792522
0.15,3.75,11.46,0.12,-0.08,-0.12,1721199792532
4.68,1.32,6.53,-0.06,0.52,-0.40,1721199792542
2.72,-3.92,10.97,-0.02,0.02,-0.65,1721199792552
-3.29,-0.58,11.47,-0.06,0.19,-0.65,1721199792562
-2.97,0.59,10.22,0.03,0.26,-0.29,1721199792572
-1.02,-0.63,11.73,-0.11,0.23,0.06,1721199792582
1.69,0.86,10.34,-0.09,0.31,-0.09,1721199792592
4.58,-2.73,13.20,-0.18,0.36,-0.65,1721199792602
0.14,-0.49,10.68,-0.03,0.24,-0.75,1721199792612
-5.40,-1.14,7.81,-0.09,0.21,-0.47,1721199792622
-4.15,3.09,12.45,0.00,0.37,-0.19,1721199792632
0.11,1.81,9.50,0.01,0.29,-0.14,1721199792642
2.17,-7.92,7.29,-0.20,0.30,-0.29,1721199792652
-0.94,4.89,17.67,0.00,0.42,-0.49,1721199792662
-0.71,-4.52,3.58,0.02,0.11,-0.34,1721199792672
-3.35,0.05,12.31,-0.05,0.50,-0.24,1721199792682
0.49,8.71,14.96,0.19,0.44,-0.29,1721199792692
-1.12,1.52,2.85,0.10,0.05,-0.22,1721199792702
-2.45,1.46,14.60,-0.00,0.56,-0.30,1721199792712
-1.84,-4.87,4.78,0.15,0.06,-0.29,1721199792722
-5.28,-1.03,9.96,0.01,0.45,-0.23,1721199792732
-0.79,0.23,12.84,0.17,0.35,0.10,1721199792742
0.51,5.20,11.39,0.18,0.27,0.14,1721199792752
0.99,0.79,8.98,0.13,0.27,-0.13,1721199792762
-2.39,-1.13,9.99,0.04,0.13,-0.37,1721199792772
-4.08,-1.08,10.38,0.13,0.22,-0.12,1721199792782
-2.79,-2.72,5.69,0.03,0.20,0.14,1721199792792
-2.04,2.91,13.10,0.06,0.20,0.21,1721199792802
2.21,0.29,7.18,0.08,0.36,0.09,1721199792812
-0.27,-5.81,11.13,-0.19,0.13,-0.26,1721199792822
-4.56,1.58,10.72,0.16,0.02,-0.12,1721199792832
-1.70,-1.25,6.47,-0.01,0.32,0.28,1721199792842
0.02,4.99,18.19,0.14,0.04,0.53,1721199792852
2.07,-3.96,4.70,0.02,0.08,0.26,1721199792862
0.80,-0.51,13.40,-0.07,0.19,-0.06,1721199792872
-1.54,-1.90,7.40,-0.01,0.04,-0.01,1721199792882
-4.02,6.17,11.68,0.16,0.09,0.24,1721199792892
1.96,1.56,7.59,0.18,0.31,0.37,1721199792902
0.48,-0.15,7.31,0.13,-0.12,0.29,1721199792912
0.72,-1.90,12.49,-0.08,0.33,0.07,1721199792922
-1.06,0.90,13.90,0.01,-0.12,0.18,1721199792932
-2.02,3.27,3.59,0.16,-0.11,0.31,1721199792942
1.45,-0.33,11.90,-0.07,0.41,0.05,1721199792952
-0.42,-0.65,12.57,0.04,-0.17,-0.03,1721199792962
-5.19,0.39,9.70,-0.18,0.07,0.04,1721199792972
-2.51,4.33,14.74,0.07,0.09,0.30,1721199792982
-0.13,-0.99,5.95,-0.06,0.02,0.48,1721199792992
1.29,2.77,11.31,0.04,-0.00,0.33,1721199793002
3.11,-3.31,7.00,-0.16,0.02,0.11,1721199793012
-1.00,5.84,11.96,0.07,-0.05,-0.02,1721199793022
0.58,-5.17,8.46,-0.18,0.15,0.17,1721199793032
-3.36,4.92,14.81,0.15,-0.20,0.38,1721199793042
1.75,-0.93,6.86,-0.04,0.31,0.41,1721199793052
1.62,-0.54,14.51,-0.18,-0.08,0.18,1721199793062
-1.02,4.65,10.23,0.08,-0.09,-0.01,1721199793072
-0.72,-5.29,6.00,-0.18,0.07,0.12,1721199793082
-2.37,-1.02,12.77,0.05,-0.07,0.31,1721199793092
1.27,-1.12,10.50,-0.00,0.21,0.41,1721199793102
-0.43,1.18,8.57,-0.03,-0.15,0.35,1721199793112
0.87,3.73,13.17,-0.02,0.08,0.16,1721199793122
2.44,-3.35,10.02,-0.14,-0.08,0.11,1721199793132
-2.26,-1.25,6.94,-0.05,-0.25,0.10,1721199793142
0.45,-3.66,10.41,-0.23,0.23,0.10,1721199793152
0.92,-1.39,16.15,-0.15,-0.03,0.19,1721199793162
-0.24,4.27,8.14,-0.07,-0.08,0.13,1721199793172
0.70,-4.33,8.98,-0.27,0.12,-0.01,1721199793182
-1.10,2.23,13.01,-0.13,-0.09,-0.05,1721199793192
0.44,-3.46,10.82,-0.27,0.05,0.08,1721199793202
-1.71,-0.98,8.58,-0.10,-0.15,0.10,1721199793212
0.97,-0.57,9.69,-0.15,0.34,0.00,1721199793222
-0.01,5.38,15.42,-0.11,-0.02,-0.13,1721199793232
-2.41,4.72,9.14,-0.07,-0.07,-0.21,1721199793242
-2.26,-1.11,4.51,0.12,-0.05,-0.09,1721199793252
1.47,-2.35,16.17,-0.07,0.28,0.11,1721199793262
-1.19,2.62,9.08,0.28,-0.25,0.11,1721199793272
0.81,-0.40,10.71,-0.00,0.37,-0.07,1721199793282
0.31,1.29,11.61,0.21,-0.28,0.02,1721199793292
-1.35,0.32,7.64,0.06,0.10,0.00,1721199793302
-0.88,-0.97,12.97,0.09,-0.00,0.12,1721199793312
-0.15,0.44,11.35,0.07,0.06,0.12,1721199793322
1.28,4.85,10.83,0.13,0.08,-0.01,1721199793332
0.01,-2.96,8.74,0.07,-0.03,-0.04,1721199793342
-1.59,-0.07,10.67,0.10,0.03,0.25,1721199793352
2.25,1.04,13.25,0.17,0.24,0.25,1721199793362
1.81,-4.43,6.01,0.11,-0.17,0.19,1721199793372
-1.20,6.98,14.23,0.04,0.16,-0.09,1721199793382
0.65,2.53,8.82,0.12,-0.15,0.02,1721199793392
-1.91,-0.83,7.23,-0.07,0.04,0.01,1721199793402
0.43,-6.95,11.48,-0.02,0.15,0.01,1721199793412
-2.14,2.99,9.86,0.24,-0.13,0.13,1721199793422
-0.38,7.06,8.39,0.13,0.24,0.13,1721199793432
0.92,0.04,12.43,0.02,-0.03,0.05,1721199793442
-1.98,0.83,13.19,0.06,-0.09,0.07,1721199793452
-1.94,-1.84,6.79,0.03,-0.00,0.09,1721199793462
-1.40,-0.53,13.51,0.01,0.05,0.21,1721199793472
-0.98,-0.96,6.92,0.21,-0.19,0.25,1721199793482
-0.32,1.20,13.74,0.05,0.09,0.23,1721199793492
-0.75,9.90,7.58,0.30,-0.11,0.23,1721199793502
0.57,-2.55,11.63,-0.28,0.15,0.13,1721199793512
-2.47,0.78,15.15,0.19,-0.39,0.32,1721199793522
2.75,-3.96,2.82,-0.04,0.21,0.32,1721199793532
2.29,5.30,18.02,0.08,-0.11,0.14,1721199793542
0.08,5.21,4.65,0.18,-0.27,-0.00,1721199793552
-3.03,2.38,13.76,-0.13,0.00,-0.03,1721199793562
-3.35,-3.96,4.73,0.01,-0.30,0.36,1721199793572
-0.44,1.50,12.50,-0.06,0.08,0.43,1721199793582
4.02,-3.34,6.39,0.07,-0.32,0.27,1721199793592
-0.11,-1.34,9.45,-0.11,-0.22,0.03,1721199793602
1.17,5.85,6.39,0.12,0.03,0.01,1721199793612
2.17,-5.91,17.82,-0.50,-0.00,-0.07,1721199793622
-3.07,4.86,12.11,0.29,-0.51,0.30,1721199793632
5.03,-8.29,-0.76,-0.32,0.25,0.31,1721199793642
-1.47,0.15,11.88,-0.15,-0.25,-0.06,1721199793652
1.22,-2.89,3.94,-0.10,-0.14,-0.26,1721199793662
-4.47,6.46,15.71,-0.03,-0.15,-0.09,1721199793677
-6.20,-0.78,7.50,-0.09,-0.29,0.15,1721199793682
-0.73,-2.48,10.23,-0.38,0.16,0.52,1721199793692
4.46,-1.78,11.84,-0.21,-0.19,0.21,1721199793702
4.43,2.75,9.33,-0.16,-0.05,-0.18,1721199793712
3.45,-4.45,14.72,-0.28,-0.06,-0.47,1721199793722
-4.82,3.55,11.53,-0.14,-0.36,-0.30,1721199793732
-6.34,3.73,4.11,-0.03,-0.03,-0.08,1721199793742
-1.35,-6.67,13.03,-0.19,-0.06,0.25,1721199793752
-0.40,2.86,10.97,0.01,-0.22,0.25,1721199793762
3.48,1.76,8.89,-0.01,0.01,-0.08,1721199793772
0.96,-2.66,14.12,-0.14,-0.23,-0.28,1721199793782
-1.89,7.22,12.35,0.15,-0.04,-0.25,1721199793792
-1.07,-3.63,7.65,-0.09,-0.18,-0.14,1721199793802
-7.26,0.38,9.07,0.14,-0.44,0.02,1721199793812
0.54,-4.37,9.15,0.06,0.22,0.07,1721199793822
2.27,1.74,14.50,0.24,-0.24,0.11,1721199793832
1.88,-0.87,5.32,0.05,-0.10,-0.12,1721199793842
-1.18,12.11,19.44,0.18,-0.10,-0.43,1721199793852
-1.31,-2.83,2.74,0.19,-0.46,-0.10,1721199793862
-3.57,-4.35,11.12,-0.17,0.04,-0.03,1721199793872
-0.55,1.84,13.08,0.30,-0.36,-0.04,1721199793882
-0.85,-5.42,4.03,-0.15,-0.19,-0.05,1721199793892
-2.12,4.77,19.01,0.06,-0.11,-0.22,1721199793902
-0.22,4.13,6.33,0.13,-0.19,-0.27,1721199793912
-0.66,-6.72,10.19,-0.17,-0.37,0.00,1721199793922
-1.70,3.27,12.13,0.18,-0.13,-0.02,1721199793932
2.78,-1.81,6.61,0.02,-0.20,-0.17,1721199793942
-1.91,7.15,14.05,0.25,-0.38,-0.31,1721199793952
-1.58,1.30,5.93,0.15,-0.10,-0.35,1721199793962
-3.01,-0.32,12.47,0.08,-0.25,-0.04,1721199793972
0.00,-1.38,8.52,0.11,-0.04,-0.05,1721199793982
3.47,0.65,16.28,0.13,-0.17,-0.23,1721199793992
-0.03,4.70,-1.59,0.51,-0.53,-0.16,1721199794002
2.07,-4.95,13.48,-0.11,0.38,-0.30,1721199794012
-0.77,5.69,16.89,0.35,-0.62,-0.25,1721199794022
-1.39,2.01,7.12,-0.02,0.12,-0.35,1721199794032
-1.07,-3.16,10.29,0.15,-0.30,-0.01,1721199794042
0.14,-0.35,10.28,-0.03,0.03,0.04,1721199794052
4.16,4.83,9.12,0.23,-0.10,-0.21,1721199794062
3.39,0.51,10.65,-0.16,-0.05,-0.54,1721199794072
-2.61,2.32,12.17,0.08,-0.39,-0.59,1721199794082
-3.82,-1.03,9.11,-0.13,0.09,-0.34,1721199794092
-2.13,-1.85,7.81,-0.03,-0.11,-0.03,1721199794102
1.04,-1.94,12.27,-0.19,0.04,-0.15,1721199794112
0.10,4.24,7.26,0.12,-0.16,-0.35,1721199794122
0.49,-3.91,11.23,-0.34,0.25,-0.51,1721199794132
-2.46,2.91,13.77,0.09,-0.31,-0.35,1721199794142
-0.09,-2.95,5.85,-0.36,0.13,-0.23,1721199794152
0.26,6.95,10.84,0.11,-0.26,-0.13,1721199794162
5.71,-10.00,6.48,-0.54,0.40,-0.50,1721199794172
-3.99,3.90,15.70,-0.08,-0.43,-0.72,1721199794182
-2.55,-2.09,3.45,-0.28,0.30,-0.65,1721199794192
-2.14,-3.23,14.73,-0.21,0.01,-0.32,1721199794202
-0.55,-0.18,9.22,-0.11,0.11,-0.19,1721199794212
0.17,5.00,13.85,-0.20,0.24,-0.36,1721199794222
0.49,-2.86,9.17,-0.20,-0.05,-0.48,1721199794232
-1.13,-1.18,10.99,-0.23,0.21,-0.58,1721199794242
0.88,-2.01,8.72,-0.09,0.09,-0.41,1721199794252
-1.33,0.96,11.10,-0.07,0.21,-0.56,1721199794262
-1.21,0.39,9.63,0.09,0.12,-0.58,1721199794272
-0.27,-0.53,12.30,0.03,0.29,-0.30,1721199794282
-0.70,-2.22,5.86,-0.01,0.04,-0.39,1721199794292
-2.09,2.55,16.98,-0.08,0.28,-0.62,1721199794302
-0.50,3.22,9.71,0.26,0.04,-0.32,1721199794312
-0.52,-12.14,4.63,-0.09,0.19,-0.18,1721199794322
-1.26,0.37,16.07,0.08,0.29,-0.28,1721199794332
-0.65,3.50,6.50,0.09,0.12,-0.28,1721199794342
-1.68,3.88,13.62,0.02,0.12,-0.20,1721199794352
3.40,1.88,11.03,0.11,0.44,-0.09,1721199794362
1.22,-3.11,9.50,-0.05,0.09,-0.24,1721199794372
-1.97,-2.17,10.43,-0.06,0.12,-0.44,1721199794382
0.26,4.47,13.89,0.19,0.42,-0.26,1721199794392
-0.25,3.41,2.71,0.29,0.05,0.02,1721199794402
-0.73,-3.04,14.46,-0.14,0.40,-0.25,1721199794412
-2.54,3.67,13.99,0.24,-0.02,-0.20,1721199794422
0.45,-7.01,8.91,-0.21,0.42,-0.08,1721199794432
-1.88,5.55,18.59,0.17,-0.01,0.03,1721199794442
0.90,8.92,1.20,0.27,0.32,-0.18,1721199794452
0.84,-0.79,13.94,0.03,0.28,-0.46,1721199794462
-2.91,-6.29,7.35,0.17,-0.12,-0.14,1721199794472
-5.19,4.18,14.25,0.12,0.38,-0.01,1721199794482
0.53,1.49,5.67,0.37,0.11,0.24,1721199794492
1.45,2.42,11.36,0.15,0.22,0.21,1721199794502
1.51,1.91,9.86,0.27,0.11,-0.06,1721199794512
-0.86,4.01,15.07,0.01,0.25,-0.30,1721199794522
-1.76,-2.60,8.15,0.14,-0.07,0.23,1721199794532
-0.28,5.20,8.61,0.20,0.31,0.32,1721199794542
4.19,0.64,9.33,0.11,0.22,-0.04,1721199794552
-1.50,0.88,8.59,0.09,-0.10,-0.33,1721199794562
-4.17,-3.77,11.24,-0.14,0.29,-0.26,1721199794572
-4.62,-1.29,11.16,0.10,-0.03,0.28,1721199794582
0.40,4.00,6.75,0.15,0.25,0.51,1721199794592
5.50,-2.82,7.73,-0.11,0.06,0.15,1721199794602
2.15,6.04,18.64,0.09,-0.08,-0.29,1721199794612
0.94,-5.33,5.29,-0.20,0.06,-0.28,1721199794622
-5.89,3.22,14.49,-0.11,-0.01,-0.10,1721199794632
-1.09,-1.40,0.27,0.02,0.11,0.07,1721199794642
0.55,-7.23,14.43,-0.40,0.12,-0.14,1721199794652
-0.50,1.75,14.57,0.07,-0.06,-0.02,1721199794662
2.73,-1.54,9.29,-0.36,0.35,-0.05,1721199794672
-0.18,4.37,15.46,-0.09,-0.21,-0.03,1721199794682
2.72,-1.38,7.33,-0.20,0.35,-0.13,1721199794692
1.77,-4.44,12.07,-0.18,-0.06,-0.01,1721199794702
-1.49,4.70,9.58,-0.06,0.06,-0.10,1721199794712
2.24,-2.01,8.96,-0.18,0.29,-0.16,1721199794722
-1.41,1.13,12.16,-0.13,-0.05,-0.13,1721199794732
0.27,-0.29,11.49,-0.15,0.26,-0.15,1721199794742
-0.98,-3.37,7.85,-0.18,-0.03,-0.21,1721199794752
-1.17,-0.06,13.24,-0.14,0.39,-0.27,1721199794762
-1.24,4.71,10.83,0.04,0.08,-0.29,1721199794772
-2.71,2.61,9.16,-0.09,0.07,-0.18,1721199794782
-0.55,1.92,10.11,0.11,0.15,-0.15,1721199794792
1.75,-4.52,9.39,-0.03,0.17,-0.10,1721199794802
-0.94,3.25,14.21,0.14,0.03,-0.19,1721199794812
-2.59,4.54,6.56,0.21,0.03,-0.26,1721199794822
-2.58,-1.57,10.71,0.01,0.14,-0.20,1721199794832
-3.56,0.28,11.03,0.23,0.04,-0.11,1721199794842
-1.01,-3.52,6.77,-0.01,0.31,-0.10,1721199794852
-0.58,1.68,12.91,0.21,0.06,-0.11,1721199794862
0.61,-3.72,8.72,0.06,0.20,-0.20,1721199794872
-2.83,4.24,14.43,0.14,0.00,-0.26,1721199794882
-0.63,0.47,8.84,0.01,0.31,-0.27,1721199794892
-0.69,-3.30,11.98,-0.01,0.03,-0.14,1721199794902
-2.44,-1.75,8.56,0.06,0.04,-0.14,1721199794912
-1.79,0.95,8.21,0.18,0.03,-0.10,1721199794922
0.03,-0.80,13.46,-0.03,0.32,-0.08,1721199794932
-2.56,1.25,9.18,0.12,-0.16,-0.15,1721199794942
-1.82,-4.60,7.61,-0.19,0.27,-0.12,1721199794952
-1.27,2.23,16.16,0.11,0.12,-0.00,1721199794962
0.45,3.20,7.86,0.07,0.11,0.10,1721199794972
-0.84,2.42,10.54,0.07,-0.08,0.06,1721199794982
-0.28,2.12,11.69,0.02,0.10,-0.04,1721199794992
-0.16,0.18,15.26,-0.05,0.03,-0.05,1721199795002
-1.79,4.99,5.86,0.23,-0.11,0.05,1721199795012
0.22,-7.71,6.33,-0.16,0.10,0.07,1721199795022
-1.64,5.44,13.04,0.22,-0.21,0.16,1721199795032
4.79,-4.10,9.77,-0.14,0.46,0.11,1721199795042
-0.79,7.96,18.49,0.14,-0.28,-0.03,1721199795052
-2.63,5.85,4.57,0.07,-0.01,-0.00,1721199795062
-1.16,3.20,16.76,-0.04,0.12,0.22,1721199795072
1.83,-3.67,2.72,0.09,-0.21,0.26,1721199795082
2.64,-5.04,10.47,-0.18,0.29,0.06,1721199795092
3.61,9.22,17.76,0.24,0.08,0.08,1721199795102
2.17,2.56,4.54,0.03,-0.06,-0.05,1721199795112
-3.80,3.45,10.64,0.03,-0.05,-0.21,1721199795122
-0.99,-4.28,11.00,-0.18,0.19,-0.17,1721199795132
-4.41,-0.21,12.28,0.02,-0.22,0.18,1721199795142
-1.44,0.97,5.31,0.04,0.07,0.44,1721199795152
2.07,-3.13,9.64,-0.07,0.04,0.33,1721199795162
1.71,3.04,14.55,-0.03,0.00,-0.04,1721199795172
0.71,-3.35,7.81,-0.22,-0.06,-0.26,1721199795182
-5.86,-4.76,14.31,-0.28,-0.26,-0.16,1721199795192
-5.93,4.80,6.68,0.12,-0.02,0.47,1721199795202
1.94,3.51,12.36,-0.19,0.26,0.40,1721199795212
1.83,-3.11,8.73,-0.18,-0.44,0.06,1721199795222
-0.04,-2.82,12.67,-0.27,0.06,-0.26,1721199795232
-0.77,-4.99,7.99,-0.13,-0.26,0.05,1721199795242
-3.01,9.49,11.42,0.06,-0.02,0.30,1721199795252
4.75,3.27,10.46,0.02,0.06,0.27,1721199795262
0.21,-6.09,5.41,-0.22,-0.39,-0.15,1721199795272
-1.46,-7.46,15.12,-0.26,0.20,-0.35,1721199795282
-1.40,-2.80,13.77,-0.02,-0.20,0.23,1721199795292
-0.33,6.18,8.30,0.14,0.08,0.50,1721199795302
5.34,8.45,12.85,0.20,0.19,0.06,1721199795312
2.55,-7.63,7.96,-0.27,-0.40,-0.33,1721199795322
-4.79,2.76,15.24,-0.05,-0.00,-0.32,1721199795332
1.12,-3.26,10.31,-0.02,0.13,0.03,1721199795342
-0.16,-2.51,7.47,0.21,-0.30,0.32,1721199795352
4.70,2.06,9.30,0.12,0.52,-0.09,1721199795362
4.07,0.86,15.67,-0.09,-0.10,-0.56,1721199795372
-4.75,2.57,11.81,-0.03,-0.25,-0.49,1721199795382
-3.67,-9.53,5.70,-0.12,0.11,-0.05,1721199795392
-1.43,4.52,13.88,0.24,0.15,0.32,1721199795402
5.33,0.84,7.52,0.04,0.19,0.07,1721199795412
2.38,7.07,16.82,0.04,-0.05,-0.38,1721199795422
1.39,-3.91,6.92,-0.11,0.09,-0.44,1721199795432
-4.64,1.56,12.06,0.02,-0.05,-0.28,1721199795442
-0.45,4.36,9.53,0.12,0.36,0.00,1721199795452
1.85,-4.02,6.46,0.05,-0.04,-0.05,1721199795462
0.62,-3.16,12.41,-0.02,0.22,-0.39,1721199795472
1.35,6.22,13.54,0.23,0.31,-0.42,1721199795482
-0.45,1.12,5.80,0.17,0.11,-0.19,1721199795492
-2.83,1.69,10.26,0.27,0.12,-0.13,1721199795502
-0.02,0.00,9.12,0.13,0.35,-0.22,1721199795512
-0.80,6.04,11.53,0.25,0.06,-0.08,1721199795522
0.96,-3.62,8.98,-0.14,0.35,-0.30,1721199795532
-2.24,1.01,13.21,0.17,0.01,-0.40,1721199795542
-2.01,4.06,8.08,0.15,0.44,-0.35,1721199795552
-1.56,-3.31,10.44,0.03,0.17,-0.07,1721199795562
-3.17,2.45,12.20,0.12,0.10,0.08,1721199795572
0.92,1.75,9.76,0.02,0.38,-0.14,1721199795582
-0.94,-0.79,6.00,0.06,-0.07,-0.08,1721199795592
-2.34,1.38,11.85,-0.05,0.30,-0.22,1721199795602
-0.96,-2.56,8.56,0.02,0.03,-0.09,1721199795612
-2.94,3.27,9.70,0.07,0.12,0.10,1721199795622
0.96,-8.06,9.64,-0.21,0.31,-0.18,1721199795632
-2.21,6.81,16.93,0.17,-0.13,-0.03,1721199795642
0.63,2.92,2.78,-0.02,0.26,0.21,1721199795652
0.91,3.71,16.71,-0.12,0.17,0.05,1721199795662
1.38,-2.24,9.39,-0.06,-0.08,-0.05,1721199795672
-0.73,-1.29,11.80,-0.04,0.07,-0.16,1721199795687
-1.56,3.97,8.36,0.12,0.04,-0.03,1721199795692
-0.07,-0.12,13.60,-0.21,0.35,-0.04,1721199795702
-2.53,5.74,12.60,0.08,-0.17,0.13,1721199795712
-0.12,0.39,5.53,-0.19,0.24,0.26,1721199795722
1.75,-5.69,13.14,-0.28,0.07,0.18,1721199795732
1.99,-4.86,8.51,-0.17,0.04,0.02,1721199795742
0.76,3.28,13.75,-0.12,0.27,-0.31,1721199795752
-1.56,0.32,9.99,0.04,-0.08,-0.16,1721199795762
-5.22,-1.15,7.62,-0.07,0.06,0.30,1721199795772
0.40,2.46,19.31,-0.14,0.40,0.46,1721199795782
3.86,4.36,7.34,0.16,-0.20,0.30,1721199795792
3.55,-3.61,8.02,-0.23,0.25,-0.12,1721199795802
0.09,2.63,14.03,0.07,-0.04,-0.43,1721199795812
-3.91,0.15,5.64,-0.01,-0.01,-0.17,1721199795822
-4.96,0.36,14.99,-0.09,0.15,-0.07,1721199795832
-2.55,-6.28,5.24,0.11,-0.22,0.29,1721199795842
-0.32,2.56,11.47,-0.02,0.33,0.37,1721199795852
3.56,0.38,8.28,0.15,-0.10,0.28,1721199795862
0.75,3.49,12.70,-0.07,0.11,-0.14,1721199795872
0.06,-1.20,13.69,-0.14,0.02,-0.38,1721199795882
-4.37,-0.62,9.21,0.02,-0.20,0.02,1721199795892
-2.46,-1.84,10.48,-0.14,0.29,0.25,1721199795902
0.38,5.97,13.20,0.17,-0.15,0.38,1721199795912
2.77,-6.21,1.81,-0.08,-0.06,0.15,1721199795922
1.03,0.97,14.37,-0.04,0.15,-0.33,1721199795932
1.00,3.66,10.71,0.16,0.02,-0.30,1721199795942
-3.91,-1.57,12.41,-0.12,-0.22,0.03,1721199795952
-3.74,5.47,9.47,0.32,-0.08,0.27,1721199795962
4.97,3.70,9.80,0.04,0.35,0.19,1721199795972
1.03,2.27,6.80,0.08,-0.55,-0.09,1721199795982
-0.55,-2.50,10.12,-0.06,0.22,-0.38,1721199795992
-1.57,-3.74,10.94,0.12,-0.09,-0.28,1721199796002
-4.96,5.96,10.72,0.19,-0.11,0.04,1721199796012
0.28,3.95,11.94,0.18,0.16,0.28,1721199796022
0.43,5.80,8.58,0.22,-0.10,0.01,1721199796032
0.68,-2.06,9.95,-0.10,0.02,-0.18,1721199796042
-3.04,-1.20,13.10,0.08,-0.30,-0.15,1721199796052
-1.93,0.34,4.45,0.17,-0.05,0.18,1721199796062
1.80,2.20,12.46,0.10,0.22,0.20,1721199796072
2.12,-3.71,8.88,-0.07,-0.26,0.03,1721199796082
-0.13,7.68,17.06,0.08,0.12,-0.19,1721199796092
1.70,-4.26,10.22,-0.07,0.04,-0.24,1721199796102
-5.22,1.79,10.53,0.08,-0.39,0.17,1721199796112
0.43,1.36,7.77,0.04,0.34,0.34,1721199796122
2.96,1.03,13.53,0.11,-0.15,0.14,1721199796132
-0.83,0.58,4.21,0.08,-0.24,-0.07,1721199796142
-1.23,-1.73,11.74,-0.06,0.01,-0.04,1721199796152
-1.87,-2.49,11.13,0.04,-0.12,0.11,1721199796162
-1.04,-2.88,6.05,-0.03,-0.15,0.27,1721199796172
0.64,1.10,10.55,-0.00,0.03,0.20,1721199796182
0.91,1.36,12.41,-0.08,-0.02,0.00,1721199796192
-1.95,-1.71,6.85,-0.13,-0.26,-0.03,1721199796202
-1.36,-1.05,14.19,-0.22,0.12,0.02,1721199796212
-1.34,-2.10,6.55,-0.03,-0.27,0.13,1721199796222
-0.39,-1.65,11.92,-0.27,0.10,0.03,1721199796232
1.51,4.42,13.27,0.05,-0.11,0.02,1721199796242
0.80,0.11,4.92,-0.18,-0.01,-0.10,1721199796252
-2.83,-1.53,11.23,-0.20,-0.23,-0.16,1721199796262
-1.08,-0.73,11.45,-0.16,-0.02,0.07,1721199796272
1.13,-0.79,11.43,-0.19,-0.12,0.12,1721199796282
1.13,1.11,9.96,-0.18,-0.15,-0.00,1721199796292
1.85,-1.13,9.50,-0.21,0.07,-0.24,1721199796302
-0.80,-1.05,12.10,-0.18,-0.10,-0.34,1721199796312
-3.12,2.89,13.13,-0.02,-0.14,-0.10,1721199796322
-0.23,-0.90,4.52,0.11,0.04,0.08,1721199796332
1.86,-1.60,19.82,-0.15,0.19,-0.12,1721199796342
-0.11,3.83,8.34,0.22,-0.33,0.10,1721199796352
1.99,-1.36,8.39,-0.10,0.34,-0.15,1721199796362
0.47,-0.98,12.10,0.19,-0.25,-0.25,1721199796372
-1.53,0.21,7.82,0.02,0.13,-0.31,1721199796382
-0.06,0.66,10.19,0.19,0.00,-0.06,1721199796392
1.30,-3.93,8.55,0.03,0.06,-0.07,1721199796402
0.52,1.55,13.96,0.11,0.05,-0.18,1721199796412
0.51,7.00,9.36,0.19,0.10,-0.29,1721199796422
-0.37,-0.84,8.61,-0.04,0.06,-0.31,1721199796432
-2.52,-3.82,16.10,-0.12,0.04,-0.25,1721199796442
-2.27,-2.66,6.95,0.03,-0.00,-0.10,1721199796452
1.05,1.88,9.98,0.04,0.29,0.05,1721199796462
2.94,1.25,10.49,0.10,0.10,-0.20,1721199796472
-1.12,5.98,9.51,0.18,0.06,-0.35,1721199796482
-2.08,-0.18,7.95,-0.02,0.19,-0.40,1721199796492
-2.95,-3.59,14.59,-0.02,0.07,-0.13,1721199796502
-1.14,3.20,8.26,0.29,0.12,0.06,1721199796512
2.13,0.82,9.04,0.07,0.29,-0.07,1721199796522
0.60,1.56,11.39,0.17,-0.02,-0.25,1721199796532
-1.45,-4.19,9.97,-0.07,0.18,-0.33,1721199796542
-4.64,3.47,13.94,0.21,0.02,-0.13,1721199796552
-1.69,-0.85,4.87,0.02,0.18,0.27,1721199796562
0.04,4.72,11.94,0.14,0.12,0.17,1721199796572
3.28,2.51,10.73,0.07,0.25,-0.23,1721199796582
-0.70,-0.21,6.60,0.04,-0.16,-0.26,1721199796592
-3.07,-1.08,14.74,-0.11,0.22,-0.26,1721199796602
-2.35,2.83,10.18,0.23,0.01,0.21,1721199796612
-0.72,3.55,3.49,0.05,0.06,0.27,1721199796622
1.48,-1.62,13.07,-0.06,0.07,-0.09,1721199796632
0.10,-2.75,11.12,-0.04,0.00,-0.21,1721199796642
-1.37,-3.58,10.92,-0.12,0.06,0.08,1721199796652
-0.45,6.12,11.09,0.15,0.03,0.25,1721199796662
4.06,3.06,7.29,0.02,0.13,0.03,1721199796672
-0.06,3.38,12.49,0.03,-0.11,-0.29,1721199796682
-2.65,-7.75,6.17,-0.20,-0.02,-0.18,1721199796692
-3.03,-3.59,16.78,-0.12,0.06,0.20,1721199796702
2.78,4.46,7.70,0.12,0.06,0.31,1721199796712
2.37,0.44,3.22,-0.04,-0.11,-0.15,1721199796722
-1.39,-2.70,15.37,-0.25,0.12,-0.55,1721199796732
-3.11,-2.80,13.38,-0.09,-0.01,-0.01,1721199796742
-2.11,-1.28,9.92,-0.11,0.14,0.34,1721199796752
0.54,-1.99,4.47,-0.02,-0.10,0.27,1721199796762
2.06,5.45,16.09,-0.04,0.25,-0.14,1721199796772
4.08,5.12,10.81,0.07,-0.02,-0.19,1721199796782
-0.68,1.60,10.05,-0.14,0.03,-0.22,1721199796792
-3.01,-9.17,6.60,-0.05,-0.15,-0.06,1721199796802
-2.12,3.26,16.90,0.00,0.31,-0.09,1721199796812
0.21,1.10,7.08,0.14,-0.09,0.04,1721199796822
-2.43,4.63,11.09,0.03,0.04,-0.01,1721199796832
2.06,-1.65,7.14,0.11,0.05,0.04,1721199796842
1.17,-4.03,14.24,-0.19,0.20,-0.19,1721199796852
-2.09,5.60,8.93,0.27,-0.18,-0.28,1721199796862
-1.36,1.32,5.73,0.02,0.25,-0.18,1721199796872
-1.22,0.85,16.41,0.10,0.02,0.03,1721199796882
0.14,2.98,14.82,-0.10,0.18,-0.17,1721199796892
-1.14,0.53,8.97,0.09,-0.28,-0.18,1721199796902
-0.92,-5.64,4.54,-0.09,0.19,-0.17,1721199796912
-0.36,6.90,15.01,0.32,0.07,-0.03,1721199796922
0.88,1.01,4.32,0.05,-0.04,-0.01,1721199796932
-1.68,3.28,12.33,0.06,-0.06,-0.30,1721199796942
-0.95,-4.75,7.98,-0.10,0.14,-0.41,1721199796952
-4.71,0.52,14.40,-0.03,-0.10,-0.13,1721199796962
-2.00,1.08,6.47,0.04,0.01,0.19,1721199796972
0.67,1.18,11.15,0.01,0.08,0.14,1721199796982
3.77,2.53,15.01,0.03,0.04,-0.14,1721199796992
-0.34,-0.90,6.38,0.01,-0.33,-0.42,1721199797002
-4.13,2.41,12.16,0.01,0.17,-0.34,1721199797012
-1.23,0.94,10.32,0.17,0.00,0.15,1721199797022
-0.57,1.31,10.30,0.08,-0.03,0.25,1721199797032
2.65,0.83,10.82,0.03,0.06,-0.07,1721199797042
1.84,1.24,11.66,0.03,-0.14,-0.21,1721199797052
-2.27,3.31,9.70,0.12,-0.09,-0.27,1721199797062
-3.17,-0.81,4.32,0.15,-0.08,-0.12,1721199797072
-3.01,-1.02,14.44,-0.08,0.15,0.11,1721199797082
0.17,3.73,12.79,0.17,-0.11,0.16,1721199797092
0.21,-2.65,3.94,-0.07,-0.09,0.01,1721199797102
-1.11,4.88,15.07,0.07,0.17,-0.10,1721199797112
1.41,1.02,10.87,0.04,-0.02,0.06,1721199797122
-1.86,2.30,8.57,0.07,-0.33,0.27,1721199797132
2.09,0.77,12.97,-0.03,0.23,0.17,1721199797142
2.24,-2.18,8.07,-0.07,-0.21,-0.06,1721199797152
-0.09,2.45,13.01,-0.02,0.04,-0.19,1721199797162
0.06,-4.35,9.41,-0.03,0.04,-0.07,1721199797172
-3.54,2.63,8.86,0.10,-0.18,0.19,1721199797182
-0.15,6.54,14.72,-0.03,0.23,0.10,1721199797192
1.08,-1.68,9.16,0.04,-0.40,0.10,1721199797202
0.17,-1.81,8.56,-0.13,0.10,0.02,1721199797212
2.69,-1.06,14.79,-0.01,-0.02,-0.07,1721199797222
-1.38,0.87,7.04,0.09,-0.34,0.14,1721199797232
-3.41,1.69,6.11,-0.04,0.06,-0.03,1721199797242
-0.78,0.43,12.85,-0.02,-0.01,-0.05,1721199797252
-2.34,-4.62,4.21,-0.15,-0.36,0.08,1721199797262
-2.39,-1.41,12.96,-0.15,-0.00,0.19,1721199797272
1.72,2.57,7.38,0.13,-0.17,0.21,1721199797282
4.22,-1.89,9.34,-0.12,0.07,-0.03,1721199797292
0.15,-1.76,12.58,-0.08,-0.30,-0.28,1721199797302
-4.63,0.86,7.96,0.02,-0.20,-0.21,1721199797312
-1.88,-1.83,13.92,-0.07,0.08,0.14,1721199797322
1.58,3.84,9.82,0.15,-0.18,0.36,1721199797332
3.49,-0.42,6.47,-0.07,-0.05,0.05,1721199797342
3.45,-2.14,15.14,-0.09,0.05,-0.40,1721199797352
0.28,-5.49,10.68,-0.09,-0.13,-0.35,1721199797362
-5.34,3.51,9.29,0.10,-0.11,-0.15,1721199797372
-0.62,2.11,8.74,0.04,0.13,0.12,1721199797382
2.03,4.39,12.28,0.13,-0.13,0.13,1721199797392
3.83,-4.56,6.28,-0.16,0.03,-0.04,1721199797402
1.82,-2.76,16.38,-0.19,-0.01,-0.32,1721199797412
0.44,-0.26,10.28,0.01,0.00,-0.30,1721199797422
-0.53,1.97,8.43,0.06,-0.01,-0.12,1721199797432
0.91,-2.72,10.86,-0.08,0.14,-0.24,1721199797442
-1.60,4.45,11.83,0.08,-0.12,-0.18,1721199797452
0.10,2.66,10.58,-0.07,0.20,-0.16,1721199797462
-0.41,-2.03,9.26,-0.01,-0.11,-0.17,1721199797472
-0.76,1.28,7.07,0.03,0.13,-0.17,1721199797482
2.51,2.82,13.38,0.03,0.25,-0.35,1721199797492
0.28,0.02,10.71,-0.02,-0.08,-0.39,1721199797502
-3.17,4.45,12.13,0.12,0.10,-0.31,1721199797512
-2.16,-1.54,9.88,0.01,0.27,-0.39,1721199797522
-5.03,1.27,12.57,0.22,-0.18,-0.10,1721199797532
-1.73,2.32,10.47,0.08,0.29,0.06,1721199797542
-0.02,4.07,8.04,0.21,-0.01,-0.10,1721199797552
1.10,3.63,14.31,0.10,0.18,-0.27,1721199797562
0.76,-0.74,4.72,0.30,-0.16,-0.16,1721199797572
-2.38,3.57,11.21,0.07,0.24,-0.24,1721199797582
-0.59,4.31,10.85,0.26,0.05,-0.23,1721199797592
-0.84,-4.35,7.65,-0.07,0.01,-0.16,1721199797602
-1.90,3.47,12.05,0.11,0.08,-0.05,1721199797612
1.56,0.29,8.64,-0.02,0.18,-0.14,1721199797622
-0.22,3.83,13.78,0.08,-0.01,-0.28,1721199797632
-3.47,1.65,8.85,-0.10,-0.00,-0.19,1721199798168
-0.61,3.66,9.48,0.05,0.15,0.09,1721199798172
0.35,-4.84,4.68,-0.19,-0.03,0.14,1721199798182
1.64,5.04,17.89,-0.03,0.28,-0.06,1721199798192
4.76,0.24,5.83,0.13,0.08,-0.38,1721199798202
-3.64,-4.99,7.19,-0.16,-0.05,-0.35,1721199798212
-5.92,8.98,13.25,0.16,0.22,-0.10,1721199798222
-0.22,1.19,11.58,-0.08,0.16,0.05,1721199798232
-2.44,-2.38,11.65,-0.01,-0.21,0.12,1721199798242
-1.68,-3.12,6.33,-0.21,0.33,-0.07,1721199798252
-0.99,1.49,17.61,-0.07,0.08,-0.18,1721199798262
-3.31,-2.34,4.53,0.01,-0.11,-0.07,1721199798272
-2.91,-1.79,10.32,-0.03,0.19,0.14,1721199798282
1.12,6.94,15.23,0.11,0.24,0.21,1721199798292
0.70,-1.99,7.78,-0.16,-0.21,-0.02,1721199798302
-4.42,-1.86,9.96,-0.14,-0.15,-0.15,1721199798312
0.09,-1.59,12.10,-0.11,0.25,0.09,1721199798322
0.59,3.04,8.79,0.11,-0.14,0.35,1721199798332
2.40,-2.78,9.84,-0.16,0.32,-0.02,1721199798342
1.29,-0.26,17.50,0.02,-0.13,-0.18,1721199798352
-2.16,2.45,7.18,0.06,0.01,0.03,1721199798362
-2.42,0.38,8.14,0.03,-0.06,0.29,1721199798372
0.79,3.03,8.90,0.09,0.03,0.34,1721199798382
6.33,-2.55,11.98,-0.17,0.16,0.01,1721199798392
1.52,-4.01,8.80,-0.05,-0.30,-0.24,1721199798402
-2.52,1.12,11.25,-0.08,0.27,-0.25,1721199798412
-1.68,4.78,10.35,0.17,0.00,0.05,1721199798422
1.12,4.22,10.68,0.06,0.26,0.22,1721199798432
1.49,-0.23,13.31,0.02,-0.09,-0.03,1721199798442
-2.35,-4.04,7.54,-0.02,-0.20,-0.12,1721199798452
-0.98,0.18,15.66,-0.06,0.29,0.07,1721199798462
-0.02,-1.95,2.56,0.26,-0.23,0.26,1721199798472
1.58,2.78,10.76,0.09,0.48,0.06,1721199798482
3.21,0.20,12.47,0.15,-0.13,-0.15,1721199798492
-4.30,-0.75,8.64,-0.11,-0.20,-0.15,1721199798502
-1.82,1.92,16.62,0.02,0.32,0.08,1721199798512
3.29,-2.46,6.36,0.06,-0.09,0.41,1721199798522
2.30,3.08,9.75,0.07,0.18,0.09,1721199798532
1.92,-4.35,7.48,-0.08,0.05,-0.41,1721199798542
-6.27,10.17,13.44,0.13,-0.13,-0.34,1721199798552
-0.11,-4.50,10.78,-0.03,0.30,0.22,1721199798562
0.69,-1.05,8.74,0.18,-0.13,0.35,1721199798572
2.86,1.39,12.90,-0.10,0.39,-0.22,1721199798582
-0.22,8.89,12.94,0.39,-0.18,-0.26,1721199798592
-1.05,-2.18,4.95,-0.03,0.26,-0.11,1721199798602
-4.02,1.71,15.77,0.28,-0.10,0.03,1721199798612
-1.67,-4.76,4.15,-0.10,0.16,0.11,1721199798622
-0.12,5.68,16.96,0.12,0.07,0.09,1721199798632
4.45,-1.13,4.95,0.09,0.11,-0.06,1721199798642
0.41,2.59,15.21,0.11,-0.03,-0.23,1721199798652
-2.99,2.68,4.41,0.26,-0.00,-0.32,1721199798662
-6.02,-0.83,9.32,-0.01,0.06,-0.15,1721199798672
-3.86,-4.41,11.59,-0.02,0.01,0.33,1721199798682
1.00,3.12,12.98,0.14,0.09,0.38,1721199798692
4.58,1.66,5.10,0.05,0.04,0.07,1721199798702
1.81,4.30,10.72,-0.00,0.07,-0.30,1721199798712
-0.62,-4.77,8.26,-0.17,-0.10,-0.18,1721199798722
-3.05,-3.35,11.41,-0.15,-0.03,0.07,1721199798732
2.16,1.60,12.60,-0.08,0.30,0.08,1721199798742
2.49,-4.93,5.95,-0.12,-0.30,-0.00,1721199798752
0.57,-1.75,14.54,-0.24,0.19,-0.27,1721199798762
-0.01,6.62,10.69,0.03,-0.02,-0.16,1721199798772
-0.56,2.48,11.00,-0.27,0.21,-0.07,1721199798782
0.53,-9.39,10.46,-0.35,-0.02,-0.01,1721199798792
-1.04,0.08,8.39,-0.11,-0.05,0.01,1721199798802
5.71,-3.45,11.51,-0.28,0.34,-0.05,1721199798812
1.70,5.59,14.37,-0.07,-0.12,-0.19,1721199798822
-1.37,4.27,8.88,-0.09,0.16,-0.24,1721199798832
-1.76,1.33,13.84,-0.20,0.10,0.00,1721199798842
-0.53,-5.20,9.20,-0.26,-0.01,0.09,1721199798852
1.16,-0.58,9.29,-0.05,0.21,-0.08,1721199798862
2.02,-4.07,5.98,-0.04,0.06,-0.27,1721199798872
-3.50,8.07,12.41,0.05,-0.02,-0.26,1721199798882
-0.61,4.58,15.58,0.01,0.27,-0.15,1721199798892
-4.01,0.42,6.15,-0.10,-0.13,0.02,1721199798902
-1.15,-5.78,9.87,-0.17,0.38,0.03,1721199798912
1.01,0.34,13.26,0.10,0.04,0.04,1721199798922
-1.29,1.06,3.22,0.12,0.00,-0.03,1721199798932
-1.27,-0.17,13.92,-0.00,0.31,-0.23,1721199798942
-2.03,4.76,11.96,0.10,-0.06,-0.06,1721199798952
-2.64,0.28,8.17,-0.04,0.00,0.13,1721199798962
1.51,-0.36,11.83,0.07,0.18,0.15,1721199798972
2.45,-2.19,8.42,0.07,-0.00,-0.10,1721199798982
-0.81,-0.29,11.16,-0.00,0.03,-0.25,1721199798992
-2.53,4.15,10.24,0.14,0.06,-0.18,1721199799002
-3.19,3.30,10.49,-0.01,0.04,0.02,1721199799012
-3.81,-1.31,9.42,0.05,-0.15,0.20,1721199799022
-0.09,-1.80,9.26,0.01,0.34,0.14,1721199799032
1.51,-0.41,13.25,0.04,-0.08,0.06,1721199799042
-1.58,-0.54,7.97,0.03,-0.16,0.04,1721199799052
-0.84,7.05,16.04,0.07,0.21,0.04,1721199799062
1.20,5.30,8.27,0.29,-0.25,0.05,1721199799072
-0.34,-4.08,8.43,-0.03,-0.04,0.04,1721199799082
-1.38,0.00,9.25,0.21,-0.23,0.18,1721199799092
1.36,1.30,12.88,0.07,0.15,0.05,1721199799102
0.41,1.58,5.85,0.34,-0.34,0.02,1721199799112
-0.31,-0.46,8.86,0.06,0.15,-0.05,1721199799122
-1.91,3.10,12.70,0.30,-0.20,0.07,1721199799132
-1.26,-1.35,9.12,-0.11,0.08,0.18,1721199799142
-0.72,7.37,15.95,0.19,-0.16,0.23,1721199799152
3.01,-2.60,4.84,0.05,-0.02,0.16,1721199799162
0.26,-1.79,13.76,-0.05,-0.05,-0.05,1721199799172
-1.04,4.93,8.26,0.22,-0.06,-0.07,1721199799182
0.43,-2.92,8.77,-0.03,-0.00,0.12,1721199799192
-0.50,4.98,12.08,0.27,-0.16,0.18,1721199799202
2.25,-3.22,7.18,-0.05,0.15,-0.01,1721199799212
-2.78,4.45,14.99,0.03,-0.36,-0.00,1721199799222
-2.08,0.24,7.62,-0.02,-0.06,0.12,1721199799232
-0.23,-2.85,6.94,-0.03,-0.12,0.31,1721199799242
1.60,-1.35,10.61,-0.08,-0.00,0.23,1721199799252
1.81,-1.05,11.05,-0.02,-0.16,0.11,1721199799262
-2.36,0.42,4.79,-0.03,-0.27,-0.05,1721199799272
0.45,-3.12,18.81,-0.34,0.35,-0.12,1721199799282
-2.35,-0.90,9.25,0.03,-0.51,0.21,1721199799292
-1.86,1.68,7.94,-0.29,0.20,0.17,1721199799302
2.35,3.52,14.44,0.08,-0.13,0.10,1721199799312
0.81,-4.67,7.79,-0.37,-0.08,-0.11,1721199799322
-2.90,0.72,11.87,-0.01,-0.31,-0.03,1721199799332
-1.21,-4.26,5.86,-0.26,0.09,0.15,1721199799342
-1.16,7.03,14.47,-0.01,-0.28,0.28,1721199799352
4.47,-1.19,7.24,-0.22,-0.06,0.05,1721199799362
2.72,1.77,13.48,-0.13,-0.20,-0.27,1721199799372
0.42,-5.12,8.11,-0.20,-0.04,-0.43,1721199799382
-4.91,-1.89,13.04,-0.06,-0.24,-0.06,1721199799392
-0.41,5.20,10.60,0.14,0.09,0.27,1721199799402
4.11,5.15,7.34,0.14,-0.07,0.16,1721199799412
4.89,1.30,13.83,-0.15,0.03,-0.35,1721199799422
-0.84,-7.35,5.07,0.02,-0.34,-0.46,1721199799432
-3.48,-4.18,16.33,-0.19,0.40,-0.35,1721199799442
-2.04,4.02,11.70,0.28,-0.19,0.03,1721199799452
-0.45,2.27,5.78,0.11,0.22,0.07,1721199799462
3.78,1.47,15.12,0.03,0.09,-0.20,1721199799472
-0.05,-0.91,8.60,-0.03,-0.24,-0.53,1721199799482
-3.26,0.90,12.50,-0.02,0.09,-0.31,1721199799492
1.48,-2.12,6.18,0.14,0.05,0.02,1721199799502
2.25,-0.19,13.07,0.00,0.13,-0.23,1721199799512
-0.84,3.84,10.18,0.15,-0.03,-0.51,1721199799522
-2.22,-1.97,10.75,-0.08,0.24,-0.39,1721199799532
-3.31,0.99,8.28,0.20,0.00,-0.08,1721199799542
0.45,-3.75,7.76,0.05,0.12,0.04,1721199799552
2.99,2.71,13.14,0.19,0.14,-0.02,1721199799562
3.70,3.27,12.73,0.02,0.31,-0.34,1721199799572
-2.21,1.72,7.37,0.18,-0.21,-0.34,1721199799582
-2.20,-1.75,10.47,-0.01,0.40,-0.27,1721199799592
0.10,5.07,15.02,0.37,0.10,-0.08,1721199799602
0.33,0.53,5.75,0.12,0.13,-0.16,1721199799612
-2.49,6.74,12.82,0.26,0.09,-0.28,1721199799622
-1.70,-4.50,10.57,-0.04,0.20,-0.29,1721199799632
-5.26,-3.56,11.12,0.15,-0.12,-0.04,1721199799642
-1.54,0.65,6.08,0.14,0.34,0.14,1721199799652
3.26,6.79,12.92,0.28,0.14,0.10,1721199799662
2.91,0.00,6.34,0.08,0.04,-0.17,1721199799672
-2.86,2.46,16.60,0.03,0.03,-0.36,1721199799682
-2.83,-2.45,7.95,-0.02,0.09,0.01,1721199799692
-1.82,5.62,11.99,0.21,0.06,0.23,1721199799702
2.53,-3.74,4.94,-0.02,0.11,0.07,1721199799712
-1.33,3.39,13.72,0.08,-0.08,-0.31,1721199799722
-1.88,0.67,10.43,0.03,0.15,-0.25,1721199799732
-3.59,-7.22,9.68,-0.17,-0.16,0.29,1721199799742
-0.72,8.19,13.55,0.23,0.14,0.36,1721199799752
7.05,-7.39,2.64,-0.13,0.02,0.07,1721199799762
-0.31,8.27,13.89,0.20,-0.13,-0.26,1721199799772
2.32,-6.96,2.88,-0.14,0.14,-0.23,1721199799782
-4.76,1.98,17.86,0.02,-0.15,-0.12,1721199799792
-1.32,-3.93,5.71,-0.03,0.13,0.08,1721199799802
0.23,-0.60,13.94,-0.09,-0.08,0.22,1721199799812
2.42,4.23,9.96,-0.04,0.01,0.11,1721199799822
3.09,2.47,9.14,-0.18,0.07,-0.29,1721199799832
-0.95,-4.81,6.93,-0.15,-0.15,-0.28,1721199799842
-2.72,-6.45,11.93,-0.20,0.21,-0.11,1721199799852
-1.20,-0.35,10.75,-0.03,0.03,0.08,1721199799862
0.04,2.86,9.73,-0.17,0.14,0.13,1721199799872
1.96,8.91,14.94,-0.00,0.10,-0.06,1721199799882
1.45,-0.23,2.86,-0.05,-0.17,-0.09,1721199799892
-0.27,-8.84,14.42,-0.41,0.23,-0.34,1721199799902
-2.58,-0.50,11.90,0.09,-0.16,-0.22,1721199799912
-2.85,4.09,7.13,-0.10,0.15,-0.01,1721199799922
-0.21,9.51,11.79,0.21,0.04,0.05,1721199799932
1.34,-1.57,5.36,-0.07,-0.00,-0.02,1721199799942
-0.92,0.41,16.88,-0.10,0.06,-0.30,1721199799952
-1.41,-3.30,6.98,0.03,-0.06,-0.26,1721199799962
-2.68,-0.53,14.77,0.01,0.19,0.01,1721199799972
-0.58,2.26,7.61,0.28,-0.07,0.24,1721199799982
1.52,6.97,11.90,0.08,0.20,-0.13,1721199799992
2.20,0.42,8.75,0.10,-0.15,-0.44,1721199800002
-1.95,-2.95,13.85,-0.01,0.05,-0.43,1721199800012
-4.13,-0.83,9.72,0.22,-0.00,-0.04,1721199800022
-1.56,1.06,6.63,0.22,0.04,0.26,1721199800032
3.77,-1.52,11.94,0.01,0.20,0.13,1721199800042
2.84,0.55,12.70,0.06,-0.14,-0.30,1721199800052
-0.42,2.24,9.11,0.11,0.12,-0.50,1721199800062
-1.76,-3.67,12.17,-0.07,0.06,-0.28,1721199800072
-3.94,5.42,11.48,0.32,-0.21,0.13,1721199800082
2.39,2.36,9.50,0.05,0.46,0.09,1721199800092
2.94,2.28,12.41,0.17,-0.11,-0.22,1721199800102
-1.96,-1.02,3.19,0.09,-0.08,-0.52,1721199800112
-3.70,-7.46,12.97,-0.11,0.18,-0.35,1721199800122
-4.12,5.57,11.49,0.26,-0.00,0.01,1721199800132
1.84,1.61,7.66,-0.02,0.14,0.10,1721199800142
1.86,4.81,15.11,0.11,-0.00,-0.17,1721199800152
0.39,0.35,6.99,-0.00,0.04,-0.54,1721199800162
-4.98,-3.73,12.25,-0.02,0.08,-0.23,1721199800177
-5.32,5.42,13.05,0.16,0.08,0.05,1721199800182
0.91,0.44,7.30,0.09,0.13,0.37,1721199800192
1.44,3.14,9.60,0.09,-0.07,0.10,1721199800202
3.02,0.27,10.33,-0.08,0.18,-0.30,1721199800212
-2.65,4.30,13.45,0.06,-0.21,-0.27,1721199800222
-3.35,3.39,8.16,0.03,0.14,0.10,1721199800232
0.23,-3.58,10.08,-0.10,0.03,0.23,1721199800242
1.64,-1.60,12.48,-0.07,-0.02,0.07,1721199800252
0.96,2.92,9.03,0.01,0.02,-0.17,1721199800262
0.08,8.66,10.13,0.19,0.03,-0.14,1721199800272
-0.48,-6.90,7.61,-0.15,-0.02,-0.13,1721199800282
-6.19,2.16,14.13,0.09,-0.20,0.12,1721199800292
0.00,-0.80,4.62,-0.06,0.19,0.31,1721199800302
1.66,-3.67,11.85,-0.19,-0.12,0.25,1721199800312
-0.40,2.03,11.22,0.02,-0.16,0.03,1721199800322
-0.62,0.34,9.38,-0.11,0.06,-0.11,1721199800332
-2.82,0.21,12.80,-0.06,-0.22,0.13,1721199800342
-3.06,1.11,11.72,-0.16,-0.04,0.30,1721199800352
-0.57,-3.41,5.38,-0.10,-0.25,0.34,1721199800362
3.77,-1.19,14.45,-0.17,0.20,0.09,1721199800372
3.91,-4.47,7.49,-0.07,-0.39,0.09,1721199800382
-2.73,7.65,10.99,-0.04,-0.12,-0.16,1721199800392
-0.10,2.01,10.56,-0.03,0.06,-0.04,1721199800402
-1.55,-4.55,11.19,-0.23,-0.27,0.19,1721199800412
-2.16,-3.30,5.48,0.01,-0.23,0.32,1721199800422
4.58,-4.50,10.90,-0.15,0.24,0.24,1721199800432
5.81,5.15,15.77,0.06,-0.08,0.09,1721199800442
1.70,9.63,10.78,0.03,-0.12,-0.24,1721199800452
-0.96,-0.18,7.08,-0.06,-0.19,-0.26,1721199800462
-1.58,-10.54,13.96,-0.20,0.08,-0.13,1721199800472
-3.11,-1.73,10.73,0.11,-0.21,0.19,1721199800482
2.90,2.48,6.26,0.06,0.16,0.38,1721199800492
7.30,3.44,12.29,0.16,0.05,-0.02,1721199800502
3.87,-1.57,7.60,0.03,-0.22,-0.49,1721199800512
-2.14,-3.94,12.08,-0.05,0.06,-0.70,1721199800522
-4.88,-0.76,10.88,0.11,-0.01,-0.12,1721199800532
-2.37,4.72,9.99,0.16,0.16,0.32,1721199800542
3.70,2.72,5.98,0.19,0.08,0.08,1721199800552
5.32,-2.65,8.74,-0.10,0.10,-0.44,1721199800562
0.11,-0.68,11.76,-0.06,-0.03,-0.74,1721199800572
-4.08,1.68,11.75,0.04,0.09,-0.43,1721199800582
-3.01,-3.97,5.08,0.03,0.04,0.13,1721199800592
1.16,3.10,13.13,0.05,0.27,0.06,1721199800602
5.18,7.55,12.85,0.04,0.27,-0.34,1721199800612
0.30,-0.91,10.22,-0.14,-0.03,-0.60,1721199800622
-4.15,-0.76,12.33,0.02,0.21,-0.35,1721199800632
-1.47,0.71,9.22,0.14,0.28,-0.12,1721199800642
1.35,1.36,4.58,0.18,0.11,-0.08,1721199800652
2.05,2.18,13.97,-0.03,0.30,-0.42,1721199800662
-1.18,1.40,16.65,0.03,0.09,-0.76,1721199800672
-5.72,-1.13,7.38,0.17,0.08,-0.36,1721199800682
-3.97,0.65,12.15,0.06,0.42,0.02,1721199800692
0.23,7.43,9.15,0.34,0.13,0.06,1721199800702
2.30,-2.01,7.15,-0.07,0.27,-0.25,1721199800712
-0.26,3.48,16.93,0.20,0.17,-0.58,1721199800722
-1.91,-4.33,3.81,0.08,0.07,-0.28,1721199800732
-5.38,5.51,10.07,0.19,0.21,0.01,1721199800742
0.27,1.19,9.27,0.05,0.38,-0.06,1721199800752
0.07,-2.02,13.10,0.02,-0.01,-0.09,1721199800762
-0.38,-3.21,10.63,-0.05,0.21,-0.17,1721199800772
0.09,3.91,10.93,0.19,0.18,-0.03,1721199800782
2.76,-3.19,7.11,-0.24,0.23,-0.05,1721199800792
-1.41,6.21,13.86,0.24,-0.08,-0.31,1721199800802
-1.30,-4.40,7.15,-0.19,0.39,-0.34,1721199800812
-3.21,-2.30,15.12,0.04,-0.04,0.05,1721199800822
1.42,-4.61,4.05,-0.13,0.32,0.25,1721199800832
3.90,6.66,21.82,-0.06,0.31,-0.11,1721199800842
2.65,-0.75,1.91,0.18,-0.21,-0.29,1721199800852
-1.27,-2.71,8.60,-0.26,0.42,-0.50,1721199800862
-3.31,-4.73,11.46,-0.04,0.13,-0.13,1721199800872
-2.38,-0.46,9.47,-0.08,0.12,0.35,1721199800882
3.38,8.66,13.92,0.05,0.48,0.14,1721199800892
2.00,-3.39,-0.44,0.01,-0.18,-0.36,1721199800902
-3.51,-2.21,19.40,-0.36,0.48,-0.42,1721199800912
-1.11,0.43,11.75,0.10,0.04,-0.00,1721199800922
-2.35,2.37,7.02,-0.14,0.26,-0.05,1721199800932
0.04,0.23,10.63,0.07,0.23,-0.03,1721199800942
0.86,-1.02,7.40,0.04,0.13,0.04,1721199800952
0.01,-3.31,13.09,-0.16,0.20,-0.18,1721199800962
-1.30,4.87,11.72,0.16,0.18,-0.22,1721199800972
-0.31,-0.27,7.23,-0.06,0.35,-0.23,1721199800982
-3.60,3.55,12.60,0.19,0.01,-0.11,1721199800992
-2.28,-2.83,7.20,-0.06,0.17,0.07,1721199801002
-1.63,4.87,14.14,0.21,0.18,0.06,1721199801012
2.35,-6.81,4.09,-0.12,0.17,0.01,1721199801022
-1.84,9.37,15.75,0.24,0.08,-0.17,1721199801032
1.44,-3.48,4.78,-0.01,0.23,-0.26,1721199801042
-4.47,1.54,15.07,0.02,-0.02,-0.19,1721199801052
-1.12,-4.35,7.09,-0.05,0.22,0.09,1721199801062
-1.30,7.58,18.48,0.14,0.15,0.07,1721199801072
-0.17,7.03,2.87,0.33,0.01,-0.09,1721199801082
-2.71,-1.75,8.30,-0.04,0.12,-0.21,1721199801092
-4.41,-4.22,3.85,0.13,-0.10,0.18,1721199801102
0.40,-10.35,15.04,-0.43,0.37,0.27,1721199801112
-0.23,7.57,12.04,0.24,-0.29,0.23,1721199801122
3.89,9.66,9.77,-0.06,0.64,-0.12,1721199801132
0.67,3.25,14.10,0.13,-0.21,-0.16,1721199801142
-6.30,-6.20,5.56,-0.26,-0.17,-0.00,1721199801152
-4.35,-0.79,15.26,-0.01,0.19,0.20,1721199801162
0.62,-3.73,6.76,-0.02,-0.08,0.37,1721199801172
0.20,7.61,9.89,0.24,-0.10,0.32,1721199801182
5.93,3.27,9.33,0.09,0.32,0.04,1721199801192
-0.90,0.67,11.86,-0.03,-0.22,-0.16,1721199801202
-4.50,-0.57,11.71,-0.05,-0.03,0.19,1721199801212
0.54,0.29,11.65,0.08,0.12,0.59,1721199801222
4.18,3.20,9.21,0.11,0.02,0.44,1721199801232
3.60,3.38,9.08,0.05,-0.03,-0.02,1721199801242
-1.09,0.28,10.70,-0.07,-0.03,-0.40,1721199801252
-6.00,0.97,7.59,0.06,-0.12,-0.06,1721199801262
-3.35,-3.22,13.80,-0.14,0.22,0.59,1721199801272
0.94,4.26,9.74,0.28,-0.08,0.67,1721199801282
5.20,-0.93,6.56,-0.07,0.22,0.26,1721199801292
4.20,2.87,17.96,-0.02,0.03,-0.08,1721199801302
-0.12,2.38,12.63,-0.01,-0.11,-0.23,1721199801312
-4.90,0.56,8.20,0.14,-0.26,0.05,1721199801322
-3.78,2.86,5.28,0.11,0.11,0.44,1721199801332
1.12,-1.93,11.40,-0.12,0.04,0.32,1721199801342
0.25,-0.21,7.79,0.05,-0.29,0.05,1721199801352
0.86,-7.12,7.92,-0.33,0.25,-0.15,1721199801362
-5.25,5.67,18.08,0.06,-0.23,0.15,1721199801372
-3.61,-0.22,3.67,-0.13,-0.04,0.34,1721199801382
1.32,-0.61,15.59,-0.19,0.08,0.42,1721199801392
4.25,1.25,10.75,-0.14,-0.14,0.21,1721199801402
-0.75,-2.72,12.13,-0.32,-0.14,-0.13,1721199801412
-2.87,1.32,9.52,-0.02,-0.17,0.06,1721199801422
-0.82,2.71,10.36,-0.22,0.11,0.30,1721199801432
-0.61,1.23,7.07,-0.12,-0.34,0.24,1721199801442
2.10,-4.92,14.57,-0.40,0.21,0.08,1721199801452
2.53,4.07,13.86,0.12,-0.21,0.05,1721199801462
0.27,-1.88,5.21,-0.20,-0.08,0.05,1721199801472
-2.57,10.94,16.95,0.16,-0.08,0.14,1721199801482
2.33,-2.14,5.79,-0.04,-0.05,0.11,1721199801492
0.25,-3.58,10.53,-0.09,-0.20,-0.02,1721199801502
2.17,-3.79,12.12,-0.05,0.09,-0.02,1721199801512
-0.33,5.79,8.69,0.20,-0.21,0.18,1721199801522
-0.30,1.00,7.69,-0.02,0.05,-0.01,1721199801532
0.73,3.84,13.58,0.17,-0.11,-0.10,1721199801542
2.02,-13.22,4.74,-0.21,-0.01,-0.20,1721199801552
-4.39,3.80,17.82,0.06,-0.10,-0.05,1721199801562
-0.79,3.56,5.03,0.24,-0.01,0.09,1721199801572
0.97,0.44,12.11,0.01,0.05,0.03,1721199801582
2.50,-0.01,9.45,0.14,-0.02,-0.14,1721199801592
0.24,-9.36,10.84,-0.29,0.01,-0.24,1721199801602
-3.79,3.94,12.64,0.28,-0.18,-0.04,1721199801612
2.39,0.68,6.75,0.06,0.43,0.05,1721199801622
0.70,9.74,13.49,0.40,-0.15,0.05,1721199801632
0.94,-2.91,7.64,-0.09,0.21,-0.32,1721199801642
-1.36,-3.74,16.35,0.08,-0.19,-0.17,1721199801652
-0.57,-1.75,7.67,0.03,0.21,-0.07,1721199801662
-0.33,10.45,12.04,0.47,0.03,0.13,1721199801672
4.36,-1.03,3.72,0.07,0.23,-0.02,1721199801682
-0.30,-3.33,13.68,-0.05,-0.07,-0.45,1721199801692
-4.08,-4.16,11.17,-0.09,0.17,-0.42,1721199801702
-5.13,10.06,14.26,0.34,0.09,0.12,1721199801712
2.35,-2.74,-1.27,0.12,0.14,0.42,1721199801722
2.20,-1.07,18.97,-0.05,0.24,-0.10,1721199801732
-0.29,2.17,13.98,0.12,-0.05,-0.50,1721199801742
-5.31,0.65,10.68,-0.02,0.05,-0.20,1721199801752
-2.33,-0.93,10.29,0.11,0.13,0.39,1721199801762
2.70,7.47,7.06,0.30,0.17,0.25,1721199801772
5.83,2.83,9.43,-0.01,0.22,-0.17,1721199801782
-0.92,-1.03,10.96,-0.00,-0.22,-0.31,1721199801792
-5.83,6.02,12.43,0.06,0.18,-0.35,1721199801802
-3.59,-3.46,5.62,-0.03,0.06,0.21,1721199801812
-3.61,0.47,7.28,0.03,-0.13,0.33,1721199801822
2.52,4.36,9.70,0.04,0.28,0.07,1721199801832
2.67,-2.79,10.94,-0.19,-0.11,0.00,1721199801842
-2.96,4.26,14.09,-0.07,-0.19,-0.07,1721199801852
-2.11,4.18,10.01,-0.01,0.16,-0.08,1721199801862
-0.40,-6.38,4.65,-0.24,-0.12,0.19,1721199801872
-1.39,-1.81,10.74,-0.17,-0.17,0.27,1721199801882
2.66,-3.24,8.94,-0.19,0.13,-0.08,1721199801892
0.57,2.95,15.45,-0.01,-0.06,-0.34,1721199801902
-1.49,-5.23,0.07,-0.08,-0.20,-0.09,1721199801912
-4.18,-1.45,17.01,-0.19,0.18,0.21,1721199801922
1.62,-0.29,11.64,-0.02,0.07,0.38,1721199801932
2.15,5.34,10.55,-0.09,-0.07,0.20,1721199801942
3.47,-1.10,5.78,-0.13,-0.03,-0.13,1721199801952
-0.59,-5.24,10.52,-0.25,-0.18,-0.23,1721199801962
-2.69,-1.42,13.70,-0.13,-0.08,0.04,1721199801972
0.90,-2.76,7.06,-0.11,0.11,0.26,1721199801982
0.04,-0.43,17.24,-0.26,0.12,0.09,1721199801992
-1.24,8.51,7.73,0.19,-0.16,-0.03,1721199802002
3.00,-3.24,11.64,-0.24,0.36,-0.06,1721199802012
-1.09,2.90,16.92,0.18,-0.37,0.15,1721199802022
0.02,1.14,9.00,-0.04,0.18,0.13,1721199802032
-1.64,3.91,6.61,0.28,-0.36,0.02,1721199802042
0.29,-2.94,9.19,-0.07,0.16,-0.10,1721199802052
-0.44,-0.35,14.73,0.16,-0.25,0.06,1721199802062
-1.69,1.62,3.97,0.04,-0.05,-0.05,1721199802072
-2.82,0.37,14.93,-0.04,-0.16,-0.16,1721199802082
-2.72,-0.07,6.12,0.22,-0.26,0.23,1721199802092
1.57,-3.56,12.21,-0.12,0.38,0.20,1721199802102
1.86,2.19,12.92,0.17,-0.18,0.01,1721199802112
0.59,3.74,11.52,-0.01,0.01,-0.18,1721199802122
0.17,4.63,13.11,0.20,-0.15,-0.09,1721199802132
-1.17,-1.43,7.42,0.02,-0.09,-0.07,1721199802142
-1.61,-1.67,10.57,-0.02,-0.10,-0.10,1721199802152
0.28,-0.61,11.52,0.03,-0.11,-0.04,1721199802162
1.04,1.81,7.77,0.13,-0.12,0.10,1721199802172
0.68,3.11,9.81,0.16,-0.14,-0.14,1721199802187
-1.25,0.30,8.56,0.07,-0.14,-0.22,1721199802192
-1.38,-1.59,13.19,-0.14,0.03,-0.10,1721199802202
0.25,2.59,14.29,0.03,-0.09,0.02,1721199802212
0.02,0.99,2.38,0.10,-0.22,0.01,1721199802222
2.39,2.75,13.60,0.01,0.20,-0.14,1721199802232
2.18,0.83,8.10,0.24,-0.32,-0.32,1721199802242
-2.10,-0.83,8.01,-0.04,0.06,-0.30,1721199802252
-0.02,2.49,18.83,0.02,0.16,-0.21,1721199802262
-1.22,6.79,6.50,0.31,-0.23,-0.10,1721199802272
-0.28,-1.75,6.65,-0.01,0.10,-0.20,1721199802282
0.56,-3.79,10.33,0.05,-0.15,-0.24,1721199802292
-1.90,3.90,15.50,-0.01,0.06,-0.27,1721199802302
-1.85,10.58,8.10,0.38,-0.11,-0.14,1721199802312
-0.09,-0.63,5.83,-0.03,0.10,-0.15,1721199802322
-0.17,-1.39,12.04,0.02,-0.13,-0.17,1721199802332
0.28,-2.73,14.29,-0.09,0.09,-0.23,1721199802342
-2.20,-2.76,4.99,0.05,-0.30,-0.19,1721199802352
-3.21,3.60,10.49,-0.01,0.09,-0.21,1721199802362
0.09,-2.10,9.46,0.06,-0.02,-0.06,1721199802372
-2.73,-0.27,9.96,-0.06,-0.08,-0.09,1721199802382
-1.78,-3.33,8.82,-0.13,-0.04,-0.13,1721199802392
-0.83,-1.34,12.19,-0.06,-0.02,0.04,1721199802402
1.37,2.66,9.44,0.05,0.07,0.08,1721199802412
1.82,2.28,8.41,-0.03,0.02,-0.27,1721199802422
-1.82,-0.69,14.58,-0.20,-0.04,-0.44,1721199802432
-5.14,-1.66,9.34,-0.08,-0.21,-0.20,1721199802442
-2.90,-3.50,12.45,-0.26,0.11,0.18,1721199802452
1.26,1.30,7.86,0.08,-0.13,0.17,1721199802462
2.91,0.39,10.62,-0.21,0.10,-0.12,1721199802472
-0.02,1.73,12.70,-0.09,-0.24,-0.44,1721199802482
-3.92,-0.88,8.36,-0.24,-0.03,-0.33,1721199802492
-3.04,-4.10,16.11,-0.26,0.05,-0.05,1721199802502
1.09,-4.80,4.09,0.02,-0.29,0.41,1721199802512
4.37,2.25,10.18,-0.06,0.32,0.14,1721199802522
5.75,0.09,12.15,-0.03,-0.14,-0.26,1721199802532
-2.43,5.81,14.22,-0.09,-0.22,-0.42,1721199802542
-4.25,-1.33,3.76,-0.00,-0.11,-0.18,1721199802552
-2.26,-5.93,12.95,-0.24,0.04,0.20,1721199802562
2.71,4.07,10.54,0.09,-0.05,0.23,1721199802572
4.75,-0.38,8.44,-0.01,0.05,-0.07,1721199802582
-0.67,3.74,10.85,0.06,-0.07,-0.42,1721199802592
-2.91,-1.70,10.32,-0.04,0.05,-0.43,1721199802602
-6.11,-4.07,11.80,-0.13,-0.16,-0.13,1721199802612
-3.10,2.97,8.45,0.22,-0.02,0.31,1721199802622
5.39,-5.26,9.37,-0.08,0.19,0.27,1721199802632
2.18,4.81,12.02,0.20,-0.26,-0.12,1721199802642
1.87,2.99,9.20,-0.03,0.22,-0.40,1721199802652
-2.87,-2.38,10.62,0.01,-0.25,-0.32,1721199802662
-3.80,-2.84,11.93,-0.13,0.17,-0.02,1721199802672
-0.67,1.79,10.31,0.14,-0.03,0.25,1721199802682
3.53,3.06,10.21,0.04,0.25,0.01,1721199802692
3.79,1.91,11.14,0.13,-0.07,-0.32,1721199802702
-1.15,2.71,13.28,-0.02,0.08,-0.57,1721199802712
-3.62,0.84,9.05,0.17,-0.02,-0.17,1721199802722
-0.86,-2.81,10.94,-0.04,0.19,0.09,1721199802732
1.17,6.38,11.34,0.41,-0.09,0.04,1721199802742
3.84,0.06,2.67,0.16,0.20,-0.29,1721199802752
-1.24,0.19,10.39,0.16,-0.01,-0.53,1721199802762
-4.78,1.30,13.54,0.12,0.18,-0.42,1721199802772
-4.68,1.93,10.26,0.29,-0.04,0.12,1721199802782
-0.01,1.51,7.51,0.13,0.19,0.28,1721199802792
3.20,0.79,12.74,0.06,0.07,0.00,1721199802802
-0.08,2.08,9.93,0.12,-0.05,-0.36,1721199802812
-2.48,-4.09,9.03,0.01,0.00,-0.25,1721199802822
-4.45,0.95,11.76,0.10,-0.01,0.15,1721199802832
-0.89,2.40,4.79,0.11,0.03,0.31,1721199802842
2.81,-2.66,9.05,-0.17,0.09,0.04,1721199802852
0.91,2.65,9.89,0.12,-0.15,-0.22,1721199802862
-0.59,-0.82,12.41,-0.15,0.12,-0.20,1721199802872
-3.89,3.73,10.15,0.21,-0.26,0.13,1721199802882
-0.30,-2.41,9.84,-0.27,0.18,0.15,1721199802892
1.77,1.26,12.62,-0.00,-0.27,0.17,1721199802902
3.13,-0.16,4.42,-0.15,0.01,-0.02,1721199802912
1.69,-2.29,14.42,-0.10,-0.09,-0.31,1721199802922
-2.52,-8.12,3.50,-0.10,-0.29,-0.14,1721199802932
-5.56,5.93,16.72,-0.04,-0.03,0.19,1721199802942
2.22,3.05,5.04,0.02,-0.06,0.46,1721199802952
3.80,-3.31,11.61,-0.35,-0.10,0.20,1721199802962
4.93,-0.65,12.31,-0.10,-0.09,-0.15,1721199802972
4.11,-7.15,7.34,-0.30,-0.05,-0.35,1721199802982
-2.96,0.43,12.07,-0.12,-0.30,-0.25,1721199802992
-2.95,2.59,8.58,-0.06,0.05,-0.01,1721199803002
-0.27,0.17,9.81,-0.13,-0.00,0.13,1721199803012
0.94,-2.85,12.62,-0.26,-0.07,-0.05,1721199803022
1.28,3.47,13.17,-0.06,-0.14,-0.09,1721199803032
2.59,2.80,5.93,0.06,-0.09,-0.07,1721199803042
2.00,-3.24,9.89,-0.11,0.08,-0.31,1721199803052
-1.24,1.71,12.38,0.09,-0.13,-0.35,1721199803062
-2.68,0.89,9.84,-0.10,-0.01,-0.35,1721199803072
-2.95,6.69,14.24,0.09,-0.06,-0.28,1721199803082
-1.78,-1.58,6.87,-0.02,-0.01,-0.21,1721199803092
-2.70,1.54,14.16,0.04,-0.08,-0.19,1721199803102
-0.70,-1.38,7.28,0.04,-0.13,-0.30,1721199803112
-1.80,-3.89,6.77,-0.05,-0.12,-0.47,1721199803122
-2.48,5.45,13.33,0.19,-0.11,-0.38,1721199803132
-1.62,-0.94,8.01,-0.01,-0.05,-0.22,1721199803142
-2.13,1.31,12.00,0.08,-0.22,-0.17,1721199803152
2.83,-6.47,8.19,-0.03,0.08,-0.18,1721199803162
0.50,3.55,15.22,0.06,-0.16,-0.49,1721199803172
-2.42,3.46,4.54,0.28,-0.19,-0.49,1721199803182
-2.37,-5.77,12.98,-0.16,0.07,-0.26,1721199803192
-3.19,3.95,14.07,0.30,-0.27,-0.17,1721199803202
0.01,-3.00,2.29,-0.09,0.04,-0.21,1721199803212
-0.86,5.12,14.69,0.06,-0.12,-0.33,1721199803222
2.09,2.67,9.94,0.13,0.00,-0.39,1721199803232
-0.59,-0.18,7.02,0.06,-0.13,-0.53,1721199803242
-1.40,0.02,12.90,0.03,0.18,-0.62,1721199803252
-1.86,-3.94,10.63,-0.01,-0.26,-0.42,1721199803262
-5.16,7.58,13.01,0.23,-0.04,-0.15,1721199803272
0.58,1.19,5.55,0.09,0.11,-0.09,1721199803282
2.20,2.34,13.92,0.09,-0.08,-0.26,1721199803292
2.06,-4.58,5.54,0.01,0.01,-0.60,1721199803302
-1.58,0.09,15.84,-0.04,0.01,-0.67,1721199803312
-1.73,5.43,6.56,0.47,-0.13,-0.27,1721199803322
0.46,-0.99,7.82,0.04,0.21,-0.11,1721199803332
-0.59,8.05,12.21,0.30,-0.15,-0.26,1721199803342
1.35,-3.16,10.34,-0.18,0.13,-0.54,1721199803352
-3.45,-0.74,11.25,0.07,-0.27,-0.51,1721199803362
-1.52,-0.42,9.56,0.06,0.31,-0.27,1721199803372
1.65,0.01,9.28,0.17,0.00,-0.02,1721199803382
1.61,3.85,10.69,-0.04,0.14,-0.31,1721199803392
1.43,7.76,12.99,0.17,0.06,-0.53,1721199803402
-1.08,-5.80,4.85,-0.17,-0.02,-0.59,1721199803412
-4.87,1.27,14.15,0.06,0.01,-0.29,1721199803422
0.40,0.07,4.63,0.06,0.21,-0.03,1721199803432
1.06,9.15,13.33,0.01,0.21,-0.30,1721199803442
2.13,-1.08,8.93,-0.12,0.11,-0.64,1721199803452
-4.01,-5.59,11.07,-0.26,-0.04,-0.61,1721199803462
-4.14,1.04,15.32,0.06,0.22,-0.15,1721199803472
0.09,-2.01,0.07,-0.06,0.08,0.15,1721199803482
0.99,4.94,16.08,-0.12,0.29,-0.25,1721199803492
2.74,0.86,6.41,0.03,-0.02,-0.63,1721199803502
-3.83,-5.67,12.58,-0.37,0.18,-0.68,1721199803512
-5.24,-3.49,11.15,0.02,-0.01,-0.19,1721199803522
-1.65,0.23,6.05,-0.04,0.29,0.11,1721199803532
3.51,3.03,14.34,-0.00,0.31,-0.05,1721199803542
1.95,3.51,5.44,0.07,-0.06,-0.43,1721199803552
0.25,-3.71,15.28,-0.31,0.36,-0.74,1721199803562
-4.81,-4.84,8.89,-0.02,-0.17,-0.43,1721199803572
-4.49,-4.86,8.60,-0.25,0.35,0.04,1721199803582
0.82,2.23,13.77,0.06,0.22,0.04,1721199803592
3.28,5.25,7.51,0.04,0.10,-0.26,1721199803602
1.47,2.77,10.47,-0.10,0.19,-0.60,1721199803612
