AccX,AccY,AccZ,GyrX,GyrY,GyrZ,Time
5.78,-3.03,9.11,0.05,0.09,-0.48,1721200866151
2.94,3.50,15.04,0.06,0.02,-0.73,1721200866156
-0.99,-5.24,5.09,0.21,-0.26,-0.73,1721200866166
-4.20,-4.01,11.80,0.01,0.22,-0.54,1721200866176
-1.25,-6.20,11.61,0.28,-0.06,0.01,1721200866186
2.31,-1.91,12.17,0.02,0.36,-0.07,1721200866196
1.95,-0.25,6.12,0.21,-0.16,-0.26,1721200866206
2.88,-0.59,10.70,-0.08,0.41,-0.60,1721200866216
-0.10,-1.66,15.30,0.31,-0.09,-0.24,1721200866226
0.68,-0.02,7.65,0.08,0.43,-0.15,1721200866236
1.19,1.54,8.91,0.08,0.01,-0.22,1721200866246
4.22,-0.08,15.98,-0.07,0.51,-0.31,1721200866256
0.90,-1.95,6.21,0.25,-0.09,-0.40,1721200866266
0.42,-2.32,4.03,-0.13,0.51,-0.49,1721200866276
-0.45,2.40,16.17,0.12,0.17,-0.44,1721200866286
1.39,1.74,11.36,0.09,0.40,-0.40,1721200866296
0.28,1.72,8.85,0.12,0.28,-0.37,1721200866306
-0.19,-0.07,10.57,-0.03,0.44,-0.53,1721200866316
-2.96,0.09,11.60,0.25,0.19,-0.53,1721200866326
-2.88,-0.83,6.79,0.09,0.38,-0.29,1721200866336
-0.86,0.92,13.50,0.10,0.40,-0.12,1721200866346
1.70,4.11,7.99,0.18,0.35,-0.25,1721200866356
2.14,-0.49,5.07,-0.14,0.39,-0.50,1721200866366
-2.38,1.74,15.14,0.01,0.36,-0.63,1721200866376
-2.81,0.52,12.72,0.09,0.40,-0.35,1721200866386
-2.72,0.28,5.20,0.10,0.18,0.08,1721200866396
1.15,2.48,11.71,-0.10,0.57,-0.16,1721200866406
1.21,-3.21,8.83,-0.00,0.08,-0.40,1721200866416
-4.27,1.54,10.52,0.06,0.28,-0.47,1721200866426
-3.24,-1.54,8.79,-0.05,0.41,-0.21,1721200866436
-3.81,-1.07,10.04,-0.01,0.22,0.19,1721200866446
1.66,-0.17,11.37,-0.13,0.53,0.12,1721200866456
3.97,2.64,15.42,0.12,0.28,-0.11,1721200866466
3.07,-1.20,3.34,0.01,0.27,-0.35,1721200866476
-2.01,-3.18,11.21,-0.21,0.30,-0.38,1721200866486
-4.35,-4.36,12.05,0.11,0.21,-0.09,1721200866496
-3.07,1.72,11.28,0.14,0.36,0.14,1721200866506
0.88,-4.05,5.85,-0.26,0.42,0.04,1721200866516
-2.33,-0.46,15.45,0.04,0.11,-0.06,1721200866526
-1.09,-4.71,6.36,-0.12,0.32,-0.02,1721200866536
-4.96,-3.04,16.04,0.03,0.09,0.04,1721200866546
-2.58,2.96,5.40,0.05,0.33,0.05,1721200866556
-1.31,-1.01,7.92,-0.10,0.23,0.07,1721200866566
-1.59,-3.00,15.62,-0.15,0.20,0.02,1721200866576
-1.70,-1.67,10.95,0.16,0.03,0.10,1721200866586
-2.31,-6.39,3.70,-0.12,0.15,0.32,1721200866596
-2.26,0.98,17.61,-0.01,0.30,0.40,1721200866606
0.61,-1.98,12.58,0.27,0.13,0.33,1721200866616
-1.71,5.81,10.74,0.17,0.07,0.32,1721200866626
-0.44,-5.21,6.85,-0.14,0.22,0.27,1721200866636
-5.57,0.52,20.43,0.14,-0.03,0.30,1721200866646
-0.63,-0.78,-0.77,0.21,0.11,0.38,1721200866656
-0.63,-6.36,9.05,-0.11,-0.01,0.44,1721200866666
-1.03,-1.58,13.47,0.28,-0.02,0.47,1721200866676
0.32,-2.03,8.23,0.10,0.21,0.27,1721200866686
-3.37,-3.84,7.11,0.06,-0.18,0.17,1721200866696
-1.24,-4.92,15.47,-0.13,0.58,0.17,1721200866706
-1.42,-4.07,13.47,0.15,-0.00,0.37,1721200866716
-2.24,2.24,11.01,-0.01,-0.03,0.37,1721200866726
-0.56,2.63,13.62,0.02,0.13,0.09,1721200866736
-1.38,-2.12,7.60,0.03,-0.23,0.09,1721200866746
-2.57,-3.62,12.97,-0.23,0.01,0.23,1721200866756
-2.77,-2.13,8.59,0.19,-0.17,0.45,1721200866766
-0.93,0.46,5.09,-0.09,0.07,0.30,1721200866776
1.12,0.41,12.45,-0.01,-0.07,0.32,1721200866786
1.17,-0.47,4.13,-0.05,-0.11,0.35,1721200866796
3.08,2.72,14.94,-0.12,0.37,0.08,1721200866806
1.46,1.58,10.75,0.07,-0.16,0.01,1721200866816
-4.87,1.15,7.02,-0.06,-0.30,0.15,1721200866826
-2.75,3.69,13.61,-0.04,0.12,0.38,1721200866836
0.76,2.41,8.19,-0.08,-0.11,0.35,1721200866846
-2.18,4.36,10.74,-0.19,-0.23,0.12,1721200866856
-2.60,4.49,10.93,-0.04,-0.01,0.18,1721200866866
-0.97,3.07,9.96,-0.11,-0.04,0.35,1721200866876
-0.22,2.97,5.59,-0.12,-0.23,0.37,1721200866886
2.18,2.64,19.34,-0.21,0.13,0.11,1721200866896
-0.60,3.17,7.21,0.03,-0.40,-0.10,1721200866906
-3.69,-5.55,7.84,-0.42,-0.11,-0.12,1721200866916
-5.07,3.06,18.50,0.33,-0.29,0.34,1721200866926
-2.18,-6.87,-6.21,-0.33,-0.20,0.52,1721200866936
2.70,-1.58,16.67,-0.32,-0.34,0.42,1721200866946
6.06,-3.75,-0.23,0.21,-0.11,0.58,1721200866956
-0.39,-3.14,12.53,-0.12,-0.41,0.46,1721200866966
-0.61,-4.17,13.02,0.11,-0.34,0.53,1721200866976
2.00,-7.26,8.57,-0.15,-0.17,0.65,1721200866986
-0.63,-0.44,11.58,0.06,-0.48,0.69,1721200866996
4.46,-4.47,12.18,-0.13,-0.06,0.51,1721200867006
1.37,0.38,10.40,0.16,-0.52,0.27,1721200867016
-2.31,-6.40,3.11,-0.19,-0.41,0.18,1721200867026
-1.46,-4.66,19.92,-0.04,-0.15,0.65,1721200867036
4.21,0.29,12.87,0.09,0.03,0.72,1721200867046
2.34,-6.07,4.70,-0.12,-0.54,0.63,1721200867056
2.28,0.95,14.35,-0.02,-0.01,0.30,1721200867066
5.15,-5.71,12.10,-0.11,-0.00,-0.01,1721200867076
-3.45,2.26,18.20,0.17,-0.45,0.07,1721200867086
-3.88,0.32,1.42,0.12,-0.33,0.23,1721200867096
-0.57,-1.76,12.48,-0.05,-0.04,0.29,1721200867106
5.17,-6.01,12.50,0.08,-0.04,0.46,1721200867116
1.44,-2.28,13.71,-0.04,-0.25,0.32,1721200867126
-1.57,3.90,7.98,0.23,-0.35,0.15,1721200867136
3.51,-0.72,7.34,-0.08,0.06,0.16,1721200867146
3.78,-1.58,20.15,0.09,-0.13,0.24,1721200867156
0.74,-0.26,1.09,0.19,-0.26,0.26,1721200867166
0.92,1.30,14.32,-0.24,0.20,0.24,1721200867176
1.55,5.77,9.10,0.30,-0.22,0.28,1721200867186
3.49,2.07,5.44,-0.13,-0.02,0.11,1721200867196
0.52,3.58,16.03,0.04,-0.16,-0.09,1721200867206
-2.72,3.78,11.47,0.08,-0.11,0.01,1721200867216
-0.51,-1.23,6.80,0.05,-0.10,0.35,1721200867226
3.12,2.63,13.52,0.08,0.05,0.33,1721200867236
3.64,1.46,-2.55,0.05,-0.24,0.01,1721200867246
-3.18,3.52,22.52,-0.17,0.25,-0.41,1721200867256
-2.25,-1.30,6.21,0.37,-0.42,-0.11,1721200867266
-0.23,4.63,8.72,-0.27,0.17,0.39,1721200867276
4.12,1.05,7.56,0.01,-0.18,0.31,1721200867286
4.77,-2.16,8.59,-0.11,-0.02,-0.17,1721200867296
-0.75,-2.90,10.41,0.04,-0.22,-0.37,1721200867306
-3.01,-0.77,13.26,-0.10,0.13,-0.26,1721200867316
-1.65,-2.67,11.67,0.24,-0.36,0.05,1721200867326
-0.27,-6.73,8.81,-0.04,-0.10,-0.03,1721200867336
2.85,-10.34,11.10,0.09,-0.16,-0.21,1721200867346
-1.95,1.86,13.01,0.18,0.23,-0.43,1721200867356
-0.25,-10.37,6.00,-0.19,-0.05,-0.31,1721200867366
-7.20,-5.32,17.42,0.08,-0.32,-0.10,1721200867376
-0.47,-11.39,6.85,0.14,-0.12,0.09,1721200867386
0.68,1.97,16.39,0.19,-0.05,-0.01,1721200867396
6.48,-4.74,4.70,-0.31,0.18,-0.26,1721200867406
1.73,-7.35,18.67,-0.11,-0.49,-0.39,1721200867416
-3.02,-7.33,2.24,0.11,-0.09,-0.41,1721200867426
-0.25,-5.70,15.41,-0.12,0.17,-0.25,1721200867436
1.17,-0.09,8.35,0.16,-0.16,-0.25,1721200867446
1.58,-3.17,12.63,-0.41,0.47,-0.67,1721200867456
-2.39,3.99,11.15,0.30,-0.43,-0.55,1721200867466
3.38,-8.51,4.94,-0.56,0.55,-0.61,1721200867476
-8.73,-0.17,30.94,0.39,0.00,-0.45,1721200867486
-3.97,-3.31,4.53,-0.47,0.09,-0.45,1721200867496
-10.77,10.05,14.22,0.16,-0.31,-0.25,1721200867506
-0.70,-4.49,0.25,-0.26,0.03,-0.25,1721200867516
-3.08,7.72,28.40,0.20,-0.31,-0.04,1721200867526
2.10,0.07,3.61,0.08,-0.17,-0.25,1721200867536
-4.96,2.65,9.06,-0.10,-0.20,-0.33,1721200867546
-3.59,2.24,1.98,-0.14,-0.23,-0.22,1721200867556
-3.36,10.40,16.39,0.00,0.03,-0.30,1721200867566
1.64,4.27,5.20,-0.03,-0.03,-0.36,1721200867576
-1.84,9.64,15.62,-0.06,-0.07,-0.38,1721200867586
-2.99,3.38,10.04,-0.01,0.01,-0.37,1721200867596
-5.93,2.93,11.45,-0.06,-0.03,-0.27,1721200867606
-1.53,-0.31,3.62,0.03,-0.21,0.11,1721200867616
3.98,-5.42,8.00,-0.12,0.07,0.07,1721200867626
0.81,2.58,13.23,0.34,-0.15,-0.36,1721200867636
2.20,-1.80,4.61,-0.04,-0.03,-0.52,1721200867646
0.70,-2.01,23.68,0.24,-0.07,-0.17,1721200867656
1.16,-5.50,5.58,0.08,-0.00,0.00,1721200867666
0.98,-1.65,9.41,0.01,0.02,-0.31,1721200867676
3.33,-11.36,2.42,-0.04,-0.23,-0.62,1721200867686
-2.32,-7.68,16.88,0.10,0.03,-0.69,1721200867696
0.09,-2.19,4.96,0.28,0.24,-0.49,1721200867706
0.72,-7.26,14.62,-0.48,0.51,-0.53,1721200867716
-6.42,-0.34,26.01,0.40,-0.21,-0.41,1721200867726
-4.23,-10.93,0.66,-0.28,0.32,-0.43,1721200867736
-7.69,6.48,20.59,0.26,0.19,-0.26,1721200867746
-0.70,-4.56,-8.52,-0.22,0.10,-0.08,1721200867756
-2.09,-1.18,26.98,-0.17,0.18,-0.02,1721200867766
-3.50,-3.88,8.37,0.26,-0.64,0.09,1721200867776
-2.53,5.97,19.78,-0.30,0.50,-0.06,1721200867786
-2.04,-3.72,9.56,0.07,-0.32,-0.07,1721200867796
0.16,-0.64,9.60,-0.26,0.19,-0.15,1721200867806
5.13,1.81,9.50,0.21,0.18,-0.18,1721200867816
-1.47,2.73,9.26,-0.02,0.13,-0.26,1721200867826
-3.58,7.98,16.78,0.28,0.22,-0.04,1721200867836
1.41,2.83,9.08,0.14,0.30,0.24,1721200867846
2.31,6.78,15.20,0.07,0.26,0.24,1721200867856
4.49,5.34,3.42,0.12,0.21,-0.01,1721200867866
4.26,5.85,10.35,-0.06,0.45,-0.33,1721200867876
2.51,4.37,5.00,0.22,0.21,-0.55,1721200867886
-2.73,4.51,13.89,0.10,0.38,-0.70,1721200867896
-5.58,-2.93,11.56,0.16,0.11,-0.23,1721200867906
-6.83,3.10,11.39,0.15,0.19,0.11,1721200867916
1.57,-1.18,3.03,0.01,0.26,0.16,1721200867926
2.52,-2.56,7.37,0.01,0.04,-0.22,1721200867936
0.90,-11.50,6.85,-0.11,0.40,-0.69,1721200867946
-8.89,-6.92,13.89,0.08,-0.08,-0.46,1721200867956
-10.11,-1.99,11.19,0.28,0.12,0.14,1721200867966
1.46,-9.99,8.60,-0.07,0.33,0.46,1721200867976
2.59,-0.71,12.04,0.25,0.00,0.34,1721200867986
7.90,-8.02,8.07,-0.30,0.48,-0.32,1721200867996
2.67,-5.73,22.36,0.04,0.00,-0.48,1721200868006
-2.86,-16.27,-1.95,-0.15,-0.05,-0.02,1721200868016
-5.16,-1.67,20.02,-0.19,0.33,0.16,1721200868026
2.60,-6.30,-0.11,0.18,-0.21,0.35,1721200868036
6.03,2.44,12.89,-0.22,0.99,-0.04,1721200868046
5.63,-9.23,2.05,-0.23,-0.25,-0.42,1721200868056
-7.66,5.84,12.72,-0.09,0.40,-0.75,1721200868066
-0.04,-0.02,7.33,-0.04,0.55,-0.54,1721200868076
-7.38,4.32,16.64,-0.16,-0.09,-0.12,1721200868086
-6.06,-0.42,2.99,-0.08,0.05,0.19,1721200868096
-5.00,4.26,15.17,0.00,0.05,0.23,1721200868106
-4.00,10.68,8.33,0.39,-0.06,0.03,1721200868116
-3.58,4.50,9.46,0.02,-0.06,0.20,1721200868126
-3.80,11.20,14.49,0.18,-0.16,0.52,1721200868136
1.96,0.35,7.22,-0.15,-0.28,0.43,1721200868146
5.89,8.76,14.35,0.34,-0.15,0.04,1721200868161
3.13,5.29,2.64,0.16,-0.23,-0.14,1721200868166
1.06,7.74,9.69,0.03,0.04,-0.20,1721200868176
1.19,3.44,6.72,0.15,-0.11,-0.04,1721200868186
-0.75,0.62,11.14,-0.14,-0.03,-0.16,1721200868196
-5.28,3.11,8.86,0.14,-0.21,-0.30,1721200868206
-3.22,-13.26,4.70,-0.20,-0.01,0.12,1721200868216
-5.73,-8.37,16.72,0.15,-0.07,0.41,1721200868226
0.88,-9.01,11.52,0.21,0.01,0.41,1721200868236
1.55,0.41,9.01,0.13,-0.08,0.24,1721200868246
2.82,6.69,14.72,0.21,0.18,-0.06,1721200868256
3.93,-7.89,-0.54,-0.33,-0.04,-0.16,1721200868266
-2.15,-11.13,13.64,-0.09,-0.16,-0.05,1721200868276
0.31,-10.29,3.34,0.02,0.23,0.04,1721200868286
-1.25,1.72,14.82,0.06,-0.05,0.15,1721200868296
-0.73,-0.78,11.30,-0.18,0.13,0.11,1721200868306
-5.68,0.03,17.25,0.01,-0.34,0.15,1721200868316
-3.69,-4.56,5.55,-0.25,0.09,0.08,1721200868326
-2.67,-2.49,7.51,-0.02,-0.20,0.46,1721200868336
1.92,3.73,9.58,-0.12,0.14,0.65,1721200868346
7.32,0.59,13.48,0.07,-0.12,0.40,1721200868356
7.33,6.06,9.61,-0.01,-0.00,0.04,1721200868366
4.20,4.92,11.70,-0.18,0.08,-0.30,1721200868376
-1.16,5.34,14.90,0.18,-0.20,-0.09,1721200868386
-1.15,4.30,8.49,0.11,0.24,-0.05,1721200868396
-0.09,-3.56,11.60,0.02,0.08,0.03,1721200868406
2.43,2.60,20.15,0.30,0.08,0.08,1721200868416
-0.30,12.08,11.70,0.46,-0.11,-0.52,1721200868426
2.87,3.50,5.38,-0.16,0.44,-0.16,1721200868436
-4.23,-0.28,2.84,-0.15,-0.29,0.05,1721200868446
-0.55,-5.46,14.04,-0.34,0.46,-0.20,1721200868456
0.97,-3.75,10.25,0.31,-0.07,-0.14,1721200868466
0.36,3.67,10.65,-0.05,0.26,0.15,1721200868476
0.83,-0.41,11.19,0.13,-0.16,-0.06,1721200868486
-1.30,5.26,12.26,0.08,0.04,0.01,1721200868496
4.47,-3.33,2.41,-0.25,0.10,0.19,1721200868506
5.68,-4.47,18.91,-0.26,0.37,-0.13,1721200868516
3.04,-11.05,2.16,-0.04,-0.29,-0.37,1721200868526
-4.85,-2.20,12.06,-0.08,0.43,-0.66,1721200868536
0.25,-8.37,12.17,0.04,0.23,-0.46,1721200868546
-3.77,-0.51,16.01,0.13,0.02,-0.20,1721200868556
0.43,-1.23,7.81,-0.24,0.47,-0.16,1721200868566
1.41,-3.57,8.31,-0.11,0.14,-0.28,1721200868576
0.96,-1.44,9.83,-0.16,0.51,-0.76,1721200868586
-2.29,-4.32,14.37,0.05,0.16,-0.73,1721200868596
-8.42,1.09,6.82,-0.02,0.06,-0.26,1721200868606
-3.26,2.82,9.65,-0.11,0.33,0.13,1721200868616
1.67,-2.73,11.40,-0.29,0.11,0.01,1721200868626
-1.67,-1.28,11.45,-0.18,-0.11,-0.22,1721200868636
-0.80,-1.10,14.40,-0.14,0.44,-0.38,1721200868646
-1.30,2.74,14.79,0.01,0.22,-0.32,1721200868656
-3.04,6.54,9.43,0.04,0.18,-0.07,1721200868666
-1.58,1.57,6.24,-0.15,0.12,0.02,1721200868676
-0.42,-4.32,14.14,-0.18,0.05,-0.09,1721200868686
-0.49,-4.09,15.06,0.07,0.03,-0.05,1721200868696
-1.44,0.34,13.18,0.12,0.18,-0.13,1721200868706
-2.66,5.50,6.35,0.22,0.06,-0.22,1721200868716
-1.91,2.93,6.24,-0.05,0.22,-0.24,1721200868726
-3.12,1.29,10.21,0.04,0.09,-0.07,1721200868736
-0.82,-0.34,14.18,-0.04,0.30,-0.00,1721200868746
-0.44,-0.45,7.54,0.17,-0.11,-0.03,1721200868756
-1.39,-0.85,4.62,-0.08,0.13,-0.04,1721200868766
0.40,3.62,14.18,0.11,0.20,-0.10,1721200868776
0.75,1.36,7.04,0.08,0.11,-0.08,1721200868786
-1.87,2.51,7.56,-0.07,0.18,-0.16,1721200868796
-0.60,-2.65,8.99,-0.07,0.17,0.06,1721200868806
2.00,3.42,19.47,0.09,0.31,0.14,1721200868816
2.22,4.68,8.34,0.23,-0.11,0.02,1721200868826
-2.31,4.49,7.31,-0.09,0.04,-0.19,1721200868836
-3.24,1.79,8.21,-0.03,0.05,-0.12,1721200868846
-2.70,-1.87,11.50,-0.19,0.13,0.09,1721200868856
-1.39,6.43,15.92,0.31,0.06,0.32,1721200868866
1.88,2.20,1.97,-0.08,0.17,0.17,1721200868876
0.24,6.63,10.73,-0.07,-0.11,-0.02,1721200868886
2.16,5.28,13.24,-0.11,0.29,-0.14,1721200868896
-2.27,3.10,11.15,-0.05,-0.16,-0.16,1721200868906
-3.82,2.49,4.97,-0.04,0.10,0.01,1721200868916
-0.49,1.56,12.77,-0.08,0.27,0.07,1721200868926
-1.80,-0.89,8.81,0.04,-0.09,0.05,1721200868936
-3.16,3.73,15.55,-0.13,0.23,-0.09,1721200868946
-2.21,2.89,10.34,0.21,-0.13,0.22,1721200868956
-0.55,0.34,9.56,-0.10,0.28,0.27,1721200868966
-1.43,-0.28,8.95,0.10,-0.22,0.17,1721200868976
-1.41,-4.36,9.24,-0.12,0.12,0.13,1721200868986
-2.15,-3.17,7.88,0.12,-0.21,0.14,1721200868996
0.34,-1.89,9.43,0.03,0.10,0.35,1721200869006
2.22,3.35,11.70,0.17,-0.09,0.25,1721200869016
-0.59,3.70,5.35,0.11,-0.12,0.03,1721200869026
-1.27,-1.16,13.21,-0.18,0.14,-0.06,1721200869036
-3.82,-6.40,7.60,0.06,-0.38,0.36,1721200869046
-1.82,4.14,10.74,0.03,0.26,0.59,1721200869056
4.76,1.26,10.33,0.08,-0.18,0.38,1721200869066
3.74,-1.33,12.40,-0.08,-0.14,0.15,1721200869076
0.69,2.57,10.87,0.04,-0.05,-0.15,1721200869086
-3.55,-5.46,9.30,-0.18,-0.17,-0.06,1721200869096
-4.92,3.19,13.37,0.29,-0.14,0.54,1721200869106
3.20,-4.30,4.17,-0.10,0.02,0.57,1721200869116
2.07,3.80,13.89,0.13,-0.26,0.27,1721200869126
3.34,-0.17,14.25,-0.04,0.20,-0.28,1721200869136
-3.87,-3.22,12.66,0.10,-0.46,-0.09,1721200869146
-5.16,-3.19,4.66,0.11,-0.08,0.44,1721200869156
2.89,1.33,9.09,0.05,0.15,0.57,1721200869166
7.10,-0.22,10.53,-0.02,-0.07,0.26,1721200869176
3.52,7.91,14.69,0.24,-0.08,-0.36,1721200869186
1.28,-7.38,-2.11,-0.10,-0.17,-0.30,1721200869196
-7.44,-3.16,16.86,-0.04,-0.02,0.03,1721200869206
-0.97,1.58,10.62,0.05,0.09,0.28,1721200869216
2.91,1.45,12.55,-0.02,-0.04,0.17,1721200869226
3.19,1.25,9.02,-0.05,-0.01,-0.14,1721200869236
-0.89,-0.99,5.81,-0.12,-0.07,-0.30,1721200869246
-3.73,0.97,16.92,-0.18,0.11,-0.07,1721200869256
-1.44,3.24,9.91,0.19,-0.06,0.18,1721200869266
3.25,-0.48,5.80,-0.11,0.15,0.20,1721200869276
2.22,3.72,13.78,0.00,-0.05,-0.18,1721200869286
-0.31,1.53,13.53,0.03,-0.08,-0.36,1721200869296
-3.00,3.61,12.02,0.17,0.06,-0.06,1721200869306
0.02,5.90,7.90,0.09,0.14,0.16,1721200869316
3.77,-2.31,8.72,-0.24,0.10,0.08,1721200869326
2.38,7.47,21.05,0.27,0.07,-0.38,1721200869336
2.39,3.15,4.29,0.19,0.08,-0.41,1721200869346
-2.59,7.52,11.04,0.01,0.04,-0.13,1721200869356
-0.92,2.06,10.88,0.01,0.24,-0.04,1721200869366
1.53,-12.46,12.05,-0.01,0.05,-0.76,1721200869376
-16.88,18.49,8.87,0.38,-1.33,0.20,1721200869386
-17.75,10.64,23.24,-0.82,1.28,1.33,1721200869396
32.78,13.09,-0.22,0.57,-0.12,2.77,1721200869406
29.75,3.88,-8.19,0.23,0.97,1.09,1721200869416
29.49,9.87,13.08,-0.07,-0.06,-1.64,1721200869426
9.81,-2.28,10.77,-0.29,-0.42,-3.03,1721200869436
-12.54,-4.86,24.02,0.23,-0.18,-2.68,1721200869446
-31.86,-8.40,4.10,0.12,-0.13,-0.28,1721200869456
-17.47,-2.81,8.39,-0.12,0.45,1.57,1721200869466
5.65,1.06,12.07,-0.04,0.31,1.36,1721200869476
13.31,0.95,9.97,-0.02,0.09,0.01,1721200869486
8.80,3.56,14.12,0.03,0.16,-1.04,1721200869496
-3.93,-5.84,4.49,-0.05,-0.40,-0.93,1721200869506
-13.23,0.25,13.07,-0.06,-0.09,-0.13,1721200869516
-4.80,-8.41,9.92,-0.10,0.12,0.69,1721200869526
2.57,0.28,9.18,0.05,-0.08,0.50,1721200869536
10.25,3.67,9.35,0.17,0.31,-0.26,1721200869546
5.00,1.03,7.39,-0.05,-0.13,-0.83,1721200869556
-9.04,3.65,11.35,-0.04,-0.33,-0.87,1721200869566
-10.63,-4.06,12.84,-0.12,0.08,-0.14,1721200869576
-8.20,-1.96,11.15,0.03,-0.06,0.64,1721200869586
3.53,-2.58,7.67,-0.01,0.33,0.68,1721200869596
6.14,2.98,10.16,0.01,-0.16,0.01,1721200869606
3.55,2.34,9.14,0.03,-0.02,-0.70,1721200869616
-2.42,-0.43,13.55,0.06,-0.06,-0.59,1721200869626
-6.64,-0.59,8.86,0.15,-0.07,0.09,1721200869636
-2.61,-1.11,7.25,-0.05,0.17,0.50,1721200869646
1.94,2.97,11.60,0.07,0.08,0.19,1721200869656
2.03,-1.23,9.34,-0.06,-0.08,-0.25,1721200869666
-2.97,-4.24,8.16,0.03,-0.31,-0.13,1721200869676
-2.71,1.48,11.31,0.14,0.14,0.11,1721200869686
1.67,0.37,11.90,0.03,-0.01,0.20,1721200869696
0.96,3.51,16.19,0.06,-0.16,0.10,1721200869706
-0.55,0.28,3.15,0.15,-0.21,-0.03,1721200869716
-2.21,-4.69,9.14,-0.28,0.13,-0.12,1721200869726
-3.68,-1.34,14.46,0.13,-0.23,0.13,1721200869736
-0.05,-0.92,8.46,0.03,0.03,0.25,1721200869746
0.65,7.32,11.86,0.17,-0.20,0.01,1721200869756
1.73,-0.43,7.86,-0.12,-0.06,0.01,1721200869766
1.10,1.99,15.08,0.00,-0.07,-0.07,1721200869776
2.59,-3.93,7.77,-0.09,-0.14,-0.21,1721200869786
-2.21,4.99,12.43,0.17,-0.16,-0.24,1721200869796
-1.89,-0.50,2.87,-0.02,-0.01,-0.29,1721200869806
-4.85,0.83,15.24,-0.03,-0.07,-0.10,1721200869816
-1.53,-2.40,7.86,0.03,-0.10,0.11,1721200869826
-0.65,4.56,15.73,-0.05,-0.08,0.00,1721200869836
0.64,6.60,6.79,0.18,-0.16,-0.17,1721200869846
1.90,2.32,8.13,-0.12,0.15,-0.32,1721200869856
-2.27,-5.32,6.62,-0.20,-0.33,-0.22,1721200869866
-3.74,-2.06,18.27,-0.05,-0.04,-0.11,1721200869876
-0.44,3.16,12.51,0.21,-0.05,0.04,1721200869886
0.40,6.38,4.17,-0.04,-0.09,-0.07,1721200869896
1.16,-0.67,10.13,-0.29,-0.04,-0.28,1721200869906
-3.07,-4.89,13.74,-0.11,-0.14,-0.31,1721200869916
-5.93,-1.59,8.44,0.09,-0.13,-0.10,1721200869926
-3.34,3.09,7.78,0.08,-0.06,0.39,1721200869936
2.70,2.85,7.80,0.08,-0.09,0.42,1721200869946
6.33,-0.06,11.54,-0.14,0.01,-0.07,1721200869956
-0.54,0.60,9.21,-0.03,-0.38,-0.28,1721200869966
-3.60,-1.37,13.77,-0.09,0.04,0.06,1721200869976
-0.08,-3.41,9.57,0.06,-0.19,0.43,1721200869986
2.12,0.68,11.05,-0.04,-0.04,0.22,1721200869996
3.68,6.59,13.97,0.17,-0.16,-0.09,1721200870006
2.88,0.24,7.76,-0.13,0.00,-0.46,1721200870016
-3.85,-1.10,10.35,0.09,-0.31,-0.37,1721200870026
-4.23,-0.42,6.64,-0.03,0.15,0.02,1721200870036
0.06,1.17,10.00,0.16,-0.13,0.30,1721200870046
3.79,-3.45,3.33,-0.05,-0.04,0.02,1721200870056
4.40,-1.11,16.43,0.05,0.11,-0.34,1721200870066
0.68,1.30,10.51,0.23,-0.08,-0.44,1721200870076
-2.89,-0.47,9.27,-0.10,0.10,-0.13,1721200870086
-3.01,4.26,13.59,0.22,0.00,-0.13,1721200870096
2.23,-1.41,8.03,-0.01,0.05,-0.10,1721200870106
1.71,1.65,12.87,0.13,-0.03,-0.16,1721200870116
0.87,-4.57,6.69,-0.09,0.09,-0.29,1721200870126
-3.82,-1.47,9.03,0.07,-0.07,-0.25,1721200870136
-1.41,-2.09,4.59,0.02,0.12,-0.20,1721200870146
1.38,1.29,22.27,0.09,0.09,-0.03,1721200870156
3.49,0.33,8.42,-0.02,0.11,-0.36,1721200870171
0.40,3.11,9.12,-0.04,0.18,-0.43,1721200870176
-1.37,-5.24,4.07,-0.15,0.02,-0.48,1721200870186
-4.59,-4.44,15.67,0.00,0.04,-0.10,1721200870196
-1.75,0.00,6.54,0.34,0.09,0.17,1721200870206
3.51,2.98,7.19,0.01,0.31,-0.03,1721200870216
3.39,7.39,14.92,0.16,0.10,-0.28,1721200870226
0.36,-2.38,5.90,-0.15,0.09,-0.41,1721200870236
-3.99,-3.13,14.80,0.09,0.08,-0.20,1721200870246
-1.49,-3.14,6.57,0.04,0.25,-0.02,1721200870256
-0.53,3.63,13.81,0.03,0.09,-0.05,1721200870266
1.46,5.95,5.05,0.24,0.07,-0.15,1721200870276
0.95,-2.58,8.00,-0.34,0.32,-0.39,1721200870286
-4.84,-3.45,17.15,-0.02,-0.09,-0.15,1721200870296
-3.44,3.09,15.52,0.26,0.32,0.11,1721200870306
2.91,0.74,0.16,0.09,0.03,0.27,1721200870316
1.48,8.85,7.98,-0.10,0.19,-0.04,1721200870326
5.15,-2.23,9.79,-0.24,0.26,-0.47,1721200870336
-3.11,-5.27,18.70,-0.03,-0.17,-0.41,1721200870346
-6.35,6.95,15.01,0.34,0.24,0.06,1721200870356
2.03,3.91,-1.86,-0.01,0.16,0.20,1721200870366
0.63,3.45,9.98,-0.22,-0.11,-0.09,1721200870376
3.68,-2.21,12.24,-0.03,0.12,-0.27,1721200870386
-2.70,-0.58,7.23,0.11,-0.16,-0.06,1721200870396
-2.36,2.61,6.90,-0.20,0.27,-0.05,1721200870406
2.04,-2.68,9.90,-0.13,0.04,0.12,1721200870416
3.77,1.56,10.23,-0.15,0.36,-0.08,1721200870426
6.44,0.72,10.69,-0.10,0.26,-0.43,1721200870436
2.58,-7.24,13.38,-0.30,-0.02,-0.44,1721200870446
-4.18,2.80,16.27,0.21,0.02,-0.41,1721200870456
-1.52,-1.16,3.61,0.05,0.09,-0.20,1721200870466
-2.62,1.13,9.93,-0.06,-0.09,-0.07,1721200870476
0.28,0.46,12.17,-0.08,0.45,-0.28,1721200870486
0.58,1.19,14.32,-0.12,0.28,-0.32,1721200870496
-3.12,3.42,7.50,0.01,-0.07,-0.27,1721200870506
-2.97,-4.26,5.11,-0.22,0.14,-0.26,1721200870516
-1.71,1.33,15.90,0.14,0.14,-0.12,1721200870526
1.20,2.55,8.86,0.02,0.22,-0.17,1721200870536
-2.44,7.26,15.72,0.16,-0.16,-0.14,1721200870546
-1.96,-4.79,-1.46,-0.06,-0.04,-0.12,1721200870556
0.17,-1.44,20.33,-0.09,0.58,-0.19,1721200870566
-0.34,-1.30,4.44,0.36,-0.23,-0.18,1721200870576
-1.10,1.29,10.62,-0.11,0.55,-0.22,1721200870586
-2.62,2.52,11.82,0.45,-0.22,0.03,1721200870596
-2.33,-2.30,7.24,-0.16,0.20,0.12,1721200870606
-0.60,2.53,15.18,0.30,-0.02,0.16,1721200870616
2.73,-2.82,4.73,0.05,0.29,0.01,1721200870626
-3.09,-4.07,10.86,-0.03,-0.27,-0.09,1721200870636
-6.66,-0.21,7.36,0.20,-0.22,0.09,1721200870646
0.32,-3.74,12.91,-0.07,0.39,0.20,1721200870656
1.58,-2.53,14.63,0.10,-0.15,0.33,1721200870666
1.33,2.08,9.90,0.11,0.02,0.06,1721200870676
1.89,-5.91,3.96,-0.13,-0.01,-0.08,1721200870686
-3.48,-0.17,16.02,0.05,-0.15,-0.07,1721200870696
-1.81,4.60,6.20,0.34,0.07,0.05,1721200870706
2.31,-3.16,10.30,-0.33,0.29,0.11,1721200870716
-0.57,2.50,17.02,0.20,-0.39,0.22,1721200870726
1.43,-0.06,7.08,-0.09,0.38,0.00,1721200870736
-0.97,0.34,14.39,-0.03,-0.24,-0.00,1721200870746
-3.09,1.62,6.55,0.17,-0.29,0.11,1721200870756
0.54,-2.97,11.88,-0.21,0.22,0.09,1721200870766
-0.95,5.19,13.43,0.30,-0.35,0.11,1721200870776
2.32,4.24,6.17,-0.03,0.32,-0.06,1721200870786
1.21,5.94,12.71,0.14,-0.10,-0.08,1721200870796
0.32,0.89,3.15,-0.12,-0.05,-0.13,1721200870806
-0.62,1.10,11.77,-0.11,-0.10,-0.25,1721200870816
-1.53,5.09,17.76,0.12,0.03,-0.30,1721200870826
-2.15,2.28,10.52,0.18,-0.13,-0.05,1721200870836
-2.38,2.16,1.99,0.07,-0.22,0.10,1721200870846
2.55,2.44,12.29,-0.09,0.29,-0.03,1721200870856
0.59,5.58,9.00,0.21,-0.23,-0.27,1721200870866
-0.36,0.53,13.61,-0.16,0.13,-0.20,1721200870876
-3.30,-2.03,6.98,0.17,-0.36,0.05,1721200870886
-1.14,0.20,13.30,-0.17,0.28,-0.01,1721200870896
2.05,2.22,17.34,0.21,-0.19,-0.18,1721200870906
-3.01,2.30,2.97,0.11,-0.19,-0.20,1721200870916
-5.25,2.89,12.66,-0.16,0.32,-0.15,1721200870926
-1.61,-6.67,6.95,-0.08,-0.17,0.05,1721200870936
-4.40,1.81,15.04,0.01,-0.14,0.20,1721200870946
2.54,1.92,-0.56,0.20,-0.22,0.31,1721200870956
7.60,-2.64,16.61,-0.20,0.20,0.01,1721200870966
0.36,-4.95,13.90,0.25,-0.56,-0.09,1721200870976
-3.08,-2.62,11.66,-0.25,0.38,-0.32,1721200870986
-6.87,1.04,14.66,0.12,-0.42,0.03,1721200870996
-2.86,-4.38,12.24,-0.14,0.03,0.34,1721200871006
3.61,2.01,13.04,0.21,-0.13,0.27,1721200871016
6.04,-1.50,7.38,-0.07,-0.02,-0.10,1721200871026
-1.25,-3.30,15.13,-0.12,-0.08,-0.07,1721200871036
-4.09,3.14,8.64,0.21,-0.12,0.03,1721200871046
1.40,-3.10,9.09,-0.16,0.05,0.21,1721200871056
2.40,-1.89,14.09,0.07,-0.34,0.21,1721200871066
2.40,5.27,11.65,0.20,0.14,-0.32,1721200871076
1.18,0.04,9.73,-0.17,-0.08,-0.46,1721200871086
-4.63,-7.29,12.77,-0.18,-0.29,-0.12,1721200871096
-3.49,-0.62,9.33,0.26,0.07,0.18,1721200871106
4.04,0.91,11.93,-0.01,0.31,0.13,1721200871116
2.05,0.22,10.84,0.13,-0.41,0.01,1721200871126
-0.02,3.93,15.73,0.04,0.20,-0.49,1721200871136
-0.77,-1.10,11.13,0.22,-0.11,-0.33,1721200871146
-3.44,-3.78,4.12,-0.03,-0.10,0.28,1721200871156
0.42,0.64,12.16,0.09,0.15,0.31,1721200871166
4.14,-2.31,6.89,-0.06,0.00,0.02,1721200871176
2.25,1.43,19.14,0.03,-0.06,-0.20,1721200871186
0.35,-0.99,6.65,0.15,-0.04,-0.23,1721200871196
-1.91,1.62,13.92,-0.00,0.15,-0.13,1721200871206
-1.13,-2.48,5.69,0.13,-0.04,0.12,1721200871216
-0.65,3.31,15.83,0.06,0.22,-0.02,1721200871226
1.16,1.99,-0.71,0.17,-0.17,0.06,1721200871236
0.06,4.31,10.29,-0.34,0.14,-0.19,1721200871246
1.82,-0.77,16.00,0.09,0.23,-0.26,1721200871256
0.13,-3.05,13.68,0.11,-0.06,-0.11,1721200871266
-4.61,5.88,12.85,0.36,-0.19,0.15,1721200871276
2.25,3.51,0.72,-0.04,0.26,0.15,1721200871286
3.89,-0.56,12.52,-0.08,-0.06,-0.06,1721200871296
0.07,0.15,8.07,-0.04,-0.06,-0.20,1721200871306
-0.87,-0.21,12.22,-0.05,0.09,-0.05,1721200871316
2.26,1.94,12.34,0.11,0.20,0.05,1721200871326
4.79,1.75,4.39,0.03,-0.01,-0.12,1721200871336
1.85,6.83,11.20,0.02,0.07,-0.50,1721200871346
-0.73,-0.70,12.70,-0.14,0.14,-0.65,1721200871356
-6.45,-6.20,15.15,0.14,-0.16,-0.11,1721200871366
-4.56,-1.55,6.26,-0.03,0.08,0.26,1721200871376
2.20,2.58,5.43,-0.05,0.17,0.06,1721200871386
5.59,3.36,15.72,-0.13,0.20,-0.43,1721200871396
3.74,0.31,9.14,0.02,0.01,-0.53,1721200871406
-1.13,-4.65,9.45,-0.15,0.19,-0.52,1721200871416
-2.62,-3.45,14.24,0.07,0.13,-0.24,1721200871426
0.32,-2.15,3.95,0.01,0.03,-0.02,1721200871436
3.23,0.07,11.89,-0.14,0.41,-0.28,1721200871446
0.74,-4.92,12.71,-0.08,0.05,-0.58,1721200871456
-4.75,-0.80,5.01,-0.02,-0.11,-0.48,1721200871466
0.54,-4.59,8.00,-0.29,0.44,-0.20,1721200871476
2.13,-5.90,16.29,-0.28,0.30,-0.24,1721200871486
-1.49,4.36,10.10,0.13,-0.07,-0.38,1721200871496
1.57,3.51,5.86,-0.20,0.56,-0.59,1721200871506
-1.83,-5.80,8.78,-0.36,-0.09,-0.50,1721200871516
-8.86,-2.25,9.66,-0.30,-0.03,-0.23,1721200871526
-2.50,6.31,12.88,-0.05,0.56,-0.21,1721200871536
1.28,-5.25,13.72,-0.39,0.02,-0.27,1721200871546
-5.99,-2.16,7.67,-0.13,-0.23,-0.07,1721200871556
1.33,0.92,12.81,-0.18,0.84,-0.24,1721200871566
0.91,0.29,15.71,-0.04,-0.13,-0.31,1721200871576
-6.67,6.11,8.63,-0.01,0.02,-0.22,1721200871586
-1.47,-1.07,8.76,-0.09,0.26,-0.10,1721200871596
0.07,3.54,15.40,0.08,0.14,0.04,1721200871606
0.84,-4.28,5.35,-0.05,0.07,-0.09,1721200871616
-2.17,-0.84,15.52,-0.02,0.18,-0.27,1721200871626
-3.00,1.51,10.23,0.34,0.12,-0.18,1721200871636
-3.63,3.97,10.75,0.08,0.16,-0.08,1721200871646
-3.25,0.85,11.71,0.09,0.05,0.13,1721200871656
-1.36,-5.39,12.06,-0.10,0.12,0.07,1721200871666
-3.04,4.05,8.68,0.35,-0.17,-0.02,1721200871676
0.90,0.63,2.83,0.17,0.19,0.07,1721200871686
0.18,-2.35,10.07,0.06,0.06,0.01,1721200871696
-2.61,4.54,16.41,0.11,0.30,-0.14,1721200871706
-1.31,4.34,11.47,0.20,-0.19,-0.11,1721200871716
-2.18,1.35,11.12,0.01,-0.12,0.06,1721200871726
-2.79,3.81,7.96,0.27,-0.13,0.17,1721200871736
2.17,3.26,5.42,0.05,0.15,0.05,1721200871746
1.97,0.70,10.67,-0.03,-0.15,-0.06,1721200871756
-2.65,-3.64,11.17,-0.08,-0.10,-0.19,1721200871766
-4.20,7.84,18.60,0.30,0.04,-0.10,1721200871776
1.04,2.04,5.60,0.21,-0.09,0.38,1721200871786
-0.74,8.09,3.29,0.11,-0.19,0.41,1721200871796
7.61,-0.07,7.75,-0.27,0.31,0.07,1721200871806
3.17,1.38,14.64,0.01,-0.32,-0.38,1721200871816
-1.56,-0.39,11.56,0.12,-0.05,-0.30,1721200871826
-4.69,-0.75,3.95,0.13,-0.14,0.15,1721200871836
-1.52,2.25,11.41,-0.38,0.42,0.11,1721200871846
1.75,2.84,20.90,0.02,-0.12,-0.04,1721200871856
-2.77,-3.76,1.86,-0.05,-0.29,-0.22,1721200871866
-6.05,0.98,6.82,-0.14,0.09,0.05,1721200871876
2.04,-2.39,11.07,-0.35,0.21,0.37,1721200871886
2.99,1.08,17.28,-0.08,-0.20,0.15,1721200871896
4.33,-1.34,12.06,-0.19,0.15,-0.23,1721200871906
0.49,-1.12,8.52,-0.04,-0.19,-0.23,1721200871916
-1.30,-6.31,4.08,-0.24,0.11,-0.12,1721200871926
-1.23,-0.64,16.63,-0.12,0.05,0.08,1721200871936
1.01,0.53,13.54,-0.18,0.08,-0.03,1721200871946
0.15,3.32,12.05,-0.17,-0.05,-0.25,1721200871956
-0.67,-5.52,5.54,-0.33,0.07,-0.47,1721200871966
-2.95,-1.47,11.60,-0.06,0.08,-0.30,1721200871976
0.94,1.66,12.28,0.04,0.36,-0.02,1721200871986
1.30,1.10,12.92,-0.01,0.15,-0.14,1721200871996
-1.71,5.35,11.18,0.08,0.06,-0.47,1721200872006
-0.67,-2.37,6.73,-0.08,0.27,-0.39,1721200872016
-2.94,-3.83,9.91,0.03,0.01,-0.02,1721200872026
-1.41,-0.95,11.74,0.15,0.26,0.02,1721200872036
2.81,3.52,8.76,0.31,0.23,-0.22,1721200872046
1.58,-0.57,10.55,-0.04,0.18,-0.40,1721200872056
-5.41,2.61,14.81,0.24,-0.01,-0.40,1721200872066
-4.24,-1.33,9.37,0.17,0.28,0.03,1721200872076
-1.11,0.32,10.38,0.26,0.16,0.22,1721200872086
3.94,-0.40,9.16,0.32,0.18,0.24,1721200872096
3.65,-0.52,8.79,0.16,0.21,-0.25,1721200872106
-0.17,-1.91,13.27,0.01,0.25,-0.51,1721200872116
-4.70,4.21,13.32,0.36,0.00,-0.12,1721200872126
-0.71,3.98,5.35,0.29,0.31,0.32,1721200872136
3.22,-1.84,8.32,0.07,0.29,0.19,1721200872146
0.79,0.32,8.03,0.13,0.17,-0.20,1721200872156
-1.13,0.83,8.51,0.13,0.17,-0.26,1721200872166
-3.00,4.57,13.65,0.26,0.19,0.09,1721200872181
-1.31,3.52,10.14,0.24,0.11,0.13,1721200872186
-0.97,-0.60,8.69,0.13,0.16,0.10,1721200872196
-1.19,-1.01,3.24,0.01,0.17,0.09,1721200872206
-0.28,3.03,19.53,-0.06,0.38,-0.03,1721200872216
1.02,2.60,7.23,0.47,-0.12,0.30,1721200872226
0.90,6.25,6.17,-0.01,0.39,0.12,1721200872236
1.20,1.98,11.43,-0.12,0.07,-0.07,1721200872246
-4.36,1.08,13.35,-0.11,-0.02,-0.07,1721200872256
-3.11,1.31,11.30,0.16,0.16,0.26,1721200872266
0.87,-0.20,8.22,0.11,0.04,0.51,1721200872276
1.62,2.43,6.55,0.05,-0.07,0.48,1721200872286
2.20,5.08,12.34,-0.02,0.27,0.04,1721200872296
1.10,-0.38,13.18,-0.12,-0.10,0.02,1721200872306
-3.23,-3.21,12.52,0.05,-0.17,0.37,1721200872316
2.43,0.65,9.69,0.09,0.30,0.42,1721200872326
6.25,-2.49,7.23,-0.00,-0.19,0.30,1721200872336
0.92,-0.29,6.83,-0.15,-0.30,-0.12,1721200872346
-2.35,1.56,14.03,0.07,-0.01,-0.40,1721200872356
-4.45,-4.92,10.40,-0.19,-0.01,0.04,1721200872366
-5.27,-3.41,7.07,-0.03,-0.20,0.62,1721200872376
3.56,-6.91,10.51,-0.22,0.12,0.54,1721200872386
8.23,-2.89,11.04,0.07,-0.23,0.20,1721200872396
5.06,1.53,11.79,-0.09,-0.05,-0.39,1721200872406
-5.33,4.41,9.21,0.05,-0.40,-0.60,1721200872416
-8.03,-6.17,7.79,-0.40,-0.12,0.03,1721200872426
-2.87,-1.63,19.04,-0.04,-0.08,0.61,1721200872436
3.34,-1.48,3.18,-0.02,-0.14,0.43,1721200872446
3.39,5.80,9.29,-0.13,0.04,-0.27,1721200872456
3.14,6.50,13.68,-0.00,0.05,-0.52,1721200872466
-5.88,-3.98,6.08,-0.21,-0.63,-0.22,1721200872476
-7.81,-0.84,16.66,-0.11,-0.32,0.27,1721200872486
0.86,0.14,10.54,0.08,0.03,0.40,1721200872496
2.46,1.61,1.89,0.06,-0.32,0.11,1721200872506
3.64,-1.40,7.97,-0.16,0.05,-0.21,1721200872516
0.87,0.64,15.09,0.13,-0.29,-0.37,1721200872526
-2.27,-1.50,14.64,0.04,-0.20,-0.01,1721200872536
-2.41,-3.02,7.96,0.05,-0.29,0.24,1721200872546
1.49,1.25,8.33,0.10,0.03,0.03,1721200872556
4.70,-1.83,7.88,0.07,-0.16,-0.03,1721200872566
-1.12,-2.30,6.79,-0.04,-0.44,-0.15,1721200872576
-1.18,2.72,15.42,-0.04,0.22,-0.39,1721200872586
-0.35,-4.87,14.36,-0.03,-0.12,-0.21,1721200872596
-4.58,2.72,10.82,0.09,-0.32,-0.07,1721200872606
0.44,5.24,8.50,0.01,0.19,-0.14,1721200872616
0.60,0.25,7.58,-0.07,-0.26,-0.13,1721200872626
-4.14,-5.48,7.48,-0.05,-0.46,-0.20,1721200872636
-4.34,3.89,15.75,0.16,0.04,-0.14,1721200872646
-1.37,7.87,3.83,0.34,-0.41,0.03,1721200872656
4.12,6.76,15.62,-0.10,0.31,-0.01,1721200872666
1.92,-2.91,6.66,0.03,-0.71,-0.16,1721200872676
-3.52,1.14,10.62,-0.10,0.00,-0.47,1721200872686
-2.57,0.67,7.88,0.19,-0.34,-0.36,1721200872696
-6.28,5.05,9.47,0.00,-0.26,0.03,1721200872706
-2.80,2.16,11.65,-0.00,-0.10,0.18,1721200872716
1.40,-0.97,10.31,-0.05,-0.15,0.10,1721200872726
3.40,4.61,16.10,0.16,-0.02,-0.14,1721200872736
1.55,1.33,6.43,0.13,-0.36,-0.16,1721200872746
-2.46,4.44,6.87,0.14,-0.31,-0.05,1721200872756
3.05,0.73,6.52,-0.15,0.08,-0.08,1721200872766
2.96,0.10,15.92,-0.03,-0.32,-0.28,1721200872776
-2.39,3.54,14.82,0.08,-0.15,-0.45,1721200872786
-4.98,-0.07,10.15,0.04,-0.22,-0.31,1721200872796
-5.84,2.37,-0.49,0.07,-0.34,0.05,1721200872806
1.25,0.43,10.64,-0.21,0.27,0.07,1721200872816
4.95,-5.88,18.61,0.09,-0.19,-0.09,1721200872826
-3.57,1.22,8.19,0.25,-0.40,-0.25,1721200872836
-1.87,6.22,4.91,0.10,0.05,-0.05,1721200872846
4.65,-1.33,8.23,-0.15,-0.22,0.14,1721200872856
3.95,-3.21,18.38,-0.07,-0.06,-0.05,1721200872866
1.92,-5.20,10.28,-0.05,-0.13,-0.41,1721200872876
-2.83,-2.40,6.74,0.08,-0.37,-0.24,1721200872886
0.66,3.18,4.94,0.02,0.17,0.05,1721200872896
7.12,0.05,7.66,-0.08,0.02,0.03,1721200872906
4.17,-6.12,13.37,-0.19,-0.11,-0.40,1721200872916
-1.77,1.69,18.92,0.24,-0.13,-0.70,1721200872926
-2.27,0.65,7.34,-0.08,0.04,-0.43,1721200872936
-1.61,-2.47,13.76,-0.16,0.01,-0.11,1721200872946
2.35,-5.52,4.72,0.20,-0.04,-0.04,1721200872956
4.19,-7.00,8.26,-0.19,0.41,-0.61,1721200872966
-2.72,-2.06,19.83,0.20,-0.24,-0.65,1721200872976
-4.87,4.69,14.59,0.26,0.22,-0.48,1721200872986
-0.01,0.27,7.07,-0.01,0.23,-0.04,1721200872996
-1.09,-0.09,2.72,-0.06,-0.07,-0.09,1721200873006
3.47,3.00,17.36,-0.03,0.67,-0.63,1721200873016
3.79,-7.42,11.64,0.10,0.00,-0.61,1721200873026
-5.48,6.69,16.08,0.28,0.14,-0.34,1721200873036
0.03,1.94,5.93,0.06,0.41,-0.22,1721200873046
1.05,-2.42,10.21,0.02,0.05,-0.20,1721200873056
-0.01,-1.99,8.69,0.06,0.22,-0.35,1721200873066
-1.06,-2.13,8.19,0.03,0.30,-0.30,1721200873076
-1.35,1.93,15.39,0.06,0.36,-0.15,1721200873086
-1.73,1.82,13.53,0.21,0.11,-0.13,1721200873096
-1.11,2.96,6.77,0.24,0.19,-0.05,1721200873106
2.13,0.99,15.03,-0.03,0.49,-0.12,1721200873116
1.07,-1.79,12.27,0.22,0.16,-0.06,1721200873126
-1.73,4.70,4.81,0.20,0.13,-0.08,1721200873136
1.37,4.47,11.33,-0.03,0.53,-0.09,1721200873146
2.99,2.97,7.60,0.09,0.20,-0.10,1721200873156
0.87,1.69,10.20,-0.10,0.35,-0.36,1721200873166
-2.19,1.80,11.02,0.20,0.19,-0.35,1721200873176
-3.78,0.14,4.03,-0.07,0.23,-0.13,1721200873186
-2.87,1.70,13.10,0.03,0.18,0.13,1721200873196
0.91,-0.65,13.74,-0.07,0.40,0.00,1721200873206
0.22,-0.20,13.94,0.19,-0.05,0.01,1721200873216
0.89,4.65,6.47,0.11,0.29,-0.09,1721200873226
2.49,2.77,3.21,-0.17,0.26,-0.18,1721200873236
-0.97,-2.15,11.97,-0.22,0.13,-0.20,1721200873246
-0.18,-6.05,13.52,-0.13,0.23,-0.13,1721200873256
1.09,0.00,12.26,0.14,0.11,-0.13,1721200873266
1.28,5.12,6.97,0.01,0.31,-0.33,1721200873276
-0.65,1.19,6.13,-0.14,0.12,-0.38,1721200873286
-1.64,-3.26,8.56,-0.18,0.36,-0.30,1721200873296
-0.95,-5.82,11.56,-0.11,0.32,-0.11,1721200873306
-0.84,-4.20,9.48,0.01,0.15,-0.14,1721200873316
-2.10,2.95,12.23,0.10,0.17,-0.18,1721200873326
-0.41,2.60,10.48,0.02,0.27,-0.10,1721200873336
-1.71,1.67,6.92,-0.12,0.06,-0.05,1721200873346
0.58,-4.87,13.41,-0.33,0.33,-0.14,1721200873356
0.16,-4.46,14.41,0.01,0.12,-0.19,1721200873366
-3.49,3.58,6.23,0.10,0.06,-0.31,1721200873376
-5.57,1.10,3.77,-0.05,0.19,0.02,1721200873386
-1.53,0.90,19.78,-0.21,0.66,0.17,1721200873396
3.38,-1.96,13.79,0.10,-0.06,0.09,1721200873406
-0.82,2.42,9.93,-0.09,0.17,-0.30,1721200873416
-2.04,-2.87,9.63,0.01,0.26,-0.32,1721200873426
-5.04,-0.54,8.91,-0.00,-0.03,0.10,1721200873436
-2.63,0.75,13.78,-0.06,0.33,0.27,1721200873446
2.52,1.88,15.15,0.16,0.15,0.12,1721200873456
3.19,2.61,7.64,0.14,0.09,-0.16,1721200873466
0.09,-2.15,6.68,-0.10,0.13,-0.19,1721200873476
-2.77,2.12,11.65,0.12,0.24,-0.12,1721200873486
-0.33,-6.95,6.48,-0.08,0.09,0.05,1721200873496
-2.88,3.08,16.70,0.05,-0.09,-0.01,1721200873506
-1.62,6.39,3.72,0.31,0.04,-0.02,1721200873516
-0.81,-0.94,6.65,-0.21,0.30,-0.05,1721200873526
0.32,-3.44,16.52,0.01,0.21,-0.05,1721200873536
0.82,1.48,12.82,0.12,0.29,-0.17,1721200873546
-2.55,6.69,8.24,0.25,0.00,-0.24,1721200873556
-4.43,3.05,9.59,0.00,0.13,0.02,1721200873566
-1.40,2.04,12.83,0.18,0.14,0.25,1721200873576
3.87,-1.58,7.98,-0.09,0.23,0.06,1721200873586
1.17,3.96,12.22,0.08,-0.12,-0.37,1721200873596
-3.94,2.77,10.98,0.12,0.06,-0.48,1721200873606
-6.50,0.55,9.32,0.12,-0.05,0.06,1721200873616
-2.97,3.19,10.15,-0.00,0.21,0.42,1721200873626
2.08,4.11,12.75,-0.06,0.17,0.13,1721200873636
0.31,0.29,6.77,0.07,-0.17,-0.23,1721200873646
-3.62,1.81,9.67,-0.01,0.18,-0.13,1721200873656
-2.47,4.86,5.24,0.13,0.01,0.24,1721200873666
1.51,0.08,10.91,-0.31,0.15,0.29,1721200873676
0.88,-1.72,17.54,-0.06,-0.08,-0.06,1721200873686
-1.74,0.19,11.46,0.11,0.00,-0.17,1721200873696
-3.29,-0.50,3.37,0.03,-0.09,0.20,1721200873706
-2.66,2.91,6.66,-0.09,0.05,0.55,1721200873716
2.41,-0.44,11.82,-0.16,0.15,0.27,1721200873726
1.41,-5.14,12.76,-0.15,-0.16,-0.17,1721200873736
-3.55,-2.63,15.38,0.05,-0.13,0.01,1721200873746
-1.46,-1.69,6.41,0.05,0.00,0.43,1721200873756
1.36,1.09,9.08,-0.00,0.02,0.43,1721200873766
5.02,-1.46,8.84,-0.04,0.01,0.06,1721200873776
0.15,0.65,12.74,0.00,-0.03,-0.26,1721200873786
-1.59,-0.06,16.48,-0.04,0.07,0.02,1721200873796
-1.16,0.22,9.30,0.06,-0.07,0.62,1721200873806
3.73,2.19,7.50,-0.03,0.18,0.44,1721200873816
8.34,-6.86,3.28,-0.20,0.01,-0.07,1721200873826
-0.41,-0.79,15.75,-0.05,-0.11,-0.58,1721200873836
-4.47,4.41,10.00,0.18,0.05,-0.16,1721200873846
-2.21,2.90,9.89,-0.04,0.27,0.35,1721200873856
2.35,-1.70,15.19,0.07,0.03,0.41,1721200873866
4.60,2.16,15.97,0.17,0.15,-0.02,1721200873876
3.16,0.29,6.37,0.10,0.10,-0.30,1721200873886
-3.97,-5.57,3.57,-0.09,-0.11,-0.16,1721200873896
-4.83,1.45,11.53,0.17,0.09,0.02,1721200873906
1.84,-2.04,10.14,-0.06,0.30,0.11,1721200873916
-0.61,3.97,16.98,0.13,0.05,0.08,1721200873926
-0.51,1.87,8.62,-0.02,0.21,0.01,1721200873936
-0.95,2.96,16.82,0.07,0.19,-0.04,1721200873946
-0.38,-3.32,2.18,0.06,-0.05,0.01,1721200873956
-1.36,-3.77,9.05,-0.10,0.18,0.08,1721200873966
-0.83,1.86,12.51,0.24,0.08,0.12,1721200873976
2.02,-1.23,7.49,-0.02,0.14,0.24,1721200873986
1.56,-2.51,12.15,0.01,0.08,0.22,1721200873996
-1.84,7.23,8.05,0.23,0.09,-0.00,1721200874006
0.51,2.98,8.02,-0.08,0.24,0.10,1721200874016
-0.43,-0.06,13.24,0.01,-0.04,0.28,1721200874026
2.89,-0.86,9.50,0.03,0.18,0.24,1721200874036
3.67,10.65,12.04,0.24,0.13,0.19,1721200874046
3.77,5.99,1.19,-0.12,0.13,-0.07,1721200874056
-1.28,-0.27,12.03,-0.26,0.08,-0.23,1721200874066
-3.37,-4.21,9.22,-0.05,-0.02,0.09,1721200874076
-2.90,2.02,14.47,-0.00,0.28,0.26,1721200874086
0.33,3.90,9.50,0.10,-0.01,0.26,1721200874096
0.61,8.09,12.72,0.06,0.06,0.06,1721200874106
2.75,1.37,8.90,-0.04,0.02,-0.01,1721200874116
-1.91,-2.60,6.88,-0.13,-0.09,-0.04,1721200874126
-3.22,1.35,10.69,-0.15,0.08,0.10,1721200874136
1.81,2.41,7.40,-0.09,0.00,0.28,1721200874146
2.77,-3.17,6.20,-0.16,-0.11,-0.06,1721200874156
-0.49,-0.55,10.19,-0.08,0.13,-0.35,1721200874166
1.12,-2.79,15.30,-0.18,0.28,-0.16,1721200874176
-1.46,-2.08,5.94,0.03,-0.10,0.09,1721200874191
0.03,-1.53,5.31,-0.22,0.04,-0.00,1721200874196
-1.81,-2.98,12.80,-0.12,-0.22,-0.01,1721200874206
-1.33,-0.47,6.00,-0.10,0.14,0.11,1721200874216
0.35,4.01,13.66,-0.07,0.04,-0.04,1721200874226
-1.06,-2.29,5.13,-0.16,-0.41,0.01,1721200874236
-2.81,3.48,17.43,-0.07,0.13,-0.07,1721200874246
2.22,-2.60,5.25,-0.04,-0.11,0.13,1721200874256
-2.18,1.33,12.29,-0.19,-0.18,0.01,1721200874266
-1.30,0.54,7.32,-0.03,-0.00,0.10,1721200874276
-0.21,3.30,10.01,-0.11,0.04,-0.01,1721200874286
-0.68,-5.00,5.05,-0.04,-0.30,0.18,1721200874296
-0.01,2.24,17.31,-0.09,0.42,0.17,1721200874306
4.72,6.91,15.95,0.28,0.02,0.07,1721200874316
0.49,4.73,7.68,-0.03,-0.26,-0.13,1721200874326
-3.11,-0.93,8.30,0.00,-0.39,-0.05,1721200874336
-2.77,-2.62,9.52,-0.02,0.01,0.12,1721200874346
-0.49,-1.69,10.41,0.08,-0.09,0.03,1721200874356
0.32,-5.30,8.49,-0.03,-0.14,0.13,1721200874366
-0.11,4.13,13.94,0.00,0.10,-0.07,1721200874376
2.12,2.54,9.15,0.08,-0.09,-0.16,1721200874386
-1.60,0.79,9.06,-0.02,-0.27,-0.07,1721200874396
-1.03,3.22,15.03,0.04,0.06,-0.06,1721200874406
-0.13,-4.83,6.27,0.12,-0.34,-0.06,1721200874416
-6.74,4.79,5.71,0.15,-0.33,-0.08,1721200874426
-1.68,5.81,3.68,0.21,0.04,0.06,1721200874436
3.93,-1.16,13.55,-0.05,0.26,0.04,1721200874446
2.38,1.91,13.61,0.15,-0.15,-0.22,1721200874456
-2.54,5.50,8.81,0.05,-0.21,-0.27,1721200874466
-5.37,2.88,15.13,-0.02,-0.03,-0.04,1721200874476
-2.71,1.54,11.36,0.26,-0.25,0.24,1721200874486
1.68,-1.84,0.62,-0.03,-0.23,0.31,1721200874496
-0.12,3.55,17.69,-0.14,-0.15,-0.11,1721200874506
1.19,2.66,12.79,0.16,-0.23,-0.16,1721200874516
-1.22,3.46,8.23,0.02,-0.09,0.02,1721200874526
0.37,1.91,10.34,-0.03,-0.05,0.17,1721200874536
0.27,1.56,8.68,-0.02,-0.17,-0.08,1721200874546
-1.00,0.48,11.63,0.03,-0.22,-0.12,1721200874556
-2.96,1.43,11.62,0.06,-0.15,0.10,1721200874566
0.77,-3.85,8.84,0.05,-0.14,0.26,1721200874576
2.12,-3.75,7.18,-0.14,-0.08,0.06,1721200874586
-3.04,-0.80,13.62,-0.14,-0.32,-0.15,1721200874596
-2.23,2.35,10.05,0.17,-0.19,0.18,1721200874606
3.22,-2.87,2.03,-0.02,-0.04,0.26,1721200874616
3.39,-6.91,11.25,-0.31,-0.19,-0.08,1721200874626
-0.92,3.65,19.70,0.13,-0.19,-0.11,1721200874636
-0.43,1.80,7.44,0.17,-0.09,-0.01,1721200874646
0.75,-0.31,2.87,-0.04,-0.18,0.25,1721200874656
3.01,-2.49,10.48,-0.29,-0.00,0.07,1721200874666
2.78,-2.13,15.32,-0.03,-0.08,-0.36,1721200874676
-2.08,-3.03,7.50,-0.13,-0.08,-0.52,1721200874686
-4.73,4.91,12.84,0.18,-0.14,0.03,1721200874696
2.16,-0.17,3.50,-0.19,0.08,0.43,1721200874706
4.77,-0.89,23.36,-0.19,0.11,-0.20,1721200874716
2.06,-0.62,14.13,0.23,-0.23,-0.57,1721200874726
-2.90,-5.04,2.74,-0.15,-0.02,-0.30,1721200874736
-4.90,1.89,10.63,-0.01,0.00,-0.04,1721200874746
1.75,-5.33,9.69,-0.06,-0.01,0.05,1721200874756
3.03,1.58,14.64,0.09,0.04,-0.16,1721200874766
2.34,2.38,10.16,0.08,0.05,-0.42,1721200874776
-3.23,6.59,12.74,0.12,0.05,-0.38,1721200874786
-2.59,0.35,10.11,0.03,0.15,-0.11,1721200874796
-0.25,-5.28,10.89,0.03,0.05,0.07,1721200874806
0.73,1.73,5.46,0.26,-0.01,-0.08,1721200874816
3.57,1.48,10.27,-0.13,0.29,-0.34,1721200874826
-0.22,7.46,17.02,0.32,-0.07,-0.32,1721200874836
-0.36,-0.76,8.10,0.05,0.24,-0.13,1721200874846
-1.01,-4.36,4.63,0.18,0.02,-0.11,1721200874856
-0.82,1.09,9.25,-0.06,0.32,-0.23,1721200874866
-0.07,6.29,18.30,0.22,0.14,-0.12,1721200874876
-0.15,-0.61,3.52,0.09,-0.02,-0.01,1721200874886
0.35,-1.62,11.78,0.02,0.21,-0.22,1721200874896
1.04,3.52,10.38,0.18,0.25,-0.37,1721200874906
-2.76,5.91,10.08,0.02,0.12,-0.30,1721200874916
-4.03,0.89,9.80,0.01,0.19,-0.11,1721200874926
-0.53,-3.73,11.52,0.04,0.24,0.09,1721200874936
2.10,4.44,16.45,0.09,0.33,-0.07,1721200874946
1.64,1.71,7.31,0.11,-0.09,-0.27,1721200874956
-2.15,-0.12,9.79,-0.08,0.13,-0.45,1721200874966
-3.28,-0.40,7.66,0.01,0.01,-0.13,1721200874976
-2.38,-0.42,7.17,-0.10,0.11,0.05,1721200874986
1.73,-3.91,13.09,-0.25,0.28,-0.16,1721200874996
-0.76,1.18,15.28,0.15,-0.04,-0.37,1721200875006
-1.64,3.03,2.00,0.03,0.18,-0.41,1721200875016
-2.09,2.04,13.20,-0.14,0.26,-0.04,1721200875026
-0.63,-5.80,8.94,-0.16,0.08,0.05,1721200875036
-0.48,-2.79,13.69,-0.07,0.09,-0.11,1721200875046
-0.05,0.66,7.75,0.06,0.16,-0.31,1721200875056
-0.44,-0.13,12.32,-0.15,0.24,-0.18,1721200875066
-2.90,-0.55,8.99,0.01,0.07,-0.20,1721200875076
-2.66,0.86,13.28,-0.09,0.27,-0.10,1721200875086
-0.17,0.33,12.18,0.07,0.22,-0.02,1721200875096
0.64,4.40,13.16,-0.09,0.23,-0.01,1721200875106
-0.96,-1.65,6.80,0.03,-0.26,-0.00,1721200875116
-3.25,-2.88,8.37,-0.13,0.12,-0.10,1721200875126
-1.69,-1.56,5.15,0.04,0.05,0.01,1721200875136
2.39,2.49,18.23,-0.14,0.62,0.09,1721200875146
2.14,2.41,16.27,0.18,-0.03,-0.04,1721200875156
-3.62,-1.33,2.63,-0.11,-0.21,-0.24,1721200875166
-4.41,0.39,11.13,-0.01,0.26,-0.06,1721200875176
-0.23,3.11,11.13,0.16,0.23,0.10,1721200875186
1.94,0.58,8.69,0.06,-0.10,0.22,1721200875196
1.40,-1.11,7.72,-0.02,0.04,-0.01,1721200875206
1.56,2.38,17.55,0.13,0.33,-0.22,1721200875216
-1.13,-1.45,9.04,0.04,0.12,-0.21,1721200875226
-3.44,4.97,14.79,0.16,0.00,-0.05,1721200875236
-0.67,3.29,9.05,0.11,0.08,0.26,1721200875246
0.63,-1.40,10.08,0.03,-0.13,0.24,1721200875256
0.30,-3.51,9.10,0.10,-0.02,-0.00,1721200875266
0.02,0.82,6.15,0.06,0.07,-0.09,1721200875276
-1.52,3.39,9.72,0.10,-0.04,-0.12,1721200875286
-3.65,0.71,12.98,0.04,0.09,-0.03,1721200875296
-2.37,-0.57,10.00,0.13,-0.08,0.21,1721200875306
-0.23,6.23,10.70,0.14,0.04,0.07,1721200875316
2.38,0.39,7.52,0.04,-0.05,0.00,1721200875326
-1.91,2.71,11.31,-0.05,-0.19,-0.00,1721200875336
-0.83,4.41,12.65,0.20,-0.00,0.10,1721200875346
1.50,-1.35,4.07,-0.12,-0.03,0.11,1721200875356
-2.22,0.85,11.25,-0.15,-0.35,-0.03,1721200875366
-2.95,-1.23,10.13,-0.20,-0.00,-0.05,1721200875376
-1.92,3.03,12.18,0.05,-0.12,0.21,1721200875386
0.09,2.01,5.61,-0.02,-0.14,0.29,1721200875396
0.48,0.49,19.29,-0.20,0.00,0.02,1721200875406
-2.76,-0.97,11.32,0.09,-0.37,-0.01,1721200875416
-4.59,1.76,3.42,-0.06,-0.17,0.17,1721200875426
-1.27,4.43,11.40,-0.14,-0.09,0.44,1721200875436
3.33,-4.13,10.48,-0.19,-0.27,0.33,1721200875446
2.79,-0.54,13.64,0.17,-0.28,0.09,1721200875456
2.57,-3.23,2.89,-0.17,-0.15,-0.05,1721200875466
-4.47,-0.37,13.52,-0.18,-0.52,-0.01,1721200875476
-1.67,-2.20,11.97,0.01,-0.18,0.40,1721200875486
2.32,0.78,8.79,0.07,-0.06,0.26,1721200875496
2.62,-3.88,3.17,-0.13,-0.35,0.09,1721200875506
-1.36,-2.28,9.74,-0.25,-0.29,-0.09,1721200875516
0.43,2.67,17.94,0.02,-0.09,0.09,1721200875526
2.71,5.95,8.40,0.15,-0.13,0.06,1721200875536
3.68,-6.30,7.75,-0.25,-0.07,-0.15,1721200875546
0.22,-2.48,19.93,-0.00,-0.20,-0.15,1721200875556
-0.05,-0.56,11.46,0.14,-0.02,-0.14,1721200875566
-0.22,6.40,9.06,0.15,-0.11,0.01,1721200875576
2.70,-0.60,3.49,-0.01,-0.13,-0.16,1721200875586
1.60,-7.05,15.73,-0.19,0.10,-0.35,1721200875596
-3.11,-5.14,13.34,0.11,-0.18,-0.31,1721200875606
-3.16,4.62,6.16,0.18,-0.09,0.13,1721200875616
4.92,10.95,9.95,0.12,0.29,0.10,1721200875626
5.60,2.91,8.82,0.06,-0.16,-0.41,1721200875636
-2.62,-5.02,8.50,-0.12,-0.08,-0.79,1721200875646
-6.08,-6.35,13.57,-0.02,0.05,-0.26,1721200875656
-1.95,1.46,8.16,0.15,-0.01,0.49,1721200875666
5.20,7.80,11.35,0.02,0.30,0.21,1721200875676
6.58,1.50,12.61,0.08,0.08,-0.65,1721200875686
-3.62,-2.34,8.32,0.09,-0.28,-0.75,1721200875696
-6.61,-0.45,12.51,-0.08,0.27,-0.13,1721200875706
-1.28,1.00,12.52,0.19,0.15,0.40,1721200875716
5.21,0.29,2.16,0.19,0.01,0.22,1721200875726
6.65,-0.06,4.80,-0.12,0.25,-0.61,1721200875736
-0.98,1.32,19.53,0.04,-0.07,-0.93,1721200875746
-7.38,7.18,10.06,0.27,0.07,-0.33,1721200875756
-2.75,1.78,7.88,-0.12,0.30,0.19,1721200875766
1.75,-2.71,6.36,0.06,0.01,0.09,1721200875776
3.69,-0.51,9.04,-0.25,0.42,-0.49,1721200875786
-1.46,1.43,19.74,0.05,0.04,-0.62,1721200875796
-5.94,3.98,11.17,0.13,0.06,-0.31,1721200875806
-5.17,4.36,8.27,0.10,0.10,0.12,1721200875816
0.74,2.16,3.71,-0.13,0.26,0.18,1721200875826
4.36,-3.83,7.69,-0.29,0.10,-0.12,1721200875836
3.04,-1.16,17.71,-0.07,0.14,-0.40,1721200875846
-0.31,8.15,13.77,0.29,0.03,-0.55,1721200875856
-3.92,2.35,8.43,0.03,0.05,-0.49,1721200875866
-6.43,-1.96,10.41,-0.08,-0.05,0.06,1721200875876
0.28,-4.18,7.22,-0.18,0.31,0.15,1721200875886
4.66,3.40,15.67,0.01,0.16,-0.19,1721200875896
2.15,2.79,9.34,0.13,0.05,-0.55,1721200875906
-4.84,-2.42,10.52,-0.03,-0.01,-0.47,1721200875916
-5.74,-4.13,11.91,0.06,0.03,0.07,1721200875926
1.55,0.52,11.58,-0.04,0.25,0.37,1721200875936
4.48,6.51,10.41,0.13,0.06,-0.08,1721200875946
0.20,-1.52,6.50,-0.05,-0.11,-0.72,1721200875956
-6.52,-6.33,6.34,-0.03,-0.20,-0.30,1721200875966
-6.84,-2.14,14.41,-0.16,0.37,0.13,1721200875976
1.35,1.27,17.67,0.09,0.10,0.24,1721200875986
1.83,5.20,1.97,0.18,-0.16,-0.08,1721200875996
0.84,-2.04,2.29,-0.20,0.20,-0.26,1721200876006
-1.81,-6.22,16.30,-0.25,-0.23,-0.07,1721200876016
-2.72,-2.66,17.42,-0.03,-0.07,0.08,1721200876026
-1.96,3.26,13.63,0.20,0.02,0.01,1721200876036
3.15,-1.01,4.95,-0.09,0.08,0.07,1721200876046
-1.26,-0.45,8.03,-0.08,-0.25,0.18,1721200876056
0.54,1.44,7.91,0.02,0.27,-0.21,1721200876066
2.40,3.55,17.38,-0.01,0.33,-0.40,1721200876076
-1.61,4.13,12.90,0.10,-0.14,-0.27,1721200876086
-4.06,1.21,5.41,0.00,-0.13,0.07,1721200876096
-0.66,-4.77,7.97,-0.08,0.02,0.12,1721200876106
0.79,-0.55,9.49,0.04,-0.02,-0.03,1721200876116
-0.11,0.59,13.22,-0.00,0.03,-0.42,1721200876126
-4.68,4.56,6.15,0.23,-0.19,-0.21,1721200876136
-2.33,-1.63,22.90,-0.14,0.29,-0.33,1721200876678
-2.54,2.54,18.06,0.42,-0.06,-0.22,1721200876683
0.72,-1.16,-3.74,-0.07,0.24,-0.09,1721200876693
2.51,0.76,13.60,-0.27,0.23,-0.18,1721200876703
-1.39,-1.51,7.23,0.19,-0.11,-0.18,1721200876714
-1.79,-2.85,6.51,-0.25,0.40,-0.32,1721200876724
-3.15,-0.14,11.12,0.02,-0.05,-0.16,1721200876735
-1.84,-0.91,8.84,-0.14,0.32,-0.13,1721200876745
-0.92,-0.19,12.84,0.01,0.17,-0.10,1721200876755
-1.40,0.64,7.59,-0.02,0.12,-0.24,1721200876765
-1.46,3.34,10.27,-0.01,0.22,-0.08,1721200876775
0.37,-4.10,8.76,-0.18,0.16,-0.05,1721200876785
-1.95,3.50,12.61,0.17,-0.04,-0.04,1721200876795
-0.73,1.13,5.77,0.00,0.20,-0.09,1721200876805
-0.73,-4.75,7.75,-0.09,-0.09,-0.02,1721200876816
-3.42,-0.31,14.41,-0.11,0.03,-0.02,1721200876826
-3.43,6.14,12.36,0.28,0.09,-0.20,1721200876837
-0.35,2.46,6.16,0.10,0.38,-0.12,1721200876847
-1.30,-6.39,7.83,-0.27,-0.06,0.13,1721200876857
-1.65,3.12,21.68,0.12,0.02,0.11,1721200876867
1.57,1.72,8.64,0.27,0.07,-0.16,1721200876877
-3.30,-1.22,2.28,-0.03,-0.14,-0.06,1721200876887
-2.84,-0.74,11.94,-0.02,0.24,0.09,1721200876897
1.45,-5.36,10.80,0.05,0.05,0.14,1721200876907
-0.06,0.41,6.30,0.08,-0.16,-0.03,1721200876918
1.01,2.87,11.60,-0.02,0.44,-0.23,1721200876928
-1.38,-4.56,7.43,0.01,-0.00,-0.05,1721200876939
-3.61,-0.34,12.34,-0.06,0.15,0.05,1721200876949
2.25,0.34,10.53,-0.06,0.23,0.17,1721200876959
0.70,8.49,14.42,0.09,-0.04,-0.03,1721200876969
-1.09,-1.73,6.50,-0.09,-0.02,-0.12,1721200876979
-3.38,-2.19,12.37,-0.08,0.02,-0.00,1721200876989
0.55,3.45,13.98,0.15,0.12,0.17,1721200876999
1.29,-0.24,7.67,-0.05,-0.08,0.09,1721200877009
-1.36,3.11,12.30,0.20,-0.19,0.08,1721200877019
2.85,4.02,8.43,0.21,0.21,0.04,1721200877029
2.71,1.73,5.06,-0.02,-0.16,-0.02,1721200877040
-0.92,-2.00,13.00,-0.21,0.01,-0.23,1721200877050
-2.49,3.13,7.52,0.18,-0.08,-0.15,1721200877061
-1.81,3.71,6.89,-0.01,0.14,0.00,1721200877071
0.47,-3.13,13.05,-0.14,0.10,0.09,1721200877082
-1.30,7.04,14.33,0.25,-0.12,-0.09,1721200877092
-2.77,1.17,1.91,-0.01,-0.04,-0.10,1721200877103
-3.82,-2.71,9.67,-0.18,0.06,0.16,1721200877113
-0.22,-1.80,12.57,-0.00,0.04,0.22,1721200877123
1.37,4.43,8.78,0.15,-0.06,0.08,1721200877133
2.07,-0.64,12.33,-0.24,0.03,0.04,1721200877143
-0.56,1.59,15.95,0.19,-0.17,-0.09,1721200877153
-0.79,-4.21,5.77,-0.13,0.05,-0.07,1721200877163
-2.74,-1.98,10.64,-0.09,-0.10,0.07,1721200877173
-0.41,-2.85,9.32,-0.06,0.05,0.08,1721200877183
-1.41,-0.54,10.61,-0.09,-0.02,0.07,1721200877193
-1.55,4.61,13.28,-0.05,-0.01,0.10,1721200877203
2.82,0.35,6.91,0.07,-0.08,0.09,1721200877213
3.14,-5.57,7.77,-0.33,0.14,-0.10,1721200877223
-0.41,-5.31,11.92,0.00,-0.24,0.04,1721200877233
-1.54,3.46,9.72,-0.07,0.27,0.02,1721200877243
0.18,1.04,12.87,-0.11,-0.04,0.03,1721200877253
0.85,-2.35,10.58,-0.05,-0.09,-0.06,1721200877263
1.61,0.50,14.52,-0.05,0.19,-0.09,1721200877273
0.83,-1.79,8.78,-0.10,-0.06,-0.05,1721200877283
-3.12,2.05,10.32,0.12,-0.11,-0.04,1721200877293
0.64,-0.99,5.61,-0.03,0.14,0.11,1721200877303
2.67,0.62,16.03,-0.14,0.15,0.01,1721200877313
-0.51,-1.82,7.71,-0.04,-0.25,-0.19,1721200877323
-1.85,2.03,11.42,-0.03,0.32,-0.14,1721200877333
0.90,-1.89,8.48,-0.00,0.07,0.02,1721200877343
-0.77,-0.41,10.74,0.11,-0.12,0.27,1721200877353
2.52,4.42,8.63,0.18,0.15,-0.02,1721200877363
2.96,-0.90,11.16,-0.02,0.09,-0.19,1721200877373
-1.24,4.35,12.18,0.29,-0.10,-0.12,1721200877383
-0.28,-5.15,7.60,-0.09,0.23,0.11,1721200877393
-1.16,0.81,12.32,0.14,-0.14,0.14,1721200877403
1.43,0.03,8.17,0.10,0.16,-0.14,1721200877413
1.64,-0.46,6.87,0.03,0.09,-0.12,1721200877423
-2.52,4.83,10.36,0.12,-0.00,-0.12,1721200877433
-1.59,-0.40,10.17,0.05,0.16,-0.18,1721200877443
-1.26,-2.60,8.68,0.07,-0.04,0.07,1721200877453
-1.41,-2.66,4.74,-0.09,-0.02,0.17,1721200877463
0.68,2.05,19.36,-0.20,0.32,-0.12,1721200877473
-0.04,4.02,17.46,0.37,-0.12,-0.10,1721200877483
-0.06,1.85,-2.67,0.13,0.04,0.06,1721200877493
0.98,6.43,13.84,-0.10,0.46,-0.09,1721200877503
1.55,1.12,10.01,0.01,-0.15,-0.16,1721200877513
-4.20,0.98,11.84,-0.11,-0.01,-0.21,1721200877523
-2.44,2.92,9.24,0.10,0.15,0.06,1721200877533
0.91,-2.48,8.15,-0.28,0.17,0.13,1721200877543
0.48,1.66,17.25,0.06,-0.05,0.10,1721200877553
1.74,0.72,6.18,0.05,-0.05,-0.10,1721200877563
-0.93,5.04,9.11,0.05,-0.06,-0.17,1721200877573
-0.58,-1.95,5.05,-0.19,0.09,-0.11,1721200877583
-0.77,-1.57,17.34,-0.19,-0.06,0.05,1721200877593
2.68,-3.26,10.35,-0.04,0.02,-0.09,1721200877603
-1.31,-2.71,10.42,-0.15,-0.07,-0.33,1721200877613
-4.50,1.25,9.66,0.06,-0.09,-0.17,1721200877623
0.65,0.86,11.07,-0.15,0.43,0.18,1721200877633
1.66,3.00,14.54,0.07,-0.11,0.13,1721200877643
2.11,-2.08,5.88,-0.10,-0.22,-0.04,1721200877653
0.67,-2.43,11.65,-0.10,-0.00,-0.19,1721200877663
-0.44,0.65,10.52,0.05,-0.04,-0.14,1721200877673
-3.80,0.28,7.41,-0.01,-0.20,0.03,1721200877683
-1.98,-5.13,9.01,-0.24,0.07,0.05,1721200877693
-0.67,-1.85,11.67,-0.02,-0.03,0.11,1721200877703
-0.21,5.67,11.75,0.10,0.21,-0.14,1721200877713
0.72,-1.98,10.84,-0.12,-0.26,0.03,1721200877723
-3.48,-1.48,11.99,0.10,-0.20,0.14,1721200877733
2.41,2.71,9.31,0.03,0.40,0.13,1721200877743
2.72,1.61,9.59,0.05,-0.48,0.05,1721200877753
-3.81,1.89,7.92,0.09,-0.25,-0.10,1721200877763
0.14,-6.08,8.98,-0.08,0.12,-0.01,1721200877773
-0.83,-2.68,14.46,0.13,-0.11,0.13,1721200877783
1.32,4.97,11.57,0.04,0.25,-0.10,1721200877793
0.11,4.91,10.20,0.16,-0.20,-0.25,1721200877803
-2.31,2.61,9.71,0.10,0.02,-0.18,1721200877813
0.71,-4.66,8.58,0.06,-0.03,0.07,1721200877823
0.60,3.19,17.88,0.04,0.11,-0.00,1721200877833
1.89,7.60,10.10,0.33,-0.11,-0.15,1721200877843
-0.46,-0.95,1.67,-0.06,-0.09,-0.35,1721200877853
-3.58,-0.53,13.73,0.09,-0.00,-0.19,1721200877863
0.24,-2.91,6.50,0.02,-0.01,0.18,1721200877873
0.35,5.45,12.46,0.12,-0.04,-0.07,1721200877883
3.19,6.81,9.96,0.26,0.12,-0.34,1721200877893
-0.21,2.80,9.49,-0.03,0.03,-0.44,1721200877903
-3.63,-2.42,14.59,0.00,0.01,-0.16,1721200877913
-0.76,0.53,12.34,0.08,0.11,0.01,1721200877923
1.92,6.37,10.69,0.11,0.10,-0.20,1721200877933
0.91,1.26,8.07,0.07,-0.00,-0.36,1721200877943
-2.64,0.68,7.34,0.06,0.00,-0.22,1721200877953
-0.61,-0.11,13.44,-0.06,0.20,-0.12,1721200877963
-2.45,2.06,3.24,0.13,-0.16,-0.19,1721200877973
-1.11,-2.20,17.99,-0.27,0.44,-0.13,1721200877983
-2.71,-0.97,9.32,0.31,-0.22,0.02,1721200877993
-0.77,1.13,5.35,-0.20,0.31,-0.05,1721200878003
3.02,1.63,15.73,0.06,0.06,-0.16,1721200878013
-0.39,0.48,1.62,-0.02,-0.04,-0.21,1721200878023
-2.95,-0.27,11.83,-0.26,0.23,-0.20,1721200878033
-2.13,-4.38,11.09,-0.10,0.15,0.02,1721200878043
-2.07,-1.29,22.64,-0.02,0.18,-0.01,1721200878053
2.04,-1.71,5.15,0.15,-0.01,-0.03,1721200878063
-1.02,-0.66,4.44,-0.17,-0.01,-0.18,1721200878073
-0.65,8.31,13.03,0.16,0.25,-0.04,1721200878083
2.46,-6.17,10.13,-0.36,0.26,-0.14,1721200878093
-3.22,-5.87,16.24,0.06,-0.30,-0.02,1721200878103
0.66,-0.97,9.96,0.00,0.39,-0.00,1721200878113
2.46,2.96,9.56,0.11,0.10,-0.12,1721200878123
0.89,0.02,7.02,-0.14,0.11,-0.23,1721200878133
-1.32,-1.28,10.56,-0.02,0.12,-0.22,1721200878143
-0.84,-0.24,11.96,-0.05,0.28,-0.17,1721200878153
-0.51,-1.38,11.74,-0.05,0.13,-0.11,1721200878163
-0.94,7.81,12.20,0.25,0.22,-0.18,1721200878173
4.59,-8.12,9.39,-0.17,0.34,0.01,1721200878183
-0.17,-0.47,14.33,0.26,-0.05,-0.10,1721200878193
0.53,0.47,2.67,-0.03,0.35,-0.50,1721200878203
-4.14,2.69,16.65,0.07,0.11,-0.34,1721200878213
-4.58,-1.21,2.07,0.13,0.01,0.06,1721200878223
-2.06,0.17,11.26,-0.13,0.37,0.23,1721200878233
2.76,1.10,14.53,0.07,0.30,0.01,1721200878243
2.51,2.42,15.55,0.08,0.32,-0.23,1721200878253
-3.21,4.16,6.28,0.28,-0.00,-0.11,1721200878263
-2.83,6.74,9.18,0.14,0.41,0.11,1721200878273
0.75,-0.90,5.89,0.09,0.18,0.06,1721200878283
-0.66,-1.50,10.56,-0.06,0.12,0.08,1721200878293
-0.37,3.85,11.22,0.19,0.25,0.04,1721200878303
1.06,2.12,3.85,0.01,0.24,0.00,1721200878313
0.48,2.66,19.41,-0.05,0.29,0.09,1721200878323
0.47,2.98,9.19,0.37,0.09,0.11,1721200878333
2.02,0.47,5.47,-0.13,0.36,0.06,1721200878343
0.54,1.26,16.07,-0.05,0.13,-0.04,1721200878353
-0.25,1.59,10.97,0.11,0.16,0.13,1721200878363
0.89,6.19,10.99,0.12,0.40,0.02,1721200878373
2.17,-5.32,2.42,-0.12,0.00,-0.01,1721200878383
-2.36,3.61,17.70,0.01,0.21,-0.16,1721200878393
0.31,5.03,7.65,0.35,0.23,-0.06,1721200878403
-0.42,1.73,8.00,-0.08,0.03,0.06,1721200878413
-1.63,0.55,8.87,0.04,0.00,0.11,1721200878423
2.33,-4.42,11.42,-0.18,0.25,0.13,1721200878433
1.76,1.58,9.76,0.14,-0.02,-0.09,1721200878443
-0.74,0.50,7.56,-0.09,0.46,-0.41,1721200878453
-4.61,2.51,16.85,0.06,0.18,-0.14,1721200878463
-3.25,-0.57,1.41,-0.01,0.09,0.25,1721200878473
1.11,-1.64,18.81,-0.33,0.47,0.05,1721200878483
1.65,0.81,9.84,0.22,-0.10,-0.13,1721200878493
-1.87,1.59,5.32,-0.08,0.20,-0.24,1721200878503
-2.86,-6.75,5.82,-0.23,0.07,0.06,1721200878513
-3.17,-5.53,17.44,-0.15,0.21,0.10,1721200878523
0.01,3.82,10.26,0.20,0.07,0.14,1721200878533
2.57,3.18,6.44,-0.13,0.23,0.12,1721200878543
-0.74,6.76,11.23,0.09,-0.02,-0.05,1721200878553
-0.11,-3.87,11.45,-0.23,0.22,-0.06,1721200878563
-2.54,-7.43,10.61,-0.09,-0.27,0.03,1721200878573
-3.14,-7.87,8.31,-0.26,0.31,-0.08,1721200878583
-1.04,8.79,19.19,0.19,0.12,0.06,1721200878593
0.09,9.01,7.74,0.06,0.15,-0.15,1721200878603
-0.64,-3.00,14.45,-0.20,0.12,-0.26,1721200878613
-4.39,-5.76,12.26,-0.03,-0.08,0.07,1721200878623
-3.50,2.66,10.63,0.14,0.06,0.11,1721200878633
0.38,6.10,9.47,0.22,0.11,0.17,1721200878643
-0.41,-3.37,4.89,-0.08,-0.20,-0.02,1721200878653
-5.49,-0.39,12.06,0.08,-0.13,-0.01,1721200878663
-0.84,2.17,3.68,0.18,0.28,0.08,1721200878673
-1.74,7.91,14.02,0.19,0.20,0.11,1721200878688
-1.64,7.48,9.60,0.30,-0.33,0.21,1721200878693
2.05,1.65,9.87,0.13,0.33,0.07,1721200878703
1.45,-5.82,8.00,-0.08,-0.20,0.07,1721200878713
-4.13,7.62,12.35,0.11,-0.38,0.09,1721200878723
-1.92,3.18,5.49,0.17,-0.07,0.22,1721200878733
-1.29,-0.62,5.48,0.16,-0.14,0.28,1721200878743
4.57,0.28,13.25,0.05,0.28,0.38,1721200878753
5.19,3.64,13.83,0.09,-0.15,0.06,1721200878763
-0.24,4.75,15.28,-0.03,-0.04,-0.40,1721200878773
-4.99,2.43,4.28,0.36,-0.30,0.09,1721200878783
-2.09,-4.32,3.30,-0.33,0.20,0.42,1721200878793
-0.67,0.19,17.76,0.08,-0.24,0.36,1721200878803
-0.68,0.51,2.52,-0.15,-0.13,0.01,1721200878813
-3.57,8.65,15.88,0.19,-0.12,0.02,1721200878823
0.21,-7.62,5.53,-0.27,0.06,0.11,1721200878833
-5.26,-1.64,19.38,-0.14,-0.44,0.42,1721200878843
0.00,-1.07,10.54,-0.03,-0.03,0.41,1721200878853
1.94,5.01,7.98,0.05,-0.24,0.27,1721200878863
0.53,-1.44,5.82,-0.24,-0.25,0.24,1721200878873
-3.87,-1.10,14.43,-0.28,-0.29,0.18,1721200878883
-2.20,-1.41,9.13,-0.06,-0.35,0.37,1721200878893
2.98,-0.60,16.43,-0.12,0.01,0.44,1721200878903
3.49,-1.13,3.29,0.15,-0.50,0.56,1721200878913
2.13,-0.29,12.17,-0.43,-0.16,0.16,1721200878923
0.17,1.75,14.93,0.19,-0.43,0.27,1721200878933
0.98,-3.95,2.14,-0.31,-0.17,0.34,1721200878943
1.02,-1.31,17.68,-0.16,-0.30,0.40,1721200878953
2.82,-1.93,8.61,0.11,-0.34,0.31,1721200878963
5.24,3.45,11.87,-0.03,-0.04,0.16,1721200878973
4.71,1.06,6.29,0.11,-0.41,-0.02,1721200878983
1.83,-5.53,11.08,-0.25,0.00,-0.43,1721200878993
-1.61,2.00,17.33,0.10,-0.30,-0.29,1721200879003
-3.88,3.61,14.62,0.00,-0.12,0.01,1721200879013
-0.39,0.63,3.18,0.22,-0.15,0.18,1721200879023
4.64,-7.35,3.22,-0.36,0.04,-0.24,1721200879033
1.87,7.40,17.94,0.20,-0.41,-0.44,1721200879043
1.65,-0.86,8.57,0.04,0.01,-0.42,1721200879053
-3.21,0.56,14.69,0.16,-0.25,-0.13,1721200879063
-0.21,0.31,3.08,0.05,0.15,-0.05,1721200879073
0.27,2.33,19.71,-0.04,0.03,-0.16,1721200879083
0.75,3.43,6.21,0.19,-0.16,-0.42,1721200879093
-0.81,-3.58,6.55,-0.04,-0.07,-0.28,1721200879103
1.13,1.22,12.16,0.15,0.21,-0.31,1721200879113
-1.83,2.08,10.93,0.03,-0.05,-0.47,1721200879123
-5.82,7.11,9.42,0.24,-0.16,-0.27,1721200879133
-2.02,1.28,2.52,0.00,0.12,-0.09,1721200879143
0.95,-1.36,15.85,-0.12,0.22,-0.06,1721200879153
0.65,-3.95,12.10,0.11,-0.12,-0.30,1721200879163
-2.13,1.42,7.79,0.07,-0.04,-0.24,1721200879173
0.01,8.63,13.19,0.21,0.23,-0.07,1721200879183
2.02,4.95,7.97,0.08,-0.03,-0.03,1721200879193
-0.89,0.93,9.85,-0.13,-0.02,-0.19,1721200879203
-3.39,-3.22,10.73,-0.08,0.02,-0.34,1721200879213
-3.23,-0.99,15.05,0.10,0.01,-0.03,1721200879223
0.96,3.90,9.10,0.22,0.03,0.32,1721200879233
1.81,8.67,12.25,0.10,0.06,0.01,1721200879243
0.43,0.12,8.84,-0.02,-0.15,-0.26,1721200879253
-3.63,-3.94,9.91,-0.15,-0.17,-0.09,1721200879263
-1.03,-2.20,9.88,0.08,-0.04,0.20,1721200879273
4.48,1.33,8.90,-0.02,0.14,0.12,1721200879283
1.70,5.67,11.22,0.12,-0.19,-0.35,1721200879293
-0.91,1.17,11.27,-0.10,-0.04,-0.42,1721200879303
-2.68,-8.73,7.14,-0.22,-0.24,-0.07,1721200879313
-3.60,1.38,18.58,-0.01,0.06,0.06,1721200879323
0.90,3.13,4.86,0.27,-0.13,-0.13,1721200879333
0.75,0.69,2.62,-0.19,-0.02,-0.31,1721200879343
-0.86,-3.90,18.61,-0.15,0.13,-0.46,1721200879353
-3.09,-0.57,13.16,0.12,-0.12,-0.22,1721200879363
-3.62,3.14,-0.29,0.06,-0.19,0.06,1721200879373
2.62,-3.15,13.64,-0.32,0.31,-0.16,1721200879383
2.15,-0.25,22.90,0.26,-0.34,0.00,1721200879393
0.31,-1.55,5.27,-0.10,-0.06,-0.25,1721200879403
-2.11,2.80,11.33,0.07,-0.07,-0.46,1721200879413
-2.04,1.67,8.83,0.11,0.04,-0.32,1721200879423
-1.96,-2.55,8.39,-0.09,-0.09,-0.02,1721200879433
-3.16,0.07,7.88,0.03,-0.20,-0.10,1721200879443
1.90,0.93,12.29,-0.03,0.22,-0.27,1721200879453
0.01,2.41,13.71,0.02,-0.08,-0.53,1721200879463
-6.55,1.93,11.48,0.09,-0.16,-0.41,1721200879473
-4.52,-8.97,-0.58,-0.20,-0.18,0.13,1721200879483
-2.09,-2.07,13.30,-0.06,0.02,0.16,1721200879493
5.86,1.48,16.35,0.23,0.17,-0.01,1721200879503
2.08,3.22,7.87,-0.08,-0.26,-0.48,1721200879513
-5.15,-0.63,10.97,-0.04,-0.34,-0.38,1721200879523
-4.46,-0.85,2.42,0.05,-0.04,0.04,1721200879533
-1.58,-0.32,8.75,-0.14,0.12,0.09,1721200879543
3.45,1.02,16.47,-0.05,-0.01,-0.05,1721200879553
-0.57,6.16,8.22,0.10,-0.27,-0.28,1721200879563
-3.98,4.58,9.96,-0.00,-0.06,-0.40,1721200879573
-2.09,-2.45,10.41,0.02,-0.03,0.09,1721200879583
-0.72,-0.45,6.62,-0.02,-0.15,0.20,1721200879593
1.30,2.81,11.17,-0.09,-0.10,-0.06,1721200879603
2.75,3.38,12.74,0.29,-0.05,-0.24,1721200879613
-0.00,6.34,5.48,0.17,0.06,-0.39,1721200879623
-2.87,-1.14,9.36,-0.17,-0.17,-0.27,1721200879633
-4.13,1.09,16.45,0.04,-0.05,-0.01,1721200879643
-0.37,5.09,13.18,0.11,0.09,0.14,1721200879653
0.85,3.34,4.99,0.17,-0.36,0.05,1721200879663
2.15,-1.43,4.74,-0.09,0.08,-0.14,1721200879673
-0.63,3.35,13.73,0.06,-0.02,-0.33,1721200879683
-3.63,1.82,10.77,0.05,-0.21,-0.15,1721200879693
-5.33,-0.78,5.65,0.03,-0.24,0.15,1721200879703
1.22,-2.20,13.16,0.03,0.02,0.28,1721200879713
4.86,-1.94,8.65,0.03,-0.17,0.12,1721200879723
-0.46,0.59,10.69,-0.04,-0.21,-0.18,1721200879733
-3.15,-0.81,7.00,0.03,-0.23,-0.07,1721200879743
-2.80,-3.31,8.60,-0.24,-0.10,-0.01,1721200879753
0.39,-2.38,17.59,0.14,-0.17,0.17,1721200879763
3.98,-0.09,8.11,-0.05,0.06,0.13,1721200879773
-0.29,2.06,10.85,-0.02,-0.31,-0.23,1721200879783
-0.67,1.48,9.36,0.07,-0.07,-0.19,1721200879793
1.17,-6.50,8.57,-0.20,0.00,-0.02,1721200879803
0.23,-7.09,15.98,-0.13,-0.17,-0.18,1721200879813
-1.43,-0.80,8.49,0.05,-0.18,-0.11,1721200879823
1.51,4.16,5.07,-0.08,0.00,-0.02,1721200879833
3.29,3.88,9.33,0.02,0.04,-0.29,1721200879843
1.21,-5.41,16.02,-0.25,0.09,-0.44,1721200879853
-3.62,2.20,15.49,0.08,-0.11,-0.33,1721200879863
0.06,0.36,7.03,0.00,0.20,-0.22,1721200879873
2.93,-4.39,10.25,-0.10,0.05,-0.20,1721200879883
1.55,3.58,13.53,0.13,-0.00,-0.32,1721200879893
1.26,2.10,11.80,0.05,0.19,-0.53,1721200879903
-3.41,-4.08,8.30,-0.11,-0.05,-0.50,1721200879913
-5.34,2.96,14.67,0.10,0.12,-0.27,1721200879923
1.92,-1.37,8.49,0.06,0.30,-0.15,1721200879933
0.72,3.90,2.75,0.18,-0.04,-0.16,1721200879943
0.98,3.79,18.14,-0.11,0.50,-0.60,1721200879953
-0.40,-3.94,15.14,0.27,-0.03,-0.32,1721200879963
-4.25,8.84,10.76,0.20,0.26,-0.25,1721200879973
0.71,2.00,4.84,0.05,0.23,-0.13,1721200879983
-0.12,-4.38,7.63,-0.01,0.03,-0.20,1721200879993
-0.55,0.28,7.68,0.17,0.25,-0.31,1721200880003
0.91,-0.95,11.56,-0.14,0.38,-0.23,1721200880013
-3.21,7.67,20.47,0.32,-0.06,-0.09,1721200880023
1.27,-0.14,1.27,0.14,0.21,0.13,1721200880033
4.97,-0.85,7.52,0.01,0.37,-0.13,1721200880043
2.87,0.70,11.63,-0.04,0.11,-0.50,1721200880053
-3.05,1.07,15.20,0.11,0.07,-0.54,1721200880063
-4.25,-1.24,7.64,0.05,0.13,-0.16,1721200880073
-2.75,1.36,13.03,0.10,0.30,-0.02,1721200880083
1.20,1.75,4.39,0.03,0.19,-0.04,1721200880093
0.96,0.66,13.94,-0.22,0.23,-0.41,1721200880103
-1.56,5.47,14.90,0.28,0.11,-0.45,1721200880113
-0.96,-7.15,4.51,-0.13,0.30,-0.22,1721200880123
-4.09,-0.05,15.34,0.03,0.08,0.03,1721200880133
0.80,-0.79,7.52,-0.06,0.16,0.11,1721200880143
3.13,3.54,10.78,0.07,0.06,-0.25,1721200880153
1.10,1.92,3.84,0.05,0.23,-0.62,1721200880163
-4.55,-3.49,8.78,-0.18,0.07,-0.38,1721200880173
-5.05,-1.45,18.04,-0.05,0.33,-0.13,1721200880183
0.11,0.21,7.60,0.12,0.17,-0.01,1721200880193
1.25,2.59,10.59,-0.04,0.16,-0.11,1721200880203
-0.92,1.05,9.33,0.07,0.11,-0.29,1721200880213
-1.14,0.12,9.00,-0.04,0.15,-0.15,1721200880223
-1.25,-4.94,7.70,-0.11,0.05,-0.14,1721200880233
-4.02,-2.89,7.68,-0.12,0.04,-0.14,1721200880243
-2.36,0.31,14.52,-0.05,0.45,-0.21,1721200880253
-2.00,5.06,8.66,0.24,0.14,-0.13,1721200880263
-1.53,-3.74,0.75,-0.20,0.09,-0.03,1721200880273
-1.08,-1.17,17.68,-0.12,0.43,-0.10,1721200880283
0.36,1.93,16.13,0.13,0.29,-0.35,1721200880293
-2.93,1.91,4.70,0.10,-0.00,-0.29,1721200880303
-3.99,-6.64,8.05,-0.21,0.26,0.06,1721200880313
-0.16,-0.66,10.58,0.08,0.20,0.20,1721200880323
3.91,2.99,12.84,-0.04,0.40,-0.13,1721200880333
1.21,2.02,10.17,0.09,-0.14,-0.35,1721200880343
-2.79,-0.36,8.84,-0.14,0.14,-0.20,1721200880353
-2.26,-2.48,8.87,0.09,0.05,-0.01,1721200880363
-1.26,2.13,7.87,-0.03,0.15,-0.04,1721200880373
-1.22,-1.39,8.01,-0.05,0.06,-0.11,1721200880383
-3.08,0.62,11.98,0.01,0.25,-0.11,1721200880393
-1.95,-2.08,9.06,-0.07,0.15,-0.14,1721200880403
-2.84,2.61,7.81,0.10,-0.07,0.07,1721200880413
0.71,6.03,13.28,0.02,0.43,0.11,1721200880423
1.97,0.84,11.20,0.08,0.07,0.00,1721200880433
0.68,-2.34,13.53,-0.04,0.14,0.01,1721200880443
-1.73,3.38,5.70,0.15,-0.10,0.02,1721200880453
-0.15,-0.41,8.88,-0.12,0.28,-0.01,1721200880463
0.17,3.23,12.93,0.19,0.03,0.02,1721200880473
-0.44,6.86,9.98,0.11,0.11,0.08,1721200880483
-0.62,3.03,10.87,-0.01,0.11,-0.07,1721200880493
-1.07,-1.35,10.94,0.08,0.02,0.00,1721200880503
-1.30,1.44,8.65,-0.01,0.19,0.16,1721200880513
0.60,2.86,12.91,0.03,0.04,0.20,1721200880523
1.25,2.69,9.56,0.17,-0.05,0.20,1721200880533
0.62,0.70,5.52,-0.03,0.02,-0.12,1721200880543
-1.17,-1.41,15.82,-0.08,0.14,-0.15,1721200880553
-4.90,1.85,9.79,0.05,-0.06,0.19,1721200880563
-1.71,-1.71,9.80,-0.14,-0.00,0.37,1721200880573
2.08,-0.17,7.82,0.14,0.02,0.35,1721200880583
4.86,-2.20,10.20,-0.29,0.26,-0.07,1721200880593
-0.51,1.55,12.92,0.01,-0.30,-0.11,1721200880603
-3.50,-6.31,10.22,-0.29,0.14,-0.01,1721200880613
-3.45,3.24,14.37,0.19,-0.02,0.26,1721200880623
1.88,2.23,1.69,-0.06,0.07,0.36,1721200880633
3.69,-0.28,17.46,-0.12,0.14,0.04,1721200880643
2.26,-5.75,5.50,-0.09,-0.17,-0.25,1721200880653
-2.51,2.22,13.96,-0.08,0.03,-0.11,1721200880663
-0.37,0.55,8.36,0.10,0.05,0.14,1721200880673
1.72,-1.19,10.22,-0.12,0.13,0.13,1721200880683
3.24,-1.84,11.67,-0.17,0.11,-0.27,1721200880698
-0.01,1.37,14.56,-0.07,0.21,-0.37,1721200880703
-1.79,0.86,8.28,0.03,-0.06,-0.12,1721200880713
-1.43,-2.80,8.98,-0.18,0.14,0.20,1721200880723
-0.28,5.32,14.88,0.19,0.10,0.07,1721200880733
3.17,-1.83,6.90,-0.07,0.08,-0.10,1721200880743
-0.41,0.82,17.78,0.03,0.06,-0.21,1721200880753
-2.01,4.26,10.70,0.17,0.07,-0.12,1721200880763
-1.65,2.13,3.52,0.14,0.13,0.03,1721200880773
-0.27,-3.50,3.34,-0.05,0.11,0.09,1721200880783
0.78,-0.24,17.47,-0.03,0.24,0.11,1721200880793
-0.41,6.86,15.17,0.20,0.07,-0.07,1721200880803
1.30,3.16,6.28,0.14,-0.01,-0.06,1721200880813
-0.43,-6.11,3.70,-0.10,0.06,-0.19,1721200880823
-2.62,0.68,20.49,0.01,0.34,-0.12,1721200880833
-1.42,3.68,7.24,0.32,0.05,0.04,1721200880843
-0.44,1.50,10.76,0.06,0.18,0.05,1721200880853
2.36,2.25,6.61,0.30,0.07,0.14,1721200880863
1.80,3.42,5.66,0.02,0.14,-0.16,1721200880873
-0.33,0.65,10.77,-0.03,0.11,-0.13,1721200880883
-1.98,-5.95,9.13,-0.23,0.06,-0.05,1721200880893
-2.90,4.13,10.33,0.25,0.06,0.15,1721200880903
3.63,0.11,1.01,-0.17,0.28,0.20,1721200880913
1.53,1.71,26.86,-0.15,0.19,-0.33,1721200880923
-1.92,8.02,10.44,0.52,-0.03,-0.25,1721200880933
-4.22,4.12,2.81,-0.18,0.20,-0.05,1721200880943
0.18,-8.54,14.47,-0.19,0.19,0.35,1721200880953
2.44,0.79,15.11,0.11,0.22,0.21,1721200880963
4.25,4.21,10.87,0.14,0.11,-0.19,1721200880973
0.62,-0.07,11.04,-0.10,-0.05,-0.29,1721200880983
-2.75,0.72,8.09,0.06,0.01,-0.15,1721200880993
0.01,-1.03,6.80,-0.02,0.27,0.02,1721200881003
2.69,-4.87,9.61,-0.16,0.16,0.08,1721200881013
-0.11,-1.76,14.55,-0.02,-0.04,-0.24,1721200881023
-4.43,4.56,8.30,-0.01,-0.06,-0.19,1721200881033
-3.77,2.68,11.29,0.11,0.18,-0.03,1721200881043
0.67,-3.96,10.13,-0.19,0.28,0.07,1721200881053
0.79,1.93,17.33,0.01,0.04,0.08,1721200881063
1.99,4.98,8.18,0.13,0.09,-0.13,1721200881073
-1.27,-3.26,6.15,-0.11,0.05,-0.37,1721200881083
-5.17,-7.32,8.82,-0.14,-0.15,0.05,1721200881093
-2.53,4.75,13.63,0.13,0.32,0.22,1721200881103
4.33,-1.27,6.94,-0.05,0.06,0.11,1721200881113
-2.28,0.75,11.38,-0.09,-0.43,-0.06,1721200881123
-2.17,6.00,15.09,0.20,0.37,-0.23,1721200881133
0.68,-9.48,10.66,-0.23,-0.03,-0.03,1721200881143
-5.21,0.79,14.92,0.08,-0.28,0.08,1721200881153
-1.40,0.16,0.40,0.10,0.20,0.03,1721200881163
-1.58,1.16,7.76,-0.14,0.06,0.06,1721200881173
0.48,-4.30,10.52,-0.13,0.16,0.13,1721200881183
2.20,1.86,18.09,0.03,0.25,-0.15,1721200881193
0.74,-3.69,3.80,-0.18,-0.18,-0.19,1721200881203
-7.47,4.26,18.71,0.01,-0.09,-0.18,1721200881213
-3.07,3.90,0.47,0.34,-0.06,0.22,1721200881223
2.85,-2.75,16.11,-0.25,0.42,0.32,1721200881233
3.38,0.44,11.17,0.29,-0.34,0.18,1721200881243
1.35,5.39,7.98,-0.13,0.28,-0.33,1721200881253
-2.72,9.95,14.41,0.36,-0.19,-0.48,1721200881263
-6.13,-6.15,2.61,-0.14,-0.01,0.17,1721200881273
-4.93,0.82,10.44,0.14,-0.27,0.58,1721200881283
4.90,0.61,3.89,0.06,0.19,0.34,1721200881293
6.28,3.31,16.48,-0.04,0.08,-0.24,1721200881303
-0.72,8.65,15.88,0.41,-0.21,-0.43,1721200881313
-3.89,-2.44,0.52,-0.08,-0.05,0.00,1721200881323
-4.61,4.45,19.00,0.09,0.03,0.41,1721200881333
2.18,0.85,6.44,0.04,0.00,0.24,1721200881343
2.84,-0.38,6.29,-0.02,-0.20,-0.03,1721200881353
-0.91,2.43,6.85,0.04,-0.12,-0.25,1721200881363
-3.53,0.37,13.72,-0.05,0.06,-0.09,1721200881373
-4.36,0.86,17.82,0.03,0.01,0.35,1721200881383
-0.64,7.52,9.09,0.30,-0.22,0.33,1721200881393
4.11,-6.68,9.50,-0.35,0.13,0.14,1721200881403
-1.02,1.43,11.63,0.03,-0.66,0.08,1721200881413
-2.43,-2.03,2.44,-0.28,-0.08,0.22,1721200881423
0.16,0.37,14.99,-0.01,-0.13,0.06,1721200881433
0.79,-4.99,5.89,-0.23,-0.23,-0.03,1721200881443
-0.31,4.43,20.65,-0.03,-0.15,0.38,1721200881453
-0.03,4.48,8.90,0.02,0.00,0.08,1721200881463
-0.40,0.40,12.55,-0.04,-0.21,-0.06,1721200881473
-1.10,-7.07,0.75,-0.29,-0.31,-0.07,1721200881483
-2.74,-4.30,19.92,-0.28,-0.10,0.01,1721200881493
-0.16,8.45,13.01,0.45,-0.13,0.26,1721200881503
5.04,-6.57,-10.31,-0.24,-0.22,0.28,1721200881513
-0.06,0.80,17.93,-0.10,-0.24,-0.14,1721200881523
6.09,1.70,17.71,0.01,0.33,-0.37,1721200881533
-1.72,3.09,9.93,0.06,-0.23,0.02,1721200881543
-2.13,-0.98,7.69,0.04,-0.10,0.16,1721200881553
1.36,-6.78,8.16,-0.14,0.06,-0.07,1721200881563
0.10,1.09,13.30,0.07,-0.13,-0.09,1721200881573
0.09,9.49,7.29,0.22,0.14,-0.16,1721200881583
-1.03,0.81,5.90,0.06,-0.18,-0.12,1721200881593
0.65,-1.87,5.75,0.08,-0.04,0.25,1721200881603
4.63,-2.72,12.88,-0.16,0.24,-0.15,1721200881613
0.02,-4.68,17.77,-0.00,-0.20,-0.41,1721200881623
-4.86,2.66,7.45,0.20,-0.23,-0.07,1721200881633
-1.24,5.09,6.75,0.06,0.13,0.17,1721200881643
5.01,-4.55,12.85,-0.12,0.13,0.01,1721200881653
0.51,2.15,8.58,0.04,-0.24,-0.21,1721200881663
-1.70,9.52,10.51,0.16,0.17,-0.35,1721200881673
-0.32,-3.75,2.93,-0.15,-0.01,-0.05,1721200881683
-2.38,-6.47,14.33,-0.20,-0.04,0.13,1721200881693
-0.32,7.82,20.00,0.20,0.22,-0.24,1721200881703
0.62,5.18,7.18,0.16,-0.15,-0.07,1721200881713
-2.74,4.30,9.98,0.01,0.09,-0.05,1721200881723
-0.50,-0.78,7.11,-0.05,0.16,-0.16,1721200881733
-1.20,-0.46,6.43,-0.05,0.01,0.00,1721200881743
0.95,3.50,15.51,-0.09,0.24,-0.09,1721200881753
2.41,-0.15,7.83,0.19,-0.15,-0.06,1721200881763
-0.16,6.93,14.34,-0.09,0.17,-0.18,1721200881773
-0.03,2.20,11.12,0.23,-0.08,-0.25,1721200881783
-1.45,-5.24,5.31,-0.25,0.01,-0.04,1721200881793
-0.79,-2.82,15.94,-0.10,0.06,-0.03,1721200881803
-0.91,1.29,5.12,0.19,-0.15,-0.01,1721200881813
0.03,2.25,11.20,-0.12,0.32,-0.12,1721200881823
-0.67,0.79,11.01,0.16,-0.08,-0.19,1721200881833
-1.02,-2.27,10.28,-0.23,0.17,-0.04,1721200881843
-0.04,0.17,15.34,0.06,-0.08,0.09,1721200881853
3.76,0.56,4.87,0.10,0.07,-0.08,1721200881863
2.64,0.60,7.36,0.01,0.15,-0.41,1721200881873
-1.46,-4.24,12.45,-0.01,0.02,-0.26,1721200881883
-4.24,4.52,12.58,0.33,0.01,-0.09,1721200881893
-0.53,4.75,8.38,0.05,0.30,-0.11,1721200881903
-0.33,-5.17,8.50,-0.12,-0.37,0.10,1721200881913
-5.40,-4.78,-1.07,-0.03,-0.13,-0.07,1721200881923
0.79,-5.50,16.06,-0.14,0.58,-0.30,1721200881933
-0.91,1.21,20.19,0.14,-0.02,-0.12,1721200881943
-3.65,8.00,3.84,0.09,-0.01,-0.06,1721200881953
0.69,0.67,8.55,-0.10,0.20,-0.03,1721200881963
1.01,1.99,14.32,0.13,-0.18,0.08,1721200881973
2.84,-2.48,12.97,-0.09,0.25,-0.21,1721200881983
-2.15,2.49,13.56,0.25,-0.37,-0.15,1721200881993
-3.93,1.30,5.34,0.02,-0.00,-0.05,1721200882003
-2.58,-4.79,7.43,-0.18,-0.00,0.02,1721200882013
-2.81,-0.81,10.57,0.01,-0.10,-0.00,1721200882023
1.02,2.83,12.60,0.04,0.23,-0.09,1721200882033
1.35,-1.65,11.63,-0.13,-0.11,-0.02,1721200882043
-2.60,7.22,11.14,0.22,-0.27,0.04,1721200882053
2.82,-10.09,10.32,-0.26,0.15,0.00,1721200882063
-1.85,2.61,16.93,0.16,-0.46,0.05,1721200882073
2.29,4.97,4.73,0.09,0.30,-0.30,1721200882083
-0.57,2.08,11.41,0.04,-0.34,-0.34,1721200882093
-6.50,8.35,3.80,0.15,-0.22,-0.05,1721200882103
-1.52,2.83,14.52,-0.03,0.39,-0.06,1721200882113
0.10,-3.88,4.60,0.09,-0.47,0.10,1721200882123
-3.61,0.29,3.08,-0.18,0.03,-0.08,1721200882133
-0.12,5.28,17.87,0.13,0.14,-0.45,1721200882143
-1.76,4.49,6.53,0.30,-0.18,-0.20,1721200882153
-4.07,-0.64,5.81,-0.12,0.00,-0.04,1721200882163
-3.44,9.80,19.23,0.26,-0.00,0.12,1721200882173
3.89,0.29,5.91,-0.03,-0.04,0.22,1721200882183
3.11,-2.58,15.38,-0.01,-0.14,-0.01,1721200882193
-0.33,3.28,11.52,0.27,-0.04,-0.22,1721200882203
-1.34,3.27,6.63,-0.09,-0.11,-0.14,1721200882213
-2.26,6.12,13.70,0.09,-0.12,0.01,1721200882223
-1.41,1.60,5.60,-0.13,0.01,0.02,1721200882233
-1.42,-5.25,13.70,-0.18,-0.16,0.02,1721200882243
-0.78,-3.69,12.96,0.11,0.01,0.14,1721200882253
2.35,0.69,10.19,-0.09,0.03,0.01,1721200882263
1.53,4.03,8.89,0.15,-0.30,-0.00,1721200882273
-0.47,-0.07,9.34,-0.31,0.08,-0.27,1721200882283
-4.67,-2.52,14.48,-0.09,-0.33,-0.06,1721200882293
-2.79,-6.89,6.69,-0.11,-0.08,0.31,1721200882303
2.77,-0.16,14.26,-0.04,0.08,0.35,1721200882313
5.96,1.71,5.81,-0.02,-0.14,0.09,1721200882323
1.32,4.81,21.03,-0.19,0.08,-0.55,1721200882333
-2.74,-0.61,6.44,0.23,-0.45,-0.29,1721200882343
-2.19,-1.98,11.16,-0.28,0.37,0.07,1721200882353
0.94,-2.24,9.16,0.07,-0.34,0.14,1721200882363
1.30,2.99,9.05,-0.02,0.01,0.02,1721200882373
4.00,3.41,7.89,0.08,-0.03,-0.13,1721200882383
3.72,-4.57,14.49,-0.23,0.14,-0.40,1721200882393
-1.67,-1.80,15.24,0.10,-0.14,-0.37,1721200882403
-2.89,2.80,8.49,0.28,-0.06,-0.12,1721200882413
1.32,-5.18,0.86,-0.13,0.02,0.13,1721200882423
2.18,3.82,20.50,0.01,0.11,-0.01,1721200882433
3.79,-0.18,10.17,-0.03,0.01,-0.66,1721200882443
-3.91,-1.88,8.15,0.12,-0.09,-0.57,1721200882453
-2.76,-2.97,16.20,-0.11,0.44,-0.22,1721200882463
-1.33,8.04,7.58,0.41,-0.13,0.29,1721200882473
5.65,-2.16,0.48,-0.26,0.45,-0.14,1721200882483
7.61,-3.33,16.31,-0.20,0.47,-0.84,1721200882493
-3.45,-0.50,8.44,0.03,-0.04,-0.51,1721200882503
-6.58,7.87,14.91,0.08,0.27,-0.18,1721200882513
2.52,0.32,5.31,0.15,0.32,0.11,1721200882523
1.13,-4.42,7.31,-0.23,0.08,-0.28,1721200882533
-1.39,0.75,18.06,0.10,0.24,-0.74,1721200882543
-2.40,4.50,7.54,0.26,0.21,-0.43,1721200882553
-1.68,4.92,11.60,0.17,0.30,0.09,1721200882563
-0.26,4.44,10.09,0.20,0.18,-0.10,1721200882573
1.45,-5.27,4.82,-0.08,0.14,-0.22,1721200882583
1.31,5.12,21.47,0.13,0.57,-0.52,1721200882593
0.60,5.15,7.20,0.51,0.10,-0.21,1721200882603
-4.80,3.03,1.67,0.02,0.11,-0.14,1721200882613
-6.04,3.85,9.98,0.10,0.20,-0.28,1721200882623
-1.89,-9.28,11.18,-0.20,0.22,0.05,1721200882633
-2.19,8.85,10.97,0.46,-0.02,0.24,1721200882643
2.33,4.41,-0.88,-0.13,0.55,-0.10,1721200882653
-6.05,2.90,13.91,-0.03,-0.23,-0.15,1721200882663
-3.52,-3.90,13.10,0.19,-0.12,0.30,1721200882673
1.25,-2.60,16.76,0.01,0.37,0.24,1721200882683
4.12,1.80,8.73,0.12,-0.20,0.20,1721200882693
2.74,-0.40,1.85,0.04,-0.14,-0.25,1721200882708
-0.43,-5.90,0.54,-0.33,-0.01,-0.47,1721200882713
-4.27,-12.97,17.95,-0.36,0.09,-0.14,1721200882723
-2.14,-6.14,14.60,0.00,0.17,0.23,1721200882733
0.70,9.08,8.86,0.32,0.02,0.09,1721200882743
5.53,10.33,8.82,-0.02,0.48,-0.25,1721200882753
1.13,-4.58,15.33,-0.20,-0.04,-0.26,1721200882763
-4.01,-6.66,12.92,-0.14,-0.09,-0.08,1721200882773
0.76,0.77,17.64,-0.03,0.23,0.18,1721200882783
1.36,5.24,-1.57,0.24,-0.35,-0.02,1721200882793
-2.39,1.70,7.41,-0.31,0.54,-0.37,1721200882803
-2.44,-0.04,13.91,-0.03,-0.12,-0.42,1721200882813
-2.94,-0.88,8.59,-0.03,0.18,0.00,1721200882823
2.11,-1.62,14.82,-0.10,0.30,0.09,1721200882833
1.96,9.94,18.14,0.23,0.01,-0.22,1721200882843
-1.42,0.82,-2.14,0.09,-0.27,-0.20,1721200882853
-3.32,-1.15,11.16,-0.20,0.52,-0.19,1721200882863
0.09,-0.62,16.93,0.04,0.26,-0.17,1721200882873
-2.09,4.05,11.85,0.12,-0.21,-0.07,1721200882883
-0.93,2.90,3.73,0.03,0.17,-0.23,1721200882893
-0.54,-3.96,5.53,-0.03,-0.05,-0.19,1721200882903
-1.74,-1.50,20.22,-0.02,0.32,-0.21,1721200882913
-2.01,3.74,6.34,0.21,-0.04,-0.16,1721200882923
-3.50,4.64,5.08,-0.04,0.13,-0.25,1721200882933
-1.65,-2.86,12.57,0.00,0.23,-0.14,1721200882943
-2.38,-5.26,3.64,-0.02,-0.12,0.13,1721200882953
1.85,4.18,20.31,0.08,0.61,-0.08,1721200882963
6.56,9.57,13.29,0.39,0.09,-0.27,1721200882973
-3.90,3.99,0.17,0.06,-0.52,-0.40,1721200882983
-9.72,-2.22,1.96,-0.13,-0.01,-0.03,1721200882993
-2.45,-9.64,15.62,-0.26,0.18,0.12,1721200883003
0.04,5.91,23.27,0.41,0.04,0.16,1721200883013
2.55,3.16,-8.04,0.03,-0.22,-0.12,1721200883023
-6.88,7.15,16.65,-0.07,-0.06,-0.30,1721200883033
2.33,-3.05,7.70,0.00,0.12,0.11,1721200883043
0.77,-1.15,8.72,0.01,-0.05,0.23,1721200883053
2.58,4.17,12.76,0.03,0.04,0.15,1721200883063
-1.61,6.92,10.13,0.03,-0.30,-0.11,1721200883073
-4.35,4.19,11.83,0.06,-0.02,-0.15,1721200883083
-1.85,-8.30,6.22,-0.17,0.01,0.08,1721200883093
-1.60,-0.49,18.19,0.11,-0.10,0.57,1721200883103
1.96,12.03,5.60,0.18,0.04,0.18,1721200883113
3.33,3.28,8.36,-0.02,-0.08,-0.09,1721200883123
-1.21,-4.10,7.10,-0.11,-0.21,-0.02,1721200883133
-4.01,-5.83,7.50,-0.23,-0.13,0.13,1721200883143
-1.51,2.50,14.81,0.06,-0.09,0.34,1721200883153
3.44,-3.16,3.30,-0.06,-0.10,0.39,1721200883163
1.80,2.67,11.22,-0.01,-0.08,0.17,1721200883173
5.37,-2.84,10.57,-0.18,0.11,-0.11,1721200883183
0.24,-1.15,19.09,-0.05,-0.28,-0.15,1721200883193
-1.77,0.56,4.35,0.07,-0.11,0.18,1721200883203
-1.16,-6.67,5.14,-0.36,-0.05,0.19,1721200883213
2.83,-4.74,20.03,-0.08,-0.03,0.19,1721200883223
4.53,-2.33,11.06,0.06,-0.17,-0.18,1721200883233
0.17,4.63,9.37,-0.07,0.06,-0.39,1721200883243
-3.98,2.07,5.04,-0.14,-0.16,-0.35,1721200883253
-3.81,-6.50,11.71,-0.21,0.07,0.01,1721200883263
2.75,-4.07,14.62,0.03,0.15,0.09,1721200883273
5.13,1.84,7.87,0.02,0.10,-0.12,1721200883283
0.17,12.62,9.65,0.15,0.04,-0.55,1721200883293
0.15,4.04,19.89,-0.08,0.30,-0.51,1721200883303
-1.77,-6.18,10.04,0.24,-0.09,-0.14,1721200883313
-1.70,0.10,8.91,-0.00,0.43,-0.06,1721200883323
2.50,2.88,10.24,-0.09,0.11,-0.09,1721200883333
-1.50,9.37,17.80,0.23,-0.05,-0.34,1721200883343
0.41,-3.06,1.98,0.15,0.23,-0.24,1721200883353
-2.81,-3.04,12.60,-0.00,0.15,-0.07,1721200883363
-1.26,10.42,14.65,0.29,0.45,-0.03,1721200883373
2.31,-0.78,5.91,0.08,0.07,-0.13,1721200883383
-0.56,5.04,20.42,0.34,0.30,-0.30,1721200883393
-0.71,1.05,0.06,0.36,0.08,-0.21,1721200883403
-3.30,-3.06,8.84,-0.21,0.28,-0.19,1721200883413
-3.09,2.71,16.76,0.30,0.24,-0.09,1721200883423
-1.57,3.36,-0.06,0.26,0.11,0.12,1721200883433
1.74,2.21,8.94,0.08,0.33,0.07,1721200883443
3.28,1.46,8.61,0.06,0.23,-0.20,1721200883453
-0.99,-3.20,13.25,-0.18,0.06,-0.12,1721200883463
-3.17,-4.27,10.54,-0.01,-0.01,0.15,1721200883473
-1.71,3.51,11.76,0.12,0.22,0.03,1721200883483
2.01,3.23,5.68,0.12,0.20,-0.09,1721200883493
0.48,-3.77,4.73,-0.22,0.08,0.03,1721200883503
-2.79,5.95,15.15,0.04,0.36,-0.16,1721200883513
1.04,0.06,12.92,-0.13,0.32,-0.27,1721200883523
-3.60,-1.07,15.48,-0.05,-0.16,0.02,1721200883533
-2.08,0.72,10.23,-0.02,0.23,0.20,1721200883543
3.56,0.55,14.46,0.01,0.32,-0.09,1721200883553
2.06,-3.75,9.20,-0.25,-0.18,-0.14,1721200883563
-5.38,2.60,13.76,0.10,-0.25,-0.30,1721200883573
-2.49,-0.99,6.42,0.04,0.29,-0.01,1721200883583
-3.43,-3.63,9.62,-0.16,-0.16,0.34,1721200883593
-3.13,-1.34,3.81,-0.16,-0.05,0.20,1721200883603
2.65,-4.45,15.78,-0.32,0.48,-0.22,1721200883613
-2.26,-1.58,7.81,0.14,-0.38,-0.21,1721200883623
0.77,4.60,17.51,-0.18,0.90,0.01,1721200883633
3.34,0.78,14.80,0.06,-0.00,0.22,1721200883643
-1.60,7.35,13.96,-0.00,-0.11,0.18,1721200883653
3.08,2.79,8.37,-0.04,0.03,-0.04,1721200883663
-1.90,-7.95,-3.16,-0.27,-0.72,0.06,1721200883673
-6.43,-5.90,19.08,-0.14,0.46,-0.12,1721200883683
-1.21,-4.92,13.47,0.13,0.17,-0.08,1721200883693
-2.33,-2.97,5.03,-0.20,-0.28,0.39,1721200883703
0.68,10.35,22.80,0.21,0.53,0.06,1721200883713
6.07,0.45,8.93,0.07,0.01,0.01,1721200883723
-1.79,-3.62,5.27,-0.30,-0.46,0.06,1721200883733
-0.93,-1.07,13.33,0.09,0.27,-0.10,1721200883743
2.52,4.68,16.60,0.10,0.26,-0.14,1721200883753
-2.71,1.87,9.79,0.04,-0.47,0.02,1721200883763
-6.92,1.69,-0.85,-0.02,-0.30,0.12,1721200883773
2.58,-2.53,8.33,-0.06,0.29,0.27,1721200883783
4.25,2.37,18.50,-0.04,0.06,-0.18,1721200883793
-0.51,-0.06,8.11,0.10,-0.35,-0.40,1721200883803
-5.67,1.96,5.45,0.03,0.21,-0.29,1721200883813
-4.49,1.88,9.07,0.02,0.01,0.07,1721200883823
-1.41,3.41,10.08,0.05,-0.01,0.24,1721200883833
3.24,1.38,8.94,-0.05,0.03,-0.00,1721200883843
2.60,3.04,15.78,0.03,0.04,-0.40,1721200883853
-1.83,1.85,9.38,0.17,-0.07,-0.50,1721200883863
-5.30,2.28,7.74,0.12,-0.10,-0.12,1721200883873
-3.41,3.96,13.03,0.07,0.07,0.18,1721200883883
0.89,4.60,10.93,0.20,-0.00,0.23,1721200883893
1.67,3.95,9.58,0.00,-0.16,-0.16,1721200883903
-0.50,2.92,8.80,0.11,-0.13,-0.20,1721200883913
-2.24,-3.34,3.24,-0.26,-0.06,-0.18,1721200883923
-3.26,0.83,18.56,0.04,-0.11,0.07,1721200883933
1.01,-1.67,2.69,0.22,-0.05,0.21,1721200883943
-0.08,4.04,14.19,-0.07,0.23,0.05,1721200883953
0.80,4.07,11.23,0.10,-0.14,0.01,1721200883963
-0.85,-7.82,1.62,-0.21,-0.26,0.05,1721200883973
-2.34,-2.47,13.40,-0.17,0.14,-0.04,1721200883983
-0.11,-3.57,12.00,-0.09,0.03,-0.04,1721200883993
-3.77,-1.96,17.31,0.11,-0.14,0.03,1721200884003
-1.32,-5.24,0.32,0.03,-0.09,0.38,1721200884013
2.62,0.99,20.24,-0.22,0.32,0.11,1721200884023
3.86,4.75,11.15,0.22,-0.31,-0.10,1721200884033
-1.32,-3.00,3.26,-0.23,-0.01,-0.31,1721200884043
-3.92,-6.00,13.80,-0.28,0.04,-0.04,1721200884053
-1.99,-8.29,13.63,-0.07,-0.19,0.29,1721200884063
0.72,-1.40,11.72,-0.15,-0.02,0.22,1721200884073
2.72,10.18,11.86,0.17,-0.05,-0.00,1721200884083
5.48,-2.46,3.84,-0.21,0.07,-0.28,1721200884093
-0.08,-4.13,10.51,-0.05,-0.05,-0.32,1721200884103
-3.08,-3.08,18.84,-0.05,0.27,-0.24,1721200884113
-3.69,1.42,12.10,0.17,-0.04,0.09,1721200884123
-1.27,1.24,2.11,0.03,-0.07,0.29,1721200884133
4.06,3.11,18.01,0.03,0.40,0.12,1721200884143
3.63,0.72,10.22,0.24,-0.09,-0.31,1721200884153
-1.85,-1.85,11.36,-0.03,0.13,-0.33,1721200884163
-1.50,6.05,17.06,0.23,0.26,0.03,1721200884173
0.84,-0.25,1.42,0.10,-0.02,0.26,1721200884183
2.10,-1.96,12.53,0.00,0.22,0.05,1721200884193
3.90,3.72,16.24,0.25,0.18,-0.20,1721200884203
1.76,4.72,11.27,0.29,0.08,-0.17,1721200884213
-0.72,3.21,-0.24,0.13,0.12,-0.09,1721200884223
0.30,-2.87,11.31,-0.12,0.50,-0.27,1721200884233
-2.79,-2.36,16.79,0.24,-0.03,-0.07,1721200884243
-3.42,2.31,8.81,0.27,0.01,0.26,1721200884253
1.84,8.72,10.80,0.20,0.40,0.17,1721200884263
4.01,0.88,4.94,-0.03,0.10,-0.11,1721200884273
-1.24,4.52,13.01,0.05,0.22,-0.48,1721200884283
-2.04,1.54,9.23,0.10,0.23,-0.13,1721200884293
-1.97,0.62,7.33,-0.00,0.17,0.17,1721200884303
-0.69,1.02,11.46,-0.04,0.14,0.00,1721200884313
-2.35,-0.11,5.77,0.08,-0.11,-0.14,1721200884323
-2.16,0.17,12.56,-0.20,0.32,-0.13,1721200884333
-0.70,2.04,21.34,0.23,0.19,0.10,1721200884343
0.08,5.06,6.52,0.21,0.10,0.07,1721200884353
1.27,4.20,5.77,-0.19,0.05,0.10,1721200884363
3.15,-4.52,14.71,-0.26,0.19,-0.13,1721200884373
0.55,-2.10,10.48,0.03,-0.14,-0.16,1721200884383
-0.65,-0.76,1.19,-0.05,-0.11,-0.10,1721200884393
-0.34,-3.94,7.62,-0.28,0.15,-0.17,1721200884403
-0.55,-2.15,20.35,-0.02,0.12,-0.28,1721200884413
-1.97,-4.33,7.58,-0.08,0.08,-0.09,1721200884423
-1.70,-2.30,5.29,-0.30,0.19,-0.02,1721200884433
0.91,6.55,22.71,0.11,0.28,-0.20,1721200884443
-0.23,1.33,6.47,0.24,-0.16,-0.11,1721200884453
-4.25,-9.92,-1.89,-0.27,-0.35,0.09,1721200884463
-2.90,-7.06,23.07,-0.19,0.40,0.15,1721200884473
1.86,9.65,20.91,0.53,0.06,-0.02,1721200884483
3.05,5.42,3.90,-0.13,0.08,-0.16,1721200884493
-4.14,-2.78,10.38,-0.04,-0.61,-0.04,1721200884503
-3.18,-6.19,6.28,-0.13,0.08,0.14,1721200884513
-0.55,3.95,14.09,0.07,-0.14,0.15,1721200884523
-2.51,-1.11,2.82,-0.06,-0.20,0.02,1721200884533
-2.75,-4.67,11.65,-0.16,0.08,0.05,1721200884543
1.19,-5.15,11.03,0.06,0.14,0.23,1721200884553
1.98,5.92,6.75,0.17,0.12,0.06,1721200884563
4.86,5.92,16.74,-0.03,0.20,-0.22,1721200884573
0.14,-1.06,13.37,0.09,-0.52,-0.09,1721200884583
-4.50,-1.06,10.08,0.02,-0.09,0.13,1721200884593
-0.83,2.83,5.57,0.18,-0.34,0.18,1721200884603
-0.12,3.00,5.41,-0.20,-0.11,0.05,1721200884613
-0.80,-1.12,12.36,-0.06,-0.20,-0.37,1721200884623
-4.53,-7.80,2.04,0.07,-0.20,-0.30,1721200884633
-2.84,-6.89,7.05,-0.25,0.29,0.17,1721200884643
0.74,9.54,23.86,0.40,0.07,0.41,1721200884653
5.03,14.87,5.42,0.57,-0.07,0.15,1721200884663
4.74,2.61,6.30,-0.40,-0.10,-0.33,1721200884673
-1.57,-1.98,18.58,-0.02,-0.75,-0.31,1721200884683
-3.04,-3.40,2.83,0.00,-0.05,-0.11,1721200884693
-3.24,7.29,16.83,0.24,-0.12,0.04,1721200884703
0.31,6.11,7.86,0.09,0.00,0.16,1721200884718
0.02,2.25,6.95,-0.13,-0.17,0.22,1721200884723
2.67,2.30,14.74,-0.16,0.09,-0.24,1721200884733
-1.50,-0.13,16.62,0.00,-0.14,-0.34,1721200884743
-5.06,2.70,4.94,0.28,-0.37,0.07,1721200884753
-1.46,4.65,-3.60,0.04,0.02,0.34,1721200884763
6.52,-3.61,12.09,-0.31,0.11,0.20,1721200884773
1.82,-1.54,16.21,0.04,-0.30,-0.25,1721200884783
-5.07,6.38,21.60,0.23,-0.21,-0.18,1721200884793
-4.70,1.82,2.29,0.14,-0.17,0.51,1721200884803
0.04,-10.76,-5.13,-0.39,-0.23,0.58,1721200884813
11.11,-0.69,16.46,-0.21,0.06,0.04,1721200884823
2.33,-1.56,15.13,0.05,-0.11,-0.09,1721200884833
-3.25,1.56,10.83,0.09,-0.44,0.28,1721200884843
1.04,7.26,10.12,-0.12,0.16,0.25,1721200884853
4.65,0.23,9.05,-0.08,-0.16,0.02,1721200884863
2.28,-4.77,10.29,-0.08,-0.24,-0.13,1721200884873
0.23,-3.40,7.98,0.15,-0.26,0.12,1721200884883
1.84,3.88,8.75,0.03,0.02,0.12,1721200884893
6.51,-3.57,10.37,-0.07,-0.05,-0.06,1721200884903
2.04,2.73,14.27,-0.01,-0.22,-0.28,1721200884913
-1.86,7.07,7.55,0.04,-0.03,-0.29,1721200884923
1.84,5.02,9.99,-0.21,0.30,0.03,1721200884933
3.02,-5.40,15.34,-0.12,-0.05,-0.01,1721200884943
0.54,-3.74,15.75,0.19,-0.12,-0.20,1721200884953
-0.66,5.89,1.97,0.29,-0.13,-0.09,1721200884963
2.29,4.32,10.66,-0.15,0.27,-0.07,1721200884973
-0.15,6.37,13.12,0.29,-0.36,-0.18,1721200884983
3.45,-7.84,9.57,-0.34,0.38,-0.22,1721200884993
-2.83,-2.54,23.08,0.29,-0.28,-0.23,1721200885003
-2.35,5.57,-2.50,0.34,-0.09,-0.00,1721200885013
1.89,4.95,10.06,-0.13,0.26,-0.12,1721200885023
5.12,-7.19,17.69,-0.02,0.14,-0.24,1721200885033
-2.96,-5.23,11.70,0.18,-0.19,-0.27,1721200885043
-5.67,4.40,2.49,0.15,-0.04,0.10,1721200885053
2.09,3.29,8.44,-0.14,0.34,0.28,1721200885063
4.62,0.81,14.31,0.13,-0.02,0.09,1721200885073
4.29,1.40,7.56,0.19,0.03,-0.20,1721200885083
1.85,2.61,14.31,-0.05,0.18,-0.35,1721200885093
-0.95,6.02,16.15,0.24,0.10,-0.09,1721200885103
1.58,2.71,-1.09,0.03,0.05,0.14,1721200885113
1.98,-3.25,6.67,-0.15,0.11,-0.09,1721200885123
2.92,-1.43,19.61,-0.01,0.25,-0.61,1721200885133
-3.66,2.98,5.27,0.31,-0.18,-0.44,1721200885143
-7.96,12.75,8.93,-0.02,0.41,-0.18,1721200885153
-1.38,-3.01,9.23,-0.15,0.13,0.08,1721200885163
2.27,-2.88,14.72,0.07,-0.01,0.09,1721200885173
5.31,2.52,5.63,0.16,0.12,-0.22,1721200885183
1.98,4.80,8.93,-0.23,0.01,-0.55,1721200885193
-1.46,-1.65,15.03,-0.06,-0.09,-0.48,1721200885203
-1.34,-3.94,3.32,0.13,0.06,-0.26,1721200885213
1.25,-0.23,10.63,-0.27,0.46,-0.29,1721200885223
0.84,0.71,22.06,-0.10,0.04,-0.44,1721200885233
-2.28,-1.61,2.04,0.09,-0.05,-0.62,1721200885243
-3.07,1.58,14.77,-0.30,0.76,-0.61,1721200885253
-0.69,-2.71,11.83,0.05,0.02,-0.11,1721200885263
-3.12,-1.24,8.44,-0.12,0.09,-0.37,1721200885273
-2.74,6.08,13.02,0.17,0.13,-0.35,1721200885283
-0.18,0.97,1.02,-0.14,0.30,-0.50,1721200885293
-1.80,-10.15,15.25,-0.46,0.27,-0.49,1721200885303
-3.47,-3.01,13.53,0.28,0.07,-0.24,1721200885313
-1.87,7.42,-1.45,0.12,0.19,-0.19,1721200885323
-1.41,7.83,18.78,-0.05,0.46,-0.56,1721200885333
-2.40,-7.63,11.27,-0.03,0.03,-0.42,1721200885343
-4.49,-2.32,13.23,0.14,0.39,-0.11,1721200885353
2.36,-1.35,0.63,-0.12,0.24,0.01,1721200885363
-4.82,1.35,14.15,-0.15,-0.39,-0.30,1721200885373
-6.54,1.19,5.20,0.36,-0.20,-0.33,1721200885383
-0.45,-8.39,2.73,-0.30,0.74,-0.32,1721200885393
-3.15,-1.96,19.29,-0.08,-0.02,-0.07,1721200885403
-4.37,8.96,10.94,0.31,0.23,-0.07,1721200885413
1.25,1.91,8.16,-0.08,0.39,-0.13,1721200885423
-1.06,-5.01,16.50,-0.04,-0.06,-0.16,1721200885433
-3.42,-2.63,7.83,0.14,-0.01,0.04,1721200885443
-1.56,7.78,6.08,0.17,0.27,-0.03,1721200885453
1.35,5.06,9.98,-0.17,0.17,-0.24,1721200885463
-3.39,-4.71,19.86,0.03,0.02,-0.26,1721200885473
-8.28,6.88,7.69,0.39,0.08,0.05,1721200885483
1.40,-1.79,4.76,-0.23,0.33,0.33,1721200885493
1.07,4.87,14.88,-0.11,-0.52,0.22,1721200885503
-0.30,7.74,6.93,0.29,0.11,-0.04,1721200885513
1.60,0.17,6.81,-0.03,0.07,-0.13,1721200885523
-2.19,-0.78,11.00,-0.13,-0.03,0.07,1721200885533
-3.51,8.47,15.52,-0.01,0.04,0.05,1721200885543
-1.17,5.45,9.43,-0.05,0.02,0.24,1721200885553
1.21,-2.52,20.39,-0.03,0.04,0.21,1721200885563
1.84,0.22,0.13,0.33,-0.44,0.39,1721200885573
-0.05,8.66,6.05,-0.21,0.17,-0.08,1721200885583
1.82,3.82,10.09,0.07,-0.21,0.01,1721200885593
-2.12,-8.22,10.12,-0.29,-0.02,0.18,1721200885603
-3.02,-0.39,14.09,0.35,-0.26,0.45,1721200885613
3.33,1.09,3.87,-0.07,0.06,0.36,1721200885623
2.26,0.66,20.24,-0.11,-0.20,0.29,1721200885633
1.47,3.54,12.59,0.35,-0.28,-0.09,1721200885643
0.46,-5.95,-3.72,-0.27,-0.10,-0.05,1721200885653
-0.05,-2.78,8.20,-0.28,-0.16,0.18,1721200885663
1.08,-3.24,10.57,-0.00,0.02,0.43,1721200885673
2.94,3.38,7.34,-0.14,0.05,0.18,1721200885683
1.94,2.32,12.62,-0.17,-0.30,-0.13,1721200885693
1.08,0.74,12.63,-0.11,0.02,-0.15,1721200885703
1.41,-2.48,14.27,0.08,-0.02,0.09,1721200885713
0.27,-0.03,12.31,0.02,0.02,-0.03,1721200885723
0.65,-3.43,7.03,-0.03,-0.23,0.23,1721200885733
2.81,5.52,21.33,-0.04,0.31,-0.02,1721200885743
3.64,3.22,-4.37,0.14,-0.25,-0.24,1721200885753
-2.18,0.44,6.31,-0.50,-0.04,-0.40,1721200885763
1.16,-2.19,14.03,0.06,-0.49,-0.13,1721200885773
0.81,0.06,5.64,0.25,0.24,0.11,1721200885783
1.19,3.26,16.69,-0.05,0.22,-0.16,1721200885793
2.80,1.32,14.02,0.15,0.01,-0.30,1721200885803
0.30,1.81,11.53,0.05,0.05,-0.29,1721200885813
-0.19,-3.20,12.13,0.07,0.15,-0.34,1721200885823
-1.71,-3.45,12.34,-0.09,0.09,-0.14,1721200885833
-3.41,5.05,9.89,0.18,0.02,-0.05,1721200885843
1.06,-3.32,4.32,-0.05,0.37,-0.33,1721200885853
0.36,2.37,15.09,0.13,0.14,-0.11,1721200885863
0.74,1.33,3.04,0.08,0.12,-0.16,1721200885873
-0.05,6.53,22.41,0.13,0.41,-0.38,1721200885883
1.08,2.00,4.57,0.38,0.01,-0.22,1721200885893
-0.73,-3.37,7.53,-0.23,0.23,-0.11,1721200885903
-0.14,3.19,12.87,0.26,0.16,-0.23,1721200885913
1.21,-2.92,2.91,-0.15,0.34,-0.28,1721200885923
-3.62,2.68,19.50,-0.06,0.20,-0.17,1721200885933
-1.18,3.15,9.50,0.22,0.21,-0.18,1721200885943
-0.49,5.32,4.81,-0.03,0.31,-0.14,1721200885953
-0.71,0.11,9.92,-0.25,0.18,0.05,1721200885963
-0.10,-1.77,13.94,0.06,0.17,-0.13,1721200885973
1.50,-1.31,7.47,-0.06,0.17,-0.24,1721200885983
-1.56,1.54,2.25,0.01,0.01,-0.18,1721200885993
0.05,5.69,16.83,-0.08,0.68,-0.42,1721200886003
-0.73,-1.03,7.24,0.07,0.02,-0.25,1721200886013
-3.85,-0.79,11.80,-0.17,0.38,-0.22,1721200886023
1.61,-1.39,10.76,0.03,0.41,-0.16,1721200886033
0.78,-0.38,15.78,-0.10,0.21,-0.19,1721200886043
-0.82,4.42,13.00,0.18,0.14,-0.31,1721200886053
-2.09,-0.63,7.75,-0.00,0.25,-0.32,1721200886063
-2.93,1.45,18.38,0.14,0.25,-0.08,1721200886073
-0.13,-2.34,3.76,-0.04,0.14,-0.07,1721200886083
-5.74,4.64,1.55,0.14,-0.31,-0.28,1721200886093
-0.86,-2.95,4.27,-0.15,0.76,-0.29,1721200886103
-2.43,-3.13,17.14,0.02,0.16,0.01,1721200886113
-3.67,0.52,5.74,0.06,0.12,-0.06,1721200886123
-0.51,1.02,14.80,0.00,0.53,-0.03,1721200886133
0.89,9.03,13.50,0.25,0.36,-0.11,1721200886143
0.65,1.24,10.45,-0.06,0.15,-0.16,1721200886153
-4.93,-5.73,12.47,0.10,-0.36,0.16,1721200886163
-3.96,-1.51,0.14,0.16,0.09,0.26,1721200886173
2.27,-2.28,15.07,-0.17,0.50,0.10,1721200886183
0.68,6.15,12.09,0.25,-0.02,0.05,1721200886193
0.03,5.15,10.29,0.05,0.41,-0.35,1721200886203
-1.18,-5.17,7.81,-0.05,-0.01,0.07,1721200886213
-2.62,-0.86,9.00,-0.11,0.15,0.18,1721200886223
1.10,4.62,11.83,0.11,0.15,0.18,1721200886233
0.58,0.37,13.70,-0.07,0.02,-0.04,1721200886243
-4.49,0.23,11.78,0.21,-0.27,0.08,1721200886253
-0.59,2.60,7.05,0.06,0.48,0.15,1721200886263
-0.37,2.80,5.40,-0.09,0.02,0.20,1721200886273
-0.42,-2.29,12.19,-0.32,-0.00,0.06,1721200886283
0.86,-0.90,18.52,0.18,-0.18,0.17,1721200886293
-3.63,2.96,2.97,0.14,-0.20,0.06,1721200886303
-1.76,3.50,13.25,-0.08,0.14,0.14,1721200886313
-0.35,3.50,8.82,0.09,-0.25,0.25,1721200886323
-1.66,-2.13,6.24,-0.27,-0.02,0.12,1721200886333
0.03,1.28,18.26,0.10,0.10,0.10,1721200886343
1.59,4.87,10.85,0.10,-0.08,0.24,1721200886353
1.22,5.39,10.94,0.04,-0.12,0.16,1721200886363
0.71,4.25,5.79,0.04,-0.12,-0.06,1721200886373
-2.19,-1.48,11.57,-0.16,0.01,-0.21,1721200886383
-3.97,-3.96,10.29,0.14,-0.19,0.39,1721200886393
-1.41,5.37,8.70,-0.08,0.20,0.46,1721200886403
3.08,-0.15,16.86,-0.11,-0.13,0.24,1721200886413
0.57,3.09,12.44,0.18,-0.22,0.18,1721200886423
1.28,-6.70,5.46,-0.27,-0.04,-0.03,1721200886433
-2.85,-2.96,18.50,-0.04,-0.33,0.23,1721200886443
-1.57,0.11,9.45,-0.04,-0.14,0.35,1721200886453
2.91,0.14,6.88,0.02,-0.15,0.19,1721200886463
1.85,-4.35,2.56,-0.13,-0.16,-0.19,1721200886473
-1.85,0.44,14.85,-0.05,-0.03,-0.01,1721200886483
-0.21,0.84,10.96,0.23,-0.16,0.35,1721200886493
4.57,-0.94,8.83,-0.10,0.03,0.43,1721200886503
3.64,1.27,16.65,0.08,-0.24,0.05,1721200886513
4.30,-4.00,2.05,-0.14,-0.07,-0.15,1721200886523
-2.40,-7.60,12.50,-0.36,-0.25,-0.26,1721200886533
-4.94,7.43,16.39,0.26,-0.12,-0.02,1721200886543
-0.61,-1.67,2.96,-0.10,-0.01,0.18,1721200886553
1.99,-0.46,15.36,-0.05,-0.00,0.33,1721200886563
3.45,1.99,4.82,-0.05,-0.05,0.00,1721200886573
0.44,2.18,15.65,-0.02,-0.04,-0.16,1721200886583
-0.04,-2.80,5.12,0.02,-0.06,-0.19,1721200886593
-2.32,1.50,13.98,0.03,-0.02,0.02,1721200886603
0.85,2.72,15.58,0.18,-0.02,0.19,1721200886613
2.65,4.11,7.25,0.19,0.03,0.16,1721200886623
1.61,0.21,12.49,0.02,0.07,-0.17,1721200886633
1.02,-6.22,10.14,-0.03,-0.00,-0.17,1721200886643
-3.12,1.57,8.49,0.11,-0.20,-0.07,1721200886653
-1.74,2.00,10.26,0.08,0.11,-0.09,1721200886663
1.73,-2.72,8.38,-0.02,0.08,0.02,1721200886673
3.98,-0.02,8.21,0.28,-0.17,0.37,1721200887214
4.21,-0.28,0.82,-0.11,-0.22,0.01,1721200887219
0.18,4.79,18.89,-0.04,-0.23,-0.39,1721200887230
-2.53,-5.06,6.96,0.08,-0.29,0.02,1721200887240
-2.31,-5.96,5.30,-0.11,-0.27,0.30,1721200887251
3.12,-1.50,11.90,0.03,-0.18,0.19,1721200887261
3.92,6.02,8.67,0.16,-0.20,-0.12,1721200887272
1.44,-1.01,13.53,-0.16,-0.07,-0.33,1721200887282
-2.76,-6.58,2.56,-0.02,-0.33,-0.21,1721200887293
-3.62,-2.68,13.18,-0.18,0.18,-0.21,1721200887303
0.61,0.44,10.83,-0.01,-0.04,0.06,1721200887314
1.75,4.55,9.78,0.01,-0.19,0.01,1721200887324
5.66,-0.76,12.21,-0.09,0.20,-0.25,1721200887335
3.77,-1.79,11.42,-0.10,0.02,-0.49,1721200887345
-5.06,3.26,10.86,-0.08,-0.09,-0.54,1721200887355
-5.04,-0.16,12.98,-0.02,0.05,-0.26,1721200887365
1.42,-5.37,6.66,-0.05,0.02,0.12,1721200887375
3.48,2.92,12.06,-0.09,0.25,-0.03,1721200887385
2.04,1.30,11.51,0.03,-0.03,-0.70,1721200887395
-2.96,-0.29,3.65,-0.02,-0.08,-0.54,1721200887405
-7.42,6.48,19.67,-0.05,0.17,-0.20,1721200887416
0.15,-1.34,5.74,0.16,0.03,0.03,1721200887426
3.42,-5.26,17.14,-0.22,0.45,-0.36,1721200887437
-1.89,9.19,13.87,0.39,-0.07,-0.32,1721200887447
0.01,5.27,11.33,0.02,0.45,-0.21,1721200887457
1.17,0.90,12.59,0.27,0.05,-0.31,1721200887467
-0.62,-1.26,0.22,0.13,0.03,-0.32,1721200887477
-1.64,-2.71,13.92,-0.20,0.38,-0.38,1721200887487
-2.78,1.99,17.64,0.14,0.12,-0.22,1721200887497
-1.48,8.20,10.07,0.31,0.09,-0.02,1721200887507
2.70,-4.41,0.15,0.01,0.20,-0.10,1721200887518
0.52,2.88,13.95,-0.08,0.40,-0.63,1721200887528
-3.11,5.02,11.73,0.07,0.12,-0.51,1721200887539
-5.98,-2.14,7.88,-0.16,0.11,-0.13,1721200887549
-1.89,-1.35,13.65,0.24,0.27,0.13,1721200887559
5.00,-4.63,9.08,-0.08,0.24,-0.10,1721200887569
1.03,10.03,14.50,0.28,-0.07,-0.37,1721200887579
0.38,5.00,9.13,0.03,0.50,-0.54,1721200887589
-5.85,0.16,16.36,0.25,0.07,-0.22,1721200887599
-0.58,-8.94,-0.92,-0.23,0.04,0.30,1721200887609
1.47,-4.00,14.07,-0.11,0.04,-0.16,1721200887620
1.22,7.07,12.68,0.17,0.51,-0.57,1721200887630
-3.09,0.48,4.25,-0.02,0.10,-0.58,1721200887641
-10.20,-3.63,15.33,-0.11,0.25,-0.09,1721200887651
-1.59,-3.15,19.18,-0.06,0.54,0.43,1721200887661
2.36,7.94,6.90,0.24,-0.16,0.05,1721200887671
0.80,-3.53,4.47,-0.43,0.23,-0.21,1721200887681
-4.21,-3.23,17.22,0.02,-0.12,-0.29,1721200887691
-2.46,-2.69,-1.39,0.04,0.10,0.14,1721200887701
0.90,3.55,9.40,-0.24,0.37,0.07,1721200887711
3.66,6.79,20.28,0.06,0.07,-0.21,1721200887721
-3.37,-4.07,5.62,-0.16,-0.17,-0.42,1721200887731
-8.61,-3.85,10.30,0.04,0.14,-0.08,1721200887741
0.77,-9.15,8.43,-0.30,0.38,0.42,1721200887751
-0.54,11.10,19.69,0.23,-0.22,0.18,1721200887761
3.42,7.93,-0.09,0.32,0.15,-0.11,1721200887771
2.16,-11.33,14.01,-0.33,0.19,-0.23,1721200887781
-1.53,4.60,26.48,0.31,0.14,0.06,1721200887791
2.12,8.11,11.14,0.13,0.21,0.03,1721200887801
-3.47,1.75,1.66,0.09,-0.71,-0.04,1721200887811
-4.31,-3.22,9.84,0.01,0.39,-0.01,1721200887821
2.87,-6.55,5.67,0.00,0.04,0.21,1721200887831
-3.58,5.42,11.31,-0.09,-0.22,0.00,1721200887841
-0.47,4.89,11.74,0.17,0.36,-0.38,1721200887851
-0.45,-3.96,6.23,-0.10,0.08,-0.25,1721200887861
-4.42,0.64,15.79,-0.01,0.22,-0.02,1721200887871
0.16,0.54,6.53,-0.00,0.05,0.28,1721200887881
0.90,6.90,11.31,0.20,-0.16,0.17,1721200887891
2.32,-5.76,5.22,-0.21,0.24,-0.18,1721200887901
-3.10,0.70,14.27,0.08,-0.26,-0.12,1721200887911
-1.07,7.24,8.11,0.11,0.27,0.14,1721200887921
0.49,1.02,13.58,-0.13,0.10,0.01,1721200887931
-1.90,4.30,7.60,0.18,-0.22,0.14,1721200887941
2.86,-1.28,9.09,-0.39,0.42,0.03,1721200887951
1.08,1.49,20.30,0.01,-0.25,-0.12,1721200887961
-3.21,4.15,5.21,0.07,-0.06,-0.14,1721200887971
-3.48,7.05,4.31,0.09,-0.02,-0.01,1721200887981
0.68,-2.90,12.24,-0.27,0.17,0.31,1721200887991
0.64,-1.66,10.47,0.14,-0.33,0.43,1721200888001
3.02,3.05,12.05,-0.10,0.44,-0.04,1721200888011
0.27,5.57,16.93,0.21,-0.26,0.01,1721200888021
-2.33,1.52,1.54,-0.04,-0.13,0.11,1721200888031
-1.36,-1.73,12.85,-0.17,-0.01,0.15,1721200888041
0.28,1.88,10.70,0.06,-0.05,0.13,1721200888051
0.43,0.14,9.48,-0.09,-0.07,0.02,1721200888061
0.57,1.67,12.71,-0.00,-0.01,0.08,1721200888071
0.94,-0.87,9.72,-0.07,-0.03,0.13,1721200888081
-1.29,-4.34,6.88,-0.20,-0.15,0.11,1721200888091
-0.04,2.74,14.13,-0.05,-0.02,-0.11,1721200888101
3.13,-3.63,10.79,-0.07,-0.03,-0.03,1721200888111
-1.50,1.59,13.24,0.05,-0.11,-0.06,1721200888121
-1.41,3.91,6.67,0.17,0.02,-0.08,1721200888131
2.41,-2.46,14.29,-0.22,0.39,-0.20,1721200888141
-0.72,0.07,17.01,0.24,-0.25,-0.04,1721200888151
-0.84,1.81,2.30,-0.04,0.12,-0.01,1721200888161
0.26,0.97,10.07,-0.14,0.06,-0.06,1721200888171
1.62,0.45,19.35,-0.01,0.10,-0.23,1721200888181
0.32,-0.31,5.28,0.19,-0.22,-0.12,1721200888191
-1.03,0.42,4.36,-0.24,0.24,0.02,1721200888201
0.08,2.03,19.07,-0.04,0.19,-0.12,1721200888211
2.63,4.99,13.56,0.22,0.06,0.03,1721200888221
3.29,0.54,3.23,0.05,-0.07,-0.04,1721200888231
2.40,-3.02,8.06,-0.09,0.13,-0.24,1721200888241
-0.47,-1.48,15.93,-0.07,0.17,-0.49,1721200888251
-3.01,8.58,9.79,0.29,0.08,-0.09,1721200888261
0.79,2.57,9.11,-0.02,0.44,0.07,1721200888271
1.27,0.93,9.98,0.16,0.09,-0.20,1721200888281
-0.71,-1.70,8.77,-0.16,0.22,-0.39,1721200888291
-3.98,5.56,15.47,0.26,0.07,-0.17,1721200888301
-0.49,0.90,3.95,0.09,0.21,0.05,1721200888311
1.12,4.81,17.16,0.10,0.15,0.07,1721200888321
3.14,2.69,5.09,0.27,0.09,-0.17,1721200888331
1.00,1.34,11.69,-0.14,0.54,-0.57,1721200888341
-4.39,0.26,14.71,0.10,-0.00,-0.45,1721200888351
-5.95,-1.67,4.69,0.07,0.10,0.04,1721200888361
-0.58,2.76,7.34,0.07,0.30,0.09,1721200888371
4.99,0.32,13.17,-0.02,0.15,0.12,1721200888381
2.58,5.44,10.43,0.34,-0.03,-0.29,1721200888391
0.37,-4.93,2.12,-0.20,0.16,-0.50,1721200888401
-5.60,0.23,26.50,-0.02,0.14,-0.20,1721200888411
-2.04,-0.88,3.55,0.21,-0.01,0.11,1721200888421
-2.30,-2.57,0.59,-0.25,-0.00,0.03,1721200888431
-1.06,-0.62,13.88,-0.01,0.13,-0.19,1721200888441
1.72,-2.01,8.25,-0.05,0.21,-0.10,1721200888451
-1.52,3.24,13.75,-0.04,-0.07,-0.09,1721200888461
-3.08,-3.79,4.68,-0.05,0.03,-0.20,1721200888471
-3.56,-0.95,13.34,-0.18,0.19,-0.02,1721200888481
-0.39,-3.43,7.66,-0.04,0.03,0.08,1721200888491
-0.17,4.20,21.50,-0.04,0.42,-0.10,1721200888501
-0.69,1.03,3.06,0.24,-0.16,-0.06,1721200888511
-2.24,-2.38,4.64,-0.40,0.31,0.00,1721200888521
2.29,7.09,16.50,0.11,0.20,0.01,1721200888531
2.28,2.69,16.21,-0.14,0.12,-0.27,1721200888541
-1.79,-0.13,13.61,0.19,-0.38,-0.25,1721200888551
-4.18,-1.29,0.31,0.02,-0.18,0.22,1721200888561
-1.28,-0.71,10.66,-0.14,0.25,0.16,1721200888571
2.60,2.12,15.05,0.26,0.04,-0.01,1721200888581
1.68,-4.05,3.46,-0.16,-0.03,-0.12,1721200888591
-5.55,4.28,15.39,0.06,-0.11,-0.24,1721200888601
-0.74,-2.70,2.00,0.11,0.21,0.01,1721200888611
3.19,1.56,21.98,-0.01,0.40,0.01,1721200888621
1.88,7.44,14.56,0.50,-0.11,-0.12,1721200888631
0.59,0.38,4.95,-0.09,0.02,-0.23,1721200888641
-1.53,-5.86,5.47,-0.02,-0.28,0.01,1721200888651
-3.90,-0.76,12.47,0.07,0.05,-0.09,1721200888661
-1.42,6.53,4.38,0.25,-0.02,-0.13,1721200888671
0.01,-3.50,9.38,-0.26,0.24,-0.02,1721200888681
-4.24,-5.12,14.71,-0.07,-0.01,-0.02,1721200888691
-3.43,7.23,8.68,0.22,-0.09,0.04,1721200888701
1.93,5.54,11.83,-0.00,0.19,0.08,1721200888711
2.37,-1.13,11.05,0.04,-0.13,0.04,1721200888721
-2.35,1.13,2.33,0.09,-0.32,-0.01,1721200888731
-2.73,-1.41,5.60,-0.12,0.12,0.08,1721200888741
0.71,3.38,16.82,0.04,0.04,0.19,1721200888751
-0.23,11.45,11.20,0.19,-0.18,-0.02,1721200888761
-0.17,-3.70,4.37,-0.32,-0.08,0.03,1721200888771
-4.94,-2.51,14.11,-0.18,-0.16,0.11,1721200888781
-1.10,3.56,12.13,0.08,0.03,0.22,1721200888791
1.23,2.92,8.40,-0.11,-0.09,0.23,1721200888801
0.62,6.02,14.61,0.16,-0.21,0.31,1721200888811
3.06,-3.34,6.05,-0.10,-0.05,0.23,1721200888821
0.03,-2.88,12.07,-0.14,-0.33,0.05,1721200888831
-1.75,7.80,8.83,0.15,-0.07,-0.04,1721200888841
-1.01,-2.86,11.73,-0.22,-0.10,0.05,1721200888851
-1.29,-5.29,13.63,0.00,-0.38,0.40,1721200888861
0.56,-4.23,3.00,-0.01,-0.28,0.43,1721200888871
3.67,-4.04,16.88,-0.25,0.34,-0.05,1721200888881
-1.97,7.74,10.74,0.27,-0.38,-0.07,1721200888891
0.43,5.94,12.08,0.08,0.18,0.19,1721200888901
5.29,-8.64,5.65,-0.05,-0.30,0.25,1721200888911
2.64,-3.39,14.81,-0.18,-0.16,0.03,1721200888921
0.13,5.49,15.17,0.14,-0.13,-0.28,1721200888931
-1.39,4.58,5.33,0.08,-0.20,-0.09,1721200888941
-0.40,-6.89,5.34,-0.20,-0.01,0.09,1721200888951
1.18,-7.74,15.69,-0.15,-0.01,-0.23,1721200888961
-0.32,3.75,10.60,0.27,-0.19,-0.06,1721200888971
-0.58,5.72,0.47,-0.03,0.07,0.05,1721200888981
1.73,-0.91,10.70,-0.29,0.09,-0.09,1721200888991
0.61,6.15,23.74,0.19,-0.03,-0.16,1721200889001
2.67,-5.20,-4.62,-0.02,-0.22,-0.28,1721200889011
1.04,1.87,15.16,-0.27,0.27,-0.40,1721200889021
-2.89,4.77,9.05,0.21,0.10,-0.06,1721200889031
0.11,3.17,11.56,-0.19,0.18,0.08,1721200889041
1.87,-0.49,12.22,0.11,-0.13,0.03,1721200889051
1.54,-4.33,4.02,-0.13,0.03,-0.28,1721200889061
-3.71,7.84,14.66,-0.09,-0.08,-0.44,1721200889071
-3.33,-4.87,12.06,-0.08,-0.10,-0.09,1721200889081
-3.29,1.91,8.20,0.26,0.04,0.26,1721200889091
5.39,0.85,7.61,-0.04,0.33,0.15,1721200889101
4.36,3.14,10.60,0.11,-0.14,-0.29,1721200889111
1.75,4.68,13.65,-0.04,0.31,-0.58,1721200889121
-1.82,0.37,11.78,0.26,-0.03,-0.26,1721200889131
-1.72,-2.77,0.96,-0.08,0.03,0.02,1721200889141
0.61,4.04,21.01,-0.09,0.22,-0.11,1721200889151
2.06,-0.57,10.07,0.14,-0.19,-0.36,1721200889161
-0.08,0.11,8.64,0.08,0.20,-0.42,1721200889171
-2.92,-2.06,11.71,-0.05,0.25,-0.55,1721200889181
-6.75,7.40,15.57,0.18,0.04,-0.03,1721200889191
0.11,-2.77,-1.86,-0.05,0.05,0.10,1721200889201
0.99,1.10,12.22,0.13,-0.18,-0.08,1721200889216
4.73,-5.31,5.63,-0.01,0.01,-0.18,1721200889221
-1.27,3.32,18.78,0.02,0.13,-0.34,1721200889231
-2.28,5.31,-0.25,0.28,0.03,-0.28,1721200889241
-2.72,-0.52,13.07,-0.28,0.22,0.03,1721200889251
1.66,1.68,18.69,0.31,0.20,-0.07,1721200889261
2.05,-6.67,-3.08,-0.19,-0.11,-0.13,1721200889271
-7.12,5.59,18.36,0.18,0.02,-0.46,1721200889281
-0.83,-1.04,2.70,-0.00,0.12,-0.24,1721200889291
-3.24,0.53,14.01,-0.01,-0.00,-0.01,1721200889301
-0.72,-0.28,4.52,0.07,0.13,-0.13,1721200889311
0.82,-2.84,10.35,-0.20,0.27,-0.29,1721200889321
-0.68,5.58,17.78,0.22,0.17,-0.35,1721200889331
-2.55,-3.48,3.05,-0.09,0.11,-0.47,1721200889341
-7.31,0.85,15.13,0.14,-0.10,-0.01,1721200889351
-1.79,0.87,3.73,0.10,0.11,0.30,1721200889361
0.70,-3.81,11.22,-0.07,0.04,0.03,1721200889371
0.10,6.56,13.46,0.18,0.13,-0.32,1721200889381
-1.48,-6.25,0.80,-0.20,-0.12,-0.34,1721200889391
-8.02,-2.73,15.75,-0.01,0.01,-0.04,1721200889401
0.45,0.56,12.76,0.19,0.43,0.12,1721200889411
1.03,3.99,9.31,0.00,-0.15,0.31,1721200889421
-0.79,0.92,6.61,-0.07,-0.02,-0.02,1721200889431
2.26,-4.29,13.75,-0.10,0.30,-0.23,1721200889441
0.55,8.67,16.43,0.24,0.20,-0.18,1721200889451
0.37,-0.99,10.73,-0.30,0.17,-0.04,1721200889461
-0.16,0.61,22.12,0.09,-0.17,0.17,1721200889471
0.26,3.99,2.95,0.14,0.03,0.06,1721200889481
0.69,2.27,11.43,-0.05,0.20,-0.09,1721200889491
-1.80,-2.10,5.83,-0.13,-0.23,-0.10,1721200889501
-2.01,0.07,15.62,-0.16,-0.05,0.10,1721200889511
-1.26,4.74,5.43,0.26,0.01,0.08,1721200889521
2.23,-3.04,9.40,-0.35,0.26,0.03,1721200889531
0.85,5.32,18.20,0.16,-0.29,-0.06,1721200889541
-0.96,7.42,4.05,0.03,0.02,0.08,1721200889551
1.87,1.10,9.78,-0.07,-0.17,0.24,1721200889561
0.05,4.73,18.95,0.05,-0.04,-0.07,1721200889571
-1.24,-3.05,0.28,0.18,-0.32,0.07,1721200889581
-3.79,3.35,7.53,-0.12,0.39,0.05,1721200889591
3.36,-0.76,16.45,-0.19,0.04,0.05,1721200889601
-0.40,5.83,19.69,0.24,0.01,0.02,1721200889611
1.33,-2.17,-0.87,-0.09,0.05,0.01,1721200889621
-2.62,-1.64,22.53,-0.12,-0.09,0.09,1721200889631
0.40,6.04,7.35,0.43,-0.22,0.22,1721200889641
2.69,-4.48,6.55,-0.28,0.09,0.15,1721200889651
-0.03,-6.20,14.86,-0.01,-0.39,0.03,1721200889661
-2.34,4.58,7.55,0.04,0.02,-0.00,1721200889671
-1.80,2.58,12.24,-0.19,-0.06,0.06,1721200889681
0.37,-2.20,14.62,0.07,-0.15,0.32,1721200889691
1.32,-6.48,-2.54,-0.09,-0.24,0.24,1721200889701
1.30,-0.52,13.25,-0.25,0.27,-0.12,1721200889711
-0.21,1.30,8.94,0.10,-0.19,-0.08,1721200889721
0.17,1.99,15.80,-0.10,0.04,0.20,1721200889731
4.36,1.87,16.78,0.16,0.01,0.27,1721200889741
5.16,-0.56,6.30,0.06,-0.02,0.03,1721200889751
0.78,1.74,13.88,-0.08,0.19,-0.39,1721200889761
-3.02,1.09,12.31,0.11,-0.18,-0.11,1721200889771
-3.12,-0.05,4.18,0.06,-0.03,0.25,1721200889781
2.90,-0.69,16.96,-0.01,0.23,0.16,1721200889791
4.87,2.83,8.67,0.20,-0.13,-0.06,1721200889801
0.11,3.69,11.58,-0.05,0.08,-0.42,1721200889811
-2.53,0.30,10.83,0.17,-0.07,-0.25,1721200889821
-2.74,-1.87,7.19,0.08,0.04,-0.05,1721200889831
0.94,-3.01,6.32,-0.02,0.01,0.17,1721200889841
0.70,0.87,12.49,-0.01,-0.05,-0.07,1721200889851
1.16,-0.44,8.57,-0.00,-0.04,-0.22,1721200889861
-1.83,2.56,9.47,0.14,-0.07,-0.26,1721200889871
-1.70,-2.03,7.58,-0.01,0.17,-0.29,1721200889881
-2.10,1.06,13.64,0.04,0.07,-0.01,1721200889891
-1.26,1.17,3.83,0.09,-0.09,0.10,1721200889901
1.57,4.03,10.54,-0.09,0.18,-0.03,1721200889911
4.52,-3.62,13.30,0.06,-0.07,-0.23,1721200889921
1.73,-3.01,12.98,0.14,0.06,-0.40,1721200889931
-2.86,6.06,6.52,0.14,0.06,-0.29,1721200889941
-2.84,-1.69,9.02,-0.04,0.03,-0.08,1721200889951
1.22,-2.79,8.17,-0.11,0.14,0.09,1721200889961
2.71,4.72,16.76,0.02,0.16,-0.26,1721200889971
1.23,2.66,7.60,0.10,0.05,-0.37,1721200889981
-1.48,-3.28,8.89,-0.28,0.13,-0.15,1721200889991
-0.96,0.94,19.48,-0.04,0.07,-0.15,1721200890001
1.64,0.62,6.15,0.02,0.03,-0.23,1721200890011
-1.45,4.03,10.76,-0.17,0.16,-0.36,1721200890021
-2.52,6.34,12.10,0.20,0.08,-0.19,1721200890031
2.06,-6.39,11.91,-0.36,0.34,-0.12,1721200890041
-1.39,1.72,12.73,0.12,-0.34,-0.07,1721200890051
1.04,2.56,0.12,-0.19,0.30,-0.27,1721200890061
1.65,-0.53,16.77,-0.06,0.16,-0.43,1721200890071
-2.57,5.22,4.19,0.27,-0.01,-0.41,1721200890081
-2.72,-1.43,10.08,-0.26,0.43,-0.20,1721200890091
-2.89,-3.18,12.31,0.22,-0.07,-0.19,1721200890101
1.18,2.40,9.81,-0.04,0.52,-0.24,1721200890111
1.56,0.88,14.38,-0.01,-0.02,-0.21,1721200890121
-4.42,5.60,11.36,0.17,-0.00,-0.30,1721200890131
-2.90,-5.14,3.67,0.05,0.27,-0.38,1721200890141
-3.41,-2.68,11.09,-0.07,0.13,0.00,1721200890151
-0.69,4.96,8.95,0.23,0.16,0.12,1721200890161
2.48,-1.03,4.82,-0.06,0.21,-0.21,1721200890171
-0.17,5.23,28.84,0.13,0.24,-0.56,1721200890181
-3.88,-0.94,4.47,0.35,-0.27,-0.35,1721200890191
-7.71,-0.66,-1.42,0.04,0.22,-0.01,1721200890201
0.79,-5.34,15.63,-0.07,0.45,0.25,1721200890211
2.17,2.46,12.44,0.22,-0.25,0.23,1721200890221
-0.27,3.83,4.28,0.05,0.19,-0.04,1721200890231
1.40,-4.49,11.59,-0.13,0.21,-0.29,1721200890241
-1.80,1.24,15.76,0.09,0.00,-0.14,1721200890251
-1.86,3.72,5.97,0.02,0.14,-0.01,1721200890261
-1.07,-3.45,6.08,-0.06,0.03,-0.02,1721200890271
0.17,-3.85,16.36,-0.09,0.29,0.02,1721200890281
0.56,3.83,12.99,0.19,0.02,-0.03,1721200890291
0.51,4.11,10.30,-0.05,0.18,-0.21,1721200890301
-2.01,-2.81,13.34,-0.10,0.01,0.03,1721200890311
-4.44,-0.13,6.45,0.15,-0.14,0.14,1721200890321
2.53,-2.21,7.03,-0.06,0.38,0.21,1721200890331
3.79,6.60,17.34,0.02,-0.03,-0.03,1721200890341
-0.31,3.03,5.78,-0.09,-0.23,-0.19,1721200890351
-4.42,-2.26,14.23,-0.07,-0.18,-0.03,1721200890361
-2.29,-0.72,9.37,0.22,0.20,0.29,1721200890371
4.12,-2.81,11.69,-0.20,0.13,0.37,1721200890381
2.50,12.33,13.94,0.15,-0.34,0.15,1721200890391
1.56,4.81,8.56,-0.07,0.16,-0.27,1721200890401
-3.17,-5.41,12.11,-0.02,-0.17,-0.15,1721200890411
-3.61,4.19,7.45,0.10,0.09,0.29,1721200890421
3.78,0.49,14.59,-0.30,0.24,0.20,1721200890431
-0.79,10.66,19.68,0.16,-0.38,-0.11,1721200890441
-2.24,-0.09,-5.87,-0.01,-0.18,-0.09,1721200890451
-3.08,-5.60,12.75,-0.28,0.22,-0.01,1721200890461
-1.40,2.52,10.07,0.22,-0.09,0.40,1721200890471
1.08,3.14,-0.68,-0.11,-0.12,0.34,1721200890481
4.02,-0.67,23.24,-0.11,0.16,-0.01,1721200890491
2.29,-0.01,8.19,0.37,-0.40,0.05,1721200890501
-0.13,-2.30,4.24,-0.24,0.20,-0.10,1721200890511
-0.90,2.29,21.91,0.07,-0.03,-0.04,1721200890521
-3.52,-0.05,1.83,0.07,-0.33,0.21,1721200890531
-1.52,-6.92,6.21,-0.17,0.05,0.26,1721200890541
2.66,-1.80,16.55,-0.07,0.07,0.19,1721200890551
4.15,3.22,15.89,0.12,0.07,0.03,1721200890561
0.91,-3.49,6.12,-0.16,-0.34,-0.08,1721200890571
-2.77,1.18,13.59,0.06,-0.08,0.06,1721200890581
2.48,-3.73,6.15,-0.15,0.02,0.20,1721200890591
0.60,3.72,14.28,-0.08,-0.19,-0.01,1721200890601
0.82,-1.12,7.47,-0.12,-0.09,-0.31,1721200890611
-4.09,-2.86,13.90,-0.31,-0.10,-0.17,1721200890621
-3.49,5.37,13.82,0.30,-0.11,0.08,1721200890631
4.37,0.12,5.91,-0.06,0.34,0.18,1721200890641
3.36,3.36,12.11,0.06,-0.14,-0.05,1721200890651
1.36,-5.08,12.92,-0.10,0.12,-0.23,1721200890661
-2.27,3.20,8.03,0.07,-0.19,-0.22,1721200890671
-1.65,-3.27,7.13,-0.17,-0.06,0.21,1721200890681
0.93,-2.18,12.21,0.01,0.01,-0.03,1721200890691
1.18,4.92,15.93,0.19,0.07,-0.24,1721200890701
1.66,1.23,1.69,0.10,-0.04,0.13,1721200890711
-2.42,3.48,17.39,-0.01,0.18,-0.28,1721200890721
-0.12,0.73,7.21,0.26,-0.06,-0.01,1721200890731
-1.16,2.14,10.16,-0.10,0.03,0.00,1721200890741
1.25,-0.70,12.87,0.20,-0.04,0.05,1721200890751
1.52,1.91,9.10,0.04,0.10,-0.16,1721200890761
-1.19,-0.26,6.93,0.15,-0.18,-0.15,1721200890771
-0.26,-1.24,6.28,0.04,0.24,-0.11,1721200890781
0.75,7.12,7.95,0.21,0.03,0.10,1721200890791
2.31,-1.87,19.76,-0.27,0.22,-0.28,1721200890801
-0.87,5.23,16.20,0.50,-0.35,-0.39,1721200890811
-1.83,-2.04,-5.10,0.02,0.01,-0.27,1721200890821
1.66,-7.36,18.46,-0.47,0.16,-0.19,1721200890831
-4.30,5.42,11.24,0.55,-0.28,0.02,1721200890841
2.55,-0.71,-9.68,-0.32,0.21,0.14,1721200890851
0.17,1.87,17.33,-0.16,-0.12,-0.16,1721200890861
1.54,-1.44,7.30,-0.11,0.19,-0.31,1721200890871
-0.51,3.19,15.09,0.04,-0.21,-0.24,1721200890881
-0.70,-2.90,10.79,-0.13,0.15,-0.53,1721200890891
-4.47,-3.75,15.26,0.02,-0.25,-0.04,1721200890901
-2.64,1.84,-0.97,0.01,0.16,0.23,1721200890911
4.15,7.58,27.54,-0.09,0.66,-0.06,1721200890921
2.01,-0.01,3.20,0.21,-0.46,-0.30,1721200890931
-3.39,-1.43,13.77,-0.39,0.50,-0.44,1721200890941
-6.59,-7.15,22.24,0.10,-0.08,-0.18,1721200890951
-1.11,5.12,9.39,-0.04,0.22,-0.01,1721200890961
0.69,1.14,9.91,-0.09,-0.06,-0.14,1721200890971
-2.51,1.44,11.57,-0.05,-0.16,-0.29,1721200890981
0.18,-1.13,8.04,0.03,0.06,-0.17,1721200890991
1.20,4.00,15.09,0.07,0.09,-0.21,1721200891001
2.00,-2.40,10.19,-0.02,0.07,-0.25,1721200891011
-3.20,2.26,13.37,0.16,-0.03,-0.33,1721200891021
-0.75,4.83,10.29,0.15,0.18,-0.22,1721200891031
-1.79,-2.75,5.11,0.04,-0.26,-0.08,1721200891041
-3.75,3.12,9.25,0.12,0.10,-0.14,1721200891051
3.98,-1.20,8.11,0.03,0.42,-0.33,1721200891061
-1.03,7.35,18.09,0.12,-0.00,-0.28,1721200891071
-2.38,-6.96,4.45,-0.13,-0.07,-0.29,1721200891081
-2.73,-1.46,13.16,0.01,0.15,-0.03,1721200891091
2.90,6.40,8.80,0.24,0.18,-0.17,1721200891101
0.83,1.62,6.38,-0.09,-0.07,-0.22,1721200891111
-1.93,2.60,14.48,0.10,-0.02,-0.39,1721200891121
-1.38,0.83,7.58,0.09,0.17,-0.22,1721200891131
-3.01,-4.60,5.54,-0.21,-0.03,-0.16,1721200891141
-4.08,4.35,15.91,0.08,0.14,-0.13,1721200891151
-0.27,-1.40,7.00,-0.10,-0.07,-0.05,1721200891161
-0.66,0.67,13.05,0.14,-0.12,0.05,1721200891171
0.60,-1.85,5.36,-0.07,0.14,-0.11,1721200891181
-3.25,5.84,12.07,0.02,-0.15,-0.14,1721200891191
-1.62,0.24,11.63,0.14,0.16,0.11,1721200891201
1.58,2.98,4.27,0.05,0.15,0.02,1721200891211
0.97,-3.67,22.92,0.00,0.10,0.12,1721200891226
-1.80,5.26,16.31,0.35,0.09,0.22,1721200891231
3.67,10.75,5.80,0.10,0.16,0.05,1721200891241
1.37,-2.92,19.29,-0.24,0.07,-0.09,1721200891251
-2.68,1.29,10.80,0.38,-0.31,0.05,1721200891261
-1.24,5.08,0.05,-0.05,0.30,0.13,1721200891271
-0.86,-0.57,13.54,-0.14,-0.03,0.13,1721200891281
1.14,0.68,17.02,0.10,-0.01,0.24,1721200891291
4.55,0.62,9.90,0.15,-0.13,0.16,1721200891301
1.83,-2.58,3.23,-0.17,-0.16,-0.06,1721200891311
-4.44,-1.87,13.68,-0.24,-0.12,-0.36,1721200891321
-4.00,1.34,7.72,0.13,-0.09,0.01,1721200891331
0.28,-4.55,2.72,-0.19,0.05,0.33,1721200891341
2.02,-3.98,14.95,-0.10,-0.06,0.21,1721200891351
2.84,1.95,17.32,0.06,0.07,-0.23,1721200891361
3.51,0.26,12.52,0.00,0.01,-0.27,1721200891371
-2.93,0.17,6.18,0.04,-0.28,0.05,1721200891381
0.10,0.73,8.91,-0.07,0.21,0.14,1721200891391
3.89,-1.60,11.57,-0.07,0.06,-0.10,1721200891401
0.75,1.10,7.22,0.10,-0.15,-0.12,1721200891411
-0.73,1.65,12.17,-0.23,0.35,-0.17,1721200891421
-0.13,4.01,20.53,0.24,-0.14,0.08,1721200891431
4.17,3.42,4.96,0.16,0.25,0.13,1721200891441
1.99,-0.62,6.22,-0.06,-0.17,-0.31,1721200891451
-3.06,-4.44,9.10,-0.06,-0.04,-0.23,1721200891461
-3.53,-0.90,7.23,-0.03,0.16,-0.14,1721200891471
0.11,6.12,18.15,-0.01,0.21,0.14,1721200891481
2.06,4.23,14.23,0.24,-0.01,-0.08,1721200891491
1.83,-4.73,-0.14,0.14,0.05,-0.27,1721200891501
-0.91,0.40,14.06,-0.16,0.32,-0.46,1721200891511
-1.45,-1.82,17.68,0.30,0.09,-0.15,1721200891521
-2.19,3.46,3.52,0.20,0.03,0.29,1721200891531
1.46,-0.62,6.66,-0.08,0.10,0.06,1721200891541
3.45,1.62,15.76,0.12,0.29,-0.50,1721200891551
-1.07,-3.25,7.36,0.05,-0.02,-0.67,1721200891561
-7.21,1.56,11.22,0.15,0.05,-0.22,1721200891571
-3.35,0.92,14.25,0.06,0.32,0.29,1721200891581
2.65,2.49,13.26,0.27,0.23,0.18,1721200891591
5.50,-0.88,-0.88,0.07,0.11,-0.34,1721200891601
-3.65,2.75,17.05,-0.13,0.24,-0.52,1721200891611
-5.66,2.26,11.26,0.26,0.05,-0.31,1721200891621
-2.71,-3.90,5.43,-0.11,0.31,0.17,1721200891631
2.71,0.10,16.86,0.02,0.24,0.23,1721200891641
4.03,6.90,12.30,0.11,0.08,-0.25,1721200891651
1.04,5.65,14.43,0.14,0.13,-0.56,1721200891661
-3.48,1.07,6.40,0.07,0.09,-0.42,1721200891671
-3.63,-8.38,5.41,-0.23,0.12,0.19,1721200891681
-1.39,5.79,16.24,0.10,0.37,0.06,1721200891691
3.05,2.71,9.02,-0.09,0.17,-0.17,1721200891701
0.07,3.79,14.99,0.10,-0.03,-0.29,1721200891711
0.37,-0.51,0.43,-0.02,0.15,-0.04,1721200891721
-1.30,-4.70,6.85,-0.32,0.17,-0.09,1721200891731
-0.47,-3.11,15.32,-0.19,0.06,-0.20,1721200891741
-0.37,5.84,17.76,0.17,0.09,-0.33,1721200891751
-0.49,4.62,7.58,0.16,0.18,-0.14,1721200891761
-1.59,-6.35,5.73,-0.32,0.15,-0.12,1721200891771
-3.15,2.62,13.29,0.13,0.08,0.06,1721200891781
3.85,-2.55,6.62,-0.23,0.43,-0.07,1721200891791
-0.33,2.95,19.79,0.10,-0.30,-0.05,1721200891801
-2.13,-3.14,5.24,-0.11,0.05,-0.14,1721200891811
-6.58,-1.36,6.82,-0.07,-0.26,-0.07,1721200891821
0.20,-5.28,9.26,-0.24,0.61,-0.05,1721200891831
1.77,2.99,19.28,0.06,0.21,-0.03,1721200891841
-1.48,4.47,5.03,0.12,-0.17,-0.12,1721200891851
-0.32,-1.69,5.43,-0.13,0.30,0.07,1721200891861
0.86,-2.31,15.57,-0.03,0.10,0.07,1721200891871
-2.15,5.08,10.49,0.10,-0.19,-0.11,1721200891881
-0.80,-1.84,5.34,-0.07,0.23,-0.21,1721200891891
-3.08,-2.95,10.92,-0.07,-0.01,-0.01,1721200891901
-0.82,3.11,18.41,0.13,0.26,0.18,1721200891911
2.60,-4.22,4.81,-0.03,0.02,-0.06,1721200891921
-1.99,4.01,17.31,-0.00,0.14,-0.29,1721200891931
0.29,-0.42,4.37,0.24,-0.19,-0.05,1721200891941
-2.72,-0.02,10.44,-0.10,0.13,0.15,1721200891951
-2.36,-1.58,8.30,0.23,0.08,-0.03,1721200891961
2.32,2.83,16.80,0.05,0.48,-0.12,1721200891971
1.10,2.89,12.24,0.09,-0.33,-0.15,1721200891981
-5.77,-3.72,2.57,-0.03,-0.34,0.01,1721200891991
-2.87,1.11,13.56,0.18,0.63,0.18,1721200892001
3.83,3.13,10.14,0.18,0.11,0.09,1721200892011
-0.62,1.78,7.06,-0.06,-0.40,0.03,1721200892021
-3.28,-0.97,10.78,0.13,-0.09,-0.06,1721200892031
-0.39,0.87,7.75,0.21,0.22,0.16,1721200892041
-0.70,3.23,5.13,0.13,-0.08,0.19,1721200892051
1.97,-7.70,16.48,-0.42,0.11,0.24,1721200892061
0.44,13.13,27.08,0.57,-0.10,0.18,1721200892071
1.66,5.86,-9.76,0.20,-0.16,-0.14,1721200892081
-7.13,2.23,11.32,-0.37,-0.10,-0.10,1721200892091
-8.89,-10.93,21.57,0.02,-0.45,0.35,1721200892101
-1.06,3.45,-2.31,0.09,-0.24,0.27,1721200892111
3.60,0.20,12.67,-0.32,0.19,0.15,1721200892121
2.57,1.46,17.30,0.20,-0.21,0.21,1721200892131
0.13,-1.50,4.94,-0.23,0.01,0.02,1721200892141
-3.28,-1.06,18.64,-0.17,-0.04,-0.11,1721200892151
-4.92,-2.84,7.71,-0.01,-0.29,0.16,1721200892161
-0.73,3.15,15.97,-0.05,0.09,0.47,1721200892171
5.99,-0.07,7.01,0.05,-0.13,0.24,1721200892181
4.47,-3.78,9.32,-0.11,-0.05,-0.24,1721200892191
-0.66,-8.31,4.55,-0.22,-0.22,-0.33,1721200892201
-7.72,2.74,20.49,-0.23,-0.17,-0.15,1721200892211
-4.62,5.71,3.26,0.30,-0.27,0.29,1721200892221
6.08,-4.89,8.52,-0.39,0.40,0.40,1721200892231
6.60,5.93,17.12,0.24,0.03,-0.00,1721200892241
5.20,1.07,5.96,-0.09,0.18,-0.49,1721200892251
-3.88,3.65,14.03,-0.06,-0.07,-0.28,1721200892261
-1.90,-1.48,14.72,0.04,0.22,-0.09,1721200892271
2.83,3.55,12.16,0.26,0.10,0.10,1721200892281
3.76,0.43,6.29,-0.24,0.12,-0.09,1721200892291
-0.52,4.14,15.28,0.13,-0.12,-0.28,1721200892301
1.53,-5.73,4.71,-0.07,0.32,-0.47,1721200892311
-4.28,-3.26,18.83,0.02,-0.03,-0.28,1721200892321
-5.71,9.05,3.84,0.20,0.04,0.07,1721200892331
1.70,3.91,14.57,-0.08,0.51,0.10,1721200892341
4.21,-0.84,10.15,0.24,-0.12,-0.09,1721200892351
3.10,0.67,1.65,0.08,0.23,-0.20,1721200892361
1.66,-4.27,10.48,-0.15,0.21,-0.21,1721200892371
-3.13,-1.08,19.74,0.10,0.08,-0.19,1721200892381
-3.01,8.48,8.99,0.25,0.11,0.12,1721200892391
1.70,-2.40,2.09,-0.20,0.22,0.06,1721200892401
2.27,-5.71,17.61,-0.08,0.22,-0.29,1721200892411
-2.58,6.43,6.55,0.33,-0.00,-0.42,1721200892421
-3.17,-1.99,3.51,-0.12,0.32,-0.14,1721200892431
-0.65,2.20,25.72,0.20,0.29,0.27,1721200892441
3.31,6.99,10.00,0.45,0.13,0.27,1721200892451
4.47,0.09,0.07,-0.15,0.20,-0.23,1721200892461
-2.98,-2.06,11.90,-0.18,-0.18,-0.49,1721200892471
-3.87,-1.76,15.52,-0.02,0.25,-0.33,1721200892481
-4.63,6.60,7.49,0.34,0.04,0.10,1721200892491
0.41,1.32,3.28,-0.14,0.37,0.28,1721200892501
2.02,-3.94,13.43,-0.14,0.04,0.13,1721200892511
2.31,9.63,18.81,0.26,0.32,-0.28,1721200892521
2.43,4.18,6.69,0.11,0.13,-0.41,1721200892531
-5.55,-2.57,1.90,-0.11,-0.13,-0.08,1721200892541
-1.73,-2.97,16.25,-0.16,0.43,0.14,1721200892551
3.42,-1.23,11.99,0.14,-0.17,0.18,1721200892561
1.58,0.97,0.11,-0.14,0.16,-0.17,1721200892571
-0.41,4.42,17.32,-0.06,0.37,-0.59,1721200892581
-4.40,-5.48,6.35,-0.13,0.05,-0.50,1721200892591
-4.77,-4.35,16.58,-0.10,0.32,0.04,1721200892601
0.98,-0.38,9.84,-0.10,0.29,0.02,1721200892611
-0.65,2.94,14.14,-0.09,-0.16,-0.27,1721200892621
-2.87,1.73,5.67,0.13,0.19,-0.35,1721200892631
-0.97,-3.82,4.41,-0.19,0.17,-0.02,1721200892641
-4.02,2.41,11.16,0.02,-0.12,0.20,1721200892651
0.79,4.47,12.34,-0.10,0.52,-0.09,1721200892661
0.99,-1.94,18.86,-0.08,0.16,-0.28,1721200892671
-4.52,0.81,9.13,0.04,-0.23,-0.06,1721200892681
