AccX,AccY,AccZ,GyrX,GyrY,GyrZ,Time
-3.04,3.58,12.44,-0.02,0.02,-0.27,1721200963145
-3.94,2.28,8.76,0.05,-0.22,-0.20,1721200963150
-4.13,2.42,6.97,-0.09,-0.03,-0.10,1721200963160
-1.23,6.12,11.32,0.08,-0.02,0.03,1721200963170
4.75,2.09,8.54,-0.12,0.02,-0.01,1721200963180
3.28,0.70,10.83,-0.05,-0.20,-0.17,1721200963190
0.82,1.94,9.89,-0.00,0.00,-0.32,1721200963200
1.10,4.83,13.53,0.11,0.14,-0.28,1721200963210
3.79,0.79,9.07,-0.06,-0.01,-0.20,1721200963220
2.91,0.69,8.88,-0.06,-0.11,-0.30,1721200963230
2.68,-0.71,13.44,-0.02,0.17,-0.53,1721200963240
0.85,-2.33,12.74,0.10,-0.03,-0.51,1721200963250
-0.89,0.70,4.85,0.06,-0.08,-0.18,1721200963260
3.14,-1.67,10.17,-0.24,0.25,-0.09,1721200963270
3.27,-2.91,19.00,0.05,-0.00,-0.38,1721200963280
-0.03,0.90,5.57,0.22,-0.13,-0.61,1721200963290
1.68,-2.62,5.33,-0.36,0.38,-0.07,1721200963300
3.05,-2.12,21.92,0.09,0.24,-0.20,1721200963310
2.07,1.61,5.65,0.24,-0.01,-0.54,1721200963320
2.83,1.49,2.94,-0.18,0.42,-0.23,1721200963330
4.73,-0.66,17.18,-0.06,0.36,-0.35,1721200963340
4.29,-0.28,8.13,0.06,0.26,-0.84,1721200963350
-4.33,3.18,12.61,-0.04,0.12,-0.83,1721200963360
-4.06,-0.83,6.51,0.03,0.32,-0.30,1721200963370
-0.54,3.11,12.49,-0.04,0.36,-0.26,1721200963380
-0.13,1.79,5.83,0.04,0.03,-0.64,1721200963390
-6.45,9.40,4.48,-0.31,0.04,-0.65,1721200963400
-7.94,2.07,11.41,0.02,0.41,-0.14,1721200963410
0.68,0.20,13.44,0.19,0.52,-0.15,1721200963420
0.79,5.00,14.95,0.20,0.13,-0.53,1721200963430
1.82,-4.11,8.17,-0.17,0.19,-0.32,1721200963440
1.26,-2.24,14.53,0.03,0.19,-0.04,1721200963450
5.55,3.09,4.40,0.04,0.34,-0.35,1721200963460
2.82,3.09,8.70,-0.11,0.14,-0.70,1721200963470
-1.12,-1.77,11.19,0.01,0.20,-0.51,1721200963480
-1.85,1.54,13.13,0.09,0.32,-0.20,1721200963490
0.39,2.25,6.81,0.11,0.20,-0.27,1721200963500
0.33,-1.76,7.95,-0.14,0.25,-0.42,1721200963510
-4.05,0.85,11.63,0.10,-0.10,-0.29,1721200963520
-2.66,-0.84,8.79,-0.10,0.34,-0.11,1721200963530
-0.79,-0.41,12.91,0.18,0.10,-0.02,1721200963540
0.29,1.93,4.15,0.01,0.12,-0.01,1721200963550
1.98,1.83,11.60,-0.19,0.32,-0.03,1721200963560
3.03,1.93,15.91,0.17,0.19,-0.16,1721200963570
5.08,0.32,13.79,0.05,0.36,-0.30,1721200963580
1.57,3.65,-2.30,0.15,-0.19,-0.16,1721200963590
2.15,-1.66,11.12,-0.49,0.76,-0.35,1721200963600
1.33,2.26,24.13,0.39,0.14,-0.48,1721200963610
-2.28,3.77,-4.84,0.24,0.09,-0.28,1721200963620
-2.53,2.64,5.20,-0.25,0.44,-0.08,1721200963630
-1.93,-1.94,10.83,-0.05,-0.06,-0.52,1721200963640
-9.98,0.05,19.95,0.17,-0.01,-0.63,1721200963650
-11.12,-0.40,3.53,0.26,-0.02,0.22,1721200963660
-8.26,-0.21,3.87,-0.26,0.13,0.65,1721200963670
-3.05,-0.41,18.39,0.04,-0.09,0.34,1721200963680
0.67,0.54,13.79,0.22,-0.12,0.13,1721200963690
1.26,2.47,2.43,0.07,-0.25,0.35,1721200963700
3.38,-1.36,8.48,-0.30,0.11,0.09,1721200963710
2.40,0.43,19.00,0.13,-0.22,-0.27,1721200963720
-0.88,1.69,9.11,0.05,-0.22,-0.18,1721200963730
-2.08,1.39,8.35,-0.04,-0.17,0.08,1721200963740
-1.03,-0.57,9.29,-0.01,-0.19,0.01,1721200963750
-2.01,-1.80,10.27,-0.14,-0.08,-0.16,1721200963760
-5.58,-0.52,15.56,0.05,-0.30,0.10,1721200963770
-3.30,-2.48,8.52,-0.01,-0.20,0.54,1721200963780
2.37,-0.97,4.26,-0.02,-0.24,0.66,1721200963790
6.04,-0.46,10.82,-0.25,-0.02,0.29,1721200963800
5.82,1.39,17.50,0.04,-0.27,0.01,1721200963810
4.34,-3.37,5.84,-0.03,-0.35,0.13,1721200963820
1.69,0.83,11.36,-0.03,-0.14,0.21,1721200963830
3.46,0.14,10.25,-0.02,-0.07,-0.05,1721200963840
1.77,-0.33,9.05,-0.04,-0.28,-0.00,1721200963850
1.00,1.17,10.07,0.03,-0.07,0.04,1721200963860
1.00,0.31,8.72,-0.02,-0.04,0.05,1721200963870
-1.62,-2.16,9.13,-0.01,-0.33,0.03,1721200963880
1.13,-0.02,8.65,-0.02,-0.01,0.05,1721200963890
5.15,3.21,14.78,-0.03,0.05,0.10,1721200963900
3.57,2.12,10.22,0.05,-0.20,-0.05,1721200963910
2.98,2.88,10.68,-0.00,0.08,-0.29,1721200963920
3.85,2.98,8.64,0.02,0.05,-0.30,1721200963930
1.52,2.09,7.57,0.01,-0.02,-0.22,1721200963940
0.73,0.72,10.57,-0.11,0.22,-0.32,1721200963950
-0.35,-1.45,12.24,0.07,-0.05,-0.26,1721200963960
0.20,-1.45,5.85,-0.02,0.05,-0.10,1721200963970
3.37,-0.43,12.17,-0.17,0.26,-0.13,1721200963980
3.95,1.21,15.10,0.04,0.07,-0.27,1721200963990
2.80,1.22,7.08,-0.02,0.06,-0.32,1721200964000
5.01,4.06,10.21,-0.16,0.33,-0.32,1721200964010
7.19,6.29,13.98,-0.09,0.30,-0.47,1721200964020
5.60,2.36,6.81,-0.09,0.10,-0.65,1721200964030
2.29,4.25,13.87,-0.12,0.41,-0.83,1721200964040
-1.10,-2.68,3.44,-0.09,0.40,-0.98,1721200964050
-14.79,16.47,18.96,-0.30,0.12,-1.35,1721200964060
-14.88,-21.59,-2.62,-0.54,-0.16,-0.32,1721200964070
-5.77,-5.00,22.03,-0.38,0.37,1.29,1721200964080
18.42,0.48,3.06,0.18,0.47,0.94,1721200964090
21.51,-3.32,2.14,-0.50,0.75,-0.99,1721200964100
8.12,7.63,10.30,-0.25,-0.36,-2.60,1721200964110
-4.50,-3.64,16.53,-0.25,-0.20,-2.73,1721200964120
-21.00,-5.65,12.22,-0.23,0.10,-1.46,1721200964130
-15.95,0.76,7.55,-0.20,0.57,-0.12,1721200964140
0.91,-3.22,10.53,-0.36,0.50,0.15,1721200964150
6.88,4.18,14.19,0.01,0.45,-0.49,1721200964160
9.90,6.70,8.01,0.09,0.41,-1.47,1721200964170
2.53,3.66,10.97,-0.15,0.30,-1.86,1721200964180
-5.51,-2.82,12.48,-0.12,0.31,-1.64,1721200964190
-8.64,-8.11,9.23,0.02,0.25,-0.92,1721200964200
-4.26,-1.32,10.04,0.13,0.48,-0.40,1721200964210
2.95,4.55,10.41,0.30,0.53,-0.67,1721200964220
4.86,1.61,10.84,0.12,0.50,-1.11,1721200964230
-1.74,0.96,12.85,0.18,0.18,-1.32,1721200964240
-6.73,-3.03,10.08,0.19,0.37,-1.13,1721200964250
-6.33,-0.48,12.25,0.23,0.49,-0.61,1721200964260
-2.26,-1.18,8.24,0.22,0.30,-0.28,1721200964270
-1.25,-0.40,7.58,0.28,0.20,-0.37,1721200964280
2.15,-2.62,7.63,0.16,0.61,-0.76,1721200964290
1.54,-1.76,14.85,0.04,0.49,-0.90,1721200964300
-1.36,0.56,10.39,0.21,0.31,-0.81,1721200964310
-4.58,-0.88,4.77,0.19,0.29,-0.73,1721200964320
-4.28,-4.92,10.53,0.06,0.41,-0.53,1721200964330
-1.51,-1.34,13.59,0.26,0.30,-0.31,1721200964340
1.33,-2.79,7.44,0.02,0.48,-0.42,1721200964350
-1.80,-3.68,9.12,0.02,0.22,-0.75,1721200964360
-5.91,0.20,7.39,0.13,0.32,-0.83,1721200964370
-5.13,-1.06,6.80,0.08,0.45,-0.57,1721200964380
-4.00,-3.11,7.71,-0.08,0.37,-0.21,1721200964390
-0.22,1.59,15.97,0.03,0.44,-0.17,1721200964400
0.43,1.53,9.96,0.24,0.21,-0.37,1721200964410
-4.31,-0.19,4.29,-0.03,0.21,-0.58,1721200964420
-3.43,0.32,10.31,0.07,0.43,-0.42,1721200964430
-1.73,-4.24,10.03,-0.02,0.30,-0.05,1721200964440
-2.29,1.13,13.41,0.10,0.20,0.04,1721200964450
0.89,2.12,8.79,0.19,0.36,-0.16,1721200964460
-0.02,2.15,7.49,0.12,0.11,-0.28,1721200964470
-3.58,0.08,13.52,-0.04,0.24,-0.22,1721200964480
-5.84,2.47,13.00,0.19,0.10,0.04,1721200964490
-3.69,0.31,4.74,0.13,0.14,0.26,1721200964500
-0.59,-0.16,10.49,0.00,0.18,0.28,1721200964510
0.07,1.20,10.56,0.15,0.07,0.14,1721200964520
-0.22,-1.39,9.04,-0.00,0.16,-0.05,1721200964530
-2.43,2.86,11.38,0.11,0.09,-0.06,1721200964540
-1.92,0.39,12.39,-0.05,0.24,0.09,1721200964550
-3.03,0.85,11.54,0.09,-0.07,0.23,1721200964560
-2.11,2.08,8.23,-0.02,0.10,0.24,1721200964570
0.32,1.22,14.23,-0.09,0.06,0.24,1721200964580
-2.73,1.19,7.47,0.05,-0.19,0.22,1721200964590
-3.42,3.08,8.15,-0.14,0.15,0.21,1721200964600
-1.33,-0.15,11.85,-0.17,-0.04,0.42,1721200964610
-0.54,1.57,10.80,-0.06,-0.09,0.58,1721200964620
2.89,1.93,8.37,-0.14,0.11,0.46,1721200964630
2.19,0.73,9.32,-0.17,-0.15,0.26,1721200964640
0.58,-0.27,13.52,-0.20,-0.04,0.13,1721200964650
-0.85,-0.72,10.38,0.04,-0.20,0.31,1721200964660
-1.02,-0.33,8.25,-0.13,0.06,0.43,1721200964670
-2.29,-0.83,12.28,-0.17,-0.12,0.36,1721200964680
-2.62,1.42,11.81,-0.03,-0.05,0.40,1721200964690
0.37,-0.50,7.93,-0.20,0.03,0.50,1721200964700
-1.01,-3.76,10.42,-0.22,-0.25,0.58,1721200964710
-0.55,-1.24,10.38,-0.21,-0.03,0.50,1721200964720
1.81,-0.98,10.55,-0.15,-0.19,0.47,1721200964730
0.96,-1.20,7.13,-0.22,-0.22,0.40,1721200964740
-0.86,-3.48,8.09,-0.32,-0.15,0.28,1721200964750
-2.44,-2.03,14.54,-0.29,-0.10,0.31,1721200964760
-3.01,-2.39,7.78,-0.17,-0.28,0.54,1721200964770
-1.86,-0.54,10.72,-0.28,-0.04,0.65,1721200964780
2.16,3.18,14.65,-0.17,-0.13,0.65,1721200964790
3.24,0.75,9.73,-0.11,-0.30,0.62,1721200964800
1.29,2.78,7.77,-0.25,-0.11,0.29,1721200964810
0.19,0.60,13.33,-0.27,-0.24,0.18,1721200964820
-0.01,-3.82,8.34,-0.12,-0.26,0.34,1721200964830
0.52,-1.78,9.50,-0.11,-0.05,0.50,1721200964840
2.81,-0.30,13.41,-0.06,-0.15,0.51,1721200964850
1.16,3.58,11.97,0.09,-0.23,0.22,1721200964860
1.74,2.52,8.96,0.07,-0.09,0.06,1721200964870
-1.13,-0.94,11.59,0.08,-0.28,0.16,1721200964880
0.03,-4.46,8.49,0.12,-0.12,0.39,1721200964890
1.64,1.12,11.73,0.15,-0.01,0.24,1721200964900
2.30,-1.24,9.34,0.11,-0.16,0.15,1721200964910
1.14,2.70,13.86,0.10,-0.00,0.02,1721200964920
1.58,-2.85,9.35,0.12,-0.18,0.10,1721200964930
-0.94,2.13,11.41,0.11,-0.02,0.02,1721200964940
-0.54,2.66,9.67,0.26,-0.16,0.07,1721200964950
1.45,-1.70,7.02,0.19,-0.05,0.16,1721200964960
2.85,-3.84,9.89,0.08,0.02,0.01,1721200964970
0.67,-2.35,11.49,0.17,-0.10,-0.14,1721200964980
-1.68,-1.27,11.03,0.14,-0.06,-0.14,1721200964990
-1.41,2.17,10.58,0.26,-0.09,0.19,1721200965000
2.34,-1.68,5.66,0.01,0.08,0.19,1721200965010
1.88,1.62,16.08,0.02,-0.01,-0.14,1721200965020
1.10,-1.26,11.55,0.16,-0.11,-0.28,1721200965030
-1.97,-1.68,8.33,0.08,-0.08,-0.12,1721200965040
-1.57,3.26,10.97,0.18,0.07,0.02,1721200965050
2.09,-1.35,7.62,0.04,0.07,-0.07,1721200965060
0.50,0.59,13.83,0.15,-0.07,-0.12,1721200965070
0.21,1.27,8.30,0.12,0.08,-0.12,1721200965080
-0.10,0.45,12.07,0.06,0.04,-0.10,1721200965090
0.31,-0.42,7.55,0.12,-0.05,-0.04,1721200965100
1.33,1.22,10.62,0.10,0.10,-0.13,1721200965110
0.91,-0.73,10.49,0.08,0.01,-0.22,1721200965120
-1.81,0.43,9.93,0.13,-0.00,-0.15,1721200965130
-1.08,0.62,8.85,0.08,0.14,-0.10,1721200965140
0.07,1.02,13.38,0.05,0.13,-0.05,1721200965155
-0.16,3.12,13.54,0.14,0.07,-0.06,1721200965159
3.06,-2.10,5.94,-0.07,0.10,-0.03,1721200965169
1.46,4.39,16.09,0.05,0.09,-0.20,1721200965179
2.36,1.25,4.47,0.06,0.10,-0.37,1721200965189
-2.04,-2.40,10.07,-0.22,0.08,-0.40,1721200965199
-4.76,-0.02,9.43,0.03,-0.01,-0.23,1721200965209
-1.84,-0.11,11.97,-0.24,0.31,-0.10,1721200965219
-1.06,-0.36,9.31,-0.03,-0.15,0.02,1721200965229
0.21,-1.00,9.94,-0.29,0.22,-0.14,1721200965239
1.07,3.27,13.68,-0.05,0.04,-0.19,1721200965249
0.71,-1.58,6.66,-0.26,0.02,-0.16,1721200965259
-0.76,1.83,11.76,-0.14,0.07,-0.17,1721200965269
0.62,-0.73,9.89,-0.26,0.10,-0.24,1721200965279
-0.90,-0.24,12.24,-0.20,-0.03,-0.13,1721200965289
-0.55,-4.13,9.05,-0.33,0.07,-0.12,1721200965299
-0.77,3.96,12.79,-0.11,0.07,-0.12,1721200965309
0.68,-4.35,5.21,-0.34,0.04,-0.14,1721200965319
-2.53,2.28,13.90,-0.19,-0.02,-0.24,1721200965329
0.73,2.47,8.06,0.00,0.11,-0.16,1721200965339
0.25,-4.03,9.34,-0.29,0.03,-0.05,1721200965349
-1.27,1.79,11.27,-0.04,0.08,-0.13,1721200965359
0.24,0.35,11.81,-0.18,0.17,-0.20,1721200965369
-0.98,0.46,10.17,-0.01,-0.12,-0.10,1721200965379
-1.05,-0.18,6.49,-0.04,0.15,-0.08,1721200965389
0.52,0.93,14.28,-0.03,0.09,-0.08,1721200965399
-0.47,0.24,9.09,0.03,-0.02,-0.14,1721200965409
-1.85,2.15,12.81,-0.03,0.13,-0.17,1721200965419
-2.29,-0.31,9.93,0.05,-0.06,-0.10,1721200965429
-2.83,-0.48,7.37,0.06,0.02,0.02,1721200965439
0.42,0.65,13.04,0.10,0.06,0.10,1721200965449
0.71,2.48,11.88,0.18,-0.00,0.04,1721200965459
-0.63,-0.77,5.54,0.11,-0.00,-0.11,1721200965469
-0.94,-1.85,13.50,0.04,0.03,-0.06,1721200965479
-1.72,1.30,12.37,0.14,0.02,-0.05,1721200965489
-3.13,0.91,8.24,0.15,-0.11,0.04,1721200965499
-1.07,-1.32,11.27,0.06,0.03,0.16,1721200965509
-0.36,1.03,11.41,0.16,-0.04,0.09,1721200965519
0.29,-0.45,10.02,0.10,-0.03,-0.02,1721200965529
-1.19,-2.92,9.53,0.07,-0.15,0.02,1721200965539
-2.57,-3.53,8.79,0.05,-0.12,0.08,1721200965549
-0.39,1.92,12.76,0.12,-0.02,0.12,1721200965559
-0.07,-0.61,7.69,0.06,-0.24,0.11,1721200965569
-0.27,-0.79,8.53,-0.02,-0.07,0.10,1721200965579
1.60,0.19,12.32,0.01,0.01,0.02,1721200965589
-0.53,-0.77,10.06,-0.01,-0.18,0.03,1721200965599
-1.02,0.12,9.43,0.02,-0.08,0.13,1721200965609
0.80,0.76,12.99,0.01,0.00,0.13,1721200965619
-0.86,3.96,10.19,0.19,-0.31,0.03,1721200965629
1.26,0.49,10.88,0.01,-0.02,0.02,1721200965639
-1.36,0.77,8.17,0.17,-0.33,0.02,1721200965649
-1.22,0.18,8.51,-0.02,0.03,-0.01,1721200965659
0.21,4.38,15.35,0.15,-0.06,-0.10,1721200965669
-0.90,-1.57,5.65,0.09,-0.33,-0.05,1721200965679
-2.04,1.26,11.53,0.03,-0.09,-0.01,1721200965689
1.06,2.85,12.19,0.24,-0.11,-0.07,1721200965699
0.97,1.13,9.93,0.04,-0.12,-0.09,1721200965709
-0.63,2.64,10.53,0.17,-0.29,-0.15,1721200965719
-0.22,0.72,8.12,0.09,-0.10,-0.12,1721200965729
-0.68,-0.09,11.61,-0.05,-0.13,-0.15,1721200965739
-1.27,2.59,11.29,0.11,-0.18,-0.20,1721200965749
-0.65,-1.26,6.30,-0.02,-0.16,-0.08,1721200965759
-0.39,0.36,13.01,-0.05,-0.10,-0.03,1721200965769
0.64,2.13,6.13,0.15,-0.27,-0.05,1721200965779
0.99,-1.65,7.47,-0.23,-0.02,-0.19,1721200965789
-0.59,1.34,14.06,-0.00,-0.26,-0.24,1721200965799
-0.12,-1.62,8.49,-0.13,-0.10,-0.18,1721200965809
-1.30,0.35,14.43,-0.09,-0.20,-0.13,1721200965819
-0.35,-1.47,7.35,-0.04,-0.20,-0.09,1721200965829
0.45,-1.23,10.50,-0.24,0.01,-0.11,1721200965839
0.87,-2.30,10.21,-0.14,-0.19,-0.18,1721200965849
1.12,-0.07,12.51,-0.17,0.00,-0.21,1721200965859
-0.30,-2.32,3.81,-0.15,-0.32,-0.24,1721200965869
-0.85,-1.06,13.70,-0.42,0.11,-0.36,1721200965879
-0.22,3.94,12.97,0.03,-0.31,-0.32,1721200965889
-1.42,-10.51,1.90,-0.43,-0.14,-0.33,1721200965899
-2.77,-1.07,18.39,-0.27,-0.04,-0.21,1721200965909
0.04,1.06,7.62,-0.07,-0.08,-0.12,1721200965919
-0.78,-0.23,10.33,-0.33,-0.11,-0.25,1721200965929
-0.20,0.01,11.99,-0.17,-0.16,-0.19,1721200965939
1.20,-0.66,10.26,-0.25,-0.04,-0.26,1721200965949
0.73,2.61,11.87,-0.16,-0.14,-0.37,1721200965959
-0.36,-2.76,9.78,-0.18,-0.13,-0.53,1721200965969
-0.28,4.33,12.28,-0.01,-0.02,-0.50,1721200965979
-0.62,-4.33,6.76,-0.05,-0.11,-0.40,1721200965989
1.19,-0.92,14.47,-0.06,0.15,-0.21,1721200965999
1.42,-0.99,9.39,0.02,-0.10,-0.27,1721200966009
0.77,0.82,12.02,-0.11,0.11,-0.45,1721200966019
0.30,3.18,12.86,0.17,-0.14,-0.59,1721200966029
0.77,-2.05,7.47,0.04,0.08,-0.57,1721200966039
-0.79,-0.09,12.20,0.14,-0.00,-0.42,1721200966049
0.95,0.55,10.02,0.23,0.17,-0.40,1721200966059
-0.19,-2.52,10.26,0.19,0.02,-0.47,1721200966069
0.82,1.70,13.31,0.19,0.22,-0.52,1721200966079
1.72,4.01,13.18,0.26,0.06,-0.51,1721200966089
-0.18,-1.49,5.55,0.28,0.01,-0.44,1721200966099
0.42,-5.67,7.20,0.02,0.25,-0.54,1721200966109
0.16,1.23,17.05,0.21,0.15,-0.57,1721200966119
-0.21,-1.84,5.15,0.28,-0.02,-0.45,1721200966129
0.12,-4.77,10.81,-0.04,0.34,-0.54,1721200966139
-0.60,4.45,15.57,0.35,0.05,-0.47,1721200966149
0.16,-2.48,6.23,0.06,0.26,-0.41,1721200966159
-0.71,1.51,14.19,0.14,0.19,-0.38,1721200966169
0.55,-0.39,7.38,0.07,0.22,-0.42,1721200966179
-0.97,-0.98,10.35,-0.00,0.16,-0.50,1721200966189
-0.56,0.97,11.32,0.19,0.17,-0.48,1721200966199
-0.67,0.02,8.09,0.07,0.28,-0.54,1721200966209
-2.21,-1.18,11.09,0.05,0.20,-0.39,1721200966219
-1.92,2.56,11.37,0.17,0.19,-0.25,1721200966229
0.42,-0.66,7.64,0.02,0.21,-0.26,1721200966239
0.59,0.21,12.27,0.02,0.22,-0.37,1721200966249
0.82,1.16,7.81,0.11,0.21,-0.40,1721200966259
-0.27,0.93,11.25,-0.03,0.27,-0.42,1721200966269
-2.26,2.16,12.38,0.09,0.14,-0.40,1721200966279
-2.21,1.44,8.23,-0.00,0.20,-0.29,1721200966289
-0.87,2.38,10.55,-0.01,0.21,-0.15,1721200966299
0.92,0.63,8.18,-0.08,0.24,-0.21,1721200966309
0.20,-0.69,10.51,-0.13,0.15,-0.43,1721200966319
-1.41,-0.43,9.94,0.01,0.12,-0.40,1721200966329
-1.95,-1.48,8.92,-0.12,0.27,-0.26,1721200966339
-1.13,3.50,15.22,-0.05,0.22,-0.18,1721200966349
2.34,0.85,9.47,-0.02,0.14,-0.09,1721200966359
2.30,-1.71,6.93,-0.09,0.14,-0.24,1721200966369
1.88,1.92,11.72,-0.06,0.37,-0.50,1721200966379
-0.89,-3.57,8.80,-0.21,0.14,-0.56,1721200966389
-5.03,-0.70,13.46,-0.15,0.18,-0.44,1721200966399
-3.22,-2.19,8.45,-0.05,0.21,-0.18,1721200966409
-0.54,-1.68,9.75,-0.17,0.33,-0.06,1721200966419
0.96,0.30,11.70,-0.04,0.15,-0.16,1721200966429
2.43,0.56,9.37,-0.05,0.27,-0.32,1721200966439
-0.84,-4.70,8.64,-0.14,0.08,-0.37,1721200966449
-3.31,2.18,11.69,-0.08,0.28,-0.35,1721200966459
-2.01,-3.70,7.16,-0.11,0.18,-0.18,1721200966469
-1.02,-0.78,13.87,-0.22,0.33,-0.15,1721200966479
0.12,0.42,9.67,-0.03,0.06,-0.20,1721200966489
1.44,1.87,8.53,-0.15,0.46,-0.34,1721200966499
-0.01,1.60,11.49,-0.01,0.06,-0.35,1721200966509
-3.01,-0.41,10.38,-0.07,0.18,-0.25,1721200966519
-2.57,0.91,12.22,0.02,0.20,-0.19,1721200966529
-1.93,0.76,10.09,-0.03,0.17,-0.07,1721200966539
-1.32,0.73,11.94,0.06,0.18,-0.13,1721200966549
-1.04,3.76,10.90,0.15,0.08,-0.17,1721200966559
-0.50,-2.72,7.92,0.07,0.10,-0.12,1721200966569
-0.77,-1.13,11.05,0.05,0.27,-0.08,1721200966579
0.10,0.86,12.55,0.12,0.23,-0.23,1721200966589
-0.80,2.61,11.30,0.18,0.11,-0.23,1721200966599
-1.46,-1.42,9.86,0.06,0.25,-0.26,1721200966609
-2.62,2.80,13.37,0.26,0.18,-0.16,1721200966619
-1.21,-1.66,7.33,0.16,0.20,-0.07,1721200966629
-0.20,-2.63,10.73,0.09,0.02,-0.06,1721200966639
-0.84,-1.65,7.21,0.23,0.07,-0.23,1721200966649
-1.02,-3.13,8.38,0.03,0.28,-0.33,1721200966659
-2.26,0.56,14.14,0.12,0.17,-0.22,1721200966669
-1.98,2.03,7.50,0.21,0.20,-0.08,1721200966679
-0.04,0.50,13.09,-0.01,0.34,-0.11,1721200966689
-1.11,5.54,14.40,0.25,0.06,-0.13,1721200966699
-1.15,-0.79,5.28,0.03,0.11,-0.23,1721200966709
-2.51,2.98,13.15,0.10,0.04,-0.25,1721200966719
-3.61,-0.63,4.73,0.21,-0.16,-0.09,1721200966729
-3.77,-0.09,10.23,0.02,0.24,0.00,1721200966739
-0.89,1.23,11.65,0.21,-0.00,0.10,1721200966749
-0.07,-1.11,9.07,0.04,0.11,0.07,1721200966759
0.18,-1.49,9.73,0.07,0.01,0.00,1721200966769
0.19,5.50,14.27,0.21,0.18,-0.07,1721200966779
0.88,1.76,5.93,0.20,-0.11,0.11,1721200966789
-0.80,-1.22,10.38,0.00,0.09,0.17,1721200966799
0.63,2.84,8.81,0.23,-0.04,0.17,1721200966809
1.56,-0.43,9.81,-0.16,0.19,0.01,1721200966819
-1.84,5.32,14.73,0.15,-0.20,-0.02,1721200966829
-2.75,-2.01,5.46,-0.10,0.07,0.14,1721200966839
-2.99,-0.58,16.35,-0.07,-0.01,0.35,1721200966849
-1.14,2.16,8.49,0.14,-0.13,0.46,1721200966859
2.18,-0.85,9.70,-0.22,0.07,0.35,1721200966869
2.13,0.57,11.93,0.02,-0.14,0.26,1721200966879
2.06,-1.02,6.32,-0.15,0.06,0.03,1721200966889
-0.25,-0.73,11.67,-0.14,-0.08,-0.09,1721200966899
-3.39,-2.57,7.15,-0.17,-0.05,0.05,1721200966909
-3.71,-1.62,11.20,-0.23,-0.01,0.27,1721200966919
-1.93,-2.64,10.78,-0.25,-0.06,0.42,1721200966929
-0.67,1.77,12.25,-0.15,0.01,0.41,1721200966939
0.86,-3.28,5.87,-0.28,-0.13,0.23,1721200966949
-1.48,-2.57,14.00,-0.36,-0.10,0.14,1721200966959
-2.48,4.98,9.12,-0.07,-0.16,0.21,1721200966969
1.06,1.46,9.10,-0.34,0.05,0.17,1721200966979
1.89,-1.73,11.30,-0.06,-0.32,0.20,1721200966989
1.36,-2.43,9.56,-0.28,0.08,0.05,1721200966999
-1.16,4.58,15.56,-0.05,-0.25,0.17,1721200967009
-1.44,-5.86,1.98,-0.12,-0.13,0.28,1721200967019
-0.35,-1.69,13.95,-0.17,0.07,0.31,1721200967029
1.40,5.09,8.98,0.13,-0.11,0.30,1721200967039
-0.05,3.60,15.30,-0.18,-0.00,-0.01,1721200967049
-2.03,13.06,20.35,0.09,-0.24,0.06,1721200967059
0.87,-8.54,1.75,0.20,-0.52,0.62,1721200967069
4.99,-8.39,5.04,-0.01,-0.02,0.92,1721200967079
10.02,5.20,12.05,0.20,0.30,0.19,1721200967089
4.49,1.48,11.35,0.21,-0.41,-0.55,1721200967099
-2.63,2.74,11.74,0.18,-0.09,-0.98,1721200967109
-9.26,-6.19,8.88,0.11,-0.18,-0.48,1721200967119
-9.30,1.00,15.97,-0.02,0.05,0.70,1721200967129
4.35,-1.13,9.49,0.22,0.14,1.19,1721200967139
9.53,-0.07,5.06,0.09,0.05,0.45,1721200967149
4.95,3.51,15.45,0.11,-0.06,-0.68,1721200967164
1.40,4.34,14.91,0.11,-0.19,-0.76,1721200967168
-3.76,1.52,10.42,0.20,-0.05,-0.56,1721200967178
-4.19,-3.08,8.15,0.14,0.11,0.03,1721200967188
-1.73,-2.79,11.75,0.17,0.15,0.36,1721200967198
2.21,1.33,9.48,0.25,0.01,0.36,1721200967208
4.86,1.82,11.93,-0.01,0.15,-0.09,1721200967218
1.73,3.22,10.06,0.26,-0.23,-0.39,1721200967228
-0.29,-5.48,7.15,0.01,0.28,-0.35,1721200967238
-4.48,2.79,14.34,0.26,-0.04,-0.19,1721200967248
-1.71,1.62,9.43,0.16,0.18,0.23,1721200967258
2.06,0.04,10.42,0.13,0.07,0.28,1721200967268
4.47,-0.44,10.40,0.09,0.12,-0.13,1721200967278
1.72,2.94,9.14,0.18,-0.02,-0.37,1721200967288
-1.63,2.11,7.63,0.08,0.07,-0.29,1721200967298
-2.77,1.01,11.39,0.06,0.05,-0.06,1721200967308
-1.03,-1.55,9.78,0.00,0.09,0.03,1721200967318
0.53,4.13,13.13,0.09,0.07,-0.03,1721200967328
2.23,-0.21,7.49,-0.04,0.06,-0.15,1721200967338
-1.52,2.70,14.09,0.02,0.00,-0.32,1721200967348
-1.96,0.11,5.85,-0.01,-0.03,-0.10,1721200967358
-0.63,-0.30,9.39,-0.12,0.16,-0.05,1721200967368
1.68,-1.86,9.03,-0.14,0.09,-0.11,1721200967378
-0.64,0.36,11.85,-0.09,-0.04,-0.22,1721200967388
-2.21,-0.79,5.69,-0.11,0.04,-0.28,1721200967398
-2.69,0.88,13.76,-0.22,0.13,-0.13,1721200967408
-1.34,0.03,7.15,-0.10,-0.09,0.04,1721200967418
1.38,-3.05,12.49,-0.32,0.17,-0.03,1721200967428
1.44,1.89,13.93,-0.02,0.04,-0.25,1721200967438
-0.74,-2.97,9.16,-0.29,-0.02,-0.35,1721200967448
-4.33,-2.83,9.76,-0.20,-0.23,-0.01,1721200967458
-1.58,-3.34,10.38,-0.20,0.18,0.03,1721200967468
0.79,0.62,9.68,-0.12,-0.11,0.04,1721200967478
-0.02,-2.41,8.12,-0.29,0.03,-0.22,1721200967488
-2.55,-0.40,9.02,-0.12,-0.03,-0.26,1721200967498
-1.48,-3.33,10.71,-0.32,0.27,-0.19,1721200967508
-0.80,3.40,15.50,-0.06,-0.09,-0.01,1721200967518
0.91,2.17,7.11,0.01,-0.02,0.08,1721200967528
0.66,0.05,12.85,-0.15,0.05,-0.22,1721200967538
-0.92,1.46,13.19,0.07,-0.10,-0.24,1721200967548
-3.23,1.71,8.09,0.06,0.02,-0.13,1721200967558
-2.40,-3.22,10.66,-0.11,0.04,-0.17,1721200967568
-1.87,2.05,16.13,0.07,-0.01,-0.08,1721200967578
-0.82,-0.22,4.89,0.22,-0.12,-0.08,1721200967588
1.81,-3.27,10.98,-0.09,0.18,-0.17,1721200967598
0.34,1.29,13.49,0.24,-0.27,-0.24,1721200967608
-1.72,0.94,7.14,0.14,0.11,-0.29,1721200967618
-1.90,0.15,12.51,0.13,-0.03,-0.06,1721200967628
-0.26,1.44,11.22,0.16,-0.07,0.07,1721200967638
1.70,-0.19,8.42,0.16,-0.02,-0.09,1721200967648
2.13,-0.76,10.99,0.03,0.13,-0.39,1721200967658
-1.04,3.12,8.55,0.23,-0.18,-0.50,1721200967668
-3.36,-1.81,7.26,0.11,0.03,-0.30,1721200967678
-1.26,2.33,13.11,0.20,0.10,-0.06,1721200967688
1.55,-0.96,8.08,0.17,-0.01,-0.09,1721200967698
-0.30,0.29,9.42,0.13,-0.04,-0.30,1721200967708
-1.05,0.59,12.77,0.13,0.05,-0.30,1721200967718
-1.77,3.73,10.32,0.28,-0.06,-0.16,1721200967728
-0.44,-1.33,6.91,0.10,0.05,-0.13,1721200967738
1.47,-0.57,15.05,0.10,0.04,-0.19,1721200967748
1.03,0.48,7.61,0.20,-0.08,-0.34,1721200967758
-0.98,1.84,11.03,0.03,0.16,-0.37,1721200967768
-2.28,4.77,12.89,0.22,0.04,-0.30,1721200967778
-1.38,0.60,6.09,0.09,0.01,-0.09,1721200967788
-0.45,-0.92,9.71,-0.03,0.02,-0.03,1721200967798
0.68,0.44,12.32,-0.02,0.07,-0.17,1721200967808
-1.66,3.88,8.17,0.09,-0.17,-0.30,1721200967818
-1.49,-2.98,7.27,-0.18,0.00,-0.15,1721200967828
-1.63,0.22,12.67,0.01,0.06,0.01,1721200967838
-0.25,-3.09,6.33,-0.18,0.09,-0.08,1721200967848
-1.52,0.84,16.59,-0.14,0.01,-0.16,1721200967858
-1.30,0.70,5.51,0.09,-0.04,0.04,1721200967868
0.39,0.78,9.35,-0.28,0.21,0.03,1721200967878
1.07,-0.24,9.95,-0.08,-0.20,-0.11,1721200967888
2.64,-3.82,11.62,-0.33,0.20,-0.16,1721200967898
-2.19,-2.49,10.47,-0.25,-0.11,-0.33,1721200967908
-5.38,-0.88,8.69,-0.22,-0.03,-0.12,1721200967918
-3.20,-4.28,5.97,-0.21,0.01,0.16,1721200967928
0.12,0.93,15.05,-0.23,0.20,0.14,1721200967938
1.65,2.69,9.04,0.01,-0.17,0.02,1721200967948
2.20,-5.65,9.13,-0.48,0.19,-0.20,1721200967958
-1.89,4.30,15.65,-0.06,-0.18,-0.11,1721200967968
-3.05,-4.09,3.94,-0.16,-0.03,0.03,1721200967978
-1.24,2.20,10.98,-0.14,0.10,0.10,1721200967988
2.04,1.18,11.70,-0.04,-0.09,-0.08,1721200967998
2.16,3.56,14.13,0.01,-0.02,-0.13,1721200968008
1.89,-4.90,10.82,-0.04,0.02,-0.16,1721200968018
-2.32,1.44,12.44,-0.02,0.02,-0.20,1721200968028
-1.53,-2.66,7.76,0.05,0.02,0.02,1721200968038
-0.96,2.28,13.18,0.15,0.05,0.02,1721200968048
1.38,-3.19,6.80,0.17,-0.04,0.09,1721200968058
-0.20,5.21,16.02,0.11,0.10,-0.11,1721200968068
1.43,3.73,10.69,0.28,-0.07,0.07,1721200968078
1.80,-3.31,8.08,0.05,0.12,0.06,1721200968088
0.45,-3.13,10.04,0.19,-0.03,-0.14,1721200968098
-0.40,-1.99,8.98,0.17,0.09,-0.10,1721200968108
-1.02,4.24,11.43,0.23,-0.01,0.05,1721200968118
2.07,2.85,9.76,0.28,0.08,0.02,1721200968128
2.96,-2.32,10.44,0.18,0.11,-0.09,1721200968138
0.13,1.34,13.14,0.24,0.06,-0.04,1721200968148
-0.76,0.40,6.75,0.27,0.02,0.02,1721200968158
0.96,-2.49,11.70,0.10,0.16,0.06,1721200968168
1.08,2.08,10.95,0.34,-0.07,0.06,1721200968178
2.08,3.16,6.80,0.32,0.20,-0.14,1721200968188
1.16,0.06,10.61,0.20,0.09,-0.27,1721200968198
-1.19,-1.16,10.67,0.20,0.05,-0.12,1721200968208
-2.04,-1.46,5.67,0.16,0.10,-0.05,1721200968218
-1.58,0.33,11.04,-0.01,0.17,-0.02,1721200968228
0.63,-0.96,12.97,0.08,0.02,0.07,1721200968238
0.47,1.53,9.05,0.15,0.05,0.03,1721200968248
1.81,-0.26,11.93,-0.02,0.18,-0.02,1721200968258
1.42,2.68,9.15,0.10,-0.01,-0.14,1721200968268
0.60,3.47,9.57,-0.01,0.18,-0.26,1721200968278
-0.64,-4.30,10.62,-0.11,-0.02,-0.15,1721200968288
-2.26,2.68,13.33,0.10,0.08,-0.08,1721200968298
1.85,-6.37,3.58,-0.26,0.13,-0.08,1721200968308
-1.36,4.97,19.40,-0.08,0.03,-0.09,1721200968318
0.96,0.97,1.90,0.07,0.05,-0.17,1721200968328
0.82,-3.75,11.54,-0.37,0.24,-0.23,1721200968338
-0.29,1.26,13.98,0.04,0.04,-0.25,1721200968348
-0.72,-3.25,8.08,-0.31,0.16,-0.23,1721200968358
-2.79,1.82,13.42,-0.05,-0.01,0.02,1721200968368
0.03,-0.48,7.69,-0.19,0.26,-0.02,1721200968378
1.25,-3.55,10.01,-0.20,0.03,-0.09,1721200968388
1.64,2.03,12.39,-0.06,0.26,-0.20,1721200968398
1.05,-2.09,4.23,-0.14,0.02,-0.33,1721200968408
-3.13,2.07,11.70,-0.09,0.15,-0.24,1721200968418
-0.31,2.78,12.21,-0.01,0.23,-0.14,1721200968428
-1.39,1.13,9.29,-0.02,-0.03,-0.15,1721200968438
-1.47,-0.59,8.66,-0.03,0.10,-0.16,1721200968448
0.82,-3.50,15.45,-0.26,0.22,-0.18,1721200968458
-2.53,4.14,8.34,0.10,-0.09,-0.16,1721200968468
-0.69,-2.98,8.71,-0.20,0.47,-0.14,1721200968478
-2.12,5.37,17.32,0.24,-0.05,-0.08,1721200968488
0.10,-1.27,3.12,0.17,0.09,-0.07,1721200968498
1.80,1.82,17.97,0.02,0.26,-0.07,1721200968508
-0.89,1.03,6.57,0.35,-0.31,-0.11,1721200968518
-2.84,-5.55,7.45,-0.23,0.34,-0.17,1721200968528
-3.40,2.96,15.33,0.24,-0.14,-0.24,1721200968538
-0.94,-4.48,4.46,-0.04,0.27,-0.18,1721200968548
-0.62,1.82,19.14,0.03,0.24,-0.13,1721200968558
-0.30,0.79,7.88,0.23,-0.15,-0.11,1721200968568
-0.34,0.08,9.23,0.05,0.28,-0.04,1721200968578
0.33,3.62,11.85,0.29,0.08,-0.06,1721200968588
-0.40,-1.48,7.85,-0.01,0.05,-0.10,1721200968598
-0.62,2.88,16.15,0.17,0.08,-0.12,1721200968608
-1.61,-2.84,7.43,0.07,-0.03,-0.16,1721200968618
-4.20,4.70,9.45,0.17,-0.01,-0.20,1721200968628
1.72,-3.49,10.28,0.06,0.25,-0.04,1721200968638
-1.15,0.34,12.18,0.18,-0.14,0.02,1721200968648
-1.34,3.26,6.67,0.22,0.09,-0.13,1721200968658
0.26,0.05,12.64,0.05,0.09,-0.11,1721200968668
-2.09,1.01,10.66,0.19,-0.18,-0.01,1721200968678
0.46,2.15,9.63,0.09,0.28,-0.02,1721200968688
0.66,2.15,11.45,0.18,-0.00,0.02,1721200968698
-0.45,-0.05,8.40,0.05,0.06,0.03,1721200968708
0.40,2.17,12.16,0.17,-0.02,0.02,1721200968718
-0.26,2.07,6.53,0.07,-0.04,-0.11,1721200968728
-1.58,0.11,11.33,-0.05,-0.16,-0.04,1721200968738
-3.51,-0.48,6.59,0.02,-0.12,0.07,1721200968748
-2.27,-2.50,10.24,-0.20,0.04,0.04,1721200968758
-1.36,-2.55,10.97,-0.03,-0.11,0.14,1721200968768
-1.25,3.86,12.12,-0.12,0.16,0.11,1721200968778
-0.83,-3.09,6.96,-0.13,-0.19,0.19,1721200968788
-2.18,-0.10,14.51,-0.26,0.16,0.12,1721200968798
-0.02,-3.49,9.42,-0.19,-0.15,0.08,1721200968808
0.31,1.92,11.24,-0.11,-0.08,0.09,1721200968818
1.01,-2.37,9.85,-0.18,-0.04,0.15,1721200968828
-3.14,-0.55,10.60,-0.17,-0.13,0.08,1721200968838
-3.10,-2.98,8.28,-0.25,-0.01,-0.05,1721200968848
-2.65,-3.98,13.59,-0.30,-0.14,0.02,1721200968858
0.24,0.93,8.95,-0.05,-0.08,0.34,1721200968868
1.52,0.13,10.08,-0.20,0.08,0.29,1721200968878
-1.00,3.58,13.64,-0.05,-0.23,0.11,1721200968888
1.17,-1.54,7.99,-0.10,-0.01,-0.07,1721200968898
0.73,-0.35,12.28,-0.12,-0.10,0.01,1721200968908
-0.55,1.10,10.31,0.03,-0.10,0.09,1721200968918
0.11,1.01,8.69,-0.02,-0.04,0.06,1721200968928
2.28,-0.15,13.68,0.01,-0.02,0.05,1721200968938
3.82,-1.60,6.44,0.11,-0.07,-0.06,1721200968948
0.52,-4.24,10.60,-0.12,0.00,-0.19,1721200968958
-2.31,2.51,13.28,0.20,-0.09,-0.06,1721200968968
-1.06,1.36,7.83,0.01,0.12,-0.08,1721200968978
0.93,0.78,16.22,0.04,-0.05,0.12,1721200968988
2.51,1.15,9.30,0.17,-0.01,0.13,1721200968998
2.36,-2.21,8.44,0.04,0.12,-0.12,1721200969008
-0.40,4.94,14.51,0.20,-0.06,-0.31,1721200969018
1.06,-3.76,6.49,0.11,0.06,-0.08,1721200969028
-0.03,1.15,12.20,0.16,0.13,0.05,1721200969038
1.29,-0.13,8.94,0.14,0.11,0.02,1721200969048
1.91,2.31,13.75,0.13,0.12,-0.03,1721200969058
3.48,0.82,8.35,0.22,0.12,-0.14,1721200969068
1.50,1.23,10.52,0.15,0.18,-0.29,1721200969078
-0.59,0.23,12.45,0.23,0.15,-0.36,1721200969088
-2.28,2.13,6.22,0.30,0.09,-0.21,1721200969098
-0.57,-0.29,10.08,0.11,0.32,-0.09,1721200969108
0.12,2.35,8.70,0.26,0.10,-0.13,1721200969118
0.30,-0.58,9.85,0.01,0.31,-0.35,1721200969128
-0.60,2.64,13.67,0.15,0.19,-0.37,1721200969138
-1.04,1.03,8.50,0.05,0.18,-0.20,1721200969148
-0.66,2.82,11.47,0.07,0.25,-0.19,1721200969158
1.54,-1.31,7.46,-0.10,0.29,-0.33,1721200969173
0.32,1.55,12.28,-0.05,0.32,-0.42,1721200969177
-1.24,-0.69,7.90,0.06,0.02,-0.35,1721200969187
-1.73,1.06,13.84,-0.13,0.40,-0.20,1721200969197
-0.89,2.46,9.97,0.13,0.10,-0.25,1721200969207
-0.31,-3.05,6.97,-0.22,0.27,-0.30,1721200969217
-0.88,0.48,13.25,0.05,0.14,-0.23,1721200969227
-0.95,-3.41,5.43,-0.11,0.21,-0.13,1721200969237
-2.95,2.27,13.75,-0.06,0.23,-0.23,1721200969247
-0.02,-1.95,9.25,-0.05,0.23,-0.12,1721200969257
-0.33,-1.98,9.98,-0.15,0.22,-0.03,1721200969267
1.67,0.70,15.29,-0.06,0.38,-0.07,1721200969277
-0.80,0.95,6.84,0.06,0.04,-0.16,1721200969287
-1.91,-1.72,9.85,-0.20,0.36,-0.27,1721200969297
-1.93,0.11,10.82,0.09,-0.02,-0.11,1721200969307
0.43,-0.66,9.83,-0.14,0.43,0.05,1721200969317
-0.12,-0.14,13.45,0.02,0.03,-0.00,1721200969327
-2.11,0.04,7.28,-0.04,0.22,-0.18,1721200969337
-1.79,-2.74,12.09,-0.13,0.21,-0.08,1721200969347
-1.18,3.25,12.90,0.12,0.11,0.04,1721200969357
-1.28,-0.55,9.85,-0.07,0.26,0.05,1721200969367
-3.34,1.32,13.11,0.10,0.13,-0.05,1721200969377
-2.16,-1.30,7.34,-0.01,0.08,0.04,1721200969387
0.14,0.24,14.71,0.07,0.13,0.18,1721200969397
-1.23,-1.94,6.70,0.15,0.00,0.16,1721200969407
-3.77,-0.70,9.05,-0.12,0.20,0.01,1721200969417
-1.91,1.11,12.67,0.18,-0.02,0.02,1721200969427
-0.22,-3.36,9.01,-0.09,0.19,0.20,1721200969437
-1.47,-0.82,12.72,0.07,0.12,0.28,1721200969447
-1.13,4.85,13.40,0.10,0.27,0.23,1721200969457
0.57,2.21,8.24,0.13,-0.12,0.11,1721200969467
1.54,2.12,12.28,0.06,0.05,0.22,1721200969477
1.11,0.12,9.45,0.16,-0.07,0.18,1721200969487
-2.17,2.85,11.65,0.10,-0.04,0.03,1721200969497
-3.07,1.83,11.36,0.14,-0.05,0.08,1721200969507
-2.48,0.63,6.51,0.14,-0.09,0.30,1721200969517
-0.17,-0.34,8.54,0.09,0.02,0.34,1721200969527
2.39,-2.94,8.20,0.07,-0.09,0.43,1721200969537
2.65,3.01,12.55,0.14,0.04,0.23,1721200969547
1.55,2.05,6.93,0.07,-0.19,-0.05,1721200969557
-3.33,3.44,12.36,0.03,-0.16,-0.02,1721200969567
-2.52,-1.82,8.90,-0.02,0.01,0.27,1721200969577
-2.30,0.80,12.39,-0.08,-0.06,0.34,1721200969587
-0.25,1.16,8.53,-0.02,-0.10,0.27,1721200969597
1.18,-0.07,12.63,-0.16,-0.03,0.20,1721200969607
-0.71,2.57,8.17,0.05,-0.28,0.14,1721200969617
0.14,0.00,9.33,-0.15,0.01,0.24,1721200969627
-0.52,-1.84,11.35,-0.15,-0.12,0.26,1721200969637
-1.58,0.51,12.66,-0.11,-0.09,0.14,1721200969647
0.66,-2.52,9.38,-0.23,-0.10,0.20,1721200969657
0.28,1.87,11.63,-0.02,-0.17,0.31,1721200969667
2.18,-4.03,8.67,-0.35,0.11,0.20,1721200969677
-1.22,0.58,9.52,-0.07,-0.31,-0.05,1721200969687
0.12,-0.66,10.07,-0.26,0.13,-0.03,1721200969697
-2.29,0.74,11.68,-0.04,-0.24,0.24,1721200969707
-0.94,-0.41,8.75,-0.35,0.18,0.14,1721200969717
0.23,2.55,13.50,-0.05,-0.31,0.13,1721200969727
2.72,-5.31,4.75,-0.32,0.04,0.15,1721200969737
-0.28,-1.98,12.97,-0.19,-0.15,0.02,1721200969747
-0.17,-3.38,7.92,-0.10,-0.13,-0.04,1721200969757
0.71,0.79,14.60,-0.08,0.03,0.04,1721200969767
0.01,3.49,11.10,0.05,-0.12,0.03,1721200969777
-0.68,1.05,10.26,-0.10,-0.01,-0.11,1721200969787
1.71,-2.32,14.39,-0.02,0.02,0.00,1721200969797
0.33,-1.00,5.07,0.13,-0.10,0.02,1721200969807
-0.46,3.06,12.81,0.02,0.18,-0.11,1721200969817
-0.35,0.89,13.96,0.19,-0.11,-0.12,1721200969827
0.80,-5.21,6.20,0.02,0.02,0.07,1721200969837
0.11,2.77,13.67,0.09,0.18,0.02,1721200969847
-0.44,2.64,13.41,0.14,-0.13,-0.05,1721200969857
0.70,-0.11,10.86,0.12,0.11,-0.08,1721200969867
1.18,-0.39,9.73,0.23,0.07,-0.02,1721200969877
-0.78,-0.84,6.42,0.15,0.07,-0.07,1721200969887
-1.30,5.15,16.02,0.21,0.10,-0.08,1721200969897
2.18,0.65,8.15,0.28,0.06,0.04,1721200969907
2.37,-0.52,8.87,0.21,0.12,0.08,1721200969917
2.57,0.33,8.01,0.23,0.14,-0.18,1721200969927
-0.36,2.39,12.93,0.18,0.12,-0.36,1721200969937
-2.60,1.36,12.05,0.30,0.03,-0.14,1721200969947
-1.66,-1.01,6.10,0.28,0.14,0.07,1721200969957
0.47,0.87,8.71,0.17,0.22,0.00,1721200969967
1.05,-2.13,9.57,0.09,0.09,-0.17,1721200969977
-0.89,0.95,11.09,0.21,0.10,-0.24,1721200969987
-2.32,0.94,7.70,0.00,0.16,-0.17,1721200969997
-3.23,4.10,11.77,0.12,0.04,0.01,1721200970007
0.73,-3.19,6.63,-0.16,0.21,0.05,1721200970017
0.78,1.33,13.82,-0.03,0.11,-0.11,1721200970027
-0.41,2.37,7.41,-0.04,0.07,-0.24,1721200970037
-2.09,2.42,8.91,-0.05,0.07,-0.14,1721200970047
-0.09,-2.30,9.07,-0.13,0.12,0.02,1721200970057
-0.09,1.91,14.03,-0.06,0.13,-0.02,1721200970067
-0.79,0.77,8.05,-0.17,0.04,-0.15,1721200970077
-2.27,1.06,9.44,-0.10,0.02,-0.09,1721200970087
1.41,-2.98,11.45,-0.34,0.29,-0.08,1721200970097
-0.62,0.90,9.47,0.01,-0.19,-0.02,1721200970107
-0.04,0.60,8.46,-0.27,0.24,-0.04,1721200970117
0.28,-2.00,17.25,-0.13,-0.01,0.01,1721200970127
-2.46,1.29,3.30,0.02,-0.09,-0.01,1721200970137
0.72,-4.79,9.39,-0.41,0.34,-0.11,1721200970147
-1.28,-0.36,13.99,0.01,-0.10,-0.07,1721200970157
-2.65,-1.27,7.14,-0.19,0.24,-0.05,1721200970167
-1.64,-0.22,15.28,-0.16,0.00,0.03,1721200970177
-0.92,-1.14,10.01,-0.07,0.01,0.17,1721200970187
0.44,-1.57,13.45,-0.22,0.26,0.09,1721200970197
-0.33,5.88,14.30,0.09,-0.18,0.01,1721200970207
-0.33,-2.78,5.19,-0.09,-0.01,-0.06,1721200970217
-2.85,-1.16,11.63,-0.03,0.03,-0.12,1721200970227
-2.33,-0.24,9.88,0.04,0.03,-0.02,1721200970237
-1.36,-2.81,9.67,-0.02,-0.07,0.30,1721200970247
0.63,1.48,10.14,0.07,0.07,0.26,1721200970257
0.97,2.02,11.22,0.08,-0.08,0.02,1721200970267
-0.82,1.65,10.40,0.11,-0.15,-0.21,1721200970277
-0.89,0.43,11.19,0.06,0.02,-0.01,1721200970287
-3.06,1.12,9.75,0.04,-0.02,0.03,1721200970297
-1.32,1.38,12.52,0.08,0.01,0.01,1721200970307
0.73,-1.17,10.59,0.11,0.02,0.13,1721200970317
-0.58,5.34,9.79,0.21,0.01,0.07,1721200970327
0.45,3.98,11.30,0.14,-0.05,-0.04,1721200970337
-0.50,4.48,12.89,0.24,-0.23,-0.05,1721200970347
-1.51,-1.80,5.71,0.14,-0.16,0.06,1721200970357
-2.15,-1.05,7.71,0.12,-0.05,0.06,1721200970367
-1.00,-1.38,10.21,0.10,-0.12,0.01,1721200970377
-0.74,1.35,9.15,0.20,-0.21,0.10,1721200970387
1.90,0.95,12.79,0.08,0.25,0.06,1721200970397
0.66,5.05,9.72,0.26,-0.16,-0.04,1721200970407
-1.14,3.23,6.07,-0.03,0.06,-0.08,1721200970417
-1.58,-1.35,13.78,-0.09,-0.10,-0.05,1721200970427
-2.81,-1.55,10.48,0.07,-0.16,0.13,1721200970437
-0.35,2.09,6.13,0.04,-0.06,0.30,1721200970447
1.74,-1.23,9.79,-0.17,-0.05,0.21,1721200970457
-0.26,0.35,11.32,-0.04,-0.22,-0.09,1721200970467
-0.34,-0.38,12.36,-0.20,0.15,-0.20,1721200970477
-4.60,1.47,12.67,-0.00,-0.18,-0.00,1721200970487
-4.57,-0.89,2.60,-0.19,-0.17,0.37,1721200970497
2.83,-1.81,13.07,-0.24,0.17,0.42,1721200970507
3.41,-0.05,11.36,-0.10,-0.11,0.03,1721200970517
-1.04,-2.88,7.62,-0.24,-0.19,-0.29,1721200970527
-1.81,-0.96,13.08,-0.13,-0.09,0.11,1721200970537
-1.43,1.41,10.89,-0.16,-0.01,0.30,1721200970547
-0.33,-2.51,8.35,-0.27,-0.23,0.15,1721200970557
1.75,1.94,11.29,-0.09,-0.07,0.02,1721200970567
0.30,-4.82,7.44,-0.26,-0.10,-0.09,1721200970577
-3.17,-0.79,13.62,-0.13,-0.25,0.07,1721200970587
-0.22,-1.00,8.51,-0.06,-0.02,0.27,1721200970597
-0.05,0.29,14.76,-0.16,-0.14,0.10,1721200970607
2.49,-2.19,9.63,-0.01,-0.19,0.22,1721200970617
2.64,0.05,10.44,-0.09,0.00,0.05,1721200970627
0.66,-0.94,11.14,-0.09,-0.18,-0.08,1721200970637
-1.70,7.24,12.06,0.14,-0.08,-0.19,1721200970647
0.10,-4.02,8.19,0.03,-0.10,0.06,1721200970657
-1.96,0.65,11.48,0.16,-0.03,0.13,1721200970667
1.07,-0.44,12.67,0.09,0.05,0.11,1721200970677
1.02,6.42,11.14,0.25,-0.18,0.24,1721200970687
2.60,2.41,9.33,0.06,0.07,0.06,1721200970697
2.93,-0.32,9.82,0.20,-0.09,-0.15,1721200970707
0.90,-1.52,10.14,0.08,0.03,-0.34,1721200970717
-1.26,3.68,11.00,0.32,-0.10,0.03,1721200970727
0.87,-3.99,5.54,0.10,0.11,0.12,1721200970737
1.33,1.67,14.33,0.22,0.02,-0.06,1721200970747
2.95,1.84,7.66,0.28,-0.04,-0.23,1721200970757
-0.07,2.02,11.37,0.20,0.01,-0.20,1721200970767
-0.77,0.70,10.70,0.21,0.07,-0.15,1721200970777
-0.64,0.40,10.33,0.27,-0.03,-0.09,1721200970787
0.78,0.78,8.65,0.23,0.16,-0.19,1721200970797
0.69,-0.19,9.74,0.13,0.07,-0.21,1721200970807
-0.33,0.09,11.49,0.03,0.06,-0.20,1721200970817
-1.28,1.15,8.00,0.12,0.02,-0.24,1721200970827
-1.52,-0.14,11.62,-0.04,0.12,-0.21,1721200970837
0.31,2.70,6.14,0.15,0.00,-0.16,1721200970847
0.81,-1.68,11.81,-0.21,0.23,-0.20,1721200970857
-0.47,4.06,12.82,0.11,-0.10,-0.24,1721200970867
0.26,-0.90,8.07,-0.16,0.17,-0.32,1721200970877
-1.37,2.05,13.22,0.01,-0.03,-0.32,1721200970887
-0.13,-2.82,7.37,-0.14,0.09,-0.16,1721200970897
0.00,0.73,10.74,-0.07,0.08,-0.16,1721200970907
-0.88,-1.05,7.69,-0.18,0.06,-0.44,1721200970917
-1.26,-1.69,8.39,-0.14,0.00,-0.34,1721200970927
0.44,-4.16,13.13,-0.16,0.22,-0.18,1721200970937
-0.70,1.23,4.66,0.10,-0.09,-0.14,1721200970947
2.54,-5.34,12.01,-0.45,0.44,-0.28,1721200970957
-1.36,2.34,16.60,0.07,-0.20,-0.38,1721200970967
-2.44,4.30,5.64,-0.01,0.27,-0.37,1721200970977
0.28,-1.09,9.24,-0.15,0.06,-0.20,1721200970987
-2.24,-2.35,11.32,-0.11,0.04,-0.13,1721200970997
-2.49,-0.38,7.23,0.02,0.04,-0.20,1721200971007
-0.61,-4.91,9.03,-0.23,0.24,-0.12,1721200971017
-2.27,3.15,13.64,0.04,-0.05,-0.07,1721200971027
-0.89,-2.10,6.58,-0.06,0.13,-0.16,1721200971037
2.08,1.49,16.36,-0.06,0.22,-0.03,1721200971047
-0.76,3.07,10.57,0.10,-0.01,-0.22,1721200971057
-2.55,-1.67,5.56,-0.11,0.05,-0.39,1721200971067
-0.78,-0.16,15.00,0.00,0.24,-0.21,1721200971077
-1.84,-1.88,5.67,0.07,-0.05,-0.14,1721200971087
-2.64,1.00,14.63,-0.03,0.10,-0.15,1721200971097
0.21,3.29,11.76,0.20,0.06,-0.09,1721200971107
-1.02,-0.37,9.34,-0.03,0.13,-0.15,1721200971117
-1.27,1.92,12.31,0.21,-0.06,-0.22,1721200971127
-1.21,0.34,5.95,0.14,0.05,-0.23,1721200971137
-2.76,3.23,14.10,0.11,0.12,-0.19,1721200971147
-2.35,3.60,10.52,0.35,-0.04,0.07,1721200971157
-0.29,-0.89,7.73,0.14,0.07,0.22,1721200971167
1.55,3.16,6.48,0.25,-0.15,-0.08,1721200971182
3.05,-0.16,6.15,0.13,-0.11,-0.22,1721200971186
-2.46,2.60,11.48,0.20,-0.16,-0.31,1721200971196
-2.11,-1.06,5.28,0.09,0.05,-0.06,1721200971206
-0.50,2.81,14.60,0.21,0.03,0.12,1721200971216
1.10,1.11,5.31,0.17,-0.01,0.09,1721200971226
-0.98,5.14,12.09,-0.01,0.01,-0.14,1721200971236
-1.26,1.81,10.76,0.19,-0.11,-0.02,1721200971246
-3.11,-3.52,5.83,-0.18,-0.11,0.21,1721200971256
-3.23,1.76,14.20,-0.08,-0.06,0.11,1721200971266
1.21,-3.64,6.39,-0.09,-0.19,0.25,1721200971276
0.64,-0.88,13.39,-0.20,0.07,0.27,1721200971286
1.70,-0.06,7.47,-0.03,-0.15,0.04,1721200971296
1.77,-1.64,10.83,-0.24,-0.02,-0.16,1721200971306
-2.88,0.47,10.57,-0.01,-0.18,-0.12,1721200971316
-2.46,-3.50,8.85,-0.32,0.01,-0.00,1721200971326
-3.68,-2.60,13.50,-0.07,-0.20,0.33,1721200971336
0.85,-2.89,7.05,-0.17,-0.04,0.37,1721200971346
4.36,-0.49,11.73,-0.13,-0.06,0.24,1721200971356
1.45,-1.55,7.40,-0.15,-0.24,-0.03,1721200971366
0.43,2.41,18.01,-0.19,0.05,-0.22,1721200971376
-0.57,-0.61,3.85,-0.01,-0.30,0.10,1721200971386
-1.35,-4.19,5.78,-0.34,0.10,0.14,1721200971396
2.89,-1.97,16.80,-0.07,-0.07,0.15,1721200971406
2.92,-2.05,9.08,-0.10,-0.05,0.11,1721200971416
0.31,4.24,14.44,0.00,-0.09,-0.11,1721200971426
2.08,1.95,10.58,-0.02,0.15,-0.13,1721200971436
-2.26,0.35,10.28,0.08,-0.20,-0.10,1721200971446
-0.31,-3.35,9.00,-0.02,0.18,-0.07,1721200971456
0.06,3.61,12.67,0.21,-0.09,0.14,1721200971466
1.99,1.59,7.99,0.07,0.07,0.12,1721200971476
2.80,-1.79,11.98,0.02,-0.04,-0.11,1721200971486
1.85,2.26,11.86,0.21,-0.00,-0.32,1721200971496
1.05,-2.32,9.33,-0.01,0.19,-0.36,1721200971506
-2.04,-0.54,12.01,0.19,-0.11,-0.08,1721200971516
-0.65,6.03,8.18,0.31,0.22,-0.06,1721200971526
2.77,-5.19,10.37,-0.02,0.14,-0.10,1721200971536
-0.22,6.28,11.96,0.40,-0.08,-0.12,1721200971546
3.59,-4.90,4.73,0.01,0.36,-0.30,1721200971556
-0.43,1.96,16.50,0.18,-0.04,-0.32,1721200971566
-1.20,3.63,7.39,0.27,0.18,-0.24,1721200971576
0.23,-3.48,8.76,-0.06,0.26,-0.16,1721200971586
-0.67,7.99,10.93,0.31,0.06,-0.21,1721200971596
2.04,-0.93,8.88,-0.20,0.38,-0.44,1721200971606
-0.64,5.02,17.09,0.28,-0.08,-0.30,1721200971616
1.10,-5.25,-0.48,-0.14,0.32,-0.33,1721200971626
-2.09,4.59,20.30,-0.04,0.16,-0.39,1721200971636
-0.53,-0.87,2.76,0.10,0.06,-0.27,1721200971646
-2.41,3.79,16.67,-0.21,0.38,-0.45,1721200971656
-1.91,0.88,7.54,0.18,-0.04,-0.29,1721200971666
-0.57,-2.37,8.08,-0.26,0.42,-0.21,1721200971676
-0.94,1.23,11.77,0.00,0.02,-0.27,1721200971686
-0.61,1.18,10.50,-0.20,0.26,-0.41,1721200971696
-1.89,-1.59,10.69,-0.04,0.02,-0.32,1721200971706
-3.91,-4.20,7.09,-0.14,0.14,-0.17,1721200971716
-0.92,-0.11,14.12,-0.04,0.27,-0.14,1721200971726
-0.48,-1.85,8.93,-0.10,0.11,-0.21,1721200971736
-0.18,-1.97,9.88,-0.05,0.05,-0.08,1721200971746
0.30,-2.11,11.82,-0.08,0.35,-0.25,1721200971756
-3.16,-0.19,10.89,-0.10,-0.08,-0.26,1721200971766
-3.80,0.38,6.68,0.03,0.04,-0.01,1721200971776
0.21,-2.52,12.14,-0.19,0.28,0.03,1721200971786
1.15,-0.15,11.12,-0.01,-0.04,-0.10,1721200971796
0.67,-0.71,8.95,-0.13,0.27,-0.25,1721200971806
-3.59,-0.25,8.10,0.02,-0.00,-0.18,1721200971816
-1.63,-3.91,9.10,-0.22,0.37,-0.04,1721200971826
-1.17,1.70,18.82,0.00,0.06,0.02,1721200971836
0.55,-0.81,4.96,0.06,-0.10,0.00,1721200971846
0.15,0.17,15.13,-0.05,0.39,-0.15,1721200971856
-0.52,1.92,7.90,0.16,-0.11,-0.28,1721200971866
-1.82,-1.88,9.99,-0.11,0.17,-0.26,1721200971876
-4.03,-2.48,9.99,0.10,-0.07,-0.11,1721200971886
-1.57,3.06,11.63,0.11,0.27,0.06,1721200971896
2.02,1.23,9.75,0.20,-0.02,-0.02,1721200971906
-1.81,2.89,8.01,0.21,-0.02,-0.25,1721200971916
-1.07,-0.13,11.28,0.11,0.25,-0.29,1721200971926
-3.82,-1.05,7.19,0.29,-0.07,-0.12,1721200971936
-2.07,0.67,11.55,0.12,0.38,0.08,1721200971946
1.53,3.29,12.19,0.42,-0.07,0.23,1721200971956
2.15,2.12,6.26,0.14,0.01,0.12,1721200971966
2.10,3.61,12.68,0.28,0.07,-0.33,1721200971976
-1.06,-3.59,2.73,0.13,-0.15,-0.32,1721200971986
-5.23,2.42,16.15,0.10,0.13,-0.03,1721200971996
-2.48,0.51,2.64,0.27,-0.13,0.18,1721200972006
-2.00,2.59,9.49,-0.01,0.22,0.10,1721200972016
0.79,0.25,12.79,0.05,0.13,-0.05,1721200972026
-3.08,-4.33,6.82,-0.16,-0.20,-0.00,1721200972036
-5.13,6.49,14.72,0.05,0.09,0.10,1721200972046
1.56,-3.54,2.88,-0.12,-0.04,0.43,1721200972056
-0.11,-0.49,12.01,-0.14,0.05,0.32,1721200972066
1.67,-3.40,8.10,-0.16,0.18,-0.15,1721200972076
-3.19,-1.66,13.85,-0.14,-0.14,-0.17,1721200972086
-4.84,-0.79,12.08,-0.09,0.02,0.35,1721200972096
-0.40,-0.83,8.68,-0.13,-0.03,0.57,1721200972106
2.56,1.47,9.88,-0.10,0.08,0.09,1721200972116
3.69,-4.25,8.51,-0.27,-0.07,-0.20,1721200972126
-3.21,0.66,13.80,-0.04,-0.18,-0.14,1721200972136
-0.66,-10.24,5.11,-0.26,0.07,0.33,1721200972146
-0.98,4.57,15.06,-0.00,0.05,0.38,1721200972156
2.55,0.79,1.94,0.07,-0.08,0.17,1721200972166
2.90,-4.64,14.30,-0.44,0.24,-0.14,1721200972176
-0.02,-0.34,18.56,-0.02,-0.16,-0.14,1721200972186
-1.40,-3.03,4.58,-0.12,0.06,0.00,1721200972196
-4.42,1.65,10.30,0.03,-0.13,0.18,1721200972206
2.50,-0.10,13.66,-0.02,0.23,0.34,1721200972216
5.31,1.96,13.49,0.02,0.13,0.08,1721200972226
-1.93,3.84,8.99,0.11,-0.20,-0.12,1721200972236
-0.53,-1.33,10.77,-0.15,0.36,-0.09,1721200972246
-1.86,2.19,15.61,0.23,-0.17,0.11,1721200972256
0.94,-3.40,3.55,0.04,0.17,0.38,1721200972266
1.46,5.54,19.35,0.21,0.08,0.18,1721200972276
3.66,-1.47,6.12,0.13,-0.08,-0.03,1721200972286
0.00,9.36,15.24,0.33,0.08,-0.14,1721200972296
2.59,-5.19,0.73,0.17,0.13,-0.07,1721200972306
-4.53,-3.79,14.94,-0.02,-0.12,0.03,1721200972316
-2.32,5.00,6.02,0.32,0.19,0.18,1721200972326
1.93,-2.58,14.13,-0.01,0.22,0.24,1721200972336
3.47,1.61,10.75,0.37,-0.10,0.28,1721200972346
6.21,4.80,7.70,0.16,0.34,-0.14,1721200972356
2.66,4.66,8.03,0.27,-0.00,-0.35,1721200972366
-1.50,-1.82,10.15,-0.03,0.25,-0.37,1721200972376
-3.71,-1.13,11.75,0.13,0.07,-0.07,1721200972386
-3.05,0.94,5.64,-0.07,0.20,0.11,1721200972396
-0.15,0.80,14.68,-0.12,0.13,0.11,1721200972406
3.49,-0.27,10.70,0.04,0.14,-0.00,1721200972416
0.50,-0.48,5.34,-0.14,0.09,-0.28,1721200972426
-3.53,4.25,12.24,-0.09,0.08,-0.32,1721200972436
-3.20,-1.27,10.48,-0.10,0.14,0.04,1721200972446
-1.68,-3.15,5.25,-0.14,-0.06,0.14,1721200972456
1.55,1.77,16.55,-0.12,0.37,0.01,1721200972466
1.87,-4.13,4.86,-0.13,-0.10,-0.21,1721200972476
-3.76,4.48,16.17,-0.10,0.28,-0.44,1721200972486
-1.85,-6.70,3.75,-0.07,-0.07,-0.15,1721200972496
-2.45,-4.54,15.13,-0.36,0.26,0.08,1721200972506
-0.84,0.76,10.14,0.07,-0.01,-0.08,1721200972516
-0.78,0.10,8.63,-0.26,0.10,-0.22,1721200972526
-4.73,-3.48,9.10,-0.09,-0.18,-0.22,1721200972536
-2.67,-3.12,13.63,-0.14,0.13,0.12,1721200972546
-3.28,-0.77,5.54,0.03,-0.24,0.29,1721200972556
2.44,1.26,12.12,-0.29,0.43,0.14,1721200972566
2.17,-2.32,8.97,0.02,-0.24,0.03,1721200972576
-0.71,-2.37,12.98,-0.25,0.20,-0.15,1721200972586
-1.93,-6.09,7.21,-0.05,-0.13,-0.16,1721200972596
-5.27,5.31,13.55,-0.01,0.17,-0.01,1721200972606
0.83,0.03,13.90,0.01,0.02,0.22,1721200972616
-2.63,4.43,9.37,0.08,-0.27,0.20,1721200972626
3.77,-0.18,11.83,-0.04,0.41,-0.02,1721200972636
1.02,-0.77,16.45,-0.05,-0.17,-0.15,1721200972646
-4.00,3.04,4.73,0.14,-0.24,-0.09,1721200972656
-3.37,6.41,14.58,0.14,0.25,-0.10,1721200972666
-0.66,1.19,7.09,0.38,-0.30,0.19,1721200972676
-0.43,2.14,13.08,0.12,0.12,0.25,1721200972686
0.68,3.30,7.82,0.38,-0.29,0.21,1721200972696
0.08,5.01,8.58,0.17,0.10,-0.00,1721200972706
1.16,-1.09,12.81,0.24,-0.29,0.05,1721200972716
-2.17,0.10,7.31,0.24,-0.17,0.14,1721200972726
1.91,2.35,9.76,0.18,0.10,0.17,1721200972736
2.09,2.64,7.38,0.25,-0.21,0.06,1721200972746
0.55,4.46,13.75,0.11,-0.07,-0.06,1721200972756
-2.01,-0.41,6.63,0.15,-0.25,0.09,1721200972766
-2.24,-0.98,13.03,-0.14,0.16,0.11,1721200972776
-1.11,-2.53,6.53,0.08,-0.33,0.20,1721200972786
-1.85,2.34,12.75,-0.11,0.02,0.19,1721200972796
-0.21,-5.56,7.79,-0.01,-0.30,0.45,1721200972806
0.97,2.46,7.36,-0.01,0.01,0.31,1721200972816
3.81,-3.34,8.39,-0.30,-0.03,-0.18,1721200972826
-3.47,0.40,13.44,-0.19,-0.38,-0.29,1721200972836
-6.87,-2.84,10.90,-0.15,-0.07,-0.00,1721200972846
-0.98,-6.39,13.16,-0.31,0.00,0.52,1721200972856
1.40,-4.77,4.61,0.01,-0.44,0.48,1721200972866
7.05,2.97,11.94,-0.32,0.30,0.02,1721200972876
1.67,2.70,17.40,-0.03,-0.38,-0.37,1721200972886
-3.32,-1.26,9.31,-0.09,-0.08,-0.37,1721200972896
-4.03,-9.57,8.23,-0.32,-0.08,-0.07,1721200972906
-2.83,-0.00,13.39,-0.02,-0.24,0.38,1721200972916
3.81,-1.07,8.08,-0.18,0.15,0.28,1721200972926
3.65,7.53,15.52,0.07,-0.20,-0.10,1721200972936
1.79,-4.94,0.06,-0.05,-0.15,-0.36,1721200972946
-4.51,5.10,19.85,-0.03,-0.04,-0.37,1721200972956
0.67,0.77,7.23,0.20,-0.05,0.10,1721200972966
0.16,0.06,12.81,0.04,0.07,0.12,1721200972976
3.06,-1.09,8.15,0.19,-0.01,-0.00,1721200972986
1.40,9.01,12.03,0.24,0.03,-0.33,1721200972996
3.82,0.93,7.00,0.17,0.03,-0.18,1721200973006
-0.17,-1.25,11.61,0.16,-0.11,-0.28,1721200973016
1.70,-0.55,8.03,0.25,0.22,-0.07,1721200973026
2.00,-1.68,7.70,0.21,0.09,-0.02,1721200973036
0.73,1.12,13.11,0.24,0.13,-0.27,1721200973046
-1.22,4.00,7.26,0.36,-0.04,-0.25,1721200973056
0.38,7.36,11.75,0.25,0.35,-0.18,1721200973066
3.24,-2.22,10.65,0.17,0.14,-0.16,1721200973076
0.10,-1.69,10.88,0.10,0.15,-0.35,1721200973086
-2.34,2.02,10.42,0.24,0.21,-0.42,1721200973096
-1.59,3.09,4.60,0.20,0.22,-0.20,1721200973106
-0.15,-2.01,8.30,-0.03,0.16,-0.02,1721200973116
0.72,5.26,11.51,0.08,0.24,-0.14,1721200973126
0.68,-1.11,9.56,0.00,-0.15,0.12,1721200973670
0.94,0.13,9.66,-0.19,-0.06,0.18,1721200973674
-0.81,6.72,11.78,0.13,-0.26,0.16,1721200973683
2.42,-5.08,-0.18,-0.21,0.01,0.01,1721200973693
-0.58,0.22,15.65,-0.08,-0.11,-0.21,1721200973702
0.89,-2.50,9.90,0.22,-0.34,-0.01,1721200973712
-0.63,9.02,10.81,0.24,0.03,0.08,1721200973722
2.15,3.56,9.89,0.11,-0.05,0.05,1721200973732
-2.09,-2.64,13.06,-0.12,-0.23,-0.06,1721200973742
-2.14,1.20,11.42,0.16,-0.16,0.09,1721200973752
2.86,-0.80,5.25,0.10,0.00,0.09,1721200973762
2.92,1.11,10.76,0.26,-0.20,-0.08,1721200973772
1.25,-4.06,5.40,0.05,-0.07,-0.20,1721200973782
-3.85,10.56,19.78,0.30,-0.06,-0.06,1721200973792
0.32,-5.99,5.71,-0.02,-0.12,0.16,1721200973802
0.14,-3.30,13.56,-0.07,-0.10,0.13,1721200973812
2.92,2.83,7.99,0.24,-0.02,-0.05,1721200973822
1.11,3.53,10.86,0.02,-0.10,-0.28,1721200973832
-0.31,-3.80,5.88,0.12,-0.23,-0.08,1721200973842
-1.32,3.84,14.60,0.09,0.19,-0.07,1721200973852
1.53,-1.69,8.84,0.10,-0.10,0.01,1721200973862
0.41,5.66,15.33,0.15,0.04,-0.05,1721200973872
3.76,-6.02,8.69,-0.06,0.04,-0.14,1721200973882
0.12,0.72,10.13,0.18,-0.17,-0.14,1721200973892
2.98,2.95,4.41,0.16,0.34,-0.36,1721200973902
1.34,1.50,6.71,0.11,-0.07,-0.44,1721200973912
-2.06,-2.48,6.46,-0.00,-0.02,-0.29,1721200973922
-1.52,-0.78,15.58,-0.02,0.36,-0.37,1721200973932
-0.13,-0.06,13.62,0.08,0.08,-0.34,1721200973942
-2.09,2.51,8.76,0.06,-0.02,-0.23,1721200973952
-0.49,1.45,12.61,-0.14,0.33,-0.37,1721200973962
-2.84,4.62,6.04,0.23,-0.15,-0.43,1721200973972
-1.03,-1.32,8.61,-0.26,0.39,-0.31,1721200973982
0.82,-1.16,13.82,-0.02,0.03,-0.12,1721200973992
0.13,-1.45,10.23,-0.21,0.10,-0.34,1721200974002
-1.89,7.88,11.44,0.13,0.02,-0.32,1721200974012
0.37,-0.98,5.53,-0.34,0.26,-0.35,1721200974022
-2.55,4.34,16.34,-0.00,-0.14,-0.20,1721200974032
1.49,-3.41,8.47,-0.25,0.27,-0.12,1721200974042
1.20,1.83,14.63,-0.06,0.05,-0.22,1721200974052
-0.07,-0.37,5.14,-0.10,0.03,-0.42,1721200974062
-2.45,1.30,13.01,-0.06,0.11,-0.28,1721200974072
-2.50,-2.30,8.26,-0.04,0.04,-0.24,1721200974082
-3.11,-0.89,13.30,-0.10,0.12,-0.11,1721200974092
1.43,4.07,14.88,0.06,0.33,0.10,1721200974102
1.68,-0.66,2.86,-0.08,-0.07,-0.11,1721200974112
-0.10,-1.04,15.59,-0.13,0.22,-0.30,1721200974122
0.37,-2.66,10.03,0.06,0.01,-0.30,1721200974132
-3.10,-1.20,6.26,-0.07,0.01,-0.18,1721200974142
-1.76,2.98,9.77,-0.03,0.25,-0.13,1721200974152
0.22,3.65,10.58,0.07,0.06,-0.08,1721200974162
-0.27,-1.01,7.08,-0.12,0.08,-0.17,1721200974172
-1.73,-2.73,15.06,-0.19,0.15,-0.21,1721200974182
-1.53,-1.34,9.74,-0.08,-0.01,0.08,1721200974192
0.28,3.27,7.51,0.00,0.16,0.00,1721200974202
2.44,-3.84,8.03,-0.12,0.13,-0.21,1721200974212
-0.23,-3.11,12.59,-0.05,-0.05,-0.19,1721200974222
-2.03,4.88,10.97,0.12,0.04,-0.24,1721200974232
-2.09,8.23,14.78,0.07,0.19,-0.14,1721200974242
-1.76,2.24,10.76,0.03,0.00,0.05,1721200974252
-1.47,-7.45,4.78,-0.06,-0.05,0.15,1721200974262
1.69,1.37,14.08,0.16,0.33,-0.10,1721200974272
0.67,1.21,5.22,0.15,-0.22,-0.19,1721200974282
-3.08,5.99,13.15,0.05,0.13,-0.24,1721200974292
1.01,-5.25,14.38,0.06,0.20,-0.06,1721200974302
-1.91,-1.71,12.39,0.01,-0.02,0.03,1721200974312
-2.76,3.49,3.56,0.20,0.06,-0.11,1721200974322
0.91,1.77,16.53,-0.02,0.31,-0.17,1721200974332
0.37,-2.77,9.20,0.17,-0.37,-0.10,1721200974342
-0.02,2.32,11.94,0.09,0.32,-0.06,1721200974352
0.88,-0.33,9.97,0.09,-0.15,-0.05,1721200974362
-4.71,-0.74,6.87,0.05,-0.14,-0.04,1721200974372
-1.87,1.04,11.46,0.13,0.33,-0.11,1721200974382
1.50,-1.72,8.06,0.12,-0.18,0.13,1721200974392
0.39,3.62,13.09,0.12,0.10,0.09,1721200974402
2.80,2.03,11.02,0.11,0.09,-0.22,1721200974412
-1.48,2.79,5.59,0.19,-0.19,-0.26,1721200974422
-2.21,-2.55,5.26,0.07,0.07,0.00,1721200974432
-2.12,-2.99,15.63,-0.09,-0.06,0.11,1721200974442
-1.69,6.40,14.25,0.28,-0.10,-0.02,1721200974452
1.28,-3.12,6.05,-0.15,0.19,-0.06,1721200974462
-2.00,-0.36,14.15,0.04,-0.14,-0.07,1721200974472
-0.52,-2.60,6.26,0.08,-0.03,0.03,1721200974482
0.53,4.00,12.50,0.15,0.03,0.15,1721200974492
2.83,3.14,5.33,0.24,-0.06,-0.04,1721200974502
2.43,-0.40,9.16,-0.09,-0.01,-0.14,1721200974512
-0.21,4.89,12.41,0.13,-0.05,-0.20,1721200974522
-0.79,-0.46,12.81,-0.15,0.09,-0.31,1721200974532
-2.51,-2.93,10.52,0.07,-0.24,0.10,1721200974542
1.70,4.33,12.63,0.01,0.42,0.22,1721200974552
3.33,-1.68,6.47,-0.09,-0.32,-0.07,1721200974562
-1.47,4.60,13.03,0.00,0.02,-0.30,1721200974572
-0.56,0.26,7.43,-0.01,0.09,-0.32,1721200974582
-5.46,-1.72,9.48,-0.16,-0.22,-0.20,1721200974592
-5.44,-0.43,12.79,-0.09,0.03,0.16,1721200974602
-0.86,-0.13,9.24,-0.01,-0.04,0.39,1721200974612
1.94,0.89,11.50,-0.14,0.02,0.21,1721200974622
2.68,1.77,8.36,0.07,-0.12,-0.08,1721200974632
0.82,-1.81,6.65,-0.20,0.02,-0.27,1721200974642
-1.26,1.40,13.63,-0.04,-0.13,-0.19,1721200974652
-0.98,-6.00,9.05,-0.27,0.02,0.01,1721200974662
-2.36,4.27,15.62,0.01,-0.04,0.06,1721200974672
1.19,-4.77,0.32,-0.10,-0.10,0.01,1721200974682
-1.16,-2.51,9.70,-0.29,0.02,-0.04,1721200974692
-0.24,7.58,13.64,0.05,0.02,-0.05,1721200974702
-0.60,-3.39,7.02,-0.24,-0.15,-0.10,1721200974712
-2.62,-3.95,12.76,-0.27,-0.09,-0.01,1721200974722
0.43,0.27,10.24,-0.19,0.12,-0.06,1721200974732
-0.36,0.20,11.65,-0.25,-0.13,-0.06,1721200974742
-1.52,3.99,9.12,-0.01,-0.16,0.02,1721200974752
2.33,3.61,10.66,-0.13,0.16,-0.11,1721200974762
1.17,-6.68,8.88,-0.31,-0.23,-0.23,1721200974772
-2.81,3.77,16.94,-0.12,-0.03,-0.21,1721200974782
-0.22,-1.46,10.58,-0.07,0.04,0.01,1721200974792
-1.01,2.35,6.90,0.09,-0.17,0.22,1721200974802
2.62,7.08,8.98,0.15,0.26,-0.11,1721200974812
1.05,1.63,13.08,0.14,-0.22,-0.32,1721200974822
-0.98,-1.62,9.67,-0.01,-0.00,-0.33,1721200974832
0.06,-0.07,10.22,0.08,0.14,-0.15,1721200974842
-1.48,-5.79,8.29,0.09,-0.21,0.08,1721200974852
1.13,0.85,12.08,0.19,0.17,0.08,1721200974862
3.63,3.72,10.59,0.17,0.04,-0.27,1721200974872
0.88,2.49,13.71,0.15,-0.05,-0.29,1721200974882
-0.62,-1.03,8.13,0.14,0.07,-0.26,1721200974892
-1.19,-3.50,7.01,0.16,0.07,-0.13,1721200974902
0.37,-0.52,10.42,0.25,0.14,0.02,1721200974912
1.58,-3.82,7.07,0.14,0.04,-0.08,1721200974922
0.75,4.03,15.26,0.15,0.12,-0.27,1721200974932
1.99,3.61,12.80,0.20,0.15,-0.29,1721200974942
-0.70,-2.04,8.95,0.06,0.14,-0.25,1721200974952
-3.45,-1.95,14.95,0.07,0.11,-0.31,1721200974962
-1.70,2.30,9.39,0.25,0.12,-0.01,1721200974972
1.15,2.56,9.14,0.15,0.23,0.04,1721200974982
2.40,-2.26,7.03,0.15,0.14,-0.20,1721200974992
0.25,-1.64,12.78,0.07,0.20,-0.37,1721200975002
-2.24,0.24,9.76,0.10,0.12,-0.25,1721200975012
-2.65,-0.30,14.54,0.01,0.21,-0.04,1721200975022
-0.57,2.64,10.64,0.19,0.13,0.09,1721200975032
2.00,4.25,9.32,0.06,0.24,-0.01,1721200975042
1.35,-2.50,5.66,-0.01,0.05,-0.29,1721200975052
-2.89,0.51,12.56,0.05,0.16,-0.37,1721200975062
-4.19,3.80,7.89,0.19,0.06,-0.12,1721200975072
-3.45,4.48,7.43,0.06,0.11,0.24,1721200975082
1.15,-4.75,9.07,-0.28,0.15,0.22,1721200975092
1.92,2.92,17.69,0.01,0.05,-0.03,1721200975102
1.81,-0.71,3.79,0.01,-0.03,-0.25,1721200975112
-1.04,3.98,17.53,-0.24,0.29,-0.33,1721200975122
-2.89,0.62,7.48,0.16,-0.22,-0.14,1721200975132
-2.33,-4.49,11.25,-0.40,0.23,-0.02,1721200975142
-0.53,-1.28,11.53,0.10,-0.08,0.08,1721200975152
1.64,-0.02,2.25,-0.16,0.17,-0.15,1721200975162
-0.42,-3.93,10.58,-0.20,-0.10,-0.26,1721200975172
-1.75,-3.73,13.90,-0.13,0.15,-0.15,1721200975182
-0.75,-1.88,9.98,-0.14,-0.08,0.08,1721200975192
1.00,1.42,15.66,-0.18,0.11,0.08,1721200975202
2.03,-0.09,6.13,-0.08,-0.12,-0.07,1721200975212
0.47,-3.92,4.31,-0.28,0.20,-0.26,1721200975222
1.17,-2.77,14.31,-0.35,0.16,-0.21,1721200975232
-0.95,4.12,12.08,-0.03,-0.14,-0.03,1721200975242
-0.77,0.88,6.67,-0.28,0.19,-0.02,1721200975252
0.84,3.68,12.94,-0.18,0.15,-0.09,1721200975262
1.18,-1.91,8.89,-0.34,0.07,-0.23,1721200975272
-2.33,1.91,13.71,-0.23,-0.12,-0.34,1721200975282
-0.94,7.72,11.82,0.10,0.05,-0.25,1721200975292
-3.33,-7.20,2.55,-0.12,-0.21,-0.01,1721200975302
-2.38,0.43,16.82,-0.20,0.58,-0.01,1721200975312
0.97,-0.18,12.46,0.18,-0.09,0.10,1721200975322
-1.30,-2.31,3.81,-0.14,0.05,0.04,1721200975332
2.89,3.47,16.13,0.05,0.26,-0.21,1721200975342
1.78,6.23,16.35,0.18,-0.08,-0.41,1721200975352
-4.31,-2.34,6.72,0.09,-0.30,-0.38,1721200975362
-1.88,3.24,12.06,0.09,0.50,-0.21,1721200975372
-1.18,1.23,8.02,0.30,-0.09,0.01,1721200975382
-4.29,-6.80,4.70,0.05,-0.09,0.08,1721200975392
0.07,1.89,18.62,0.20,0.33,0.15,1721200975402
3.08,-0.78,12.03,0.17,-0.12,0.14,1721200975412
-0.97,8.48,8.52,0.23,-0.05,-0.15,1721200975422
1.60,-3.24,7.58,0.04,0.08,-0.38,1721200975432
-2.89,-3.08,14.83,0.03,-0.12,-0.20,1721200975442
-2.60,-0.60,6.87,0.35,0.08,0.04,1721200975452
0.06,2.09,10.26,0.11,0.27,0.00,1721200975462
-1.50,-1.05,8.27,0.10,-0.42,0.03,1721200975472
-0.96,1.19,11.85,0.15,0.19,0.07,1721200975482
3.87,-0.19,11.76,0.15,0.08,-0.07,1721200975492
-1.91,-1.73,4.83,0.07,-0.43,-0.15,1721200975502
-0.55,-0.87,11.13,0.00,0.30,-0.18,1721200975512
0.42,7.11,15.33,0.33,-0.01,-0.19,1721200975522
-2.02,1.38,5.05,0.07,-0.08,-0.19,1721200975532
-3.30,-0.77,7.53,0.12,-0.11,-0.04,1721200975542
-0.19,-3.33,7.65,0.01,0.12,0.06,1721200975552
3.00,0.91,17.88,0.03,0.15,0.04,1721200975562
1.03,2.90,6.55,0.28,-0.18,-0.23,1721200975572
0.46,0.93,7.88,0.02,0.13,-0.36,1721200975582
0.15,3.91,15.07,0.14,0.05,-0.31,1721200975592
-0.62,0.50,9.16,-0.06,0.10,-0.17,1721200975602
-2.59,1.50,7.96,0.03,-0.05,-0.21,1721200975612
-0.56,1.34,5.81,0.03,0.12,-0.19,1721200975622
1.47,-1.78,12.56,-0.12,0.06,-0.13,1721200975632
-0.74,4.44,12.28,0.21,-0.04,-0.12,1721200975642
0.17,2.05,5.97,-0.08,0.18,-0.27,1721200975652
-2.65,-2.16,12.04,-0.13,-0.13,-0.25,1721200975662
-4.24,-3.00,9.17,-0.11,-0.13,0.02,1721200975677
-2.15,-1.98,11.37,-0.10,0.03,0.09,1721200975681
-4.01,1.05,7.16,0.07,-0.20,0.14,1721200975691
0.38,-1.57,7.95,-0.20,0.22,0.09,1721200975701
0.69,-2.60,10.74,-0.14,-0.07,0.08,1721200975711
0.21,-1.17,10.05,-0.14,0.07,0.03,1721200975721
0.23,-1.58,9.89,-0.09,-0.06,-0.02,1721200975731
-1.23,-1.76,9.27,-0.08,-0.08,-0.01,1721200975741
-0.45,-0.13,12.14,-0.04,0.07,0.12,1721200975751
-0.10,0.07,8.87,-0.15,-0.02,0.15,1721200975761
-2.18,3.58,11.44,-0.13,-0.02,-0.09,1721200975771
-0.76,-1.14,8.35,-0.18,-0.03,-0.10,1721200975781
-2.21,-2.69,14.02,-0.25,-0.06,-0.01,1721200975791
-1.37,0.01,12.27,0.01,-0.10,0.30,1721200975801
1.73,-1.18,5.96,-0.12,-0.03,0.33,1721200975811
2.15,8.09,12.05,0.06,-0.02,0.30,1721200975821
3.75,0.55,10.87,-0.05,-0.01,-0.03,1721200975831
-2.07,-4.17,12.84,-0.15,-0.20,-0.30,1721200975841
-2.74,-2.85,10.04,-0.02,-0.08,-0.03,1721200975851
-0.71,-0.48,8.38,0.01,-0.05,0.20,1721200975861
2.52,1.82,12.41,0.19,-0.11,0.32,1721200975871
5.55,1.22,11.58,0.17,0.09,0.05,1721200975881
2.67,-4.88,12.25,0.01,-0.09,-0.25,1721200975891
-4.84,3.07,11.25,0.23,-0.16,-0.18,1721200975901
-1.49,-4.52,6.43,-0.04,0.13,0.07,1721200975911
-1.55,5.33,13.63,0.38,-0.23,0.36,1721200975921
4.64,-1.09,5.23,0.09,0.20,0.16,1721200975931
4.24,3.18,16.51,0.10,-0.01,-0.05,1721200975941
2.22,-6.09,6.79,-0.01,0.01,-0.37,1721200975951
-3.66,3.62,15.58,0.23,-0.02,-0.26,1721200975961
0.05,-2.94,4.16,0.20,0.04,0.12,1721200975971
1.08,3.71,10.74,0.12,0.18,0.15,1721200975981
4.35,-1.81,5.94,0.07,0.09,-0.14,1721200975991
-0.10,-3.99,14.94,-0.17,0.15,-0.52,1721200976001
-4.02,1.55,17.99,0.33,-0.05,-0.16,1721200976011
0.69,0.81,3.45,0.17,0.21,0.29,1721200976021
5.43,-0.83,8.28,0.05,0.27,0.19,1721200976031
3.47,-2.61,9.98,-0.00,0.12,-0.44,1721200976041
-1.33,3.16,16.05,0.14,0.16,-0.64,1721200976051
-2.41,-3.07,8.62,0.10,0.10,-0.22,1721200976061
-1.23,1.13,15.43,0.14,0.36,0.12,1721200976071
2.01,0.99,6.52,0.24,0.20,-0.10,1721200976081
0.34,-0.68,9.60,-0.02,0.24,-0.36,1721200976091
-1.99,3.80,9.03,0.19,0.18,-0.35,1721200976101
-0.65,-0.74,7.85,-0.07,0.34,-0.13,1721200976111
0.08,-0.77,16.01,0.05,0.26,-0.06,1721200976121
0.81,-1.71,7.54,-0.05,0.23,-0.10,1721200976131
0.57,6.62,13.30,0.11,0.25,-0.18,1721200976141
3.05,0.99,9.59,-0.05,0.36,-0.35,1721200976151
-0.75,5.69,11.83,0.20,0.14,-0.31,1721200976161
-1.18,0.55,5.67,-0.10,0.43,-0.34,1721200976171
-3.97,0.06,11.81,-0.10,0.17,-0.24,1721200976181
-1.91,-2.77,10.33,-0.15,0.27,0.01,1721200976191
2.22,-0.00,10.70,0.00,0.40,0.10,1721200976201
3.84,5.87,11.08,-0.00,0.32,-0.19,1721200976211
1.47,1.70,9.18,-0.02,0.17,-0.39,1721200976221
-3.31,1.49,7.23,-0.21,0.30,-0.44,1721200976231
-2.88,-2.62,14.41,-0.28,0.30,-0.22,1721200976241
-0.78,-2.81,11.16,-0.06,0.15,0.14,1721200976251
2.00,4.80,7.64,0.04,0.45,-0.00,1721200976261
3.32,-6.04,5.32,-0.25,0.17,-0.38,1721200976271
-5.08,0.02,13.76,-0.06,0.06,-0.51,1721200976281
-3.77,1.46,6.78,0.04,0.48,-0.17,1721200976291
-1.95,3.30,14.03,-0.15,0.28,0.07,1721200976301
0.19,-4.47,5.77,-0.02,0.08,0.06,1721200976311
2.00,-3.82,16.69,-0.23,0.58,-0.11,1721200976321
0.95,5.98,15.27,0.16,0.04,-0.15,1721200976331
-3.59,6.30,4.90,-0.08,0.22,-0.27,1721200976341
-4.04,-2.77,9.25,-0.11,0.06,-0.14,1721200976351
-2.23,-6.49,9.85,-0.02,0.33,0.08,1721200976361
2.03,4.07,15.02,0.12,0.43,0.10,1721200976371
-1.08,-1.02,3.48,0.05,-0.12,-0.13,1721200976381
-6.85,3.03,13.27,0.01,0.43,-0.25,1721200976391
-3.74,5.17,11.22,0.46,0.09,-0.11,1721200976401
-2.09,-9.77,4.34,-0.17,0.01,0.23,1721200976411
-2.22,3.59,15.15,0.26,0.04,0.35,1721200976421
2.53,-2.25,4.44,0.17,0.39,0.05,1721200976431
-4.26,3.91,15.07,0.05,-0.15,0.00,1721200976441
-4.33,1.58,0.45,0.30,0.02,-0.10,1721200976451
1.66,-5.53,17.19,-0.30,0.53,0.03,1721200976461
-0.78,1.17,15.51,0.29,-0.45,0.07,1721200976471
-2.66,0.70,3.16,0.03,0.41,0.03,1721200976481
-1.11,-0.33,11.71,0.10,0.04,0.22,1721200976491
-2.70,-6.24,3.91,-0.02,-0.24,0.30,1721200976501
-2.26,4.05,15.62,0.08,0.22,0.11,1721200976511
2.04,-0.14,8.56,0.03,0.02,-0.07,1721200976521
-1.70,-5.36,9.47,-0.23,-0.06,0.01,1721200976531
-1.58,0.32,13.76,0.20,0.09,0.27,1721200976541
1.50,-1.12,7.24,-0.08,0.13,0.25,1721200976551
-3.93,7.60,9.31,0.12,-0.45,-0.00,1721200976561
-0.75,-3.71,6.81,-0.21,0.22,-0.07,1721200976571
-1.76,2.85,20.92,0.08,-0.08,0.12,1721200976581
-2.85,-4.98,3.61,-0.05,-0.30,0.28,1721200976591
-4.31,4.70,8.10,0.03,-0.01,0.28,1721200976601
3.09,1.81,10.87,0.02,0.16,0.19,1721200976611
1.02,5.42,15.99,0.13,-0.40,0.05,1721200976621
-1.62,0.41,4.39,0.09,-0.39,0.09,1721200976631
-2.01,4.00,15.79,0.01,0.10,0.09,1721200976641
0.15,0.30,7.63,0.13,-0.30,0.08,1721200976651
-2.43,2.04,7.46,-0.05,-0.22,0.14,1721200976661
1.21,3.23,14.50,0.16,-0.00,0.12,1721200976671
-0.89,1.32,6.94,0.06,-0.33,0.13,1721200976681
-3.10,8.39,10.02,0.04,-0.21,0.14,1721200976691
2.13,-1.05,11.87,-0.08,-0.07,0.24,1721200976701
-0.09,-2.08,11.80,-0.01,-0.53,0.33,1721200976711
0.98,7.19,13.77,0.11,-0.01,0.26,1721200976721
2.81,0.25,11.58,0.00,-0.27,-0.00,1721200976731
-3.28,-3.65,3.41,0.00,-0.51,0.11,1721200976741
-3.97,3.80,11.29,-0.14,0.12,0.03,1721200976751
-0.50,-1.73,12.41,-0.02,-0.24,0.36,1721200976761
-1.27,4.66,9.25,0.16,-0.31,0.31,1721200976771
3.26,-7.14,3.44,-0.28,-0.12,0.16,1721200976781
-0.20,1.06,15.61,0.01,-0.39,0.11,1721200976791
0.85,5.84,9.41,0.12,-0.01,0.00,1721200976801
0.76,-4.31,7.15,-0.12,-0.34,0.26,1721200976811
-1.27,-0.69,9.91,-0.01,-0.25,0.21,1721200976821
2.93,0.07,12.03,-0.07,-0.01,-0.02,1721200976831
2.20,-7.83,11.15,-0.14,-0.38,0.01,1721200976841
-2.08,0.42,19.80,0.04,-0.08,-0.01,1721200976851
-0.91,1.24,7.30,0.05,-0.12,0.07,1721200976861
-1.50,-4.11,10.75,-0.21,-0.25,0.23,1721200976871
-0.19,2.22,9.50,-0.03,-0.08,0.14,1721200976881
4.44,-1.10,8.60,-0.15,-0.02,-0.05,1721200976891
1.67,-3.58,11.69,-0.10,-0.42,-0.01,1721200976901
-0.23,-1.91,9.75,-0.12,-0.04,-0.10,1721200976911
1.45,-5.10,10.59,-0.20,-0.01,-0.09,1721200976921
-0.11,-0.68,14.31,0.14,-0.29,0.09,1721200976931
2.53,0.01,5.90,0.07,0.05,0.19,1721200976941
5.16,7.74,15.28,0.12,0.12,0.06,1721200976951
2.63,-4.89,4.17,0.06,-0.23,-0.30,1721200976961
-3.43,3.26,16.05,0.14,-0.11,-0.18,1721200976971
1.69,-3.48,9.54,0.00,0.27,-0.11,1721200976981
-1.11,-2.60,17.06,0.08,-0.20,0.03,1721200976991
0.26,1.41,7.27,0.13,-0.01,0.12,1721200977001
3.74,3.93,9.73,0.10,0.15,-0.03,1721200977011
2.46,0.29,9.57,0.03,-0.03,-0.35,1721200977021
-2.66,-0.40,10.11,0.15,-0.12,-0.14,1721200977031
-0.54,-3.85,12.09,0.01,0.25,0.23,1721200977041
3.85,-0.95,12.86,0.17,0.06,0.24,1721200977051
3.86,-2.06,0.99,0.15,-0.04,-0.08,1721200977061
1.71,5.71,17.49,0.10,0.37,-0.50,1721200977071
-0.45,-6.64,8.10,0.15,-0.15,-0.16,1721200977081
-5.85,1.73,12.39,0.04,0.19,0.10,1721200977091
0.51,5.38,11.67,0.30,0.26,0.21,1721200977101
4.02,-0.26,7.72,0.06,0.11,0.12,1721200977111
1.31,2.13,7.66,0.07,-0.09,-0.11,1721200977121
1.72,-6.04,5.04,-0.24,0.27,-0.33,1721200977131
-2.91,-1.41,15.96,0.12,0.02,-0.21,1721200977141
-1.55,-3.87,11.88,0.09,0.28,0.12,1721200977151
-2.60,6.02,8.76,0.32,0.02,0.24,1721200977161
2.35,6.01,9.74,-0.15,0.44,-0.04,1721200977171
3.35,0.92,12.76,0.13,-0.00,-0.06,1721200977181
2.42,-1.78,10.50,-0.09,0.32,-0.07,1721200977191
-1.66,3.21,10.90,0.14,0.03,-0.10,1721200977201
-0.43,4.02,7.06,-0.04,0.19,-0.06,1721200977211
2.84,-0.76,10.05,-0.13,0.11,-0.07,1721200977221
2.21,-1.36,15.37,-0.10,0.15,-0.13,1721200977231
-0.62,2.73,13.59,0.01,0.20,-0.31,1721200977241
-3.90,3.37,3.07,0.10,0.02,-0.14,1721200977251
-1.30,1.70,0.85,-0.14,0.25,0.07,1721200977261
2.92,0.17,14.31,-0.16,0.30,0.00,1721200977271
1.29,-3.78,10.58,-0.08,-0.03,-0.07,1721200977281
-1.01,-0.48,15.13,-0.19,0.24,-0.18,1721200977291
0.80,-1.65,12.99,-0.08,0.24,-0.26,1721200977301
-0.01,0.87,8.72,0.06,0.06,-0.15,1721200977311
-0.11,-0.26,7.56,-0.09,0.24,-0.15,1721200977321
-1.18,1.35,11.76,-0.00,0.12,-0.21,1721200977331
-1.33,1.10,12.40,-0.20,0.25,-0.23,1721200977341
-3.76,4.01,10.16,0.06,-0.12,-0.13,1721200977351
-0.33,-5.43,6.86,-0.40,0.41,-0.03,1721200977361
-1.19,-1.62,13.49,-0.07,-0.08,-0.06,1721200977371
0.26,0.08,4.24,0.01,0.17,-0.12,1721200977381
-0.08,3.04,12.80,-0.12,0.23,-0.26,1721200977391
-2.64,4.24,12.49,0.09,-0.06,-0.25,1721200977401
-2.53,-0.09,12.58,-0.21,0.43,-0.21,1721200977411
-3.08,-5.07,11.52,0.08,-0.18,0.04,1721200977421
-3.49,-2.55,5.23,-0.03,0.23,-0.04,1721200977431
-1.86,2.58,11.33,0.20,-0.07,0.05,1721200977441
-1.76,1.81,9.71,0.19,0.15,-0.09,1721200977451
1.10,-3.35,9.01,0.08,-0.05,-0.15,1721200977461
-0.37,-0.20,17.74,0.01,0.15,-0.24,1721200977471
-3.43,-2.91,9.62,0.14,-0.14,-0.23,1721200977481
-8.30,6.08,12.69,0.20,0.11,-0.19,1721200977491
-1.79,-5.74,7.04,0.02,-0.07,0.15,1721200977501
-3.75,-2.66,4.31,0.19,-0.32,0.26,1721200977511
4.21,-0.69,16.33,-0.11,0.59,-0.09,1721200977521
0.38,-0.63,18.63,0.08,-0.53,-0.37,1721200977531
-9.06,2.63,-0.20,0.23,-0.28,-0.39,1721200977541
-2.16,-3.61,10.08,-0.15,0.38,-0.07,1721200977551
-2.38,-3.07,15.12,0.07,-0.49,0.32,1721200977561
-2.72,2.74,9.06,0.01,-0.03,0.09,1721200977571
0.95,3.35,12.45,0.10,-0.04,-0.20,1721200977581
-1.02,-0.34,7.55,0.01,-0.24,-0.19,1721200977591
-3.82,0.06,8.45,-0.10,-0.18,-0.11,1721200977601
-3.27,0.12,8.64,0.05,-0.21,-0.07,1721200977611
-3.64,3.92,10.79,0.04,-0.07,-0.06,1721200977621
-2.88,0.05,13.03,0.01,-0.20,0.04,1721200977631
-2.89,3.94,9.94,0.18,-0.38,0.14,1721200977641
1.77,-1.10,4.66,-0.10,-0.07,0.16,1721200977651
0.86,5.81,15.28,0.06,-0.24,-0.13,1721200977661
1.56,5.73,9.86,0.23,-0.28,-0.15,1721200977671
2.12,-0.62,17.72,-0.04,-0.01,0.03,1721200977686
-2.15,0.83,13.83,0.05,-0.23,-0.02,1721200977690
1.09,3.35,5.99,0.25,-0.27,-0.13,1721200977700
-0.19,3.40,7.92,-0.00,-0.18,-0.17,1721200977710
-0.94,1.58,11.57,0.13,-0.26,0.15,1721200977720
0.18,5.42,8.56,0.10,-0.06,0.14,1721200977730
4.19,-1.11,11.78,-0.15,-0.18,-0.05,1721200977740
0.34,0.74,10.98,0.04,-0.43,-0.19,1721200977750
-0.97,3.34,12.20,0.05,-0.02,-0.22,1721200977760
-2.61,3.21,6.56,0.19,-0.29,-0.02,1721200977770
-2.76,-0.85,7.52,-0.10,-0.10,0.13,1721200977780
-2.17,1.30,11.22,0.01,-0.21,0.00,1721200977790
0.17,0.39,7.84,-0.03,-0.21,-0.07,1721200977800
-0.32,1.37,14.46,0.00,-0.11,-0.10,1721200977810
0.09,-0.74,8.54,0.16,-0.25,-0.03,1721200977820
0.22,1.43,10.29,0.07,-0.14,0.02,1721200977830
1.69,-0.13,3.04,0.05,-0.21,0.03,1721200977840
0.05,2.16,17.17,-0.27,-0.05,-0.23,1721200977850
-1.01,-5.20,6.69,0.06,-0.38,-0.15,1721200977860
-3.02,-3.02,14.76,-0.12,-0.14,-0.11,1721200977870
-0.74,1.61,6.67,0.23,-0.19,0.22,1721200977880
2.05,-4.41,9.85,-0.40,0.05,0.19,1721200977890
0.57,0.33,18.56,0.12,-0.41,0.09,1721200977900
2.79,-2.66,1.40,-0.14,-0.10,-0.01,1721200977910
1.86,-1.17,15.08,-0.16,-0.12,-0.04,1721200977920
1.14,-2.74,10.10,0.05,-0.28,-0.01,1721200977930
1.41,-4.21,8.94,-0.13,-0.11,0.18,1721200977940
4.06,-3.69,13.94,-0.08,-0.01,0.18,1721200977950
4.02,3.02,11.65,0.06,-0.07,-0.02,1721200977960
2.83,0.87,9.48,-0.12,-0.08,-0.21,1721200977970
-0.23,-3.41,10.59,-0.09,-0.34,-0.09,1721200977980
-1.03,4.00,18.61,0.05,0.22,-0.11,1721200977990
1.25,-4.32,4.64,0.05,-0.13,0.07,1721200978000
-1.13,3.61,10.86,0.08,-0.11,0.12,1721200978010
4.71,-0.39,5.96,0.03,0.11,0.01,1721200978020
2.95,-0.03,13.57,0.04,-0.22,-0.04,1721200978030
2.97,3.90,15.52,0.23,0.10,0.03,1721200978040
2.65,-6.36,3.80,-0.20,-0.02,-0.03,1721200978050
-2.13,-3.48,13.00,-0.04,-0.22,0.07,1721200978060
1.24,-0.66,5.84,0.14,0.07,0.10,1721200978070
4.31,2.37,13.63,0.05,0.21,0.01,1721200978080
2.91,2.04,11.92,0.15,-0.16,-0.03,1721200978090
0.26,0.94,9.41,0.04,0.11,-0.16,1721200978100
0.41,3.28,13.99,0.01,0.27,-0.15,1721200978110
0.51,-3.17,4.64,0.06,-0.11,0.10,1721200978120
-0.41,1.84,9.78,0.05,0.17,-0.04,1721200978130
4.12,-0.44,7.76,0.07,0.31,-0.18,1721200978140
-1.70,5.51,12.11,0.06,-0.05,-0.36,1721200978150
-4.18,6.51,11.13,0.11,0.15,-0.24,1721200978160
-0.25,-1.27,9.43,-0.05,0.17,0.05,1721200978170
1.36,-1.10,5.76,-0.08,0.04,0.11,1721200978180
2.69,-0.46,11.55,-0.05,0.15,-0.25,1721200978190
1.67,2.17,11.47,0.10,-0.05,-0.50,1721200978200
-0.39,1.55,3.67,0.01,0.02,-0.21,1721200978210
-3.75,4.79,17.65,-0.10,0.25,-0.23,1721200978220
-0.79,-0.88,13.17,-0.09,0.08,-0.22,1721200978230
0.87,-0.01,12.93,0.06,-0.06,-0.04,1721200978240
3.72,2.95,8.74,0.05,0.28,-0.05,1721200978250
4.20,4.15,10.95,-0.04,0.14,-0.35,1721200978260
0.49,-0.25,3.70,0.04,-0.21,-0.52,1721200978270
0.05,-2.49,13.06,-0.23,0.24,-0.39,1721200978280
-0.59,0.81,12.55,0.24,0.09,-0.17,1721200978290
1.88,-0.69,9.75,-0.24,0.27,-0.29,1721200978300
-1.59,1.49,11.11,0.06,-0.31,-0.28,1721200978310
1.44,-0.20,4.33,-0.14,0.44,-0.33,1721200978320
2.36,-0.39,14.10,-0.04,0.12,-0.44,1721200978330
-1.38,-1.71,10.96,-0.10,0.08,-0.36,1721200978340
-4.81,-0.24,9.77,-0.15,-0.07,-0.38,1721200978350
-3.17,0.85,8.67,-0.00,-0.04,-0.19,1721200978360
2.69,2.09,10.46,-0.04,0.57,-0.15,1721200978370
1.17,-3.94,5.76,-0.22,0.02,-0.38,1721200978380
-6.68,0.76,7.40,-0.19,0.07,-0.62,1721200978390
-2.41,0.77,18.22,-0.03,0.37,-0.41,1721200978400
-2.71,2.71,12.00,0.10,0.09,-0.12,1721200978410
1.09,-1.66,11.98,-0.15,0.30,-0.09,1721200978420
2.01,1.88,14.54,0.17,0.04,-0.32,1721200978430
-2.04,5.26,-0.81,0.10,0.03,-0.61,1721200978440
-3.23,1.14,14.42,-0.06,0.35,-0.61,1721200978450
-3.58,-0.86,14.19,0.26,0.04,-0.21,1721200978460
-3.06,3.39,6.90,0.09,0.30,-0.04,1721200978470
1.19,1.38,12.15,-0.02,0.25,-0.30,1721200978480
0.40,1.19,15.14,0.17,0.14,-0.51,1721200978490
-4.54,0.66,5.55,0.13,-0.02,-0.49,1721200978500
-5.18,-0.97,10.89,0.03,0.21,-0.28,1721200978510
-1.15,0.80,10.02,0.17,0.18,-0.09,1721200978520
0.69,2.56,8.10,0.04,0.20,-0.25,1721200978530
1.02,1.02,13.66,0.10,0.24,-0.56,1721200978540
-1.14,-2.70,6.91,0.07,0.08,-0.56,1721200978550
-4.12,5.10,11.24,0.18,0.18,-0.33,1721200978560
-1.36,1.46,6.50,0.06,0.31,-0.13,1721200978570
-3.06,-0.83,13.08,-0.08,0.09,-0.31,1721200978580
-1.09,0.17,10.15,0.19,0.11,-0.17,1721200978590
2.89,1.92,7.27,0.03,0.41,-0.06,1721200978600
1.93,-2.21,11.53,-0.26,0.23,-0.34,1721200978610
-2.16,4.81,13.31,0.18,-0.11,-0.32,1721200978620
0.69,-2.09,7.52,-0.16,0.48,-0.20,1721200978630
-1.53,-2.33,16.32,-0.06,0.08,-0.12,1721200978640
-2.56,-2.28,-0.06,-0.08,-0.03,-0.16,1721200978650
-0.81,5.61,15.90,-0.04,0.53,-0.25,1721200978660
1.24,-2.72,12.24,-0.05,0.20,-0.25,1721200978670
-3.63,1.88,7.95,-0.15,0.02,-0.20,1721200978680
-1.11,1.53,8.85,-0.11,0.35,-0.24,1721200978690
-0.82,-2.35,10.82,-0.29,0.20,-0.19,1721200978700
-3.77,4.64,13.02,0.02,0.06,-0.10,1721200978710
-1.49,1.47,3.87,0.03,0.28,-0.01,1721200978720
-0.39,-1.55,10.53,-0.19,0.21,-0.03,1721200978730
-1.52,2.72,11.58,-0.02,0.20,-0.07,1721200978740
-0.75,1.53,14.20,-0.17,0.32,-0.15,1721200978750
-3.76,6.44,11.52,0.04,-0.04,-0.04,1721200978760
-1.41,2.53,9.47,-0.11,0.23,0.10,1721200978770
1.23,-2.97,9.49,-0.15,-0.04,0.27,1721200978780
0.93,1.42,7.67,-0.09,0.19,-0.03,1721200978790
1.52,0.04,10.86,-0.02,0.18,-0.24,1721200978800
-2.60,1.30,11.79,-0.03,0.05,-0.12,1721200978810
-3.45,3.32,9.03,0.12,0.02,0.18,1721200978820
0.00,-2.97,7.65,-0.17,0.24,0.21,1721200978830
-0.51,-1.39,14.32,-0.11,0.05,0.02,1721200978840
-0.74,1.09,13.91,-0.04,0.13,0.07,1721200978850
-0.72,1.02,9.23,0.09,-0.01,0.24,1721200978860
1.09,-0.11,8.61,-0.04,0.21,0.11,1721200978870
1.24,1.12,10.81,-0.01,0.01,0.02,1721200978880
0.08,-0.07,11.38,-0.08,0.10,-0.10,1721200978890
-0.63,0.57,10.16,0.05,0.01,-0.11,1721200978900
-0.24,-5.33,3.89,0.01,0.03,0.15,1721200978910
-0.15,0.01,14.90,0.06,0.21,0.31,1721200978920
2.04,3.35,8.99,0.10,0.16,0.10,1721200978930
0.26,0.96,9.47,-0.02,-0.00,-0.24,1721200978940
0.04,3.09,16.28,0.13,0.21,-0.12,1721200978950
1.25,-3.68,7.56,0.08,0.09,0.21,1721200978960
-1.63,-1.54,7.34,-0.00,0.13,0.16,1721200978970
-0.42,7.77,14.83,0.19,0.24,-0.08,1721200978980
2.46,-3.56,11.26,0.03,0.03,0.05,1721200978990
0.33,1.70,14.36,0.24,0.13,0.06,1721200979000
0.98,1.24,2.60,0.29,0.20,0.06,1721200979010
-1.87,-1.04,12.39,0.02,0.15,0.06,1721200979020
-0.70,3.99,12.18,0.29,0.03,0.16,1721200979030
3.23,-0.13,8.22,0.22,0.21,0.16,1721200979040
3.14,-0.61,9.69,0.17,0.13,0.04,1721200979050
-1.02,3.34,8.84,0.22,-0.03,-0.12,1721200979060
-1.77,1.31,11.47,0.08,0.26,-0.15,1721200979070
-0.47,1.06,13.71,0.29,0.08,0.25,1721200979080
0.78,-1.98,4.74,0.22,0.12,0.21,1721200979090
1.20,-2.70,6.06,-0.01,0.19,0.04,1721200979100
-1.31,5.64,15.60,0.16,0.09,-0.13,1721200979110
-1.73,0.27,9.57,0.11,0.11,-0.04,1721200979120
-2.80,-1.32,5.84,0.06,-0.07,0.28,1721200979130
1.16,-0.63,13.43,-0.12,0.28,0.25,1721200979140
3.87,1.53,12.26,0.06,0.07,0.07,1721200979150
1.40,-1.56,5.37,-0.12,0.00,-0.07,1721200979160
-2.09,3.37,13.03,-0.04,0.10,-0.20,1721200979170
-1.65,1.82,11.04,0.06,0.11,0.03,1721200979180
-1.24,1.28,7.96,-0.22,0.11,0.13,1721200979190
-0.04,0.68,15.38,-0.10,0.06,0.24,1721200979200
2.93,1.96,6.54,-0.10,0.14,-0.07,1721200979210
1.70,-1.94,7.08,-0.19,-0.02,-0.27,1721200979220
-1.28,-0.18,11.20,-0.08,0.06,-0.11,1721200979230
-1.62,3.22,14.47,-0.10,0.27,0.06,1721200979240
-2.07,-0.52,10.06,-0.20,-0.10,0.13,1721200979250
-0.78,2.75,11.53,-0.12,0.05,0.00,1721200979260
2.89,3.71,7.28,-0.04,0.11,-0.06,1721200979270
1.37,-1.03,6.83,-0.13,0.07,-0.08,1721200979280
-1.18,-3.91,10.44,-0.20,0.04,-0.03,1721200979290
-2.46,1.55,16.25,-0.09,0.08,-0.06,1721200979300
-0.60,2.39,7.59,0.05,-0.01,0.09,1721200979310
0.96,0.40,8.91,-0.18,0.23,0.01,1721200979320
2.15,1.55,14.00,0.00,0.05,-0.05,1721200979330
0.14,1.22,9.01,-0.03,0.06,-0.18,1721200979340
-0.83,2.19,12.89,0.01,0.13,-0.24,1721200979350
-2.29,-5.86,11.84,-0.22,0.05,-0.12,1721200979360
-3.93,9.28,14.13,0.27,0.00,0.04,1721200979370
1.89,1.06,2.36,0.00,0.21,0.07,1721200979380
0.45,0.19,14.63,-0.03,-0.15,0.02,1721200979390
-0.46,4.32,8.29,0.35,0.06,-0.21,1721200979400
1.18,-5.23,8.03,-0.14,0.22,-0.20,1721200979410
-3.73,0.17,13.54,0.02,-0.21,-0.14,1721200979420
-2.46,4.69,10.62,0.22,0.29,-0.01,1721200979430
-0.74,-2.91,10.74,-0.13,0.06,0.02,1721200979440
-4.13,-0.97,9.87,0.14,-0.28,0.02,1721200979450
-0.26,-3.31,6.17,0.02,0.29,0.03,1721200979460
-0.47,0.35,10.18,0.14,-0.10,0.02,1721200979470
-1.33,0.41,9.29,-0.07,0.18,0.01,1721200979480
-0.83,-3.52,16.47,-0.01,0.06,0.03,1721200979490
-2.05,0.12,9.37,0.10,-0.22,0.19,1721200979500
-0.77,4.25,9.79,-0.03,0.21,0.08,1721200979510
3.06,-2.94,12.64,-0.06,0.06,0.17,1721200979520
-0.88,-1.15,6.37,-0.00,-0.18,0.13,1721200979530
-1.21,0.54,6.94,-0.14,0.07,-0.15,1721200979540
-1.10,6.59,20.39,0.16,0.02,-0.03,1721200979550
0.38,-3.61,7.07,-0.05,-0.07,0.29,1721200979560
-2.21,2.45,15.17,-0.06,-0.11,0.08,1721200979570
0.27,1.97,9.19,0.19,-0.10,0.11,1721200979580
-0.04,4.25,10.96,-0.03,0.05,0.04,1721200979590
-0.83,0.90,8.64,0.18,-0.35,0.10,1721200979600
-0.34,-0.60,9.32,-0.07,0.11,0.13,1721200979610
-0.66,3.00,8.41,0.14,-0.25,0.06,1721200979620
0.51,0.92,11.11,-0.10,0.17,-0.05,1721200979630
-0.34,2.35,9.61,0.17,-0.24,-0.13,1721200979640
-1.69,3.20,7.39,0.01,0.05,-0.03,1721200979650
0.76,2.24,19.10,0.06,0.00,0.18,1721200979660
0.46,2.83,7.31,0.23,-0.26,0.10,1721200979670
-0.36,-0.90,6.66,-0.17,-0.01,-0.10,1721200979680
-1.30,-3.43,12.94,-0.12,0.04,0.13,1721200979695
-2.60,2.78,13.88,-0.01,-0.06,0.15,1721200979699
1.51,5.22,9.33,0.16,-0.16,0.29,1721200979709
3.66,-2.48,3.35,-0.32,0.02,0.08,1721200979719
0.38,-2.27,15.21,-0.24,-0.10,-0.37,1721200979729
-2.85,-2.00,9.92,-0.09,-0.12,-0.12,1721200979739
-3.73,2.40,6.05,0.01,-0.15,0.34,1721200979749
1.24,-5.06,7.58,-0.28,0.14,0.29,1721200979759
1.58,-1.24,13.43,-0.06,-0.14,0.04,1721200979769
0.41,-0.48,10.00,-0.27,-0.04,-0.14,1721200979779
-1.41,2.32,14.87,-0.13,-0.19,-0.06,1721200979789
-0.24,0.34,10.35,-0.15,0.06,0.07,1721200979799
-1.41,1.02,4.63,0.03,-0.30,0.19,1721200979809
2.58,-6.98,7.26,-0.38,0.20,-0.02,1721200979819
1.48,6.12,17.79,-0.02,-0.15,-0.16,1721200979829
-0.91,6.02,10.70,-0.10,-0.01,-0.21,1721200979839
-3.44,-3.25,7.20,-0.04,-0.26,0.05,1721200979849
1.26,-7.17,13.22,-0.27,0.13,0.21,1721200979859
2.59,6.05,13.37,0.06,-0.10,0.07,1721200979869
-0.22,4.33,4.13,-0.01,-0.19,-0.30,1721200979879
-1.64,-1.51,12.99,-0.24,0.12,-0.37,1721200979889
-2.31,1.30,15.61,0.07,-0.12,-0.07,1721200979899
-0.97,-2.79,2.70,0.07,0.02,0.13,1721200979909
0.03,3.26,16.48,0.06,0.06,-0.03,1721200979919
3.32,2.32,14.01,0.30,-0.15,0.06,1721200979929
1.90,5.42,7.63,0.30,0.05,0.03,1721200979939
-0.07,-3.24,5.41,0.02,0.00,-0.18,1721200979949
-2.85,0.91,16.83,0.08,-0.05,-0.25,1721200979959
-1.47,-2.14,10.98,0.14,-0.09,0.07,1721200979969
0.01,4.88,5.25,0.39,-0.09,0.22,1721200979979
6.40,-2.90,10.55,0.02,0.31,0.14,1721200979989
2.26,2.92,10.42,0.29,-0.28,-0.21,1721200979999
-1.83,0.57,8.51,0.08,0.18,-0.47,1721200980009
-3.30,3.30,18.21,0.25,0.03,-0.17,1721200980019
-1.10,-2.45,3.62,0.27,-0.04,0.21,1721200980029
0.67,1.64,7.73,0.18,0.20,0.14,1721200980039
2.68,-1.02,9.95,0.03,0.09,-0.24,1721200980049
-1.38,0.93,21.45,0.09,-0.11,-0.43,1721200980059
-1.44,3.76,9.27,0.49,-0.05,0.04,1721200980069
2.34,-1.16,3.99,-0.12,0.32,0.17,1721200980079
-0.30,2.56,11.61,0.10,-0.18,-0.04,1721200980089
0.27,1.54,0.61,0.18,0.09,-0.31,1721200980099
1.72,-0.64,9.04,-0.18,0.22,-0.23,1721200980109
0.15,-2.54,17.74,-0.01,-0.11,-0.06,1721200980119
-2.80,2.07,11.37,0.15,0.00,-0.03,1721200980129
0.08,1.68,10.72,-0.13,0.16,-0.07,1721200980139
0.28,-1.67,10.74,-0.11,-0.08,-0.06,1721200980149
-1.20,1.78,14.17,-0.05,0.12,-0.15,1721200980159
-1.96,5.41,6.32,0.18,-0.00,-0.12,1721200980169
0.23,2.26,8.11,-0.18,0.17,0.04,1721200980179
2.23,-6.08,14.24,-0.17,-0.02,-0.07,1721200980189
-0.99,-1.09,7.34,-0.07,-0.07,-0.23,1721200980199
-3.00,7.60,11.28,0.00,0.09,-0.22,1721200980209
-0.97,2.36,5.55,-0.03,-0.03,-0.02,1721200980219
-0.56,-7.02,14.69,-0.27,-0.04,0.16,1721200980229
0.70,-0.04,11.21,0.09,0.03,0.18,1721200980239
5.77,-0.22,5.60,-0.25,0.26,-0.13,1721200980249
1.31,0.78,18.97,-0.07,-0.21,-0.33,1721200980259
-4.59,2.03,6.40,0.14,-0.11,-0.35,1721200980269
-4.91,2.59,8.71,-0.07,0.10,0.04,1721200980279
-1.25,-4.67,9.71,-0.21,-0.03,0.19,1721200980289
2.60,1.36,15.30,0.01,0.14,-0.05,1721200980299
2.94,-3.26,1.94,0.01,-0.14,-0.31,1721200980309
-3.80,-4.00,7.26,-0.26,0.00,-0.35,1721200980319
-4.23,10.75,14.52,0.31,0.06,-0.14,1721200980329
-0.09,-3.96,9.26,-0.18,0.11,-0.02,1721200980339
-1.49,-3.09,14.10,-0.08,-0.30,0.30,1721200980349
0.77,3.91,10.41,-0.00,0.25,-0.21,1721200980359
0.00,-2.44,7.10,-0.06,-0.01,-0.45,1721200980369
-4.42,-3.62,5.74,-0.00,-0.17,-0.06,1721200980379
-1.60,-3.39,10.14,-0.06,0.25,0.10,1721200980389
0.02,4.67,18.85,0.04,-0.03,0.05,1721200980399
0.70,2.85,10.30,0.05,-0.02,-0.08,1721200980409
-0.03,-0.03,11.24,0.06,0.06,-0.37,1721200980419
-1.01,-3.51,5.66,0.03,-0.04,-0.16,1721200980429
-3.91,1.69,11.00,0.11,-0.01,-0.06,1721200980439
-0.20,2.18,17.88,0.07,0.23,-0.10,1721200980449
-0.89,-1.22,10.07,0.16,-0.24,-0.10,1721200980459
-2.89,1.06,5.90,0.08,-0.04,0.01,1721200980469
2.19,0.82,14.54,0.15,0.27,-0.03,1721200980479
0.29,-2.38,5.17,0.12,-0.26,-0.13,1721200980489
-4.06,7.45,8.22,0.22,-0.10,-0.20,1721200980499
2.13,-1.01,17.16,0.03,0.46,-0.15,1721200980509
-0.84,0.57,14.41,0.30,-0.28,-0.04,1721200980519
-2.09,-1.71,1.59,0.05,-0.01,-0.10,1721200980529
-2.10,6.29,13.95,0.32,0.12,-0.17,1721200980539
-0.93,-1.94,0.52,0.09,-0.02,0.05,1721200980549
-2.88,-0.08,8.63,0.01,-0.18,0.01,1721200980559
2.42,2.50,14.71,0.16,0.30,-0.01,1721200980569
2.33,1.71,11.22,0.09,-0.05,-0.25,1721200980579
-4.16,4.71,10.10,0.14,-0.13,-0.12,1721200980589
-2.43,-1.15,3.71,-0.13,0.00,0.04,1721200980599
-2.53,-0.95,11.63,-0.10,-0.23,0.25,1721200980609
3.02,-1.57,13.44,-0.03,0.09,0.23,1721200980619
3.98,-0.85,9.53,-0.04,-0.14,0.14,1721200980629
0.21,2.08,12.53,-0.06,-0.05,-0.30,1721200980639
-1.95,6.03,9.97,0.13,0.00,-0.29,1721200980649
-2.84,-2.48,2.13,-0.17,-0.13,0.06,1721200980659
-3.88,0.07,17.46,-0.36,0.21,0.15,1721200980669
0.12,-2.35,17.04,-0.01,-0.19,0.04,1721200980679
-1.09,4.24,7.99,0.09,-0.10,0.10,1721200980689
2.56,2.68,7.45,-0.25,0.11,0.05,1721200980699
2.21,-2.36,6.05,-0.16,-0.34,0.04,1721200980709
0.92,-2.36,12.68,-0.36,0.33,-0.35,1721200980719
-4.51,-1.94,7.24,-0.12,-0.39,-0.30,1721200980729
-5.66,-0.40,9.05,-0.30,0.04,0.18,1721200980739
0.87,-2.20,9.51,-0.18,0.04,0.40,1721200980749
1.99,2.69,13.49,-0.20,0.08,-0.11,1721200980759
1.17,0.39,11.08,-0.20,-0.11,-0.35,1721200980769
-2.38,-2.66,9.58,-0.15,-0.23,-0.03,1721200980779
-1.03,-3.53,5.16,-0.21,0.04,0.24,1721200980789
1.00,5.38,13.29,-0.08,-0.13,0.12,1721200980799
3.44,1.53,13.80,-0.26,-0.01,-0.10,1721200980809
1.15,1.59,15.64,-0.05,-0.16,-0.23,1721200980819
-1.33,-1.49,-0.79,0.01,-0.10,-0.16,1721200980829
-1.20,-4.38,15.35,-0.32,0.17,-0.05,1721200980839
-0.07,4.20,15.03,0.22,-0.20,0.11,1721200980849
2.01,6.65,5.93,0.20,0.09,-0.12,1721200980859
1.90,-1.80,15.06,-0.09,0.02,-0.24,1721200980869
-0.10,0.68,20.36,0.16,-0.10,-0.13,1721200980879
0.37,2.15,3.02,0.28,0.03,0.04,1721200980889
0.01,1.13,7.70,0.06,0.18,-0.12,1721200980899
-1.44,7.67,15.63,0.43,-0.04,-0.30,1721200980909
1.19,-7.31,6.71,0.08,0.13,-0.23,1721200980919
-1.07,1.07,11.62,0.26,-0.11,-0.03,1721200980929
1.81,5.31,13.67,0.18,0.34,-0.10,1721200980939
-0.20,1.20,4.71,0.33,-0.26,-0.11,1721200980949
-0.98,1.92,9.91,0.06,0.35,-0.37,1721200980959
1.67,-4.63,10.93,0.18,0.11,-0.23,1721200980969
-1.14,-2.85,9.91,0.06,0.08,-0.16,1721200980979
-1.26,-1.53,13.90,0.12,0.17,-0.25,1721200980989
-0.71,-1.61,8.33,0.26,0.06,-0.17,1721200980999
0.79,2.34,10.34,0.24,0.30,-0.05,1721200981009
0.81,2.21,11.78,0.20,0.11,-0.28,1721200981019
-3.41,7.79,10.35,0.32,0.04,-0.19,1721200981029
-0.70,-4.92,5.63,-0.16,0.42,-0.16,1721200981039
-1.08,-6.22,10.68,-0.00,-0.08,-0.15,1721200981049
0.10,0.96,7.50,0.19,0.16,-0.13,1721200981059
1.54,5.76,6.44,0.11,0.26,-0.20,1721200981069
-1.19,2.33,14.54,-0.06,0.19,-0.40,1721200981079
-2.84,-3.23,13.99,0.07,0.08,-0.18,1721200981089
-2.27,0.14,2.71,-0.04,0.07,0.12,1721200981099
2.48,4.41,13.55,-0.23,0.52,0.00,1721200981109
2.21,-5.88,9.03,-0.06,-0.11,-0.25,1721200981119
-3.04,3.29,13.99,0.01,0.09,-0.26,1721200981129
0.26,0.32,6.79,0.00,0.22,-0.18,1721200981139
-1.00,4.17,15.43,-0.12,0.11,-0.11,1721200981149
1.19,2.41,6.77,0.01,0.10,0.10,1721200981159
1.02,-3.61,4.69,-0.20,0.14,-0.19,1721200981169
-1.47,-1.52,6.22,-0.04,-0.01,-0.16,1721200981179
1.48,0.25,11.87,-0.11,0.46,-0.16,1721200981189
1.01,0.92,12.89,-0.11,-0.01,-0.07,1721200981199
-0.60,-1.00,13.70,-0.28,0.10,-0.14,1721200981209
-0.75,3.81,11.90,0.16,0.12,-0.10,1721200981219
2.49,-1.29,7.05,-0.25,0.28,-0.01,1721200981229
-1.05,6.45,12.79,0.07,-0.11,-0.11,1721200981239
-1.26,-0.07,6.01,-0.08,0.25,-0.26,1721200981249
-2.18,-2.43,10.38,0.01,0.09,-0.04,1721200981259
-1.57,4.38,6.28,0.10,0.28,-0.00,1721200981269
1.78,1.57,14.25,-0.11,0.24,-0.01,1721200981279
-0.47,-1.04,12.50,0.01,-0.07,-0.13,1721200981289
-1.32,4.39,13.97,0.11,0.26,-0.17,1721200981299
0.06,-2.46,1.78,0.12,-0.10,0.03,1721200981309
-1.75,3.95,14.89,-0.09,0.40,-0.19,1721200981319
0.26,1.07,10.13,0.33,0.09,-0.23,1721200981329
-3.00,-5.83,7.52,-0.14,0.16,-0.08,1721200981339
-3.63,6.06,14.13,0.39,0.06,0.13,1721200981349
1.62,-7.64,3.30,-0.10,0.02,0.17,1721200981359
-0.64,3.22,21.21,0.17,-0.01,-0.01,1721200981369
-0.04,-3.16,1.87,0.33,-0.09,-0.21,1721200981379
-3.12,4.13,10.69,0.06,0.34,-0.20,1721200981389
-0.91,-3.40,10.64,0.14,0.16,-0.08,1721200981399
-2.52,-4.04,9.15,-0.03,-0.08,0.01,1721200981409
-2.76,-0.67,12.85,0.07,0.13,0.00,1721200981419
-1.36,4.98,15.57,0.25,0.15,0.18,1721200981429
-0.01,3.14,1.64,0.12,-0.12,0.29,1721200981439
0.79,1.14,8.97,-0.16,0.03,-0.12,1721200981449
0.81,-6.81,11.40,-0.04,0.02,-0.23,1721200981459
-3.69,-1.73,13.81,-0.03,0.14,-0.05,1721200981469
-3.58,1.79,9.22,0.17,-0.10,0.30,1721200981479
0.55,-0.79,6.01,-0.15,0.07,0.35,1721200981489
3.01,8.63,18.39,0.20,0.13,-0.00,1721200981499
3.96,-0.43,7.55,0.04,-0.07,-0.14,1721200981509
-1.88,-3.19,12.52,-0.05,-0.25,0.02,1721200981519
-3.33,1.23,6.73,0.08,-0.09,0.18,1721200981529
0.00,4.94,11.92,0.07,0.03,0.20,1721200981539
2.11,3.03,5.54,0.10,-0.11,0.11,1721200981549
-1.02,-6.42,5.70,-0.34,-0.09,-0.00,1721200981559
-4.54,5.20,17.47,0.04,0.05,-0.04,1721200981569
0.59,1.28,5.28,0.04,-0.04,0.32,1721200981579
1.39,4.13,12.60,-0.11,-0.05,0.37,1721200981589
6.01,-4.78,7.84,-0.19,-0.07,0.10,1721200981599
1.03,2.41,16.22,-0.10,-0.18,-0.22,1721200981609
-3.47,0.58,6.76,-0.20,-0.12,-0.34,1721200981619
-7.28,3.13,12.58,-0.17,-0.20,-0.03,1721200981629
-2.16,-4.38,3.73,-0.09,-0.07,0.37,1721200981639
2.79,-6.34,10.52,-0.43,0.20,0.29,1721200981649
1.26,1.69,17.74,-0.12,-0.21,0.03,1721200981659
1.57,3.62,12.81,-0.15,-0.01,-0.14,1721200981669
0.14,5.00,11.15,-0.01,-0.15,-0.19,1721200981679
-1.99,-4.19,0.45,-0.10,-0.22,0.05,1721200981689
-4.56,2.72,18.45,0.07,-0.37,0.01,1721200981704
-1.13,0.26,12.32,0.10,-0.32,0.15,1721200981708
-1.08,4.70,3.54,-0.17,0.14,0.03,1721200981718
1.75,-1.47,11.35,-0.11,-0.18,0.03,1721200981728
2.19,-0.36,13.66,-0.11,0.03,-0.08,1721200981738
1.63,3.70,14.25,0.04,-0.03,-0.15,1721200981748
-2.49,-2.19,6.00,-0.13,-0.11,-0.11,1721200981758
-3.68,3.27,12.29,0.04,-0.06,0.09,1721200981768
2.48,-1.65,5.90,0.09,0.08,0.08,1721200981778
4.29,-3.14,10.87,0.10,-0.09,0.08,1721200981788
1.42,6.36,18.20,0.10,0.17,-0.28,1721200981798
-1.92,4.87,12.82,0.13,-0.13,-0.39,1721200981808
-2.30,-8.77,1.82,-0.07,-0.09,-0.10,1721200981818
-2.09,-0.52,9.32,0.01,0.21,0.00,1721200981828
1.22,-0.97,7.72,0.14,-0.03,-0.01,1721200981838
0.80,4.09,12.48,0.18,0.04,-0.18,1721200981848
3.36,-3.75,10.13,0.02,0.05,-0.24,1721200981858
-2.18,-0.15,16.09,0.06,-0.14,-0.24,1721200981868
-2.32,9.60,8.51,0.34,0.08,-0.11,1721200981878
2.90,-7.06,7.18,-0.17,0.15,-0.02,1721200981888
-1.68,-1.33,17.76,0.11,-0.22,-0.16,1721200981898
-0.06,-1.60,5.30,0.12,0.26,-0.17,1721200981908
-1.59,1.71,13.42,0.00,0.06,-0.12,1721200981918
-1.11,1.93,6.62,0.12,0.04,-0.14,1721200981928
-0.02,4.50,12.20,0.18,0.21,-0.09,1721200981938
1.06,1.02,8.89,0.24,0.07,-0.14,1721200981948
-1.81,0.89,9.00,0.13,0.04,-0.43,1721200981958
-2.72,-8.19,9.64,-0.13,0.06,-0.15,1721200981968
-5.77,4.94,17.33,0.23,0.03,-0.05,1721200981978
-0.18,7.60,6.59,0.38,0.24,-0.02,1721200981988
2.57,-3.25,3.47,0.19,0.06,0.08,1721200981998
1.96,2.30,12.18,0.10,0.26,-0.19,1721200982008
0.13,1.53,14.18,0.02,0.08,-0.49,1721200982018
-4.22,3.65,10.06,0.24,-0.08,-0.18,1721200982028
-1.47,-2.66,4.35,-0.07,0.20,-0.05,1721200982038
0.55,-0.33,13.30,0.02,0.05,0.07,1721200982048
0.85,1.38,2.93,-0.10,0.06,-0.17,1721200982058
-2.83,-0.04,18.01,-0.28,0.17,-0.34,1721200982068
-1.66,0.17,15.90,0.16,0.16,0.00,1721200982078
1.58,-1.61,4.48,-0.17,0.12,0.17,1721200982088
1.69,3.27,9.98,-0.05,-0.10,0.06,1721200982098
5.01,-0.66,6.13,-0.22,0.17,-0.21,1721200982108
0.46,-2.00,15.86,-0.14,0.05,-0.43,1721200982118
-3.73,-0.48,4.78,0.02,0.03,-0.29,1721200982128
-2.69,-3.26,7.81,-0.35,0.24,0.08,1721200982138
-0.97,0.17,12.34,-0.06,-0.02,0.15,1721200982148
3.55,-3.89,9.07,-0.32,0.31,-0.02,1721200982158
-0.28,-3.68,7.69,-0.20,-0.29,-0.07,1721200982168
-0.18,1.91,12.80,-0.24,0.51,-0.28,1721200982178
0.85,4.18,14.28,-0.07,0.02,-0.22,1721200982188
-1.62,-3.30,6.55,-0.25,0.10,-0.02,1721200982198
-0.38,0.91,15.69,-0.15,0.33,0.03,1721200982208
0.86,-1.79,8.28,-0.11,-0.06,0.02,1721200982218
-2.01,4.80,12.67,-0.11,0.05,-0.22,1721200982228
0.31,4.75,11.62,0.24,-0.03,-0.20,1721200982238
-0.34,-2.79,8.32,-0.17,0.33,-0.08,1721200982248
-3.40,1.65,14.63,0.11,-0.12,0.04,1721200982258
-1.87,3.42,10.30,0.10,0.26,-0.05,1721200982268
0.46,3.48,12.11,0.24,-0.03,0.02,1721200982278
0.68,-1.69,2.81,0.11,0.05,-0.05,1721200982288
1.32,3.07,12.43,0.25,0.29,-0.21,1721200982298
-1.28,0.15,11.54,0.13,-0.01,-0.21,1721200982308
-5.90,1.08,9.22,0.18,-0.17,-0.17,1721200982318
-1.72,3.47,13.11,0.27,0.29,0.13,1721200982328
1.35,3.02,6.50,0.32,0.06,0.12,1721200982338
-0.49,-9.15,0.05,-0.09,-0.05,-0.14,1721200982348
-1.97,-0.38,15.67,0.08,0.20,-0.18,1721200982358
-1.11,3.68,10.49,0.32,0.12,-0.15,1721200982368
-1.22,-5.94,7.81,-0.13,-0.09,0.08,1721200982378
-2.75,-0.84,11.21,0.10,-0.02,0.12,1721200982388
1.81,-0.64,9.84,-0.05,0.38,-0.05,1721200982398
0.51,0.02,15.29,0.07,-0.14,-0.18,1721200982408
-2.67,1.19,6.87,0.15,0.16,-0.12,1721200982418
-1.63,-5.34,7.95,-0.12,-0.01,0.10,1721200982428
-2.04,-1.49,14.32,-0.08,-0.10,0.12,1721200982438
0.49,1.17,10.23,0.14,0.08,0.08,1721200982448
1.51,5.06,12.57,0.13,0.16,-0.02,1721200982458
1.45,1.66,10.68,0.08,-0.12,0.02,1721200982468
-0.83,0.48,9.14,0.03,-0.15,0.01,1721200982478
-1.04,4.70,10.21,0.20,0.08,-0.11,1721200982488
2.06,-0.06,10.00,-0.03,0.09,-0.09,1721200982498
-1.63,-1.31,11.68,-0.02,-0.26,0.17,1721200982508
-3.80,4.58,12.79,0.04,0.08,-0.06,1721200982518
-1.33,1.72,3.57,0.11,-0.19,0.05,1721200982528
0.71,-2.64,13.67,-0.23,0.20,0.16,1721200982538
1.15,2.55,17.86,0.09,-0.11,0.23,1721200982548
-0.89,7.89,1.40,0.19,-0.16,0.01,1721200982558
1.02,-2.48,15.09,-0.41,0.26,-0.15,1721200982568
-3.55,2.97,17.00,0.17,-0.28,0.04,1721200982578
-2.38,-0.06,2.25,-0.13,0.02,0.11,1721200982588
-1.57,0.17,8.34,-0.05,-0.22,0.35,1721200982598
1.17,-0.60,7.81,-0.09,0.10,0.30,1721200982608
2.83,3.57,13.33,0.01,-0.04,0.02,1721200982618
1.44,-2.22,5.44,-0.13,-0.21,-0.06,1721200982628
-1.87,1.10,15.15,-0.18,-0.01,-0.13,1721200982638
-2.57,-1.04,8.13,-0.05,-0.11,0.09,1721200982648
-2.07,-3.35,6.49,-0.20,-0.19,0.29,1721200982658
0.87,-1.40,9.90,-0.09,-0.06,0.32,1721200982668
3.97,2.70,12.01,-0.03,0.01,0.02,1721200982678
0.03,-0.64,13.43,-0.23,-0.19,-0.20,1721200982688
-4.68,-1.05,14.02,-0.26,-0.21,-0.00,1721200982698
-2.41,5.93,7.51,0.10,-0.06,0.18,1721200982708
3.52,-1.16,2.03,-0.13,-0.05,0.28,1721200982718
3.78,-2.54,12.56,-0.16,-0.17,0.09,1721200982728
2.91,-1.54,14.41,-0.10,-0.09,-0.25,1721200982738
-1.40,0.75,14.65,-0.11,-0.14,-0.19,1721200982748
-2.70,5.88,12.06,0.02,-0.11,-0.03,1721200982758
1.69,-0.28,4.21,0.17,-0.12,0.21,1721200982768
3.20,-7.41,9.73,-0.16,0.09,-0.09,1721200982778
-0.94,6.40,17.67,0.34,-0.23,-0.24,1721200982788
0.12,-2.67,4.78,-0.03,0.09,-0.19,1721200982798
-1.95,-2.69,15.18,-0.01,-0.26,0.08,1721200982808
0.47,7.79,8.12,0.33,0.02,0.06,1721200982818
5.32,-2.16,5.80,0.08,0.09,-0.12,1721200982828
-0.31,2.62,12.58,0.23,-0.16,-0.38,1721200982838
-1.75,1.47,10.59,0.13,0.22,-0.39,1721200982848
-3.51,-2.92,15.18,0.08,-0.02,-0.07,1721200982858
-1.92,-3.77,5.96,0.16,-0.11,0.21,1721200982868
1.95,2.52,11.19,0.08,0.20,-0.09,1721200982878
3.90,0.95,14.20,0.17,-0.07,-0.31,1721200982888
-0.49,-0.01,11.56,0.07,0.07,-0.44,1721200982898
-4.33,0.60,4.63,0.14,-0.02,-0.27,1721200982908
-3.40,-1.64,9.76,-0.11,0.17,0.04,1721200982918
0.80,-3.91,12.11,0.06,-0.01,0.22,1721200982928
2.08,4.47,14.64,0.22,0.08,-0.07,1721200982938
3.28,4.68,7.52,0.27,0.09,-0.19,1721200982948
-1.84,-4.10,6.76,-0.10,-0.03,-0.45,1721200982958
-5.79,-0.37,14.43,0.01,0.00,-0.16,1721200982968
-1.97,4.82,8.68,0.18,0.13,0.27,1721200982978
3.71,-0.33,4.34,-0.08,0.14,0.31,1721200982988
4.67,1.05,14.21,-0.12,0.17,-0.22,1721200982998
0.85,4.11,12.31,0.15,0.01,-0.58,1721200983008
-3.44,-4.04,4.83,-0.25,-0.03,-0.35,1721200983018
-3.83,0.45,11.61,-0.04,-0.02,0.03,1721200983028
1.04,1.53,13.28,-0.14,0.19,0.09,1721200983038
1.76,0.14,6.60,0.00,-0.10,0.04,1721200983048
0.89,2.90,11.94,-0.09,0.31,-0.36,1721200983058
0.28,-1.58,7.11,-0.09,-0.04,-0.37,1721200983068
-2.44,-3.33,8.85,-0.09,0.06,-0.07,1721200983078
-0.22,1.51,14.97,-0.12,0.24,-0.09,1721200983088
-0.21,1.75,6.76,0.03,-0.20,-0.14,1721200983098
0.81,-1.52,12.46,-0.27,0.34,-0.17,1721200983108
1.40,-1.61,12.60,0.00,0.05,-0.17,1721200983118
-0.70,1.89,10.46,-0.11,0.27,-0.25,1721200983128
-2.59,-0.71,8.50,-0.11,-0.08,-0.34,1721200983138
-3.73,0.98,11.40,-0.04,0.06,-0.17,1721200983148
2.62,0.44,13.58,0.07,0.27,0.10,1721200983158
2.93,-5.86,6.69,-0.13,-0.05,0.05,1721200983168
-0.86,6.13,10.67,0.07,0.24,-0.34,1721200983178
-0.76,2.59,10.41,0.01,0.20,-0.59,1721200983188
-4.46,-3.22,11.14,0.06,-0.14,-0.42,1721200983198
-2.97,-1.28,12.40,0.03,0.36,-0.00,1721200983208
0.59,0.91,12.89,0.09,0.13,0.09,1721200983218
-1.39,-1.87,7.72,0.05,-0.02,-0.20,1721200983228
-4.18,1.31,8.19,0.16,0.14,-0.40,1721200983238
-2.90,2.80,10.22,0.19,0.17,-0.17,1721200983248
-0.27,-4.80,9.97,0.04,0.12,0.22,1721200983258
0.06,0.32,15.00,0.02,0.07,0.13,1721200983268
0.58,4.14,10.88,0.18,0.17,-0.09,1721200983278
-1.55,-1.56,9.38,0.05,0.01,-0.20,1721200983288
-3.45,-5.60,5.40,0.02,-0.35,0.07,1721200983298
-1.32,1.42,12.63,0.15,0.33,0.28,1721200983308
3.65,1.98,8.89,0.05,0.09,-0.01,1721200983318
-0.32,1.05,17.25,-0.06,-0.15,-0.14,1721200983328
-1.44,-1.07,5.42,0.17,-0.11,0.06,1721200983338
-0.57,-5.49,4.64,-0.18,0.20,0.16,1721200983348
-0.05,4.23,18.74,0.05,0.01,0.00,1721200983358
-0.12,0.69,6.07,0.02,-0.20,-0.04,1721200983368
-4.01,0.73,5.04,-0.00,-0.39,0.04,1721200983378
-0.06,-2.60,11.80,-0.07,0.28,0.04,1721200983388
0.85,-2.15,13.11,0.01,-0.14,0.04,1721200983398
-2.77,4.34,5.26,0.08,-0.21,-0.06,1721200983408
0.12,-0.45,9.80,-0.09,0.24,-0.12,1721200983418
-1.02,0.17,14.55,0.07,-0.14,0.16,1721200983428
0.35,5.91,9.23,0.14,0.11,0.17,1721200983438
3.90,2.70,12.31,-0.03,0.01,0.03,1721200983448
0.51,3.17,12.19,0.04,-0.43,-0.04,1721200983458
-1.06,4.16,10.61,0.10,-0.10,-0.10,1721200983468
0.03,1.92,7.38,0.20,-0.15,0.02,1721200983478
-2.79,0.87,8.78,-0.10,-0.10,-0.08,1721200983488
-1.95,0.16,16.91,0.06,-0.17,0.14,1721200983498
-0.22,3.40,9.52,0.11,-0.06,0.14,1721200983508
1.03,-0.62,6.04,-0.09,-0.10,0.03,1721200983518
-0.33,0.74,8.87,-0.01,-0.24,-0.03,1721200983528
-0.70,-0.06,10.90,-0.04,-0.00,-0.13,1721200983538
-3.03,1.23,12.35,0.03,-0.23,0.09,1721200983548
-3.38,4.38,5.89,0.04,-0.15,0.28,1721200983558
0.34,-2.75,12.86,-0.35,0.02,0.20,1721200983568
-0.03,-0.66,12.54,0.01,-0.34,0.14,1721200983578
2.52,-4.74,3.51,-0.17,-0.00,0.06,1721200983588
1.00,-0.57,14.93,-0.12,-0.16,-0.07,1721200983598
-0.86,3.00,12.73,0.03,-0.16,-0.09,1721200983608
-0.87,5.70,9.28,-0.02,-0.22,0.06,1721200983618
3.72,-5.16,7.94,-0.32,0.05,0.06,1721200983628
0.22,-9.05,9.35,-0.32,-0.31,-0.11,1721200983638
-5.13,5.05,12.56,-0.06,-0.24,-0.13,1721200983648
1.34,-1.96,11.25,-0.07,0.17,-0.01,1721200984192
-0.24,1.80,13.61,0.12,-0.02,-0.26,1721200984197
0.11,-2.63,2.86,-0.02,0.07,-0.12,1721200984207
-1.14,-0.46,16.10,-0.10,0.24,-0.01,1721200984217
-1.37,6.97,14.99,0.30,0.03,-0.01,1721200984227
-1.83,-5.45,5.95,-0.12,0.03,-0.12,1721200984237
-2.87,-0.48,10.98,0.20,-0.12,-0.06,1721200984247
1.02,2.33,12.17,0.18,0.30,0.04,1721200984257
-1.14,3.17,9.22,0.19,-0.13,0.01,1721200984267
-1.65,0.03,5.85,0.14,0.10,-0.07,1721200984277
-0.34,-2.57,7.34,0.07,0.03,-0.19,1721200984287
-1.05,2.53,16.17,0.19,0.16,-0.12,1721200984297
1.37,-2.41,9.57,0.12,0.12,0.01,1721200984307
-1.75,2.01,6.97,0.19,-0.14,-0.11,1721200984317
-0.83,-0.08,9.27,0.05,0.23,-0.16,1721200984327
-0.49,2.13,18.59,0.18,0.10,-0.22,1721200984337
-1.77,0.66,2.05,0.26,-0.25,0.08,1721200984347
-2.10,-2.63,4.68,-0.04,0.25,-0.03,1721200984357
1.17,0.38,20.07,0.14,0.24,-0.16,1721200984367
1.06,2.81,8.99,0.28,-0.10,-0.00,1721200984377
-1.45,1.38,1.87,0.07,-0.03,-0.05,1721200984387
-1.93,1.63,8.49,0.10,0.24,-0.15,1721200984397
0.13,-4.35,12.29,-0.10,0.11,-0.14,1721200984407
-1.53,1.90,15.80,0.17,-0.08,-0.06,1721200984417
-0.54,3.29,2.71,0.13,0.14,0.04,1721200984427
1.25,2.22,13.28,-0.09,0.09,-0.08,1721200984437
1.82,1.87,12.00,0.13,-0.02,0.04,1721200984447
0.51,-0.20,10.02,-0.13,0.01,-0.05,1721200984457
-2.65,0.21,9.65,0.03,-0.14,-0.14,1721200984467
-2.15,-2.28,7.98,-0.17,0.04,0.01,1721200984477
-2.54,6.69,8.71,0.07,-0.04,0.01,1721200984487
0.50,-0.19,6.28,-0.24,0.12,0.12,1721200984497
-0.89,-5.01,15.29,-0.29,-0.10,-0.02,1721200984507
-1.38,1.61,12.53,-0.05,0.00,0.07,1721200984517
1.32,-1.43,10.43,-0.30,0.05,0.13,1721200984527
-1.77,0.89,10.04,-0.14,-0.19,0.05,1721200984537
-1.36,0.70,5.41,-0.19,0.04,-0.04,1721200984547
-1.16,-4.81,11.28,-0.30,0.00,-0.10,1721200984557
-3.94,-4.39,14.79,-0.24,-0.04,-0.04,1721200984567
-4.43,0.32,10.96,-0.15,-0.19,0.29,1721200984577
-1.95,-0.34,8.49,-0.23,-0.06,0.32,1721200984587
2.45,-0.69,10.72,-0.12,-0.05,0.28,1721200984597
4.16,1.62,8.99,-0.07,-0.08,0.06,1721200984607
0.65,2.98,10.20,-0.07,-0.08,-0.23,1721200984617
-2.61,-4.01,10.77,-0.21,-0.12,-0.03,1721200984627
-4.15,8.18,18.08,0.11,-0.11,0.23,1721200984637
2.85,-1.37,3.00,0.10,-0.05,0.49,1721200984647
5.09,-6.24,8.93,-0.14,-0.06,0.16,1721200984657
2.68,1.75,12.74,0.15,-0.15,-0.21,1721200984667
-0.08,0.35,11.26,-0.07,0.04,-0.37,1721200984677
-5.55,2.95,15.55,0.19,-0.23,0.07,1721200984687
-1.36,-0.28,10.41,0.03,0.07,0.39,1721200984697
3.34,1.79,10.50,0.10,-0.01,0.16,1721200984707
3.78,-0.86,9.42,-0.03,-0.07,-0.16,1721200984717
1.55,4.06,17.30,0.23,-0.07,-0.27,1721200984727
1.61,-2.76,4.17,0.29,-0.00,-0.18,1721200984737
-2.11,-0.77,7.85,0.14,0.02,-0.13,1721200984747
-1.06,2.96,12.51,0.17,0.04,0.01,1721200984757
1.41,-1.59,9.35,0.10,-0.04,0.04,1721200984767
0.78,3.67,10.69,0.20,0.04,-0.13,1721200984777
3.05,-2.94,9.44,0.02,0.10,-0.05,1721200984787
1.46,-3.03,15.64,0.07,0.01,-0.16,1721200984797
-1.17,3.44,7.02,0.35,-0.07,-0.24,1721200984807
0.80,3.04,11.80,0.17,0.33,-0.08,1721200984817
1.62,4.53,12.12,0.41,-0.00,0.02,1721200984827
1.10,-2.08,3.23,0.05,0.13,-0.26,1721200984837
-2.19,-0.08,12.44,0.07,0.02,-0.36,1721200984847
-1.12,2.71,5.94,0.21,0.13,-0.12,1721200984857
0.75,-2.42,12.96,-0.09,0.28,-0.06,1721200984867
-0.13,1.81,17.77,0.20,0.01,-0.06,1721200984877
0.08,5.93,3.91,0.20,0.05,-0.29,1721200984887
0.97,-4.13,8.31,-0.31,0.29,-0.25,1721200984897
-2.03,1.70,15.63,0.09,-0.05,-0.26,1721200984907
-1.46,2.43,5.24,0.01,0.24,-0.11,1721200984917
-0.33,-4.40,7.02,-0.23,0.10,-0.08,1721200984927
0.53,-1.28,13.45,-0.11,0.17,-0.19,1721200984937
2.28,2.57,10.40,0.02,0.29,-0.24,1721200984947
0.75,4.64,13.92,-0.16,0.23,-0.35,1721200984957
-1.75,0.35,9.28,0.00,-0.03,-0.38,1721200984967
-0.97,-0.85,3.76,-0.00,0.17,-0.18,1721200984977
1.60,-4.61,15.12,-0.38,0.40,-0.19,1721200984987
-2.04,4.77,15.11,-0.00,-0.01,-0.25,1721200984997
-2.46,0.45,5.53,-0.13,0.30,-0.43,1721200985007
-2.32,-5.43,10.72,-0.25,0.10,-0.10,1721200985017
-0.92,1.84,10.90,-0.02,0.20,0.10,1721200985027
2.31,6.04,13.38,-0.07,0.31,-0.21,1721200985037
0.71,-3.08,5.88,-0.06,-0.08,-0.39,1721200985047
-1.58,-3.69,8.97,-0.27,0.51,-0.18,1721200985057
-2.15,-1.93,13.86,-0.14,0.21,-0.09,1721200985067
-1.68,7.62,13.00,0.07,0.27,-0.11,1721200985077
2.32,1.21,10.00,-0.14,0.08,-0.12,1721200985087
-1.25,1.76,13.16,0.09,-0.08,-0.08,1721200985097
-0.98,2.41,5.07,0.06,0.35,-0.34,1721200985107
-2.58,-2.79,7.36,-0.06,-0.03,-0.11,1721200985117
-3.49,-0.40,15.26,0.04,0.22,0.03,1721200985127
-2.48,-2.90,3.62,0.16,-0.01,-0.06,1721200985137
-1.88,1.83,11.68,0.06,0.41,0.02,1721200985147
2.60,2.42,14.97,0.09,0.34,0.05,1721200985157
0.51,2.37,15.93,0.03,0.13,-0.18,1721200985167
-2.55,3.32,10.76,0.32,0.07,-0.20,1721200985177
-4.04,-3.34,2.93,0.12,-0.09,0.07,1721200985187
-4.95,-1.25,11.24,0.06,0.05,0.31,1721200985197
-1.84,2.53,10.95,0.23,0.08,0.08,1721200985207
1.51,-2.37,10.77,-0.04,0.05,-0.07,1721200985217
1.51,-1.36,12.01,0.07,0.03,0.05,1721200985227
-0.14,-2.32,5.42,0.08,0.03,0.10,1721200985237
-1.99,4.10,13.25,0.12,0.30,-0.13,1721200985247
-0.39,-2.66,13.60,0.04,-0.05,-0.00,1721200985257
-3.30,2.78,11.57,0.09,-0.26,0.29,1721200985267
-0.54,3.03,8.36,0.13,0.09,0.24,1721200985277
1.02,-3.18,6.48,-0.13,-0.10,0.13,1721200985287
-1.81,-0.26,11.05,0.09,-0.16,0.03,1721200985297
-1.04,-3.00,5.86,-0.02,0.06,0.14,1721200985307
-1.38,4.66,12.54,0.15,-0.11,0.24,1721200985317
0.75,0.88,5.63,-0.01,0.04,0.17,1721200985327
0.83,-1.25,13.21,-0.15,-0.19,0.18,1721200985337
0.02,5.90,15.03,0.16,-0.05,0.15,1721200985347
0.99,1.04,0.24,-0.02,-0.14,0.05,1721200985357
-1.02,-4.54,16.18,-0.42,0.01,-0.08,1721200985367
-2.03,-0.13,16.27,0.08,-0.28,0.06,1721200985377
-0.58,8.82,12.31,0.03,0.24,0.18,1721200985387
2.88,0.06,9.39,-0.02,-0.25,0.35,1721200985397
0.37,2.65,12.93,-0.07,-0.17,0.12,1721200985407
1.67,-0.60,9.11,-0.04,-0.19,-0.15,1721200985417
-4.07,4.24,4.96,-0.00,-0.34,-0.15,1721200985427
-4.63,-3.54,10.40,-0.24,0.03,0.02,1721200985437
-3.21,1.30,17.42,0.15,-0.19,0.53,1721200985447
2.75,5.35,5.33,0.16,-0.09,0.60,1721200985457
5.03,-3.05,7.50,-0.31,-0.15,0.19,1721200985467
0.86,0.62,10.83,-0.14,-0.48,-0.14,1721200985477
-0.65,-1.06,8.25,-0.16,-0.06,-0.25,1721200985487
-2.83,0.66,8.07,0.02,-0.36,0.06,1721200985497
0.72,-8.36,10.32,-0.37,0.01,0.38,1721200985507
0.75,4.99,15.74,0.04,-0.18,0.13,1721200985517
0.49,1.06,0.35,-0.05,-0.31,-0.19,1721200985527
-1.03,-0.89,14.08,-0.31,-0.04,-0.14,1721200985537
0.51,-0.02,10.50,0.05,-0.30,0.12,1721200985547
0.46,-0.65,6.15,-0.08,-0.11,0.11,1721200985557
1.12,-4.15,12.93,-0.28,-0.07,-0.00,1721200985567
-0.38,4.76,18.83,-0.03,-0.28,0.05,1721200985577
3.97,3.37,5.47,0.12,-0.07,0.04,1721200985587
3.70,2.86,1.01,0.05,-0.19,-0.05,1721200985597
3.05,-5.22,10.84,-0.27,0.12,-0.37,1721200985607
-2.45,-3.05,20.26,-0.02,-0.38,-0.37,1721200985617
-3.53,3.31,8.50,0.17,-0.11,-0.04,1721200985627
2.12,-0.05,11.07,-0.16,0.13,0.16,1721200985637
2.15,0.91,7.53,0.16,-0.26,-0.04,1721200985647
3.12,-6.47,12.09,-0.17,0.25,-0.47,1721200985657
-1.39,6.87,19.20,0.32,-0.25,-0.22,1721200985667
-0.23,-2.87,0.92,0.01,0.07,-0.21,1721200985677
-1.56,3.53,16.98,0.19,0.02,-0.19,1721200985687
2.89,-2.45,5.59,0.23,0.01,-0.09,1721200985697
2.46,-0.54,11.98,0.09,0.13,-0.14,1721200985707
1.32,5.24,13.68,0.31,0.03,-0.29,1721200985717
0.63,-4.14,6.01,0.08,0.11,-0.39,1721200985727
-1.44,-0.88,11.08,0.22,0.03,-0.21,1721200985737
-0.23,5.99,10.93,0.29,0.22,-0.20,1721200985747
0.63,-1.05,6.07,0.23,0.08,-0.19,1721200985757
-0.45,2.61,14.61,0.15,0.25,-0.34,1721200985767
1.49,0.58,8.91,0.35,0.12,-0.20,1721200985777
0.11,-2.26,6.62,-0.01,0.20,-0.18,1721200985787
-0.72,4.19,15.34,0.21,0.08,-0.31,1721200985797
1.17,-0.24,0.28,0.05,0.13,-0.19,1721200985807
-0.43,3.00,13.10,-0.07,0.38,-0.32,1721200985817
-0.43,-0.40,9.45,0.10,0.17,-0.33,1721200985827
-2.38,3.95,8.47,-0.09,0.25,-0.31,1721200985837
-1.83,0.79,13.51,-0.11,0.21,-0.24,1721200985847
-0.78,-0.91,9.61,-0.09,0.20,-0.09,1721200985857
-0.81,3.97,8.43,0.01,0.18,-0.15,1721200985867
1.04,-0.57,6.53,-0.18,0.33,-0.29,1721200985877
-1.04,0.62,13.68,-0.16,0.12,-0.26,1721200985887
-1.72,-1.34,7.06,-0.11,0.14,-0.21,1721200985897
-0.10,8.93,14.61,0.11,0.46,-0.18,1721200985907
3.28,-6.43,0.91,-0.46,0.07,-0.06,1721200985917
-5.05,-4.68,19.05,-0.42,-0.07,-0.55,1721200985927
-1.50,2.88,9.96,0.32,0.22,-0.34,1721200985937
-0.57,-0.90,5.15,-0.36,0.44,-0.27,1721200985947
-3.85,-3.41,16.46,-0.23,-0.16,-0.04,1721200985957
-2.23,-2.75,8.84,-0.08,0.19,0.10,1721200985967
0.33,2.90,10.16,-0.13,0.25,-0.17,1721200985977
-0.35,-1.29,10.49,-0.20,0.08,-0.27,1721200985987
-2.74,0.05,10.62,-0.06,0.08,-0.04,1721200985997
-0.15,1.42,8.15,-0.06,0.33,-0.02,1721200986007
0.30,-0.54,13.14,-0.13,0.06,-0.02,1721200986017
-0.76,5.11,9.74,0.14,-0.01,0.03,1721200986027
2.35,3.07,10.51,-0.00,0.38,-0.10,1721200986037
-3.22,-3.85,6.41,0.05,-0.28,-0.14,1721200986047
-5.58,4.49,9.81,0.16,0.23,-0.12,1721200986057
-0.15,-6.45,8.74,-0.09,0.19,0.10,1721200986067
-4.17,2.89,11.23,0.19,-0.07,0.13,1721200986077
3.21,-1.74,13.82,-0.12,0.54,-0.07,1721200986087
-0.21,7.45,17.76,0.17,-0.40,-0.12,1721200986097
-3.44,0.55,-2.40,0.17,0.04,0.01,1721200986107
1.48,-0.17,18.62,-0.08,0.57,0.09,1721200986117
0.96,-1.37,10.77,0.36,-0.66,0.23,1721200986127
-3.24,0.39,2.02,-0.03,0.44,0.10,1721200986137
1.30,3.35,13.06,0.36,0.14,-0.16,1721200986147
0.09,-3.27,7.52,0.04,-0.04,-0.11,1721200986157
-3.16,-2.45,7.87,0.08,-0.19,-0.04,1721200986167
-3.47,1.63,4.83,0.32,0.14,0.10,1721200986177
2.44,-2.51,12.51,-0.09,0.40,0.07,1721200986187
1.36,4.04,13.62,0.35,0.09,-0.07,1721200986202
-1.83,4.19,6.12,0.24,0.10,-0.02,1721200986206
2.26,-1.82,13.25,0.01,0.28,-0.07,1721200986216
-0.57,0.09,11.95,0.17,-0.33,-0.03,1721200986226
-4.71,0.69,1.63,0.08,-0.09,0.03,1721200986236
-1.20,-3.67,10.62,-0.05,0.20,0.04,1721200986246
0.15,-0.64,14.19,0.13,-0.02,0.08,1721200986256
0.13,1.68,7.69,-0.03,0.05,0.09,1721200986266
0.94,3.00,14.86,-0.02,0.07,-0.06,1721200986276
-0.13,3.92,12.70,0.14,-0.05,-0.03,1721200986286
-0.07,4.81,12.76,0.05,0.16,0.11,1721200986296
0.08,0.44,8.65,-0.09,-0.21,0.12,1721200986306
-1.35,-1.61,11.28,-0.09,-0.18,0.13,1721200986316
-1.08,0.97,9.79,-0.01,-0.12,0.03,1721200986326
-1.23,1.16,6.48,-0.04,-0.27,0.18,1721200986336
-1.13,-1.39,7.65,-0.03,-0.03,0.09,1721200986346
-0.93,1.78,14.94,-0.07,0.25,-0.00,1721200986356
-2.62,0.32,16.35,-0.06,-0.16,0.03,1721200986366
-3.05,3.50,4.42,0.08,-0.25,0.39,1721200986376
1.60,0.83,7.01,-0.17,0.07,0.41,1721200986386
4.39,-2.54,13.46,-0.16,-0.17,0.26,1721200986396
1.29,-0.01,7.15,-0.07,-0.28,-0.29,1721200986406
-3.40,0.12,9.72,-0.18,-0.08,-0.44,1721200986416
-6.50,-0.45,13.22,-0.13,-0.13,0.11,1721200986426
-3.31,-5.76,8.71,-0.24,-0.18,0.55,1721200986436
1.48,2.94,11.69,0.00,-0.12,0.43,1721200986446
6.71,-2.50,9.13,-0.26,-0.11,0.09,1721200986456
0.05,-1.09,13.12,-0.27,-0.40,-0.17,1721200986466
-2.55,6.62,10.69,0.05,-0.11,-0.19,1721200986476
-1.07,-6.68,5.07,-0.21,-0.20,0.16,1721200986486
-1.29,-2.71,12.44,-0.11,-0.16,0.31,1721200986496
2.70,6.03,6.41,0.16,-0.08,0.09,1721200986506
2.68,0.39,8.52,-0.16,-0.02,-0.24,1721200986516
-0.04,4.79,17.30,0.05,-0.21,-0.16,1721200986526
0.52,-2.38,2.75,-0.04,-0.15,0.05,1721200986536
-0.79,1.71,14.13,-0.03,-0.05,-0.04,1721200986546
2.06,0.02,11.20,0.07,-0.17,0.03,1721200986556
2.04,1.87,10.21,0.05,-0.03,-0.09,1721200986566
0.13,1.34,9.97,0.11,-0.13,-0.37,1721200986576
-1.79,0.55,6.08,0.16,-0.09,-0.10,1721200986586
-0.33,-2.12,13.68,-0.04,0.26,-0.10,1721200986596
-1.71,2.19,17.88,0.22,-0.23,0.10,1721200986606
1.04,4.64,5.51,0.20,-0.08,0.21,1721200986616
4.94,2.94,13.17,0.12,0.21,-0.22,1721200986626
2.69,-1.82,9.57,0.27,-0.24,-0.52,1721200986636
-3.12,-1.29,7.04,0.17,-0.05,-0.27,1721200986646
-3.42,2.61,14.07,0.21,0.13,-0.06,1721200986656
1.01,-0.96,7.17,0.23,-0.06,0.25,1721200986666
4.24,6.16,10.51,0.26,0.17,-0.20,1721200986676
5.89,-2.99,9.60,0.14,0.09,-0.46,1721200986686
-2.30,-0.42,17.76,0.18,0.00,-0.61,1721200986696
-4.27,-2.06,4.29,0.32,-0.06,-0.07,1721200986706
-0.80,-6.13,9.17,-0.23,0.25,0.11,1721200986716
1.30,5.59,16.61,0.37,0.01,-0.26,1721200986726
2.09,2.17,3.74,0.18,0.21,-0.46,1721200986736
-1.53,-0.16,10.43,-0.06,0.13,-0.24,1721200986746
-2.65,2.04,13.66,0.15,0.12,-0.31,1721200986756
1.41,5.82,5.63,0.19,0.25,0.04,1721200986766
3.32,-0.23,10.32,-0.22,0.24,-0.24,1721200986776
-1.28,-3.32,13.96,-0.11,-0.02,-0.49,1721200986786
-3.25,5.06,8.98,0.10,0.17,-0.40,1721200986796
-0.26,1.03,4.91,-0.22,0.27,-0.14,1721200986806
-0.57,0.19,17.71,-0.13,0.12,-0.15,1721200986816
-0.15,4.56,11.33,0.04,0.13,-0.23,1721200986826
-0.03,0.03,5.67,-0.15,0.10,-0.30,1721200986836
-2.11,-4.82,6.32,-0.32,0.10,-0.26,1721200986846
-0.97,4.46,15.92,-0.01,0.23,-0.17,1721200986856
1.22,1.67,7.01,-0.05,0.06,-0.18,1721200986866
-3.40,2.10,11.22,-0.16,0.05,-0.32,1721200986876
-1.75,-4.36,8.95,-0.17,0.24,-0.23,1721200986886
-0.18,-1.17,12.05,-0.06,0.15,0.13,1721200986896
1.18,4.96,10.96,-0.05,0.22,-0.07,1721200986906
1.18,-0.58,13.57,-0.08,0.05,-0.26,1721200986916
-3.94,-6.18,6.62,-0.17,-0.07,-0.24,1721200986926
-3.12,-2.31,10.65,-0.10,0.40,-0.11,1721200986936
1.02,7.92,12.61,0.06,0.20,-0.09,1721200986946
2.10,-3.74,10.52,-0.14,-0.08,-0.03,1721200986956
-2.26,-4.05,8.01,0.04,0.05,-0.17,1721200986966
0.00,1.86,12.44,-0.05,0.46,-0.31,1721200986976
-0.95,5.03,13.72,0.09,-0.02,-0.07,1721200986986
-1.66,2.26,10.45,0.02,0.22,-0.10,1721200986996
-0.93,0.55,14.63,0.18,0.08,-0.19,1721200987006
-1.70,-1.38,5.60,0.19,-0.04,0.05,1721200987016
-1.52,3.54,6.99,0.18,0.12,0.10,1721200987026
1.55,6.22,14.57,0.10,0.23,-0.18,1721200987036
-1.95,-7.15,7.70,-0.02,-0.30,-0.22,1721200987046
-6.93,-3.15,12.67,0.07,0.19,-0.06,1721200987056
-1.14,3.44,6.97,0.32,0.39,0.16,1721200987066
2.36,-6.21,6.05,-0.23,0.08,0.00,1721200987076
0.17,5.35,14.12,0.32,-0.21,-0.17,1721200987086
4.98,0.17,13.36,0.18,0.58,-0.23,1721200987096
0.00,0.80,14.29,0.09,-0.25,-0.16,1721200987106
-5.85,5.80,1.89,0.20,-0.25,0.03,1721200987116
0.23,-2.88,11.93,-0.21,0.48,-0.13,1721200987126
-0.63,-2.39,14.40,0.31,-0.25,-0.08,1721200987136
-1.82,-4.73,1.10,-0.01,0.28,0.01,1721200987146
-0.57,4.72,13.56,0.03,0.16,0.05,1721200987156
0.42,3.27,12.90,0.04,-0.03,-0.14,1721200987166
-0.35,4.78,12.21,0.25,0.03,-0.10,1721200987176
1.03,-5.79,2.06,-0.15,0.18,-0.09,1721200987186
-4.21,-0.95,13.23,-0.08,-0.30,-0.01,1721200987196
-2.34,6.11,10.89,0.27,0.20,0.12,1721200987206
2.27,-4.68,4.02,-0.20,0.02,0.15,1721200987216
-2.37,4.36,10.00,0.16,-0.18,-0.01,1721200987226
4.74,4.81,11.81,0.04,0.65,-0.30,1721200987236
0.78,-2.23,11.66,-0.05,-0.34,-0.02,1721200987246
-5.37,3.17,14.42,-0.12,0.07,0.13,1721200987256
-1.80,2.82,9.87,0.08,0.03,0.03,1721200987266
0.12,-1.80,5.58,-0.08,-0.17,0.33,1721200987276
1.09,-0.61,9.07,-0.10,-0.00,0.22,1721200987286
-1.52,-0.73,10.42,-0.12,-0.11,-0.16,1721200987296
-5.20,5.42,11.91,0.06,-0.12,-0.06,1721200987306
-2.28,-7.68,3.79,-0.30,-0.08,0.27,1721200987316
-1.05,3.12,18.61,0.05,0.03,0.46,1721200987326
5.63,-3.32,9.22,-0.21,0.10,0.16,1721200987336
-0.58,4.83,16.53,0.01,-0.29,-0.07,1721200987346
-0.96,7.85,2.64,0.22,-0.02,-0.07,1721200987356
1.16,-6.26,4.11,-0.36,0.05,0.11,1721200987366
-0.68,-5.69,13.22,-0.16,-0.21,0.15,1721200987376
-2.02,3.76,12.53,0.00,0.00,0.06,1721200987386
0.61,1.39,9.92,-0.06,-0.09,0.20,1721200987396
1.28,-2.72,7.87,-0.10,-0.05,0.24,1721200987406
0.46,-0.86,12.03,-0.10,0.05,-0.17,1721200987416
0.57,3.32,16.29,-0.11,0.03,-0.16,1721200987426
-2.83,5.00,7.80,0.20,-0.22,-0.07,1721200987436
-1.13,-6.56,3.58,-0.16,0.03,0.27,1721200987446
1.70,0.62,13.92,0.12,-0.07,0.43,1721200987456
5.45,-1.13,10.20,-0.02,0.05,-0.22,1721200987466
0.87,-2.55,12.15,-0.03,-0.18,-0.45,1721200987476
-3.55,7.34,10.75,0.25,-0.03,-0.19,1721200987486
0.08,4.04,11.40,0.01,0.27,0.08,1721200987496
-0.97,0.88,8.67,0.18,-0.26,0.07,1721200987506
1.50,-2.53,11.66,-0.06,0.24,-0.21,1721200987516
1.83,-2.14,12.39,-0.01,-0.04,-0.24,1721200987526
-3.10,1.47,7.97,0.21,-0.23,0.04,1721200987536
1.26,3.88,13.80,0.14,0.45,0.13,1721200987546
4.97,-0.35,4.58,0.27,-0.09,-0.07,1721200987556
0.74,-0.38,7.24,-0.06,0.19,-0.30,1721200987566
-2.58,4.16,16.09,0.19,0.11,-0.44,1721200987576
-3.73,-1.97,4.52,0.11,0.05,-0.26,1721200987586
-0.97,-5.58,10.58,-0.05,0.08,0.29,1721200987596
3.04,1.09,13.75,0.11,0.09,0.18,1721200987606
3.73,4.83,15.35,0.16,0.10,-0.30,1721200987616
-0.17,1.87,12.40,0.16,0.05,-0.40,1721200987626
-3.01,0.14,6.02,0.24,0.07,-0.32,1721200987636
-2.78,1.59,-4.62,0.15,0.11,-0.01,1721200987646
0.19,-3.48,9.40,-0.30,0.40,-0.02,1721200987656
0.39,2.31,22.19,0.26,-0.10,-0.14,1721200987666
0.30,-0.69,7.64,-0.04,0.16,-0.17,1721200987676
-2.04,5.87,16.60,0.14,-0.02,-0.16,1721200987686
-0.29,1.76,2.79,-0.03,0.22,-0.05,1721200987696
-1.44,1.02,14.67,-0.12,0.29,-0.13,1721200987706
-0.54,0.90,11.73,0.07,0.15,-0.20,1721200987716
-0.25,5.12,12.59,0.05,0.21,-0.17,1721200987726
-0.53,5.53,11.81,0.06,0.15,-0.20,1721200987736
-0.61,0.59,10.86,0.01,0.06,-0.01,1721200987746
1.10,3.54,10.43,0.09,0.06,0.10,1721200987756
0.70,2.71,4.26,0.14,-0.04,-0.18,1721200987766
1.10,-3.31,3.06,-0.16,0.15,-0.27,1721200987776
-1.03,-3.62,10.90,-0.16,0.11,-0.25,1721200987786
-1.94,0.24,15.13,-0.12,0.25,-0.10,1721200987796
-1.68,1.43,13.42,-0.05,0.04,-0.16,1721200987806
-0.86,1.66,10.26,0.03,0.08,-0.05,1721200987816
0.70,6.35,9.61,0.03,0.31,-0.10,1721200987826
0.50,-7.35,4.60,-0.29,-0.03,-0.08,1721200987836
-3.68,-0.15,16.92,-0.10,0.14,-0.25,1721200987846
0.96,-1.09,2.02,0.07,0.12,-0.10,1721200987856
-0.58,-2.94,14.19,-0.43,0.39,-0.25,1721200987866
-2.01,8.26,16.01,0.32,-0.07,-0.10,1721200987876
1.19,-0.53,2.95,-0.24,0.32,0.03,1721200987886
-0.39,0.17,18.58,0.00,-0.09,-0.12,1721200987896
-1.62,-0.71,4.51,0.18,0.07,-0.13,1721200987906
-1.88,-3.00,3.90,-0.14,0.24,-0.13,1721200987916
-1.52,0.72,14.07,0.00,0.09,-0.07,1721200987926
-2.28,4.40,9.12,0.11,0.07,-0.15,1721200987936
-0.17,1.59,18.19,-0.06,0.30,-0.16,1721200987946
-1.46,-0.25,8.84,0.31,-0.21,0.08,1721200987956
-0.14,-0.15,6.15,-0.04,0.51,0.09,1721200987966
0.93,2.47,14.15,0.20,-0.05,-0.01,1721200987976
-1.96,-3.31,4.37,-0.05,-0.01,-0.12,1721200987986
-1.40,3.18,16.29,0.17,0.27,-0.03,1721200987996
0.14,2.67,4.86,0.20,-0.06,-0.02,1721200988006
-0.95,1.26,14.20,-0.08,0.10,-0.11,1721200988016
-0.06,-2.37,11.28,0.20,-0.07,0.10,1721200988026
-1.26,-2.24,6.22,0.02,0.18,-0.01,1721200988036
-3.17,1.55,13.00,-0.06,0.12,-0.10,1721200988046
-2.34,2.91,12.66,0.18,0.01,-0.06,1721200988056
-0.33,-5.53,6.52,-0.11,0.00,0.25,1721200988066
-0.97,3.98,12.48,0.12,0.04,0.10,1721200988076
2.19,0.53,9.74,-0.03,0.16,-0.11,1721200988086
-1.70,7.74,12.69,0.27,-0.20,0.05,1721200988096
-1.23,1.66,6.85,-0.08,0.15,0.05,1721200988106
-0.42,-2.77,10.21,0.04,-0.38,0.22,1721200988116
-2.50,1.17,10.94,-0.05,0.17,0.19,1721200988126
1.35,-0.63,7.56,0.04,-0.00,0.13,1721200988136
1.19,4.19,10.54,-0.01,-0.01,0.17,1721200988146
1.79,4.49,10.48,0.10,-0.07,0.06,1721200988156
0.87,0.73,5.57,0.00,-0.08,0.05,1721200988166
-1.50,4.91,12.50,-0.07,0.02,-0.10,1721200988176
-0.52,-0.63,14.20,-0.09,0.01,-0.10,1721200988186
-4.20,-1.40,8.60,-0.08,-0.24,0.11,1721200988196
-1.37,5.20,12.70,0.01,-0.11,0.50,1721200988211
1.56,7.15,11.24,0.13,-0.17,0.35,1721200988215
4.00,-0.77,7.43,-0.10,-0.03,0.17,1721200988225
-0.16,-2.45,12.06,-0.22,-0.15,-0.09,1721200988235
-3.34,3.00,8.94,0.06,-0.15,-0.08,1721200988245
-1.86,-2.56,4.34,-0.29,-0.04,0.15,1721200988255
0.00,-4.99,14.03,-0.21,-0.21,0.50,1721200988265
2.23,4.70,10.96,0.18,-0.04,0.33,1721200988275
3.44,-2.06,7.10,-0.25,0.01,0.07,1721200988285
-1.87,-0.99,18.13,-0.29,-0.14,-0.13,1721200988295
-3.00,1.74,13.06,0.02,-0.12,-0.18,1721200988305
-2.89,3.01,8.49,-0.01,-0.06,0.18,1721200988315
-1.41,-4.89,4.78,-0.11,-0.15,0.40,1721200988325
1.24,-0.05,11.17,-0.08,0.05,0.30,1721200988335
3.77,1.88,9.90,-0.06,-0.06,-0.07,1721200988345
1.70,-3.60,11.09,-0.18,-0.22,-0.19,1721200988355
0.05,-1.23,17.62,-0.14,0.03,-0.18,1721200988365
-1.95,6.24,10.98,0.20,-0.17,0.01,1721200988375
0.07,-2.40,6.36,-0.20,0.26,0.08,1721200988385
0.28,-5.33,13.32,-0.09,-0.29,0.03,1721200988395
-0.55,7.13,9.28,0.33,0.01,-0.11,1721200988405
3.75,-2.58,4.99,-0.06,0.17,-0.19,1721200988415
-0.93,-0.68,18.13,-0.04,-0.20,-0.12,1721200988425
-0.64,10.62,15.66,0.27,0.14,-0.02,1721200988435
1.96,-9.49,-1.17,-0.09,-0.06,0.03,1721200988445
-5.53,-2.61,17.42,-0.08,-0.09,-0.22,1721200988455
-1.29,4.24,10.03,0.35,0.08,-0.02,1721200988465
0.91,4.97,7.78,0.18,0.09,0.15,1721200988475
3.25,-0.51,11.12,0.15,0.08,0.04,1721200988485
1.33,-1.34,13.93,0.18,0.00,-0.04,1721200988495
-1.30,-1.18,1.64,0.21,-0.09,0.06,1721200988505
-0.94,5.21,13.75,0.08,0.30,0.01,1721200988515
2.11,2.97,10.30,0.37,-0.13,-0.01,1721200988525
2.89,0.19,9.01,0.09,0.11,-0.01,1721200988535
0.66,-1.64,10.30,0.11,-0.02,-0.12,1721200988545
-1.97,-4.74,12.39,-0.06,0.14,-0.09,1721200988555
-2.68,1.98,16.36,0.30,-0.01,-0.03,1721200988565
0.30,2.29,-0.26,0.19,0.04,0.10,1721200988575
0.75,7.64,13.74,0.19,0.15,-0.01,1721200988585
2.19,-3.85,7.92,0.01,0.05,-0.24,1721200988595
-2.61,-7.43,13.30,-0.15,-0.01,-0.18,1721200988605
-3.08,1.68,10.97,0.09,0.01,0.13,1721200988615
1.45,4.96,7.24,0.11,0.08,0.23,1721200988625
4.49,4.07,-1.39,0.03,0.10,0.02,1721200988635
2.90,-2.21,13.15,-0.45,0.27,-0.35,1721200988645
-4.39,0.90,22.31,-0.03,-0.05,-0.51,1721200988655
-4.34,3.55,2.61,0.09,-0.02,0.01,1721200988665
-0.99,3.95,8.78,-0.31,0.25,0.18,1721200988675
3.47,1.66,12.40,-0.03,-0.04,0.22,1721200988685
2.62,-0.99,-1.27,-0.15,-0.10,-0.18,1721200988695
-0.17,-0.51,14.53,-0.27,0.27,-0.51,1721200988705
-2.62,-2.62,13.17,-0.21,-0.03,-0.27,1721200988715
-2.68,1.26,20.86,-0.11,0.06,0.13,1721200988725
0.18,6.04,7.47,0.27,0.01,0.14,1721200988735
1.39,-2.13,0.80,-0.33,0.14,0.04,1721200988745
-1.39,1.39,14.13,-0.17,-0.07,-0.16,1721200988755
0.85,-3.51,10.57,-0.14,0.11,-0.24,1721200988765
-1.53,9.61,11.01,0.11,-0.07,-0.23,1721200988775
-0.88,1.54,3.45,-0.00,0.03,-0.06,1721200988785
-0.16,-10.28,9.49,-0.24,-0.11,0.14,1721200988795
-0.44,3.12,15.07,0.08,0.31,-0.07,1721200988805
0.40,1.41,7.31,-0.06,-0.03,-0.47,1721200988815
-5.93,-3.61,9.79,-0.20,-0.22,-0.25,1721200988825
-3.43,0.00,13.57,0.08,0.23,0.14,1721200988835
0.93,-4.35,3.04,-0.08,0.03,0.16,1721200988845
0.89,5.54,15.85,0.04,0.20,-0.05,1721200988855
4.21,1.39,12.55,0.12,0.12,-0.22,1721200988865
-2.32,1.18,8.96,0.01,-0.25,-0.26,1721200988875
-3.64,3.91,13.84,0.06,0.12,-0.11,1721200988885
-1.16,-1.94,8.67,0.19,-0.11,0.06,1721200988895
-1.97,-7.19,2.69,-0.12,-0.10,0.05,1721200988905
0.33,-1.94,11.85,0.02,0.19,-0.11,1721200988915
1.49,4.91,17.25,0.15,0.20,-0.24,1721200988925
-1.64,6.26,13.47,0.18,-0.05,-0.22,1721200988935
-2.89,1.05,5.68,0.12,-0.10,-0.08,1721200988945
-0.09,-7.85,9.20,-0.09,0.16,0.08,1721200988955
0.16,-2.02,14.29,0.05,0.03,-0.10,1721200988965
-1.77,4.94,8.86,0.21,-0.08,-0.28,1721200988975
-1.96,-1.24,7.94,0.03,0.11,-0.08,1721200988985
-1.51,0.20,12.92,0.06,-0.04,0.13,1721200988995
2.24,4.34,14.96,0.12,0.10,0.04,1721200989005
2.44,3.70,8.80,0.25,-0.06,-0.14,1721200989015
-1.24,-1.12,8.86,0.03,-0.05,-0.26,1721200989025
-4.76,-0.67,8.98,0.14,-0.28,-0.05,1721200989035
-4.32,0.96,0.24,0.16,-0.12,0.29,1721200989045
1.94,-2.06,18.64,-0.15,0.41,0.26,1721200989055
2.56,5.88,20.95,0.31,-0.19,0.06,1721200989065
1.75,5.15,3.34,0.12,-0.01,-0.22,1721200989075
0.12,2.02,8.29,-0.00,-0.12,-0.24,1721200989085
-2.40,3.11,9.35,0.08,-0.02,-0.17,1721200989095
-2.23,-1.37,9.17,-0.10,-0.03,-0.04,1721200989105
-3.43,-1.66,12.37,-0.04,-0.18,0.11,1721200989115
-1.61,3.95,16.18,-0.00,0.00,0.17,1721200989125
1.33,2.43,7.33,0.01,-0.19,0.14,1721200989135
0.70,1.38,10.26,-0.21,-0.02,-0.08,1721200989145
0.70,1.69,12.49,0.09,-0.17,-0.27,1721200989155
-3.09,-0.74,3.06,-0.05,-0.21,-0.14,1721200989165
-5.73,1.67,14.96,-0.14,-0.04,0.08,1721200989175
-1.10,1.03,11.20,0.03,-0.18,0.28,1721200989185
1.53,-1.57,5.63,-0.04,-0.28,0.33,1721200989195
3.81,-0.28,8.97,-0.08,0.07,-0.11,1721200989205
1.63,-1.11,5.91,-0.08,-0.29,-0.19,1721200989215
-2.66,2.00,13.82,-0.10,-0.27,0.02,1721200989225
0.07,-2.50,8.66,0.03,-0.19,0.29,1721200989235
0.37,-1.89,3.62,-0.18,-0.13,0.08,1721200989245
0.16,-3.54,11.41,-0.34,-0.06,-0.13,1721200989255
-1.77,-2.12,20.78,-0.21,-0.22,-0.06,1721200989265
-1.53,2.60,4.92,0.15,-0.26,0.28,1721200989275
2.61,3.35,8.88,-0.09,0.16,0.09,1721200989285
4.67,-0.74,16.08,-0.02,-0.15,-0.03,1721200989295
2.47,0.44,14.09,-0.06,-0.06,-0.17,1721200989305
-0.46,-1.87,7.33,0.04,-0.24,-0.12,1721200989315
-0.72,-0.39,7.68,-0.05,0.02,0.02,1721200989325
1.80,0.18,10.68,-0.04,-0.07,-0.04,1721200989335
3.18,2.04,15.61,0.04,0.02,-0.20,1721200989345
1.54,-1.02,6.89,0.01,-0.08,-0.27,1721200989355
-2.26,-0.09,10.40,-0.03,-0.05,-0.35,1721200989365
-1.44,7.14,14.88,0.14,0.08,-0.22,1721200989375
2.45,-2.74,5.79,0.11,0.05,-0.03,1721200989385
0.66,-2.48,9.66,-0.01,0.09,-0.19,1721200989395
-2.30,-1.35,6.29,-0.04,-0.06,-0.28,1721200989405
-2.59,3.37,16.58,-0.02,0.20,-0.30,1721200989415
1.22,1.63,7.81,0.23,-0.02,0.00,1721200989425
2.72,0.98,10.44,0.08,0.17,-0.05,1721200989435
1.12,0.84,10.08,0.20,0.08,-0.36,1721200989445
-2.11,-1.09,7.06,0.03,0.01,-0.56,1721200989455
-4.30,-0.61,19.11,0.10,0.09,-0.21,1721200989465
-1.71,0.99,8.69,0.20,0.15,0.18,1721200989475
2.00,-1.92,5.59,0.01,0.05,0.06,1721200989485
2.46,4.30,8.71,0.16,0.07,-0.42,1721200989495
0.91,7.30,17.99,0.23,0.38,-0.80,1721200989505
-3.30,-3.15,5.48,0.18,-0.01,-0.26,1721200989515
-5.12,1.70,10.28,0.20,0.10,0.10,1721200989525
2.17,-1.74,5.96,-0.07,0.31,-0.01,1721200989535
1.99,0.34,18.87,-0.07,-0.02,-0.10,1721200989545
-0.05,4.39,7.37,0.22,0.07,-0.28,1721200989555
0.62,0.34,4.45,-0.02,0.34,-0.20,1721200989565
-0.44,0.95,15.23,-0.01,0.16,-0.15,1721200989575
-1.25,4.97,9.37,0.25,0.08,-0.13,1721200989585
1.30,1.95,12.65,-0.04,0.39,-0.06,1721200989595
1.53,2.43,9.42,0.10,0.04,-0.08,1721200989605
0.36,-5.18,8.15,-0.18,0.07,-0.19,1721200989615
-0.95,4.26,14.37,0.11,0.24,-0.26,1721200989625
-0.54,2.98,3.65,-0.08,0.19,-0.33,1721200989635
