AccX,AccY,AccZ,GyrX,GyrY,GyrZ,Time
-1.42,0.10,6.87,-0.12,-0.16,-0.28,1721201233141
-1.19,1.60,10.30,-0.06,-0.01,-0.28,1721201233146
-3.85,0.58,7.85,-0.12,-0.23,-0.17,1721201233156
-3.15,1.09,8.92,-0.03,0.05,-0.06,1721201233166
-1.35,2.59,9.51,-0.03,-0.04,-0.11,1721201233176
-4.05,3.81,11.14,-0.13,-0.18,-0.24,1721201233186
-4.75,0.27,13.56,-0.11,-0.14,-0.09,1721201233196
-3.81,2.73,14.32,0.05,-0.17,0.19,1721201233206
0.29,2.81,8.82,-0.04,-0.09,0.20,1721201233216
1.30,5.85,16.26,0.00,-0.04,-0.09,1721201233226
-0.06,6.54,15.37,0.18,-0.20,-0.30,1721201233236
-3.00,-7.75,-5.16,0.16,-0.43,-0.12,1721201233246
-4.07,9.00,11.82,-0.14,0.36,0.07,1721201233256
-1.22,3.40,18.06,-0.29,0.86,0.08,1721201233266
-1.59,0.07,17.78,0.26,-0.41,-0.17,1721201233276
-2.88,2.65,-7.62,0.06,-0.27,-0.11,1721201233286
-1.33,3.23,8.52,-0.27,0.11,0.39,1721201233296
2.82,1.64,8.57,-0.10,-0.11,0.45,1721201233306
3.87,2.33,10.40,0.22,0.02,0.13,1721201233316
6.29,1.48,5.95,0.01,0.02,-0.14,1721201233326
2.84,-0.36,11.72,-0.11,-0.02,-0.18,1721201233336
-0.25,1.21,14.63,0.01,-0.02,-0.20,1721201233346
-2.86,0.98,12.85,0.10,-0.10,-0.06,1721201233356
-3.26,-0.36,2.31,0.11,-0.23,0.30,1721201233366
3.27,-0.60,10.17,-0.06,0.40,0.29,1721201233376
3.94,4.24,14.38,0.04,-0.11,-0.06,1721201233386
-0.80,8.66,12.92,0.08,0.14,-0.63,1721201233396
-6.71,2.17,10.09,0.04,-0.36,-0.26,1721201233406
-7.70,-0.92,4.07,-0.02,0.02,0.59,1721201233416
2.94,4.60,12.46,0.07,0.28,0.64,1721201233426
6.69,6.49,14.17,-0.07,-0.03,0.00,1721201233436
1.40,3.45,8.28,0.07,-0.25,-0.48,1721201233446
-2.53,-2.59,5.49,0.00,0.18,-0.39,1721201233456
-4.31,2.44,13.06,0.01,0.10,0.01,1721201233466
-3.53,4.92,11.11,0.04,-0.05,0.26,1721201233476
-0.05,2.09,14.68,0.06,0.13,0.17,1721201233486
-0.25,0.11,4.19,0.13,-0.25,-0.03,1721201233496
-1.80,-0.89,6.27,-0.32,0.26,-0.09,1721201233506
-0.55,5.59,21.67,0.14,-0.04,0.04,1721201233516
-4.31,-3.02,5.30,0.08,-0.47,0.23,1721201233526
-5.26,-2.74,2.90,0.00,0.00,0.16,1721201233536
2.88,2.09,8.82,-0.08,0.25,-0.01,1721201233546
3.45,1.18,14.38,-0.19,-0.15,-0.06,1721201233556
0.35,1.93,11.93,0.27,-0.10,-0.17,1721201233566
-1.03,1.95,5.06,-0.03,0.18,-0.22,1721201233576
-4.35,0.68,12.75,-0.18,0.05,0.09,1721201233586
-1.86,-0.24,12.35,-0.02,-0.12,0.23,1721201233596
-0.02,1.66,10.86,0.05,0.01,-0.00,1721201233606
-2.34,3.62,5.79,-0.05,-0.21,-0.22,1721201233616
-5.62,0.55,10.87,-0.12,-0.02,-0.17,1721201233626
-5.76,-2.93,10.87,0.00,-0.19,0.09,1721201233636
-4.16,2.71,10.42,0.18,0.00,0.24,1721201233646
0.59,1.26,8.29,-0.01,-0.13,0.26,1721201233656
0.48,-1.96,10.71,-0.06,-0.17,0.02,1721201233666
-0.62,-3.13,12.10,0.03,-0.17,-0.26,1721201233676
-4.24,3.63,9.74,0.25,-0.27,-0.27,1721201233686
-3.71,0.61,0.31,-0.14,-0.25,-0.04,1721201233696
-4.37,-1.82,17.40,-0.11,-0.13,0.01,1721201233706
-2.98,0.17,12.62,0.37,-0.40,-0.12,1721201233716
-3.69,3.44,7.92,-0.08,-0.24,-0.17,1721201233726
-7.10,5.70,8.56,0.06,-0.58,-0.12,1721201233736
-6.47,0.25,5.70,-0.18,-0.31,0.04,1721201233746
-6.20,1.67,15.85,0.02,-0.51,0.30,1721201233756
-2.13,3.24,8.20,0.13,-0.49,0.38,1721201233766
-0.74,7.52,6.65,-0.11,-0.54,0.24,1721201233776
-0.19,3.64,10.73,-0.14,-0.53,0.11,1721201233786
0.86,3.68,16.45,-0.00,-0.43,0.13,1721201233796
6.74,-1.61,12.48,-0.00,-0.62,0.77,1721201233806
15.68,-0.81,12.18,-0.16,0.55,0.85,1721201233816
18.99,3.60,14.68,-0.27,0.12,-0.44,1721201233826
5.23,0.02,5.40,-0.13,-0.76,-1.93,1721201233836
-10.69,-7.13,8.13,0.00,-0.49,-2.00,1721201233846
-26.81,-7.41,-0.12,-0.12,-0.80,-0.29,1721201233856
-19.66,-9.73,10.50,-0.21,0.13,1.48,1721201233866
4.56,-10.77,29.61,0.27,0.43,2.32,1721201233876
18.98,-6.82,9.00,0.18,0.08,1.75,1721201233886
22.67,0.09,10.62,-0.08,0.30,0.46,1721201233896
19.07,-5.08,12.39,-0.20,-0.41,-0.76,1721201233906
8.94,-9.84,9.69,0.05,-0.20,-1.01,1721201233916
3.82,-6.25,9.50,0.09,0.06,-0.69,1721201233926
3.02,-6.12,8.50,-0.07,0.26,-0.56,1721201233936
2.81,-2.79,13.58,0.07,0.16,-0.82,1721201233946
0.26,-7.05,14.04,-0.07,0.24,-1.14,1721201233956
-9.11,-2.90,12.38,0.13,-0.10,-1.09,1721201233966
-14.07,-6.98,2.60,-0.06,0.05,-0.65,1721201233976
-16.22,-2.45,9.65,-0.03,0.16,-0.10,1721201233986
-6.08,-8.83,14.93,0.14,0.02,0.67,1721201233996
3.31,-0.57,11.60,0.11,0.46,0.57,1721201234006
6.67,1.21,12.27,0.08,-0.08,-0.20,1721201234016
-1.43,1.16,-0.15,-0.03,-0.22,-1.08,1721201234026
-3.08,-2.36,11.38,0.03,0.11,-1.02,1721201234036
-3.39,-3.09,11.75,0.11,-0.16,-0.29,1721201234046
-2.28,-2.21,12.08,0.03,0.30,0.02,1721201234056
-0.45,-0.89,14.84,0.19,-0.14,-0.14,1721201234066
-0.54,-2.04,7.28,0.04,-0.02,-0.33,1721201234076
-3.09,-1.62,10.65,-0.03,-0.08,-0.44,1721201234086
-5.23,1.22,10.06,0.15,-0.09,-0.38,1721201234096
-3.63,-4.10,8.36,-0.09,-0.11,0.13,1721201234106
-0.77,-1.80,9.07,0.20,-0.12,0.48,1721201234116
4.91,0.91,7.20,0.01,0.20,0.11,1721201234126
1.37,3.01,13.07,-0.03,-0.24,-0.26,1721201234136
-2.02,-1.01,9.61,-0.10,-0.09,0.02,1721201234146
-1.84,-0.16,14.06,-0.03,-0.01,0.50,1721201234156
3.36,4.30,4.53,-0.23,0.07,0.38,1721201234166
2.38,2.67,11.70,-0.30,-0.14,0.08,1721201234176
1.57,0.92,9.07,-0.14,-0.12,0.15,1721201234186
0.49,5.17,7.76,-0.32,0.09,0.17,1721201234196
0.50,6.29,9.18,-0.25,-0.15,0.15,1721201234206
-0.11,3.10,7.56,-0.41,0.03,0.14,1721201234216
-0.29,6.03,11.65,-0.43,-0.03,0.28,1721201234226
2.30,4.83,11.90,-0.39,0.08,0.39,1721201234236
4.26,5.23,13.16,-0.30,0.10,0.26,1721201234246
5.09,4.23,10.97,-0.18,0.02,0.11,1721201234256
4.54,5.65,10.82,-0.13,0.14,-0.16,1721201234266
3.11,4.39,13.31,-0.13,-0.04,-0.30,1721201234276
0.44,2.73,10.67,0.00,-0.01,-0.25,1721201234286
0.76,1.53,10.65,-0.06,0.16,-0.12,1721201234296
0.14,0.28,9.41,0.03,-0.01,-0.08,1721201234306
0.48,1.91,7.96,0.03,0.19,-0.24,1721201234316
0.32,0.09,10.28,-0.02,0.07,-0.29,1721201234326
-0.75,-1.88,10.43,-0.08,0.17,-0.23,1721201234336
-0.60,0.27,11.34,0.00,0.18,-0.19,1721201234346
1.23,-1.06,10.03,-0.06,0.20,-0.18,1721201234356
0.04,-2.32,9.03,-0.06,0.10,-0.26,1721201234366
0.29,-1.02,10.29,-0.06,0.30,-0.39,1721201234376
-0.15,-0.65,10.01,-0.04,0.16,-0.38,1721201234386
-2.61,0.19,10.11,-0.05,0.14,-0.32,1721201234396
-1.24,-1.16,11.03,0.01,0.26,-0.37,1721201234406
-1.47,-1.74,9.46,-0.06,0.15,-0.26,1721201234416
-1.13,-0.97,10.51,-0.02,0.22,-0.24,1721201234426
-1.29,0.06,9.43,0.08,0.10,-0.30,1721201234436
-0.51,-0.08,9.22,-0.02,0.25,-0.29,1721201234446
-0.57,-2.09,11.57,0.00,0.10,-0.27,1721201234456
-1.44,-1.12,11.00,0.03,0.19,-0.29,1721201234466
-1.17,-0.77,9.86,0.12,0.08,-0.31,1721201234476
-1.15,-0.03,11.03,0.06,0.23,-0.31,1721201234486
-2.01,1.09,10.78,0.21,0.07,-0.31,1721201234496
-0.93,0.10,9.21,0.12,0.24,-0.33,1721201234506
-1.84,1.14,12.32,0.13,0.13,-0.42,1721201234516
-3.19,0.34,10.71,0.11,0.13,-0.44,1721201234526
-3.77,-1.26,9.61,0.11,0.10,-0.39,1721201234536
-3.82,-0.60,11.75,0.13,0.12,-0.31,1721201234546
-2.55,0.70,10.44,0.24,0.06,-0.21,1721201234556
-2.04,1.16,8.78,0.25,0.06,-0.20,1721201234566
-1.15,1.07,10.11,0.14,0.11,-0.19,1721201234576
-1.42,2.21,11.12,0.22,0.01,-0.24,1721201234586
-1.82,0.07,8.32,0.14,0.01,-0.23,1721201234596
-2.63,0.23,10.48,0.15,-0.01,-0.12,1721201234606
-1.78,0.97,10.12,0.26,-0.00,0.04,1721201234616
-0.22,-1.46,9.20,0.17,0.01,0.04,1721201234626
0.77,0.50,10.56,0.18,0.02,-0.06,1721201234636
1.61,1.13,10.69,0.19,0.04,-0.16,1721201234646
0.54,-0.23,9.44,0.10,0.02,-0.21,1721201234656
-0.62,0.48,8.82,0.15,0.07,-0.22,1721201234666
-0.49,-0.93,9.32,0.05,0.09,-0.17,1721201234676
-1.56,1.26,10.95,0.09,0.02,-0.05,1721201234686
0.46,1.92,10.60,0.09,0.11,-0.01,1721201234696
0.94,0.69,8.58,0.01,-0.05,-0.03,1721201234706
1.12,-1.03,10.40,-0.10,0.14,-0.20,1721201234716
-0.62,-0.19,11.82,-0.06,-0.01,-0.31,1721201234726
-2.93,0.72,7.90,-0.04,0.01,-0.22,1721201234736
-2.51,-0.45,9.66,-0.10,0.11,-0.06,1721201234746
-1.70,0.56,8.42,-0.01,0.02,0.06,1721201234756
-0.93,-0.48,8.28,-0.22,0.09,-0.08,1721201234766
-1.84,0.17,12.46,-0.20,-0.01,-0.13,1721201234776
-3.33,0.22,9.85,-0.23,-0.03,-0.00,1721201234786
-2.13,-1.51,11.37,-0.25,0.06,0.16,1721201234796
0.03,-1.29,11.83,-0.21,0.01,0.18,1721201234806
1.43,-1.58,10.30,-0.22,-0.02,0.12,1721201234816
1.30,-0.74,9.85,-0.15,-0.03,0.04,1721201234826
-1.75,0.67,9.49,-0.23,-0.06,-0.12,1721201234836
-3.24,1.16,10.08,-0.20,-0.01,-0.06,1721201234846
-3.51,-3.02,7.80,-0.15,-0.20,0.19,1721201234856
-0.93,-2.80,8.51,-0.19,0.02,0.35,1721201234866
1.47,-3.11,12.41,-0.25,-0.07,0.37,1721201234876
-0.19,2.91,12.60,-0.10,-0.01,0.18,1721201234886
0.95,0.25,10.04,-0.22,-0.11,-0.01,1721201234896
-1.74,-0.22,13.29,-0.25,-0.12,-0.07,1721201234906
1.89,-0.93,12.99,-0.03,-0.08,0.15,1721201234916
-0.18,-2.86,5.06,-0.04,-0.23,0.26,1721201234926
0.17,-3.04,9.75,-0.18,0.22,0.05,1721201234936
-1.04,3.59,13.75,-0.00,-0.14,-0.10,1721201234946
-0.99,-4.17,7.58,-0.07,-0.12,-0.01,1721201234956
0.53,-0.86,15.38,-0.07,0.15,0.12,1721201234966
0.49,2.13,13.56,0.16,-0.26,0.30,1721201234976
0.38,-3.48,6.57,-0.00,0.09,0.32,1721201234986
0.66,2.65,14.02,0.03,0.03,0.08,1721201234996
0.07,-0.48,8.76,0.18,-0.27,0.10,1721201235006
2.71,-1.87,10.00,0.03,0.18,0.20,1721201235016
2.29,1.68,12.66,0.18,-0.18,0.26,1721201235026
0.98,1.59,6.67,0.17,0.06,0.12,1721201235036
2.67,1.41,13.48,0.07,0.06,0.03,1721201235046
0.44,0.86,9.03,0.22,-0.15,0.04,1721201235056
0.40,-2.02,8.92,0.13,0.14,0.05,1721201235066
0.52,1.02,12.12,0.19,0.03,0.07,1721201235076
0.40,1.88,8.94,0.20,0.03,0.03,1721201235086
1.45,-1.52,10.07,0.10,0.08,0.01,1721201235096
0.67,0.48,12.10,0.17,0.07,-0.02,1721201235106
0.39,-0.39,9.58,0.16,0.06,-0.11,1721201235116
-0.28,-0.06,9.56,0.10,0.08,-0.13,1721201235126
-0.86,1.63,10.10,0.13,0.11,-0.11,1721201235136
-0.04,0.87,8.87,0.05,0.18,-0.08,1721201235151
0.09,0.75,8.94,0.00,0.10,-0.12,1721201235155
-0.21,1.85,11.15,0.00,0.14,-0.18,1721201235165
-1.03,1.15,10.08,-0.04,0.04,-0.14,1721201235175
-1.80,2.15,10.58,-0.03,0.07,-0.06,1721201235185
0.11,3.18,9.83,0.02,0.09,-0.07,1721201235195
-0.34,0.51,9.62,-0.12,-0.02,-0.08,1721201235205
-0.23,0.37,9.54,-0.02,0.07,-0.11,1721201235215
0.86,1.30,11.00,-0.08,0.16,-0.15,1721201235225
0.13,2.03,10.63,-0.06,-0.01,-0.24,1721201235235
0.40,-0.26,7.47,-0.07,0.12,-0.31,1721201235245
0.18,-4.76,10.89,-0.16,0.10,-0.27,1721201235255
-1.68,-0.92,12.39,-0.06,0.12,-0.38,1721201235265
-2.88,2.34,9.70,0.08,0.06,-0.47,1721201235275
-2.53,-2.63,8.23,-0.09,0.09,-0.24,1721201235285
-1.47,-0.75,10.13,-0.05,0.08,-0.04,1721201235295
-0.46,-3.13,9.10,-0.04,0.10,-0.05,1721201235305
-1.24,-3.17,10.41,-0.15,0.11,-0.23,1721201235315
-0.40,-4.12,10.38,-0.11,0.10,-0.26,1721201235325
-1.20,-1.28,9.50,-0.00,-0.02,-0.03,1721201235335
-0.59,-1.70,8.91,-0.07,0.11,0.06,1721201235345
0.65,-1.90,11.44,-0.12,0.16,-0.02,1721201235355
-0.29,-6.10,9.00,-0.12,-0.13,-0.10,1721201235365
-0.65,-2.02,10.47,-0.11,0.29,-0.22,1721201235375
-2.66,-2.49,10.17,-0.03,-0.07,-0.15,1721201235385
-3.81,-2.19,8.35,-0.01,0.03,0.05,1721201235395
0.14,-0.17,12.64,0.00,0.19,0.17,1721201235405
0.95,-0.55,10.22,-0.03,-0.01,0.01,1721201235415
-0.89,-1.80,11.32,-0.02,-0.00,-0.05,1721201235425
0.02,3.32,11.73,0.21,0.13,-0.07,1721201235435
-1.91,5.94,9.56,0.17,-0.11,-0.02,1721201235445
-3.10,3.09,10.20,0.15,-0.06,-0.08,1721201235455
-1.08,0.05,11.72,0.07,0.00,0.06,1721201235465
-11.58,-14.54,10.22,0.09,-0.09,-0.49,1721201235475
8.60,2.00,12.26,0.09,0.56,0.03,1721201235485
2.07,1.47,9.63,0.21,-0.12,0.30,1721201235495
-3.05,4.37,7.83,0.31,0.07,0.27,1721201235505
4.56,4.44,8.84,0.38,0.01,0.03,1721201235515
3.95,3.80,11.41,0.21,-0.14,-0.17,1721201235525
-0.33,4.17,9.67,0.41,-0.21,-0.26,1721201235535
-0.10,-2.26,6.46,0.22,0.08,-0.17,1721201235545
-1.04,-0.97,12.79,0.08,0.10,-0.21,1721201235555
-3.88,1.63,10.23,0.23,-0.14,-0.34,1721201235565
-2.99,0.14,8.67,0.01,0.13,-0.28,1721201235575
-3.95,-1.73,12.75,0.01,-0.14,0.02,1721201235585
-3.34,-1.61,5.96,0.11,-0.03,0.22,1721201235595
0.52,-3.94,12.43,-0.11,-0.06,0.43,1721201235605
4.05,2.97,9.70,0.13,-0.02,0.32,1721201235615
4.39,1.07,9.89,-0.21,-0.06,-0.22,1721201235625
-0.84,2.84,15.90,-0.04,-0.19,-0.44,1721201235635
-7.02,-2.70,3.02,-0.07,-0.22,-0.30,1721201235645
-10.29,-1.79,10.42,-0.20,0.07,0.17,1721201235655
-5.36,-0.62,12.03,0.06,-0.14,0.79,1721201235665
3.70,-3.09,8.43,-0.11,0.08,0.97,1721201235675
9.77,2.24,12.36,-0.10,0.05,0.47,1721201235685
9.68,-0.79,7.79,-0.21,-0.23,-0.32,1721201235695
1.94,0.24,11.04,-0.23,-0.15,-0.88,1721201235705
-5.64,-2.25,9.83,-0.06,-0.33,-0.71,1721201235715
-10.50,-2.64,8.15,-0.11,-0.06,-0.04,1721201235725
-5.82,-1.74,9.76,-0.04,-0.05,0.62,1721201235735
1.39,-0.12,5.49,-0.05,-0.05,0.64,1721201235745
4.42,-3.25,7.18,-0.31,-0.07,0.14,1721201235755
3.44,0.89,16.24,-0.26,-0.07,-0.36,1721201235765
-1.31,-2.60,11.99,-0.23,-0.34,-0.37,1721201235775
-3.26,0.74,13.35,-0.30,0.01,-0.10,1721201235785
-2.24,0.19,11.34,-0.19,-0.29,0.20,1721201235795
0.74,-1.94,7.55,-0.18,-0.02,0.29,1721201235805
2.93,-0.05,9.27,-0.06,-0.04,0.07,1721201235815
3.36,2.01,9.32,0.01,-0.06,-0.14,1721201235825
-0.28,0.80,10.64,-0.11,-0.22,-0.26,1721201235835
-0.67,2.60,12.67,-0.03,-0.05,-0.19,1721201235845
-1.14,1.40,10.46,0.03,-0.14,-0.04,1721201235855
0.05,-0.06,9.19,0.01,-0.03,0.03,1721201235865
1.67,-1.79,9.97,0.06,-0.03,-0.07,1721201235875
1.43,-0.42,10.22,0.09,-0.06,-0.22,1721201235885
0.91,0.62,11.48,0.08,-0.03,-0.24,1721201235895
0.36,1.94,13.30,0.08,-0.02,-0.20,1721201235905
-0.29,0.61,10.68,0.10,-0.07,-0.15,1721201235915
0.17,0.13,9.82,0.09,0.01,-0.11,1721201235925
0.54,2.23,9.91,0.21,0.06,-0.25,1721201235935
0.31,-0.14,10.24,0.10,-0.05,-0.29,1721201235945
0.60,0.96,12.02,0.13,0.10,-0.28,1721201235955
0.34,-0.79,9.52,0.13,-0.04,-0.24,1721201235965
-0.70,0.67,10.57,0.14,0.10,-0.24,1721201235975
-0.02,-0.22,9.98,0.15,-0.00,-0.25,1721201235985
0.88,1.33,11.32,0.14,0.15,-0.32,1721201235995
0.72,-0.28,10.04,0.16,-0.02,-0.40,1721201236005
-1.53,0.15,9.95,0.13,0.02,-0.43,1721201236015
-1.64,0.27,8.12,0.21,0.02,-0.27,1721201236025
-0.33,-0.86,9.84,0.11,0.18,-0.21,1721201236035
-0.06,-0.92,11.97,0.08,0.05,-0.29,1721201236045
-0.94,1.80,9.84,0.21,0.00,-0.34,1721201236055
0.58,-1.61,7.34,0.08,0.16,-0.29,1721201236065
-0.41,1.54,12.37,0.09,0.12,-0.32,1721201236075
-0.00,0.00,9.22,0.14,0.06,-0.35,1721201236085
-1.87,-3.87,8.93,-0.04,0.08,-0.34,1721201236095
-1.57,1.47,11.91,0.17,0.13,-0.31,1721201236105
0.57,-0.11,9.99,0.01,0.18,-0.28,1721201236115
-0.84,1.64,12.38,0.05,0.06,-0.32,1721201236125
-0.55,0.23,7.71,0.10,0.12,-0.29,1721201236135
-0.12,-1.25,10.96,-0.07,0.19,-0.27,1721201236145
-1.75,3.13,11.42,0.16,0.04,-0.30,1721201236155
-0.79,-0.53,6.26,0.01,0.17,-0.24,1721201236165
-1.37,2.23,12.34,0.06,0.12,-0.16,1721201236175
-0.04,-0.74,5.85,0.06,0.05,-0.12,1721201236185
-0.32,0.29,12.73,-0.12,0.25,-0.21,1721201236195
-0.77,1.00,10.36,0.07,-0.01,-0.22,1721201236205
0.31,0.35,9.31,-0.12,0.26,-0.17,1721201236215
0.48,-0.86,12.67,-0.07,-0.00,-0.13,1721201236225
0.36,-0.03,8.85,-0.05,0.20,-0.20,1721201236235
0.35,1.30,12.78,-0.09,0.16,-0.29,1721201236245
-1.26,0.64,8.96,-0.02,0.05,-0.20,1721201236255
-1.25,-0.53,9.50,-0.10,0.24,-0.14,1721201236265
-1.42,0.76,10.85,-0.03,0.07,-0.18,1721201236275
-0.46,-0.55,10.25,-0.09,0.20,-0.12,1721201236285
0.48,1.60,12.04,-0.03,0.15,-0.09,1721201236295
1.73,0.15,11.54,-0.10,0.16,-0.19,1721201236305
-0.23,0.77,11.53,-0.06,0.06,-0.27,1721201236315
-0.07,0.13,9.41,-0.02,0.14,-0.23,1721201236325
0.12,0.84,11.90,-0.05,0.17,-0.22,1721201236335
-1.02,0.65,10.39,0.01,0.06,-0.27,1721201236345
-1.65,-1.53,9.60,-0.06,0.16,-0.20,1721201236355
-2.01,-1.87,10.63,-0.03,0.11,-0.09,1721201236365
-0.75,-1.06,9.96,-0.00,0.20,-0.08,1721201236375
0.34,0.47,10.81,-0.01,0.15,-0.14,1721201236385
1.33,0.21,10.10,0.03,0.17,-0.19,1721201236395
0.33,-0.74,8.92,-0.06,0.13,-0.26,1721201236405
-1.62,-0.14,10.44,-0.02,0.12,-0.26,1721201236415
-1.70,-1.37,7.55,-0.01,0.12,-0.16,1721201236425
-1.71,0.66,12.61,-0.05,0.21,-0.07,1721201236435
-0.35,-2.00,8.18,-0.03,0.09,-0.13,1721201236445
-0.72,-0.63,12.49,-0.11,0.29,-0.19,1721201236455
-0.73,0.29,10.98,0.01,0.02,-0.17,1721201236465
-0.98,0.34,8.82,-0.11,0.20,-0.17,1721201236475
-0.67,0.24,12.01,-0.06,0.13,-0.16,1721201236485
-1.28,-1.21,8.21,-0.04,0.12,-0.15,1721201236495
-1.68,-0.83,11.46,-0.11,0.22,-0.20,1721201236505
-1.60,2.21,12.14,0.03,0.02,-0.14,1721201236515
-1.26,-0.54,8.44,-0.00,0.10,-0.03,1721201236525
-0.45,1.85,12.38,0.01,0.23,-0.05,1721201236535
-0.67,0.96,10.37,0.07,0.05,-0.15,1721201236545
-1.10,1.28,11.68,-0.02,0.21,-0.16,1721201236555
-1.04,1.31,9.68,0.15,-0.03,-0.07,1721201236565
-1.69,-2.01,5.74,0.03,0.09,-0.01,1721201236575
-0.55,2.56,14.48,0.10,0.25,-0.06,1721201236585
-0.84,-0.89,9.53,0.13,-0.03,-0.11,1721201236595
-0.65,-0.41,11.23,-0.01,0.31,-0.11,1721201236605
-0.57,0.40,12.46,0.16,-0.08,-0.07,1721201236615
-1.30,-0.27,7.17,0.12,0.16,-0.09,1721201236625
-1.22,-0.79,12.17,0.06,0.14,-0.10,1721201236635
-1.81,2.85,12.49,0.24,0.06,-0.08,1721201236645
-0.69,-0.65,5.77,0.10,0.04,0.02,1721201236655
-0.17,-1.30,10.64,0.08,0.17,0.01,1721201236665
-0.10,0.96,8.91,0.19,-0.03,-0.07,1721201236675
-1.21,-0.26,9.20,0.04,0.15,-0.15,1721201236685
-1.56,1.09,12.30,0.13,0.04,-0.08,1721201236695
-0.74,0.57,11.19,0.05,0.18,0.00,1721201236705
-0.74,1.81,13.07,0.05,0.02,0.05,1721201236715
-1.36,1.12,9.15,0.13,-0.01,-0.03,1721201236725
-1.23,0.09,8.30,0.06,0.04,-0.03,1721201236735
-0.49,0.16,9.77,0.14,0.10,0.02,1721201236745
0.80,1.11,12.25,0.08,0.11,0.05,1721201236755
-0.24,2.04,10.95,0.17,-0.01,0.01,1721201236765
-0.41,0.39,9.02,0.11,0.07,-0.05,1721201236775
-0.36,2.78,9.97,0.16,0.02,-0.07,1721201236785
0.54,-1.95,9.28,0.05,0.06,-0.06,1721201236795
-0.60,1.49,12.09,0.12,0.05,-0.00,1721201236805
0.29,-0.14,9.61,0.13,0.03,0.05,1721201236815
-0.11,0.00,11.50,0.06,0.08,-0.00,1721201236825
0.40,-0.51,7.94,0.19,0.01,-0.05,1721201236835
-0.35,-1.76,8.16,0.00,0.13,-0.03,1721201236845
-1.38,2.52,10.75,0.16,0.01,-0.05,1721201236855
-0.03,-1.28,9.06,0.02,0.11,0.05,1721201236865
-0.57,1.30,13.09,0.06,0.06,0.11,1721201236875
0.77,-0.53,8.21,0.04,0.06,0.04,1721201236885
-0.87,0.50,11.66,-0.08,0.11,-0.06,1721201236895
-1.44,-1.08,7.95,0.10,-0.05,0.04,1721201236905
0.02,-0.88,10.37,-0.06,0.27,0.15,1721201236915
-0.25,2.99,12.00,0.12,-0.10,0.12,1721201236925
-0.72,1.26,8.65,0.01,0.08,0.00,1721201236935
-2.05,0.41,11.09,-0.00,-0.04,0.00,1721201236945
-1.93,-0.63,9.04,0.04,0.08,0.13,1721201236955
-0.42,-0.57,10.84,-0.03,0.10,0.28,1721201236965
0.94,0.14,9.75,0.03,0.00,0.27,1721201236975
3.88,0.00,10.81,-0.03,0.21,0.11,1721201236985
2.15,-1.09,11.06,-0.06,-0.01,-0.08,1721201236995
-0.92,-1.38,10.13,-0.08,0.13,-0.18,1721201237005
-3.00,0.14,10.72,-0.06,0.01,-0.09,1721201237015
-2.68,-2.18,7.41,-0.11,0.03,0.12,1721201237025
-0.91,-4.82,10.98,-0.28,0.14,0.16,1721201237035
-0.20,-0.94,12.67,-0.09,0.02,0.04,1721201237045
-2.07,1.59,7.77,-0.18,-0.04,-0.07,1721201237055
-3.61,-1.05,9.03,-0.41,0.06,-0.01,1721201237065
-2.47,-0.78,11.06,-0.30,0.00,0.08,1721201237075
-1.37,-3.69,6.27,-0.29,-0.10,0.20,1721201237085
0.02,-0.41,10.93,-0.36,0.17,0.14,1721201237095
0.53,2.48,12.79,-0.25,-0.08,0.14,1721201237105
0.31,2.63,8.52,-0.25,0.04,0.06,1721201237115
-0.67,2.71,10.14,-0.31,-0.06,0.01,1721201237125
-0.95,1.33,10.35,-0.24,-0.05,-0.04,1721201237135
-0.78,-0.63,9.90,-0.21,-0.07,0.13,1721201237145
-0.11,2.18,11.39,-0.16,-0.03,0.14,1721201237160
1.00,3.65,12.84,-0.19,0.07,0.20,1721201237164
0.32,1.08,12.20,-0.12,-0.09,0.12,1721201237174
1.13,1.47,11.09,-0.04,0.08,0.03,1721201237184
1.66,0.12,10.85,-0.05,-0.05,-0.03,1721201237194
0.79,2.23,12.03,0.06,0.04,-0.10,1721201237204
0.81,1.60,11.70,0.19,-0.01,-0.06,1721201237214
-0.85,-0.34,8.87,0.15,0.02,-0.07,1721201237224
-1.19,0.19,12.18,0.12,0.07,-0.10,1721201237234
-0.97,1.32,11.41,0.23,-0.05,-0.04,1721201237244
0.35,-0.86,9.14,0.24,0.00,0.02,1721201237254
1.68,1.30,12.25,0.26,0.17,-0.04,1721201237264
-0.14,1.41,10.65,0.25,-0.02,-0.14,1721201237274
-1.87,1.84,10.23,0.20,0.09,-0.21,1721201237284
-2.31,-1.58,9.66,0.17,-0.05,-0.17,1721201237294
-1.34,-4.23,7.22,0.24,0.04,0.01,1721201237304
0.89,-2.66,10.53,0.19,0.16,0.05,1721201237314
0.02,3.93,11.96,0.35,-0.03,-0.06,1721201237324
0.40,-1.83,8.08,0.12,0.16,-0.17,1721201237334
-3.07,-1.19,11.91,0.08,-0.05,-0.21,1721201237344
-3.48,0.71,9.34,0.20,0.01,-0.16,1721201237354
-0.70,-3.73,8.91,0.09,0.06,0.13,1721201237364
-0.19,-1.40,11.23,0.11,0.09,0.22,1721201237374
1.45,2.64,10.17,0.19,0.15,-0.06,1721201237384
0.66,-2.17,11.23,-0.04,-0.06,-0.22,1721201237394
-2.64,1.54,11.21,0.15,0.01,-0.12,1721201237404
-0.12,-1.77,10.25,0.02,0.12,0.05,1721201237414
-1.55,2.56,10.92,0.10,-0.06,0.10,1721201237424
0.95,-0.57,7.43,0.06,0.16,0.02,1721201237434
0.06,0.80,12.44,-0.03,-0.00,-0.08,1721201237444
-1.79,1.59,10.34,0.15,0.02,-0.15,1721201237454
-1.79,-3.23,7.64,0.00,0.02,-0.01,1721201237464
-2.94,1.22,13.18,0.07,0.10,0.15,1721201237474
-0.84,2.62,7.81,0.11,-0.08,0.21,1721201237484
1.66,0.38,9.86,-0.10,0.13,0.17,1721201237494
1.52,-0.36,10.60,-0.03,-0.05,0.02,1721201237504
0.06,0.25,9.67,-0.13,0.06,-0.07,1721201237514
-1.51,1.62,9.58,-0.06,-0.00,-0.07,1721201237524
-0.60,-1.13,11.13,-0.23,0.09,0.01,1721201237534
-1.62,1.02,10.93,-0.07,-0.09,0.09,1721201237544
0.22,-1.45,10.63,-0.22,0.17,0.08,1721201237554
-1.14,2.91,11.77,-0.07,-0.16,0.01,1721201237564
-0.24,1.76,7.62,-0.11,0.04,0.01,1721201237574
-0.47,-0.52,9.49,-0.15,-0.02,0.03,1721201237584
-0.27,-1.84,11.70,-0.19,0.03,0.02,1721201237594
-0.50,1.37,13.24,-0.03,-0.02,0.10,1721201237604
0.45,0.88,7.34,-0.12,-0.06,0.10,1721201237614
0.94,2.53,10.03,-0.12,0.05,-0.01,1721201237624
1.13,-1.99,9.15,-0.13,-0.08,-0.01,1721201237634
-0.47,-0.79,10.10,-0.07,0.05,0.01,1721201237644
0.01,-1.28,10.92,-0.16,-0.01,-0.02,1721201237654
-0.45,3.24,12.40,-0.03,0.03,-0.04,1721201237664
0.35,-1.70,7.78,-0.14,-0.07,-0.02,1721201237674
-0.92,-1.53,11.19,-0.17,0.10,0.07,1721201237684
-0.51,-1.28,11.90,-0.10,-0.02,0.05,1721201237694
-1.06,-0.50,8.24,-0.08,-0.01,0.08,1721201237704
0.48,0.37,11.01,-0.07,0.06,0.08,1721201237714
0.03,0.67,10.11,-0.04,-0.09,0.09,1721201237724
-0.12,-1.19,8.84,-0.08,0.02,0.02,1721201237734
0.42,1.09,12.08,-0.02,0.04,0.01,1721201237744
-0.94,0.13,9.75,0.00,-0.07,0.04,1721201237754
0.28,-1.52,8.09,-0.04,0.07,0.05,1721201237764
0.94,0.96,13.33,-0.02,0.08,-0.01,1721201237774
0.07,-0.53,11.81,-0.08,-0.10,0.00,1721201237784
-0.35,2.60,10.71,-0.02,0.06,-0.09,1721201237794
-0.26,1.00,9.97,-0.01,-0.01,-0.06,1721201237804
-2.98,1.60,11.99,-0.02,-0.04,0.01,1721201237814
-0.41,0.47,11.01,0.11,0.06,0.00,1721201237824
-0.78,-0.95,8.38,0.05,-0.06,-0.06,1721201237834
-1.29,0.13,10.71,0.08,0.04,-0.11,1721201237844
-0.40,2.66,8.46,0.29,-0.02,-0.01,1721201237854
0.62,-2.48,9.80,0.00,0.12,0.01,1721201237864
-1.63,2.10,12.99,0.18,-0.14,-0.14,1721201237874
0.87,0.42,9.56,0.09,0.15,-0.14,1721201237884
-1.54,-1.11,10.70,0.00,-0.10,-0.02,1721201237894
-1.62,0.59,10.31,0.17,0.04,-0.10,1721201237904
-1.03,2.13,10.35,0.12,-0.06,-0.05,1721201237914
-0.77,0.94,9.06,0.16,0.02,-0.06,1721201237924
-0.25,-1.74,10.11,0.03,0.03,-0.13,1721201237934
-0.60,1.10,11.98,0.10,-0.01,-0.06,1721201237944
-0.74,3.12,10.73,0.15,0.00,-0.04,1721201237954
-0.11,1.36,10.10,0.12,0.00,-0.10,1721201237964
-0.18,0.40,10.05,0.17,-0.02,-0.04,1721201237974
-0.25,2.13,8.80,0.17,-0.02,-0.08,1721201237984
-0.16,1.47,10.81,0.09,-0.02,-0.17,1721201237994
-0.60,1.10,10.90,0.17,0.00,-0.10,1721201238004
-1.36,-0.73,9.62,0.08,0.00,-0.08,1721201238014
-1.43,1.46,10.20,0.16,-0.01,-0.06,1721201238024
1.08,0.14,10.67,0.10,0.07,-0.01,1721201238034
0.90,1.60,13.05,0.16,-0.02,-0.04,1721201238044
1.20,-0.04,8.51,0.15,0.07,-0.19,1721201238054
0.25,-0.46,11.00,0.10,0.01,-0.14,1721201238064
-0.88,-0.12,9.25,0.11,-0.02,-0.15,1721201238074
-0.63,-0.11,10.36,0.11,0.08,-0.14,1721201238084
-0.25,0.66,10.48,0.11,0.02,-0.08,1721201238094
-0.65,0.80,7.34,0.09,-0.04,-0.03,1721201238104
0.16,0.78,9.54,0.01,0.15,-0.13,1721201238114
-0.38,-0.45,12.21,-0.03,-0.02,-0.16,1721201238124
-1.71,1.28,11.89,0.05,0.09,-0.08,1721201238134
-1.17,0.14,9.59,-0.04,0.01,-0.06,1721201238144
-0.75,-0.59,9.26,-0.06,0.02,-0.00,1721201238154
0.18,1.41,9.92,0.01,0.12,-0.00,1721201238164
-0.46,0.74,7.16,-0.09,-0.04,-0.13,1721201238174
-1.89,0.41,14.44,-0.08,0.11,-0.17,1721201238184
-1.92,-0.99,10.61,0.02,-0.07,-0.01,1721201238194
-3.22,1.31,7.29,-0.05,0.01,0.09,1721201238204
0.31,2.06,11.17,-0.07,0.10,0.08,1721201238214
-0.67,2.46,9.46,-0.02,-0.11,-0.00,1721201238224
-1.01,-1.04,8.79,-0.11,0.06,-0.11,1721201238234
-2.38,-0.39,9.18,-0.03,-0.16,0.08,1721201238244
-0.34,-0.80,9.69,-0.19,0.18,0.10,1721201238254
-0.50,20.04,14.25,0.06,0.49,-0.91,1721201238264
-5.19,-6.18,9.90,-0.20,-0.71,-0.32,1721201238274
-2.75,-16.47,4.29,-0.01,-0.25,1.27,1721201238284
2.99,-0.26,8.68,0.14,0.56,1.23,1721201238294
12.78,0.58,4.50,-0.36,-0.18,-0.16,1721201238304
4.62,3.40,19.58,-0.14,-0.09,-0.86,1721201238314
-2.69,-8.96,1.44,-0.03,-0.65,-1.01,1721201238324
-12.57,-1.34,5.38,-0.20,0.33,-0.77,1721201238334
-5.83,0.76,23.17,0.11,0.58,0.37,1721201238344
-9.80,-0.29,15.25,-0.07,-0.03,1.20,1721201238354
3.92,-3.18,8.35,-0.05,0.12,1.22,1721201238364
13.54,2.95,8.49,-0.03,0.23,0.54,1721201238374
9.28,0.46,6.32,-0.27,-0.26,-0.40,1721201238384
3.89,5.15,16.52,-0.08,-0.04,-0.99,1721201238394
-4.45,-2.81,8.34,-0.03,-0.49,-0.70,1721201238404
-9.56,-2.20,7.19,-0.07,0.11,-0.07,1721201238414
-2.22,-1.70,13.95,0.02,-0.02,0.49,1721201238424
1.75,1.36,12.21,0.05,0.04,0.43,1721201238434
3.42,4.95,11.33,0.14,0.01,0.09,1721201238444
4.04,-0.57,6.49,0.10,-0.12,-0.10,1721201238454
-0.62,-2.06,8.57,0.00,0.00,-0.29,1721201238464
-1.22,0.41,15.18,0.06,0.04,-0.23,1721201238474
-3.07,4.78,10.69,0.17,-0.17,-0.02,1721201238484
1.06,-2.48,9.55,0.03,0.17,0.12,1721201238494
-0.40,-0.22,12.70,0.18,-0.16,0.01,1721201238504
0.63,-0.52,5.74,0.16,0.05,-0.13,1721201238514
0.15,1.75,14.91,0.10,0.11,-0.16,1721201238524
-1.46,2.60,8.55,0.26,-0.22,0.02,1721201238534
0.32,-0.40,9.64,0.11,0.24,0.03,1721201238544
0.51,-1.29,10.44,0.15,-0.15,0.01,1721201238554
0.75,0.47,11.42,0.13,0.17,-0.01,1721201238564
1.09,1.71,12.18,0.13,-0.02,-0.13,1721201238574
0.13,1.34,10.40,0.13,0.03,-0.11,1721201238584
0.48,-0.84,6.95,0.13,-0.01,-0.04,1721201238594
0.20,0.47,10.70,0.05,0.11,-0.11,1721201238604
0.25,0.17,10.02,0.10,-0.03,-0.13,1721201238614
-1.03,1.58,9.93,0.14,0.11,-0.11,1721201238624
0.07,-0.31,8.42,0.10,0.07,-0.04,1721201238634
-1.19,0.18,10.78,0.08,0.06,-0.02,1721201238644
0.04,-0.33,11.17,0.01,0.15,-0.13,1721201238654
-1.43,4.23,11.50,0.12,-0.04,-0.13,1721201238664
-0.64,-0.91,6.18,0.01,0.05,-0.01,1721201238674
-1.13,-0.22,11.11,-0.05,0.11,-0.04,1721201238684
-0.22,-1.99,8.00,-0.05,-0.03,-0.12,1721201238694
-1.07,1.53,11.99,-0.09,0.13,-0.10,1721201238704
-0.91,1.02,8.66,-0.03,-0.10,-0.01,1721201238714
-1.17,0.62,9.90,-0.17,0.12,-0.01,1721201238724
-0.49,0.03,9.78,-0.09,-0.04,-0.03,1721201238734
-0.30,1.22,10.29,-0.20,0.09,-0.07,1721201238744
-1.45,2.22,9.47,-0.07,-0.10,-0.04,1721201238754
0.55,-1.58,5.79,-0.21,0.09,0.03,1721201238764
2.08,-2.55,11.67,-0.21,0.07,-0.04,1721201238774
1.57,-2.23,10.43,-0.17,-0.04,-0.18,1721201238784
-0.37,2.89,11.24,-0.09,0.06,-0.26,1721201238794
-1.47,-1.49,8.36,-0.16,-0.09,-0.22,1721201238804
-1.82,0.08,12.45,-0.16,0.07,-0.02,1721201238814
0.87,-3.12,12.57,-0.11,0.04,0.06,1721201238824
0.13,0.38,11.90,-0.16,0.06,-0.17,1721201238834
0.58,1.11,11.69,-0.08,0.00,-0.26,1721201238844
-1.19,1.43,10.31,-0.05,0.00,-0.13,1721201238854
-1.40,-2.99,8.07,-0.09,0.03,-0.10,1721201238864
-0.51,1.81,14.16,-0.02,0.15,-0.08,1721201238874
0.36,1.19,8.27,0.02,-0.15,-0.04,1721201238884
0.47,0.90,9.34,-0.06,0.20,-0.09,1721201238894
1.72,-1.13,13.01,-0.07,0.12,-0.26,1721201238904
-0.58,1.08,13.66,-0.03,0.00,-0.34,1721201238914
-1.66,-0.54,10.87,-0.04,0.03,-0.16,1721201238924
-1.98,2.20,13.34,0.02,0.14,-0.21,1721201238934
-0.43,3.45,10.33,0.25,-0.04,-0.14,1721201238944
-0.02,-2.50,5.35,0.04,0.14,-0.10,1721201238954
-1.35,2.08,13.97,0.17,0.12,-0.29,1721201238964
-1.45,-0.02,7.10,0.13,-0.02,-0.28,1721201238974
-1.86,0.40,8.63,0.00,0.17,-0.20,1721201238984
0.40,-1.36,16.17,0.07,0.13,-0.17,1721201238994
-0.76,1.13,11.58,0.16,-0.03,-0.18,1721201239004
-1.94,-0.97,6.37,0.12,0.00,-0.23,1721201239014
-1.51,0.93,12.33,0.12,0.19,-0.22,1721201239024
-1.64,1.08,7.56,0.25,-0.10,-0.16,1721201239034
-1.33,-0.05,6.47,0.07,0.14,-0.17,1721201239044
-0.53,1.31,11.25,0.17,0.05,-0.18,1721201239054
-0.64,-0.94,7.41,0.05,0.05,-0.17,1721201239064
-1.77,0.77,9.75,0.02,0.05,-0.16,1721201239074
0.09,-0.01,10.47,0.05,0.13,-0.13,1721201239084
-0.74,-1.75,9.07,-0.10,-0.02,-0.14,1721201239094
-0.38,0.81,10.79,0.05,0.13,-0.17,1721201239104
1.02,-0.08,8.47,-0.04,0.08,-0.18,1721201239114
-1.15,-0.86,10.58,-0.08,0.01,-0.17,1721201239124
-0.88,1.35,13.56,0.04,0.13,-0.21,1721201239134
-0.76,-0.44,12.44,-0.04,0.01,-0.18,1721201239144
-2.19,2.99,12.82,0.09,0.01,-0.13,1721201239154
-1.85,-0.40,8.29,0.01,0.07,-0.13,1721201239169
-1.59,0.32,8.83,0.01,-0.02,-0.12,1721201239173
-1.55,-0.41,9.55,0.13,0.01,-0.06,1721201239183
-0.78,0.61,9.75,0.08,0.08,-0.07,1721201239193
-0.24,2.39,11.88,0.16,-0.01,-0.05,1721201239203
1.11,0.64,10.44,0.11,0.10,-0.06,1721201239213
0.29,2.63,13.19,0.11,0.03,-0.13,1721201239223
0.96,1.68,10.94,0.15,0.03,-0.15,1721201239233
-0.26,0.21,8.24,0.10,0.03,-0.15,1721201239243
-1.59,0.33,7.96,0.09,0.02,-0.13,1721201239253
-1.61,-0.26,7.34,0.06,0.01,-0.09,1721201239263
-0.62,-2.52,9.44,-0.03,0.08,-0.06,1721201239273
-0.68,2.99,12.65,0.18,0.05,0.01,1721201239283
-0.45,-1.04,4.51,0.01,-0.09,0.05,1721201239293
-0.13,-0.59,11.70,-0.07,0.19,-0.05,1721201239303
0.30,-2.39,10.52,0.08,-0.13,-0.06,1721201239313
-0.89,0.32,13.11,-0.03,0.20,0.00,1721201239323
-1.18,-0.46,9.58,0.05,-0.16,-0.02,1721201239333
-1.30,1.53,10.31,0.00,0.14,-0.03,1721201239343
-0.59,0.92,9.61,0.05,-0.07,0.04,1721201239353
-2.76,2.61,8.19,-0.02,0.03,0.02,1721201239363
-0.99,0.96,9.55,-0.06,0.03,0.03,1721201239373
-1.30,0.76,9.63,-0.07,-0.07,0.13,1721201239383
-0.80,-3.17,8.77,-0.17,0.05,0.10,1721201239393
-0.90,-0.98,11.85,-0.18,-0.03,0.03,1721201239403
0.55,0.92,11.10,-0.08,-0.05,-0.01,1721201239413
0.21,0.28,10.17,-0.12,-0.05,0.09,1721201239423
-0.16,2.94,12.24,-0.13,0.04,0.01,1721201239433
-0.44,3.86,9.93,-0.04,-0.13,-0.06,1721201239443
-0.86,-2.71,9.86,-0.32,0.01,-0.05,1721201239453
-3.27,0.44,12.06,-0.10,-0.22,0.03,1721201239463
-0.20,-2.15,7.42,-0.16,0.04,0.16,1721201239473
-0.01,0.47,13.10,-0.18,-0.11,0.18,1721201239483
0.17,1.29,10.32,-0.05,-0.09,0.05,1721201239493
1.19,2.43,11.68,-0.16,0.02,-0.08,1721201239503
-0.16,-0.89,10.54,-0.02,-0.21,0.03,1721201239513
-0.87,-3.54,7.38,-0.10,-0.00,0.09,1721201239523
-0.65,0.90,8.75,0.06,-0.07,0.02,1721201239533
2.22,-1.92,7.24,0.06,0.01,0.05,1721201239543
0.90,-0.44,8.46,0.10,-0.13,0.00,1721201239553
1.42,3.07,10.66,0.14,0.10,-0.12,1721201239563
0.52,0.74,9.83,0.04,-0.09,-0.09,1721201239573
-2.23,1.43,10.35,0.02,-0.04,-0.11,1721201239583
0.70,-0.44,8.16,0.00,0.04,0.01,1721201239593
0.42,-3.16,8.54,-0.10,-0.10,0.04,1721201239603
0.49,-2.60,9.50,-0.09,-0.03,-0.07,1721201239613
1.42,-0.54,13.95,-0.08,0.09,-0.16,1721201239623
-0.01,-1.24,13.07,-0.13,-0.14,-0.16,1721201239633
-2.51,1.43,11.70,-0.03,0.03,-0.19,1721201239643
-0.36,1.29,11.69,-0.04,0.09,-0.10,1721201239653
-1.58,-0.35,10.44,-0.01,-0.15,0.04,1721201239663
1.03,-2.43,11.65,-0.09,0.24,-0.01,1721201239673
1.34,3.06,18.15,0.05,-0.01,-0.13,1721201239683
-0.69,-0.51,9.22,0.06,-0.18,-0.15,1721201239693
-0.71,4.73,15.00,0.11,0.22,-0.23,1721201239703
-0.75,-0.14,9.68,0.20,-0.21,-0.11,1721201239713
-0.93,2.10,13.50,0.14,0.26,-0.07,1721201239723
0.11,0.93,11.27,0.34,-0.21,0.01,1721201239733
0.55,0.64,9.24,0.21,0.18,-0.04,1721201239743
1.67,2.60,13.03,0.37,0.03,-0.08,1721201239753
0.34,3.56,9.31,0.37,0.00,-0.15,1721201239763
0.38,2.88,4.99,0.47,0.03,-0.14,1721201239773
1.30,0.01,3.57,0.30,0.15,-0.08,1721201239783
0.53,1.50,5.42,0.22,0.06,-0.11,1721201239793
0.46,0.40,6.44,0.18,0.12,-0.23,1721201239803
-0.46,-2.33,8.25,-0.02,0.10,-0.29,1721201239813
-2.67,-1.38,13.13,0.02,0.06,-0.20,1721201239823
-1.50,-1.27,14.17,0.09,0.15,-0.09,1721201239833
-1.45,-0.85,9.91,-0.04,-0.03,0.00,1721201239843
-0.25,0.67,10.11,0.02,0.11,0.01,1721201239853
1.78,-0.14,8.41,-0.05,0.11,-0.17,1721201239863
0.30,-1.71,8.21,-0.16,-0.00,-0.26,1721201239873
-1.55,-0.75,10.59,-0.15,0.10,-0.28,1721201239883
-2.29,0.82,9.47,-0.06,-0.03,-0.18,1721201239893
-0.93,-1.76,7.31,-0.14,0.09,0.02,1721201239903
0.14,0.70,11.90,-0.11,0.15,-0.07,1721201239913
0.13,2.37,11.75,-0.12,0.00,-0.23,1721201239923
-1.34,-0.54,8.91,-0.19,0.03,-0.20,1721201239933
-0.16,-0.07,13.44,-0.20,0.15,-0.09,1721201239943
-0.64,0.82,9.75,-0.09,-0.09,-0.08,1721201239953
0.36,-1.00,8.83,-0.19,0.15,-0.12,1721201239963
0.11,0.53,13.35,-0.14,0.07,-0.25,1721201239973
-2.47,2.32,8.64,-0.07,-0.05,-0.23,1721201239983
-1.63,-0.98,12.24,-0.21,0.18,-0.11,1721201239993
-0.08,0.76,11.62,-0.02,0.01,-0.01,1721201240003
1.08,-1.27,9.93,-0.14,0.10,-0.04,1721201240013
-0.51,1.89,11.14,0.02,-0.03,-0.19,1721201240023
0.04,-0.62,8.26,-0.02,0.09,-0.19,1721201240033
-0.18,2.33,12.45,0.04,0.07,-0.18,1721201240043
-1.21,1.60,10.19,0.10,0.00,-0.22,1721201240053
-2.62,-1.01,7.01,0.02,0.02,-0.17,1721201240063
-0.26,0.96,15.02,-0.02,0.27,-0.07,1721201240073
-1.25,0.28,8.42,0.16,-0.27,-0.02,1721201240083
0.08,0.18,6.05,0.02,0.36,-0.16,1721201240093
1.35,-0.11,13.78,0.11,0.00,-0.20,1721201240103
-1.70,0.10,7.03,0.10,-0.03,-0.19,1721201240113
-1.35,0.66,10.97,0.14,0.20,-0.22,1721201240123
-0.37,2.64,11.19,0.15,0.07,-0.22,1721201240133
-2.33,-0.20,6.46,0.08,0.01,-0.15,1721201240143
-0.63,0.56,11.68,0.06,0.23,-0.11,1721201240153
-0.72,-2.31,10.28,0.00,-0.00,-0.16,1721201240163
-0.85,1.81,12.17,0.06,0.19,-0.21,1721201240173
-0.61,-2.58,7.78,0.03,-0.08,-0.17,1721201240183
-1.45,-0.63,11.63,-0.04,0.26,-0.20,1721201240193
-0.22,2.11,13.35,0.13,0.02,-0.21,1721201240203
-1.66,-0.96,6.88,-0.03,-0.00,-0.21,1721201240213
-1.27,0.65,12.24,0.06,0.22,-0.20,1721201240223
0.23,-1.08,11.28,0.02,0.02,-0.15,1721201240233
-2.52,1.03,11.11,0.10,0.04,-0.19,1721201240243
-0.26,0.66,7.74,0.19,0.13,-0.16,1721201240253
-1.05,0.33,8.94,0.04,0.05,-0.14,1721201240263
-0.51,2.66,11.93,0.21,0.09,-0.13,1721201240273
-0.28,-0.33,9.40,0.09,0.05,-0.17,1721201240283
-1.68,1.10,11.91,0.11,0.06,-0.19,1721201240293
-0.87,-0.41,9.93,0.14,0.10,-0.13,1721201240303
-0.87,1.52,10.43,0.11,0.10,-0.10,1721201240313
0.31,2.15,10.53,0.20,0.08,-0.09,1721201240323
1.07,1.36,9.18,0.14,0.14,-0.13,1721201240333
0.46,1.36,8.93,0.11,0.06,-0.23,1721201240343
-0.82,1.19,10.32,0.03,0.15,-0.23,1721201240353
-1.74,0.09,9.97,0.05,0.04,-0.13,1721201240363
-0.86,-1.24,8.42,-0.01,0.16,-0.07,1721201240373
-0.26,0.44,11.40,0.05,0.11,-0.07,1721201240383
-0.13,1.54,10.11,0.02,0.10,-0.08,1721201240393
-1.36,3.92,11.28,0.05,0.06,-0.12,1721201240403
-1.11,-0.59,9.96,-0.02,0.12,-0.14,1721201240413
-3.88,1.27,10.10,-0.00,-0.05,-0.07,1721201240423
-2.36,0.74,9.33,-0.01,0.11,0.08,1721201240433
-0.90,-1.49,10.30,-0.07,0.03,0.14,1721201240443
-1.11,2.03,11.03,0.02,0.04,0.01,1721201240453
-0.63,-0.09,8.36,-0.04,0.03,-0.00,1721201240463
-1.23,0.53,10.39,-0.14,0.08,0.05,1721201240473
-1.92,0.36,11.26,-0.06,-0.04,0.07,1721201240483
-0.47,-2.47,9.16,-0.14,0.09,0.15,1721201240493
-1.09,0.29,11.45,-0.09,-0.06,0.13,1721201240503
-0.01,-1.77,10.56,-0.14,0.04,0.09,1721201240513
-1.70,0.29,10.04,-0.10,-0.04,0.06,1721201240523
-0.47,-0.15,8.98,-0.10,0.02,0.12,1721201240533
-0.96,-3.22,9.00,-0.20,-0.04,0.14,1721201240543
-0.76,1.43,9.96,-0.09,0.03,0.10,1721201240553
1.23,-0.15,11.90,-0.13,-0.04,0.16,1721201240563
-0.35,-1.80,9.66,-0.16,-0.08,0.13,1721201240573
0.53,-0.61,10.92,-0.13,0.08,0.03,1721201240583
-0.66,0.43,13.40,-0.14,-0.04,-0.05,1721201240593
-1.46,2.85,10.75,0.02,-0.08,0.09,1721201240603
0.66,-1.23,8.10,-0.08,0.02,0.21,1721201240613
1.07,1.73,12.18,-0.06,0.02,0.18,1721201240623
2.95,-1.05,11.27,-0.05,0.02,-0.02,1721201240633
0.29,1.34,10.75,-0.04,-0.05,-0.12,1721201240643
-0.51,-1.46,8.06,0.06,-0.03,-0.06,1721201240653
-0.54,1.41,13.04,0.03,0.16,-0.05,1721201240663
-0.42,2.29,11.56,0.14,-0.09,0.03,1721201240673
0.10,-0.02,9.63,0.04,0.10,0.03,1721201240683
-0.19,-1.70,10.26,0.08,-0.06,-0.03,1721201240693
0.60,1.46,11.14,0.12,0.11,-0.10,1721201240703
0.82,1.17,8.25,0.20,-0.06,-0.05,1721201240713
-0.29,-4.48,7.39,0.04,0.05,-0.10,1721201240723
-0.27,1.75,14.32,0.19,0.15,-0.12,1721201240733
0.04,0.35,8.80,0.17,-0.06,0.00,1721201240743
-0.83,0.29,13.26,0.07,0.15,-0.06,1721201240753
0.17,1.24,9.09,0.32,-0.07,-0.02,1721201240763
0.60,-1.07,5.59,0.10,0.16,-0.01,1721201240773
0.20,0.22,11.36,0.12,0.06,-0.12,1721201240783
0.54,2.37,13.27,0.17,0.16,-0.12,1721201240793
-0.28,0.59,8.41,0.10,-0.06,-0.02,1721201240803
0.39,-1.05,10.08,0.06,0.23,-0.08,1721201240813
0.59,-2.47,11.41,0.04,0.02,-0.12,1721201240823
-1.52,2.44,10.90,0.14,0.11,-0.14,1721201240833
-0.38,0.02,10.89,0.16,0.12,-0.03,1721201240843
-1.03,2.11,9.84,0.20,0.09,-0.02,1721201240853
-0.26,-0.12,7.33,0.12,0.11,-0.04,1721201240863
-0.67,1.16,12.79,0.05,0.22,-0.11,1721201240873
-1.67,0.80,10.65,0.13,-0.07,-0.02,1721201240883
-1.59,-0.08,8.20,0.07,0.17,0.05,1721201240893
-0.30,1.71,11.69,0.09,0.07,0.03,1721201240903
-0.67,1.20,7.98,0.01,0.02,-0.01,1721201240913
-0.43,1.37,12.70,-0.10,0.14,-0.02,1721201240923
-1.23,2.60,10.94,0.12,-0.07,0.02,1721201240933
-0.60,-0.36,6.01,-0.09,0.13,0.03,1721201240943
-0.70,2.02,14.22,-0.02,0.06,0.04,1721201240953
0.33,-0.49,8.20,0.02,-0.06,0.08,1721201240963
-0.30,3.20,8.56,-0.01,0.06,0.06,1721201240973
1.51,0.08,10.05,-0.06,0.06,0.05,1721201240983
1.41,-0.09,9.27,-0.04,-0.02,0.02,1721201240993
1.59,-0.98,8.80,-0.16,0.07,-0.07,1721201241003
0.34,-2.32,12.16,-0.12,0.01,-0.08,1721201241013
0.45,-3.12,11.45,-0.18,0.15,-0.13,1721201241023
-2.82,2.91,12.05,-0.03,-0.13,-0.10,1721201241033
-1.25,-4.50,8.00,-0.17,0.10,0.10,1721201241043
-1.31,0.79,12.13,-0.09,0.05,0.11,1721201241053
0.34,2.46,8.14,-0.01,-0.03,0.14,1721201241063
1.92,-3.55,10.01,-0.33,0.17,0.08,1721201241073
0.29,2.17,13.58,-0.04,-0.12,-0.07,1721201241083
0.62,-0.36,7.19,-0.19,0.16,-0.08,1721201241093
-1.19,0.17,11.40,-0.22,-0.03,-0.04,1721201241103
-0.68,-4.07,8.32,-0.25,0.08,-0.02,1721201241113
-1.09,1.59,13.56,-0.16,0.09,-0.08,1721201241123
-0.99,-1.35,7.46,-0.11,-0.12,0.01,1721201241133
-1.16,-1.37,12.05,-0.25,0.19,0.05,1721201241143
0.50,2.87,15.63,-0.02,0.02,-0.05,1721201241153
-0.93,2.56,7.27,0.02,-0.14,-0.05,1721201241163
-0.17,0.61,13.63,-0.06,0.11,-0.11,1721201241178
-0.73,1.89,13.00,0.04,-0.05,-0.08,1721201241183
0.18,0.16,10.25,-0.01,0.09,-0.08,1721201241193
-2.16,2.41,12.33,0.03,-0.07,-0.09,1721201241203
-1.79,0.96,6.87,0.16,0.04,-0.05,1721201241213
-0.84,-2.35,10.06,-0.10,0.07,-0.00,1721201241223
-1.50,2.85,11.17,0.17,-0.12,-0.01,1721201241233
1.17,1.46,9.16,0.10,0.18,-0.08,1721201241243
0.26,0.81,12.81,-0.05,-0.12,-0.14,1721201241253
-1.28,0.59,9.62,0.16,-0.02,-0.10,1721201241263
-0.77,-2.11,9.02,-0.05,0.06,-0.14,1721201241273
-1.95,2.92,15.55,0.06,0.01,-0.11,1721201241283
-0.60,-0.54,11.56,0.12,-0.03,-0.04,1721201241293
-1.18,3.74,10.54,0.18,0.02,-0.17,1721201241303
-0.68,-0.62,10.15,0.04,-0.04,-0.17,1721201241313
-2.04,1.53,19.34,0.09,0.06,-0.05,1721201241323
0.46,3.93,10.32,0.35,-0.05,0.07,1721201241333
0.46,-0.36,5.71,0.14,-0.06,0.05,1721201241343
0.79,-0.61,9.35,0.23,0.03,-0.09,1721201241353
1.08,1.85,7.89,0.17,-0.00,-0.19,1721201241363
-1.07,2.49,8.07,0.20,-0.05,-0.22,1721201241373
-0.91,-4.13,8.62,0.02,0.05,-0.19,1721201241383
-2.34,3.81,13.62,0.25,-0.01,-0.04,1721201241393
0.42,0.00,6.80,0.15,-0.00,0.12,1721201241403
-0.47,2.36,8.74,0.06,-0.02,-0.02,1721201241413
2.27,0.30,10.34,0.10,0.11,-0.15,1721201241423
-0.37,1.29,9.56,-0.05,-0.07,-0.18,1721201241433
-2.75,0.77,10.64,-0.04,-0.03,-0.19,1721201241443
-2.88,-2.36,8.56,-0.07,-0.06,-0.02,1721201241453
-1.71,-2.36,11.19,-0.13,0.07,0.11,1721201241463
-0.43,-0.99,10.57,-0.04,-0.15,0.11,1721201241473
0.71,3.27,10.74,0.05,0.11,-0.00,1721201241483
0.50,2.76,9.58,-0.03,-0.14,-0.08,1721201241493
-1.62,2.27,9.08,-0.01,-0.01,-0.14,1721201241503
-0.20,-3.91,10.82,-0.22,0.12,-0.02,1721201241513
-2.73,1.08,13.47,-0.12,-0.14,-0.01,1721201241523
-0.96,2.15,11.64,-0.08,0.02,0.07,1721201241533
0.99,-0.70,7.17,-0.08,-0.09,0.08,1721201241543
1.53,-6.57,9.64,-0.33,0.12,-0.08,1721201241553
-1.22,4.24,16.29,-0.05,-0.04,-0.20,1721201241563
-1.82,2.42,5.92,-0.03,-0.16,-0.08,1721201241573
-2.16,1.07,9.78,-0.18,0.12,0.04,1721201241583
0.17,-2.70,9.28,-0.05,-0.09,-0.02,1721201241593
-1.03,0.48,6.40,-0.08,-0.04,0.01,1721201241603
0.47,0.75,5.56,-0.09,0.07,-0.02,1721201241613
1.38,-4.14,11.29,-0.29,0.03,-0.04,1721201241623
-0.28,0.06,13.67,-0.06,-0.07,-0.06,1721201241633
1.69,2.35,12.84,-0.10,0.16,-0.19,1721201241643
-1.16,-1.89,10.32,-0.22,-0.22,-0.17,1721201241653
-2.17,1.60,13.28,-0.06,0.15,-0.19,1721201241663
0.63,0.05,12.59,-0.01,0.07,-0.04,1721201241673
-1.13,1.67,5.91,0.08,-0.13,0.08,1721201241683
0.85,0.17,6.72,-0.03,0.24,-0.15,1721201241693
3.01,-1.51,14.71,-0.13,0.17,-0.23,1721201241703
-0.38,2.64,11.85,0.07,-0.05,-0.28,1721201241713
-1.49,-3.57,9.88,-0.09,-0.00,-0.17,1721201241723
-2.03,1.49,10.00,0.19,0.06,-0.06,1721201241733
1.85,-2.59,9.84,-0.05,0.25,-0.05,1721201241743
-1.17,5.45,18.32,0.15,0.02,-0.17,1721201241753
-1.65,2.44,6.76,0.21,-0.03,-0.09,1721201241763
0.15,-0.95,10.04,0.06,0.22,0.02,1721201241773
0.46,-1.17,10.90,0.12,-0.02,0.09,1721201241783
1.30,2.88,11.08,0.16,0.22,-0.03,1721201241793
1.01,-0.94,8.41,0.09,-0.02,-0.19,1721201241803
-0.47,4.23,11.76,0.16,0.23,-0.16,1721201241813
-0.62,0.30,8.18,0.13,-0.03,-0.14,1721201241823
-1.52,-1.53,11.65,0.08,0.24,-0.04,1721201241833
-0.37,2.02,9.61,0.23,0.10,0.02,1721201241843
0.46,0.51,9.54,0.07,0.15,0.00,1721201241853
0.00,1.15,10.24,0.22,0.05,-0.05,1721201241863
0.92,2.45,9.19,0.14,0.23,-0.10,1721201241873
-1.77,0.45,10.46,0.03,-0.04,-0.12,1721201241883
-1.98,-1.83,11.42,0.05,0.21,-0.09,1721201241893
-1.16,1.29,12.30,0.10,0.11,0.05,1721201241903
0.09,1.65,8.29,0.06,0.09,0.15,1721201241913
0.94,-0.31,10.45,0.01,0.19,-0.02,1721201241923
0.25,3.18,11.22,0.14,0.07,-0.15,1721201241933
0.28,0.26,7.22,-0.02,0.14,-0.00,1721201241943
-1.08,2.27,9.37,0.04,0.06,-0.06,1721201241953
0.64,-1.50,11.27,-0.10,0.22,-0.04,1721201241963
-1.61,2.62,10.34,0.12,-0.09,0.01,1721201241973
1.09,-3.30,5.67,-0.16,0.27,0.01,1721201241983
0.55,1.96,17.20,-0.02,0.13,-0.01,1721201241993
0.81,1.54,6.59,0.06,0.00,-0.12,1721201242003
-1.72,1.13,6.83,-0.14,0.06,-0.08,1721201242013
0.33,-3.89,11.06,-0.11,0.22,-0.05,1721201242023
-0.43,0.73,13.86,-0.10,0.10,-0.06,1721201242033
-1.71,0.24,4.70,-0.00,-0.09,-0.02,1721201242043
-0.34,-1.95,8.00,-0.21,0.31,-0.02,1721201242053
0.07,-1.98,14.22,-0.14,0.03,0.02,1721201242063
0.04,-0.88,12.18,-0.05,0.20,-0.10,1721201242073
-1.11,1.15,10.23,-0.08,0.01,-0.17,1721201242083
-2.35,1.35,9.90,-0.12,0.13,-0.09,1721201242093
-1.62,-0.42,10.61,-0.06,0.07,0.00,1721201242103
-1.38,0.99,7.57,-0.10,0.08,0.07,1721201242113
0.87,-0.52,13.16,-0.14,0.17,0.06,1721201242123
-0.61,0.88,9.95,-0.09,-0.07,-0.06,1721201242133
0.15,0.88,12.62,-0.08,0.26,-0.13,1721201242143
-1.77,0.10,9.25,-0.02,-0.11,-0.12,1721201242153
-2.80,-2.48,11.74,-0.10,0.20,-0.07,1721201242163
-2.44,3.06,11.72,0.20,-0.08,0.06,1721201242173
-0.45,-0.22,7.13,-0.02,0.17,0.09,1721201242183
-1.32,2.56,12.79,0.10,-0.05,-0.04,1721201242193
-0.27,-0.99,10.02,0.08,0.10,-0.06,1721201242203
-1.30,-2.76,13.01,-0.07,0.03,-0.04,1721201242213
-1.66,3.75,13.19,0.24,-0.03,0.03,1721201242223
-0.60,-1.69,5.13,0.06,-0.04,0.13,1721201242233
-0.46,2.87,13.46,0.13,0.12,0.05,1721201242243
1.36,-0.66,7.93,0.12,-0.13,-0.01,1721201242253
-0.60,1.54,12.08,-0.04,0.10,-0.11,1721201242263
-1.15,-0.51,8.94,0.17,-0.18,-0.10,1721201242273
-2.45,-0.78,8.48,-0.08,0.12,-0.02,1721201242283
-1.60,1.55,12.67,0.17,-0.10,0.08,1721201242293
0.44,-0.66,7.81,0.03,0.06,0.10,1721201242303
-0.18,3.17,12.62,0.05,-0.05,-0.00,1721201242313
0.18,0.01,11.06,0.02,-0.07,-0.06,1721201242323
-2.04,-0.82,10.92,0.01,-0.08,0.00,1721201242333
-1.06,0.03,10.50,0.09,-0.01,0.11,1721201242343
-0.15,-1.32,8.09,0.04,-0.11,0.23,1721201242353
2.01,1.76,11.21,0.11,0.07,0.17,1721201242363
2.26,3.10,8.17,0.16,-0.14,0.01,1721201242373
0.43,0.25,8.32,-0.04,-0.03,-0.15,1721201242383
-2.11,2.65,12.41,0.10,-0.08,-0.10,1721201242393
-2.19,-1.17,8.89,-0.03,-0.06,0.01,1721201242403
-3.16,0.03,7.61,-0.00,-0.20,0.27,1721201242413
1.53,-0.13,11.13,-0.02,0.16,0.20,1721201242423
1.40,1.26,9.33,0.03,-0.25,0.06,1721201242433
0.18,1.68,9.34,-0.04,0.05,-0.02,1721201242443
-0.56,0.76,12.88,-0.05,-0.13,-0.06,1721201242453
-1.42,-0.77,10.98,-0.08,-0.16,0.07,1721201242463
-2.70,2.09,9.42,-0.03,-0.10,0.12,1721201242473
-0.74,-1.09,9.46,-0.13,-0.11,0.18,1721201242483
0.74,-0.88,10.95,-0.08,-0.09,0.24,1721201242493
2.08,2.28,11.16,-0.00,-0.07,0.08,1721201242503
1.59,-1.77,9.22,-0.14,-0.11,-0.04,1721201242513
-0.71,2.10,10.98,-0.07,-0.03,-0.15,1721201242523
-1.50,-1.77,9.47,-0.15,-0.14,-0.07,1721201242533
-2.73,-2.51,10.76,-0.11,-0.13,0.10,1721201242543
-0.81,-0.35,9.69,0.00,-0.10,0.21,1721201242553
1.33,-0.14,9.71,-0.11,-0.09,0.18,1721201242563
1.03,2.48,12.36,-0.03,-0.11,-0.03,1721201242573
-0.28,-0.41,7.21,0.01,-0.22,-0.12,1721201242583
-1.23,-3.12,9.11,-0.18,0.00,-0.07,1721201242593
-1.65,2.80,12.37,0.06,-0.17,0.01,1721201242603
0.14,-1.06,7.05,-0.02,-0.06,0.11,1721201242613
0.31,-1.23,10.07,-0.14,-0.14,0.04,1721201242623
0.91,-1.91,11.13,-0.07,-0.04,-0.06,1721201242633
3.03,-0.17,16.78,-0.15,0.11,-0.15,1721201242643
-0.91,1.02,11.09,0.03,-0.37,-0.15,1721201242653
-1.00,-2.15,6.09,0.02,0.11,-0.03,1721201242663
1.11,0.24,13.61,0.00,0.04,-0.10,1721201242673
-1.08,1.01,9.89,0.05,-0.21,-0.14,1721201242683
-1.10,1.49,10.55,0.08,0.03,-0.08,1721201242693
1.30,0.64,9.91,0.02,-0.01,-0.06,1721201242703
-0.26,0.33,9.88,0.13,-0.14,-0.03,1721201242713
1.33,-1.32,11.24,-0.03,0.11,-0.14,1721201242723
-1.00,-1.70,12.92,0.04,-0.21,-0.08,1721201242733
0.86,5.69,11.02,0.18,0.25,-0.14,1721201242743
0.76,-0.25,7.29,0.05,-0.32,-0.06,1721201242753
0.29,-1.35,10.09,0.08,0.21,-0.10,1721201242763
1.44,-2.05,11.27,0.11,-0.02,-0.14,1721201242773
-1.74,0.72,10.43,0.06,-0.02,-0.09,1721201242783
0.38,1.50,10.03,0.22,0.05,0.00,1721201242793
1.98,-0.83,9.24,0.03,0.03,-0.01,1721201242803
1.51,3.60,13.29,0.20,0.07,-0.25,1721201242813
1.11,0.11,11.33,0.12,0.04,-0.36,1721201242823
-3.37,4.06,11.31,0.22,-0.06,-0.29,1721201242833
-0.51,-2.24,7.64,0.13,0.17,-0.12,1721201242843
-0.93,0.84,12.04,0.13,0.06,-0.09,1721201242853
0.81,1.58,8.16,0.24,0.09,-0.18,1721201242863
0.50,1.05,8.10,0.13,0.07,-0.20,1721201242873
-0.48,0.90,7.90,0.03,0.09,-0.26,1721201242883
-1.06,1.73,11.93,0.10,0.12,-0.30,1721201242893
-0.59,-1.15,7.35,0.01,0.09,-0.18,1721201242903
-1.04,-0.97,13.03,-0.14,0.15,-0.16,1721201242913
-0.87,-2.02,13.02,0.03,-0.03,-0.21,1721201242923
-1.21,3.32,11.74,0.06,0.16,-0.27,1721201242933
-0.81,3.20,8.56,0.03,0.04,-0.18,1721201242943
-0.97,-0.69,9.05,-0.09,0.11,-0.15,1721201242953
0.02,0.60,10.35,-0.00,0.08,-0.21,1721201242963
-0.12,-1.49,7.69,-0.04,0.04,-0.24,1721201242973
0.13,0.34,9.31,-0.04,0.13,-0.20,1721201242983
1.03,0.71,10.63,-0.06,0.13,-0.19,1721201242993
0.19,0.58,9.40,-0.06,0.06,-0.32,1721201243003
0.12,-0.77,8.57,-0.15,0.15,-0.30,1721201243013
-1.02,-0.64,12.62,-0.15,0.09,-0.33,1721201243023
-2.00,-1.13,7.91,-0.02,0.07,-0.25,1721201243033
-1.69,0.26,10.55,-0.15,0.25,-0.18,1721201243043
-0.93,-0.34,13.05,-0.07,0.06,-0.14,1721201243053
-0.35,-0.09,10.76,-0.13,0.13,-0.15,1721201243063
-0.03,1.43,12.75,-0.05,0.15,-0.20,1721201243073
0.88,-0.06,8.63,-0.05,0.15,-0.23,1721201243083
-1.30,-0.73,8.75,-0.04,0.11,-0.26,1721201243093
-1.14,-0.93,11.11,-0.02,0.23,-0.28,1721201243103
-2.32,1.79,12.37,0.01,0.04,-0.14,1721201243113
-1.69,2.39,9.58,0.10,0.14,-0.10,1721201243123
2.08,2.32,11.14,-0.14,0.01,-0.30,1721201243684
1.00,2.93,12.51,-0.20,-0.07,-0.38,1721201243688
-2.04,0.72,12.57,-0.07,-0.06,-0.35,1721201243697
-2.21,-5.80,7.44,-0.20,0.01,-0.02,1721201243707
-1.28,-3.21,11.68,-0.12,0.04,0.11,1721201243716
0.29,1.30,8.70,-0.07,-0.05,0.17,1721201243726
1.52,1.81,6.65,-0.12,0.05,0.03,1721201243736
3.24,2.29,7.81,0.03,0.07,-0.22,1721201243746
0.52,-2.71,0.02,-0.13,-0.12,-0.21,1721201243755
-0.23,-7.10,28.29,-0.54,0.49,-0.35,1721201243765
-4.03,6.36,29.74,0.12,-0.48,-0.31,1721201243774
-4.37,5.99,-4.48,0.41,-0.08,0.17,1721201243784
-0.21,-5.30,6.58,-0.16,0.35,0.41,1721201243793
6.44,7.52,18.55,0.33,-0.41,0.03,1721201243803
2.42,3.00,1.17,0.46,-0.08,-0.32,1721201243813
-0.11,-2.22,6.30,0.03,0.21,-0.23,1721201243823
-0.22,1.42,15.95,0.22,-0.10,-0.08,1721201243833
-0.88,4.47,8.62,0.32,0.07,-0.04,1721201243843
1.04,4.52,10.61,0.27,0.12,-0.02,1721201243852
0.82,-0.55,6.09,0.26,-0.01,-0.14,1721201243862
-0.09,1.89,8.98,0.28,0.21,-0.27,1721201243872
-0.72,2.36,12.07,0.18,0.04,-0.19,1721201243882
-3.36,-0.29,12.68,0.07,-0.01,-0.04,1721201243892
-1.47,0.54,16.36,0.26,0.18,-0.01,1721201243902
2.01,-0.58,9.17,0.25,0.07,0.02,1721201243912
1.13,2.00,7.39,0.17,0.09,-0.07,1721201243922
1.74,2.03,8.80,0.32,0.16,-0.26,1721201243932
0.39,2.59,7.13,0.33,0.11,-0.37,1721201243942
-1.15,1.16,5.51,0.25,0.06,-0.17,1721201243952
-0.27,-1.85,7.03,0.12,0.24,-0.11,1721201243962
0.11,-0.39,7.82,0.07,0.12,-0.15,1721201243972
0.57,-1.44,8.55,0.02,0.20,-0.27,1721201243982
-0.53,-1.27,5.23,0.02,0.04,-0.26,1721201243992
-0.98,-1.30,8.23,-0.01,0.31,-0.24,1721201244002
-0.84,-4.36,11.52,-0.18,0.16,-0.22,1721201244012
-3.98,0.10,14.16,-0.14,0.09,-0.12,1721201244022
-1.12,-0.47,12.20,-0.01,0.24,-0.05,1721201244032
0.29,0.33,8.28,-0.09,0.13,-0.06,1721201244042
0.25,-2.81,3.87,-0.13,0.13,-0.16,1721201244052
1.17,-3.40,12.36,-0.31,0.34,-0.18,1721201244062
-0.49,2.35,17.66,-0.11,0.10,-0.30,1721201244072
-1.65,-1.19,7.68,-0.15,0.11,-0.24,1721201244082
-3.70,-1.41,10.09,-0.25,0.18,-0.03,1721201244092
-0.88,-0.19,16.92,-0.18,0.28,-0.02,1721201244102
-0.62,3.32,12.72,-0.03,0.00,-0.12,1721201244112
-0.82,0.85,6.07,-0.05,0.10,-0.08,1721201244122
-0.72,-1.31,8.01,-0.08,0.19,-0.15,1721201244132
-1.90,3.28,14.02,0.01,0.10,-0.09,1721201244142
-1.86,0.72,7.39,0.02,0.06,-0.04,1721201244152
-0.51,-0.81,13.93,-0.11,0.24,0.09,1721201244162
0.03,2.36,12.23,0.14,-0.05,0.03,1721201244172
0.06,-0.51,8.70,-0.03,0.17,-0.10,1721201244182
-0.30,1.48,12.15,0.08,0.09,-0.13,1721201244192
-1.22,-0.43,9.89,0.08,0.11,-0.05,1721201244202
-2.74,3.49,10.78,0.11,0.05,0.07,1721201244212
-1.36,3.28,10.10,0.17,0.15,0.11,1721201244222
1.26,-2.36,9.23,0.02,0.06,0.14,1721201244232
0.48,1.45,11.28,0.10,0.10,-0.03,1721201244242
0.51,0.82,8.28,0.08,0.04,-0.14,1721201244252
-0.78,0.70,15.32,-0.03,0.15,-0.12,1721201244262
-2.09,-0.12,11.25,0.18,-0.07,-0.03,1721201244272
-1.83,0.70,6.55,0.10,0.16,0.04,1721201244282
-0.74,2.77,10.32,0.09,0.08,0.02,1721201244292
-0.20,0.36,10.38,0.09,0.04,0.03,1721201244302
-0.81,1.10,11.01,0.10,0.03,-0.02,1721201244312
-0.61,1.36,10.23,0.13,0.05,-0.05,1721201244322
-0.09,-0.05,12.12,0.01,0.08,-0.00,1721201244332
-1.45,3.01,11.57,0.15,0.01,-0.03,1721201244342
-0.32,-0.94,8.97,0.02,0.08,0.00,1721201244352
-0.87,1.58,10.68,0.08,0.05,0.01,1721201244362
0.65,0.22,10.44,0.04,0.13,-0.04,1721201244372
-0.98,1.98,11.39,0.03,0.02,-0.10,1721201244382
-1.21,0.80,9.39,0.05,0.05,-0.02,1721201244392
-0.83,0.16,7.33,0.03,0.00,0.08,1721201244402
0.13,-0.74,10.25,-0.05,0.14,0.05,1721201244412
0.47,0.78,13.49,0.03,0.01,-0.02,1721201244422
-0.29,1.30,10.91,0.02,0.09,-0.05,1721201244432
-1.30,1.07,10.07,0.02,0.03,-0.03,1721201244442
-1.33,-2.58,9.60,-0.11,0.06,-0.02,1721201244452
-2.33,-1.19,10.06,0.03,-0.02,0.05,1721201244462
-0.95,-1.64,6.78,-0.01,0.08,0.12,1721201244472
0.48,-0.68,11.95,-0.03,0.10,0.10,1721201244482
0.10,2.53,10.63,0.13,-0.08,0.01,1721201244492
-0.58,1.65,8.04,-0.02,0.09,-0.07,1721201244502
-1.07,-0.96,11.54,-0.15,0.05,-0.04,1721201244512
-1.52,1.18,12.51,-0.02,0.02,0.06,1721201244522
0.51,0.13,6.97,-0.01,0.06,0.11,1721201244532
0.91,0.18,8.99,-0.09,0.06,0.03,1721201244542
0.48,2.75,13.54,0.04,0.09,-0.06,1721201244552
0.40,5.07,8.77,0.13,0.01,-0.06,1721201244562
-0.55,3.31,7.66,-0.14,0.10,-0.06,1721201244572
-1.25,2.40,14.27,-0.08,-0.02,-0.01,1721201244582
-1.58,-0.31,9.77,-0.01,-0.00,-0.01,1721201244592
-1.47,0.13,11.06,-0.05,0.09,0.04,1721201244602
-1.81,1.54,8.79,0.10,-0.05,0.07,1721201244612
-0.84,0.60,9.66,-0.01,0.12,0.12,1721201244622
0.38,2.97,11.64,0.11,-0.04,0.07,1721201244632
0.41,1.40,8.83,0.04,0.04,-0.03,1721201244642
-0.17,-0.70,12.14,-0.06,0.02,-0.07,1721201244652
-1.74,0.05,10.50,0.08,-0.11,-0.00,1721201244662
-0.24,1.89,11.61,0.10,0.13,0.10,1721201244672
0.28,1.36,7.68,0.06,-0.08,0.01,1721201244682
-0.60,-0.11,7.07,-0.02,-0.01,-0.07,1721201244692
0.12,-0.78,11.00,-0.07,0.10,-0.07,1721201244702
-0.99,-0.31,11.72,-0.02,-0.06,0.03,1721201244712
-0.53,0.45,11.60,0.08,0.06,0.07,1721201244722
0.40,1.25,10.30,0.03,-0.04,0.02,1721201244732
-0.04,3.45,12.17,0.06,0.03,-0.06,1721201244742
-0.05,0.02,8.33,-0.03,-0.00,-0.10,1721201244752
-2.70,-0.90,11.14,-0.07,-0.02,-0.07,1721201244762
-2.46,-0.23,11.93,0.10,-0.01,0.08,1721201244772
-1.12,1.31,9.07,0.06,-0.01,0.17,1721201244782
0.49,1.25,10.04,0.09,-0.04,0.14,1721201244792
1.53,2.22,10.98,0.05,0.05,-0.02,1721201244802
-0.44,3.31,7.81,0.08,-0.18,-0.06,1721201244812
-0.35,-0.08,9.50,-0.06,0.08,-0.04,1721201244822
-1.24,-0.28,9.16,0.02,-0.12,0.00,1721201244832
-0.22,-0.01,11.50,-0.06,0.09,0.01,1721201244842
-0.76,2.18,10.29,0.04,-0.12,-0.00,1721201244852
0.01,0.36,10.77,-0.11,0.10,-0.04,1721201244862
-0.51,0.52,11.83,0.02,-0.12,-0.02,1721201244872
-0.98,-1.38,7.96,-0.08,-0.01,0.04,1721201244882
-1.14,0.04,13.09,-0.01,-0.04,0.06,1721201244892
0.48,-0.27,9.44,0.02,-0.04,0.04,1721201244902
0.31,3.55,11.73,0.09,0.04,-0.06,1721201244912
-0.29,2.64,6.91,0.03,-0.11,-0.10,1721201244922
-2.17,1.22,11.68,-0.09,-0.01,-0.07,1721201244932
-1.55,-0.96,8.64,0.02,-0.13,0.07,1721201244942
-0.39,-0.81,11.31,-0.08,0.10,0.11,1721201244952
0.35,0.80,12.13,0.04,-0.17,0.05,1721201244962
-0.66,2.62,8.06,0.13,-0.06,-0.03,1721201244972
0.27,2.03,8.00,-0.01,-0.04,-0.09,1721201244982
-1.12,0.20,9.57,-0.07,-0.10,-0.03,1721201244992
-1.71,-1.69,9.48,-0.06,-0.04,0.02,1721201245002
-0.51,0.53,14.94,-0.10,0.07,-0.01,1721201245012
-0.96,0.69,9.65,0.11,-0.25,0.04,1721201245022
-0.02,0.85,7.82,-0.06,0.09,-0.02,1721201245032
0.79,0.04,11.65,-0.03,-0.10,0.00,1721201245042
-0.62,2.46,10.36,0.01,-0.05,-0.05,1721201245052
-0.32,0.83,9.74,-0.05,-0.09,-0.00,1721201245062
0.23,1.27,14.01,-0.00,0.00,-0.02,1721201245072
-0.10,1.49,10.50,0.02,-0.17,-0.03,1721201245082
-1.14,1.44,11.34,-0.05,-0.06,-0.06,1721201245092
-1.02,2.03,9.97,0.05,-0.05,-0.04,1721201245102
-0.91,-1.91,6.88,-0.08,-0.11,0.04,1721201245112
-1.37,1.52,10.30,0.02,-0.08,0.02,1721201245122
0.64,-0.47,9.46,-0.02,-0.11,0.06,1721201245132
0.69,3.21,14.54,0.02,-0.04,0.03,1721201245142
1.49,2.64,12.50,0.04,-0.12,-0.06,1721201245152
-0.99,2.26,8.90,0.02,-0.19,-0.10,1721201245162
-1.50,0.26,9.21,-0.04,0.00,-0.12,1721201245172
-1.94,-1.81,9.20,-0.08,-0.14,-0.03,1721201245182
-2.26,-0.40,10.19,-0.03,-0.07,0.12,1721201245192
0.98,-1.32,8.92,-0.01,-0.07,0.18,1721201245202
2.15,-0.54,9.55,-0.07,-0.05,0.01,1721201245212
2.34,3.74,12.61,0.06,-0.09,-0.16,1721201245222
0.07,2.90,8.60,-0.02,-0.15,-0.23,1721201245232
-2.00,-0.72,10.29,-0.14,-0.08,-0.15,1721201245242
-1.71,-3.14,9.99,-0.08,-0.12,0.01,1721201245252
-0.86,0.52,11.04,-0.07,-0.01,0.05,1721201245262
0.64,2.49,8.78,-0.04,-0.14,-0.02,1721201245272
1.06,-0.89,9.63,-0.14,-0.02,-0.07,1721201245282
0.23,0.02,14.26,-0.04,-0.08,-0.16,1721201245292
-0.48,-1.49,10.62,-0.09,-0.12,-0.12,1721201245302
-1.14,2.89,13.02,0.07,-0.07,-0.08,1721201245312
1.12,0.66,6.43,0.07,-0.06,-0.09,1721201245322
-0.73,2.21,7.53,0.00,-0.13,-0.19,1721201245332
-0.30,0.90,10.99,-0.01,0.00,-0.21,1721201245342
-0.81,1.04,13.89,-0.09,-0.04,-0.17,1721201245352
-1.60,-0.07,9.78,-0.02,-0.17,-0.12,1721201245362
0.44,0.41,13.18,-0.05,0.11,-0.10,1721201245372
1.04,0.10,13.12,-0.04,-0.11,-0.21,1721201245382
-1.91,3.42,8.89,0.25,-0.21,-0.25,1721201245392
0.42,2.95,9.75,0.03,0.19,-0.29,1721201245402
-1.75,3.87,8.43,0.20,-0.28,-0.14,1721201245412
-1.18,-1.33,4.73,-0.08,0.06,-0.16,1721201245422
-0.61,1.61,16.86,0.02,0.04,-0.22,1721201245432
-0.06,-1.34,11.05,0.04,-0.16,-0.19,1721201245442
-1.11,3.86,12.52,0.16,0.03,-0.18,1721201245452
1.55,1.13,5.91,0.08,-0.05,-0.21,1721201245462
-0.85,2.65,11.43,0.05,0.03,-0.31,1721201245472
-0.39,-1.86,8.02,0.02,-0.08,-0.33,1721201245482
-2.70,-0.60,9.86,0.03,-0.00,-0.24,1721201245492
-0.33,-0.74,9.59,0.02,0.02,-0.13,1721201245502
0.13,1.80,11.64,0.08,0.00,-0.09,1721201245512
1.53,3.02,9.25,0.08,0.04,-0.25,1721201245522
0.61,0.95,8.49,-0.04,0.00,-0.39,1721201245532
-1.61,-0.88,11.36,-0.07,0.03,-0.41,1721201245542
-2.51,-1.37,10.31,-0.02,0.01,-0.26,1721201245552
-0.74,-0.76,12.72,-0.02,0.11,-0.11,1721201245562
0.89,0.68,11.57,0.09,-0.02,-0.08,1721201245572
1.38,3.24,7.54,0.10,0.05,-0.24,1721201245582
0.90,1.62,9.79,-0.09,0.09,-0.43,1721201245592
-1.79,0.15,10.62,0.01,-0.06,-0.40,1721201245602
-2.46,0.22,9.05,0.00,0.14,-0.25,1721201245612
-1.13,-0.87,9.92,-0.01,0.04,-0.11,1721201245622
0.00,1.07,11.09,0.02,0.13,-0.15,1721201245632
0.61,3.17,8.79,0.06,0.07,-0.29,1721201245642
0.54,-1.82,10.44,-0.15,0.14,-0.38,1721201245652
-1.70,1.56,13.27,0.09,0.05,-0.39,1721201245662
-1.24,-0.82,10.13,-0.02,0.16,-0.28,1721201245672
-0.69,2.31,12.99,0.13,0.05,-0.15,1721201245687
-0.12,1.39,10.06,0.14,0.13,-0.16,1721201245691
0.12,1.46,9.23,0.03,0.10,-0.22,1721201245701
-0.92,1.21,9.11,0.10,0.07,-0.31,1721201245711
-1.91,0.61,6.97,0.05,0.10,-0.27,1721201245721
-1.85,0.62,9.39,0.07,0.10,-0.13,1721201245731
0.07,-0.23,12.77,0.02,0.16,-0.08,1721201245741
-0.02,1.73,12.36,0.13,0.03,-0.15,1721201245751
0.07,2.89,10.07,0.05,0.13,-0.28,1721201245761
-1.37,1.50,10.15,0.06,0.06,-0.30,1721201245771
-2.03,-0.48,6.81,0.01,0.13,-0.23,1721201245781
-1.82,0.01,10.59,-0.03,0.13,-0.10,1721201245791
-1.15,-0.67,8.73,0.04,0.02,-0.03,1721201245801
0.34,0.75,11.95,0.03,0.19,-0.05,1721201245811
0.86,3.45,8.70,0.11,0.04,-0.16,1721201245821
-0.58,1.51,8.80,-0.04,0.12,-0.24,1721201245831
-1.74,-1.78,10.38,-0.01,0.02,-0.16,1721201245841
-1.40,-2.59,12.29,-0.02,0.18,-0.09,1721201245851
-0.69,1.78,13.15,0.14,0.06,0.02,1721201245861
0.60,1.70,7.54,0.10,0.09,-0.03,1721201245871
0.64,2.10,8.23,0.07,0.09,-0.14,1721201245881
0.43,1.50,9.88,-0.01,0.10,-0.20,1721201245891
-1.82,0.58,9.31,0.01,0.01,-0.13,1721201245901
-0.84,0.05,9.98,-0.02,0.19,-0.05,1721201245911
-0.11,0.35,8.46,0.00,0.04,-0.04,1721201245921
0.28,-1.19,9.43,-0.11,0.15,-0.11,1721201245931
0.31,0.12,13.48,-0.01,0.12,-0.18,1721201245941
-0.31,1.62,10.29,0.03,0.12,-0.20,1721201245951
-0.60,0.90,12.38,-0.05,0.15,-0.18,1721201245961
-1.74,0.01,11.72,0.01,0.02,-0.14,1721201245971
-1.82,0.57,11.29,0.08,0.10,-0.08,1721201245981
-0.24,2.45,10.47,0.12,0.16,-0.09,1721201245991
-0.41,1.94,8.61,0.03,0.08,-0.15,1721201246001
-1.47,1.59,9.22,0.06,0.09,-0.15,1721201246011
-0.52,1.98,10.84,0.04,0.18,-0.14,1721201246021
-0.90,1.93,9.83,0.06,0.05,-0.06,1721201246031
0.22,0.56,8.80,-0.02,0.15,-0.07,1721201246041
0.19,0.39,8.72,0.03,0.10,-0.16,1721201246051
0.43,2.32,9.54,0.01,0.19,-0.25,1721201246061
-1.47,0.86,7.41,-0.03,0.03,-0.22,1721201246071
-1.56,-1.36,10.52,-0.10,0.21,-0.13,1721201246081
-1.28,-0.59,11.18,-0.03,0.15,-0.11,1721201246091
-0.61,0.09,13.24,-0.02,0.17,-0.13,1721201246101
-0.11,0.30,10.36,0.03,0.10,-0.10,1721201246111
-0.02,1.03,12.86,-0.02,0.20,-0.14,1721201246121
-0.76,0.45,11.06,0.05,0.07,-0.20,1721201246131
-2.55,1.54,8.87,0.07,0.10,-0.13,1721201246141
-1.16,0.72,8.53,0.01,0.20,-0.02,1721201246151
0.18,0.91,11.09,-0.02,0.12,0.01,1721201246161
-0.24,3.14,9.85,0.07,0.08,-0.06,1721201246171
0.12,1.73,8.04,0.01,0.16,-0.12,1721201246181
-0.60,-0.64,9.62,-0.12,0.12,-0.14,1721201246191
-1.09,0.54,13.27,-0.01,0.13,-0.10,1721201246201
-1.31,0.19,8.14,0.00,0.08,0.01,1721201246211
-0.71,0.34,9.58,-0.04,0.19,0.02,1721201246221
0.96,-1.85,11.22,-0.07,0.16,-0.08,1721201246231
-0.18,1.98,13.79,0.08,0.11,-0.11,1721201246241
-0.94,2.09,7.87,0.06,0.09,-0.11,1721201246251
-2.00,1.73,12.44,-0.01,0.17,-0.03,1721201246261
-1.23,-0.57,11.32,0.06,0.05,0.08,1721201246271
-0.97,0.45,9.97,0.05,0.11,0.04,1721201246281
0.83,2.32,11.07,0.08,0.16,0.02,1721201246291
-0.65,0.05,7.56,-0.00,0.04,-0.02,1721201246301
-1.54,0.07,9.36,0.02,0.11,-0.01,1721201246311
-0.06,2.11,9.86,0.10,0.12,0.07,1721201246321
0.24,1.51,7.60,-0.02,0.04,0.09,1721201246331
0.24,-0.16,10.83,-0.05,0.14,-0.00,1721201246341
0.24,-1.77,8.71,-0.02,0.06,-0.08,1721201246351
-1.47,-0.53,11.80,-0.05,0.12,-0.03,1721201246361
-1.35,0.19,11.13,0.08,0.05,0.03,1721201246371
-1.20,0.18,11.50,0.04,0.14,0.09,1721201246381
0.18,0.16,13.93,0.07,0.13,0.08,1721201246391
-0.28,2.61,10.04,0.17,0.00,0.04,1721201246401
0.69,3.32,10.11,0.09,0.20,0.02,1721201246411
-0.70,2.70,10.17,0.09,-0.04,0.02,1721201246421
-1.66,0.50,8.52,0.06,0.05,0.06,1721201246431
-0.22,2.23,10.47,0.10,0.17,0.05,1721201246441
-0.39,-0.57,8.81,-0.07,0.01,0.05,1721201246451
-1.64,0.96,11.97,0.06,0.03,0.08,1721201246461
0.90,-1.08,9.19,0.03,0.11,0.09,1721201246471
0.04,0.62,9.73,0.01,0.03,-0.00,1721201246481
-0.12,0.31,12.02,0.02,0.14,-0.11,1721201246491
-1.72,2.27,11.49,0.10,-0.02,-0.02,1721201246501
-1.42,0.06,10.10,0.04,0.07,0.10,1721201246511
-1.72,2.27,9.79,0.12,-0.04,0.13,1721201246521
0.28,0.03,8.54,-0.01,0.11,0.11,1721201246531
0.28,1.85,12.74,0.01,0.06,0.06,1721201246541
0.11,0.47,10.09,0.02,0.00,0.02,1721201246551
-0.81,2.77,10.40,0.04,0.05,0.02,1721201246561
-0.44,-0.13,7.18,-0.01,0.01,0.08,1721201246571
-0.69,0.95,8.09,-0.06,0.02,0.10,1721201246581
-0.02,0.00,6.69,-0.05,-0.03,0.07,1721201246591
0.62,0.98,7.70,-0.08,0.07,0.03,1721201246601
0.32,0.26,9.77,-0.06,0.02,-0.05,1721201246611
-1.42,-0.94,6.25,-0.13,-0.05,-0.01,1721201246621
-0.61,-0.53,16.77,-0.20,0.24,-0.04,1721201246631
-1.28,0.17,10.21,0.03,-0.23,0.08,1721201246641
-0.24,-0.96,12.34,-0.19,0.29,0.07,1721201246651
-0.09,0.71,14.39,-0.02,-0.14,0.07,1721201246661
-0.48,-0.19,8.43,0.01,0.03,0.04,1721201246671
-0.53,3.75,10.12,0.01,0.01,0.01,1721201246681
-1.07,3.79,8.57,0.00,-0.04,0.08,1721201246691
0.21,0.63,13.37,-0.10,0.13,0.09,1721201246701
0.06,-1.82,10.61,-0.09,-0.18,0.03,1721201246711
-2.07,1.58,8.38,0.07,-0.03,0.03,1721201246721
0.37,0.37,8.64,-0.03,0.15,0.11,1721201246731
0.51,2.40,11.75,0.01,-0.10,0.08,1721201246741
0.65,2.27,11.26,0.06,-0.01,0.01,1721201246751
0.22,1.07,10.37,0.01,-0.01,-0.07,1721201246761
-0.69,-6.61,8.96,-0.09,-0.01,-0.10,1721201246771
-1.84,6.04,18.23,0.10,0.18,-0.06,1721201246781
-0.57,13.27,11.53,0.35,-0.13,0.12,1721201246791
0.22,-6.58,2.34,-0.14,0.03,0.09,1721201246801
0.20,-8.95,15.85,-0.19,0.04,-0.07,1721201246811
-0.67,9.10,11.52,0.29,-0.14,-0.17,1721201246821
-0.98,4.54,6.47,0.02,0.14,0.01,1721201246831
-1.38,-1.35,10.58,0.05,-0.18,0.14,1721201246841
1.45,-3.62,8.51,0.03,0.11,0.06,1721201246851
1.46,2.88,12.50,0.01,0.01,-0.16,1721201246861
-0.30,3.69,9.95,0.04,-0.00,-0.23,1721201246871
-3.30,1.11,7.30,0.02,-0.11,-0.07,1721201246881
-1.14,-3.15,9.28,0.00,0.12,0.08,1721201246891
1.06,-2.07,12.04,-0.08,0.05,0.09,1721201246901
0.54,3.09,13.36,0.02,-0.06,-0.02,1721201246911
0.06,2.62,7.83,0.04,-0.03,-0.11,1721201246921
-0.88,-1.15,5.38,0.02,0.01,-0.12,1721201246931
-0.62,0.36,7.71,0.01,0.05,-0.06,1721201246941
-0.92,1.49,10.76,-0.11,-0.02,-0.02,1721201246951
-1.38,1.79,13.52,-0.08,0.08,-0.08,1721201246961
0.19,-1.11,14.87,-0.07,0.04,-0.02,1721201246971
0.02,3.01,11.22,0.13,-0.00,-0.03,1721201246981
-0.31,5.00,-10.89,0.23,-0.22,-0.01,1721201246991
1.82,-10.24,23.27,-0.91,0.61,-0.24,1721201247001
-3.41,3.53,29.62,0.28,-0.98,-0.10,1721201247011
0.60,12.71,-6.42,0.75,0.69,0.19,1721201247021
2.49,-4.65,-2.69,-0.52,-0.15,0.16,1721201247031
-5.43,-2.18,24.53,-0.05,0.51,-0.10,1721201247041
0.95,4.40,10.54,0.26,0.17,-0.12,1721201247051
-1.13,0.15,8.42,-0.37,0.06,-0.04,1721201247061
-3.97,7.40,12.42,0.26,-0.21,0.09,1721201247071
2.35,-3.33,8.73,-0.30,0.26,0.17,1721201247081
-5.64,4.24,16.90,0.18,-0.39,-0.01,1721201247091
1.09,-2.70,5.14,-0.10,0.20,-0.15,1721201247101
2.81,-1.53,13.57,-0.07,0.09,0.02,1721201247111
-0.57,1.84,11.05,0.07,0.03,0.01,1721201247121
-0.22,2.35,9.99,-0.01,-0.08,0.14,1721201247131
-0.49,0.76,6.17,-0.01,-0.11,0.06,1721201247141
-0.23,2.56,8.44,-0.06,0.02,-0.07,1721201247151
-0.44,-4.04,4.87,-0.18,-0.12,0.04,1721201247161
-0.25,-1.68,17.39,-0.14,0.23,0.01,1721201247171
0.79,1.60,13.38,0.08,-0.13,-0.01,1721201247181
-0.20,7.48,10.99,0.07,0.03,0.06,1721201247191
1.44,-0.73,7.31,-0.17,-0.07,0.08,1721201247201
0.52,-3.54,10.90,-0.17,0.01,-0.10,1721201247211
0.13,2.65,15.18,-0.07,0.06,-0.18,1721201247221
-2.50,0.24,4.86,-0.04,-0.26,-0.03,1721201247231
-0.62,-4.91,10.41,-0.19,0.28,0.07,1721201247241
1.50,2.61,12.38,0.06,-0.12,0.06,1721201247251
1.78,5.50,9.96,0.05,0.10,-0.04,1721201247261
0.87,2.24,12.37,-0.07,-0.07,-0.11,1721201247271
-1.94,-0.47,8.58,0.02,-0.14,-0.15,1721201247281
-0.74,-1.12,12.41,-0.08,0.16,-0.08,1721201247291
-1.28,0.83,12.83,0.04,-0.12,-0.01,1721201247301
-1.33,5.55,11.38,0.17,0.01,0.00,1721201247311
0.26,-0.70,7.44,-0.03,-0.06,-0.02,1721201247321
-0.64,1.18,12.66,0.09,0.01,-0.11,1721201247331
-0.14,1.90,7.54,0.03,-0.08,-0.11,1721201247341
-1.55,2.04,9.79,-0.02,-0.03,-0.08,1721201247351
0.23,-0.35,9.33,0.06,0.02,-0.05,1721201247361
0.12,-0.85,7.35,0.03,-0.08,-0.02,1721201247371
0.78,1.84,10.71,0.02,0.07,-0.08,1721201247381
1.44,2.01,10.99,-0.04,0.01,-0.19,1721201247391
-0.43,0.96,12.00,-0.14,0.04,-0.27,1721201247401
-1.74,-0.66,15.70,-0.15,-0.02,-0.21,1721201247411
-2.47,5.55,15.97,0.06,-0.04,-0.12,1721201247421
-2.48,-4.92,-1.53,-0.26,-0.17,-0.03,1721201247431
-1.49,9.34,25.51,-0.12,0.39,-0.07,1721201247441
1.90,-1.59,3.60,0.11,-0.58,0.08,1721201247451
-3.73,7.44,-0.89,0.07,0.12,-0.03,1721201247461
-5.54,3.66,11.45,0.08,0.16,-0.21,1721201247471
-1.81,0.40,13.86,0.08,-0.21,-0.24,1721201247481
-5.01,1.13,8.35,0.16,-0.20,-0.05,1721201247491
-2.55,-0.30,12.17,-0.01,0.04,0.09,1721201247501
3.69,-3.41,11.70,0.14,-0.14,0.70,1721201247511
9.47,-10.56,5.75,-0.11,-0.21,0.45,1721201247521
11.50,1.89,10.02,-0.06,0.57,-0.67,1721201247531
-2.45,0.76,14.54,-0.25,-0.64,-1.56,1721201247541
-16.55,-1.82,12.03,0.04,-0.21,-1.03,1721201247551
-15.87,-1.13,4.76,0.11,0.15,0.41,1721201247561
-4.35,2.45,16.04,-0.01,0.16,1.60,1721201247571
10.18,-2.81,11.59,0.07,0.14,1.53,1721201247581
14.91,1.79,7.80,0.03,0.33,0.42,1721201247591
14.00,1.07,8.35,-0.28,-0.18,-0.63,1721201247601
0.98,-1.32,9.87,-0.28,-0.30,-1.41,1721201247611
-5.79,-1.23,15.76,-0.09,-0.00,-1.28,1721201247621
-14.91,-5.07,7.99,-0.12,-0.33,-0.03,1721201247631
-8.03,-1.99,13.72,-0.04,0.37,0.85,1721201247641
2.34,3.72,14.43,0.02,-0.04,0.84,1721201247651
8.39,7.32,8.08,0.03,0.17,0.18,1721201247661
5.37,2.60,8.46,-0.05,-0.17,-0.48,1721201247671
-0.25,0.82,9.90,-0.02,0.06,-0.74,1721201247681
-5.97,-1.72,12.35,-0.01,0.09,-0.23,1721201247696
-6.95,0.34,11.92,0.03,0.02,0.01,1721201247700
-2.10,0.83,10.25,0.09,0.03,0.38,1721201247710
2.71,0.50,13.02,0.01,0.10,0.28,1721201247720
4.64,1.32,9.41,0.18,-0.10,-0.07,1721201247730
2.21,1.10,8.61,0.07,0.09,-0.41,1721201247740
-1.59,3.21,10.02,0.15,-0.07,-0.31,1721201247750
-3.76,1.06,10.06,0.08,0.02,-0.04,1721201247760
-1.32,-0.08,10.77,0.15,0.07,0.18,1721201247770
1.99,0.26,10.81,0.13,0.07,0.06,1721201247780
2.36,0.16,6.76,0.07,-0.05,-0.07,1721201247790
0.89,3.67,12.79,0.05,0.15,-0.35,1721201247800
-1.89,0.46,9.44,0.16,-0.19,-0.28,1721201247810
-3.78,-2.35,7.64,0.05,0.12,0.00,1721201247820
-1.64,1.82,11.18,0.14,0.04,0.08,1721201247830
-1.04,0.13,10.72,0.02,-0.03,-0.01,1721201247840
0.67,1.35,11.06,0.10,0.06,-0.03,1721201247850
0.45,0.39,7.27,0.10,-0.04,-0.06,1721201247860
0.99,0.62,11.50,-0.02,0.25,-0.17,1721201247870
-0.20,0.99,11.98,0.02,-0.11,-0.26,1721201247880
-1.89,0.76,9.84,-0.04,0.05,-0.14,1721201247890
-1.00,0.77,13.16,0.01,0.07,-0.06,1721201247900
-0.17,0.06,7.24,-0.00,-0.06,-0.04,1721201247910
1.30,1.05,10.46,-0.00,0.15,-0.09,1721201247920
1.36,1.29,8.43,-0.02,-0.03,-0.20,1721201247930
-1.11,1.26,10.74,-0.01,0.07,-0.20,1721201247940
0.24,2.23,10.49,0.06,0.13,-0.09,1721201247950
0.81,0.34,8.32,-0.10,0.03,-0.05,1721201247960
0.72,1.07,12.87,-0.09,0.16,-0.17,1721201247970
1.39,-1.46,9.98,-0.09,0.01,-0.30,1721201247980
-1.37,0.59,9.21,-0.03,0.08,-0.27,1721201247990
-0.34,0.55,8.74,0.01,0.16,-0.18,1721201248000
-0.36,-0.42,9.47,-0.11,0.05,-0.11,1721201248010
-0.30,2.76,12.92,-0.01,0.15,-0.13,1721201248020
0.38,2.13,8.57,-0.02,0.10,-0.24,1721201248030
0.14,0.31,11.25,-0.13,0.19,-0.25,1721201248040
-1.25,-1.63,7.79,-0.02,-0.01,-0.19,1721201248050
0.01,-1.77,11.45,-0.15,0.28,-0.15,1721201248060
-1.13,0.71,10.52,-0.01,-0.00,-0.22,1721201248070
-0.86,2.83,9.77,0.02,0.29,-0.30,1721201248080
-0.89,0.83,10.33,-0.11,0.03,-0.16,1721201248090
-2.46,1.44,11.97,-0.01,0.12,-0.19,1721201248100
-0.21,-0.73,10.74,-0.01,0.18,-0.19,1721201248110
-0.73,-1.10,10.41,-0.05,0.13,-0.24,1721201248120
-2.75,0.37,9.79,0.03,0.10,-0.26,1721201248130
-2.95,1.60,9.90,0.02,0.11,-0.18,1721201248140
-1.17,1.57,12.76,0.07,0.19,-0.04,1721201248150
0.11,-1.74,12.37,-0.04,0.09,-0.07,1721201248160
-2.01,0.03,9.25,0.01,0.00,-0.15,1721201248170
-1.60,-0.51,11.75,0.00,0.19,-0.18,1721201248180
-0.93,1.92,9.17,0.14,0.03,-0.08,1721201248190
-1.04,0.68,8.94,0.08,0.07,-0.03,1721201248200
-0.54,0.85,12.65,0.08,0.09,-0.02,1721201248210
-0.44,0.21,7.37,0.14,-0.02,-0.06,1721201248220
0.09,-1.96,9.68,0.03,0.18,-0.03,1721201248230
-0.24,0.84,9.90,0.09,-0.03,-0.09,1721201248240
-1.06,0.76,11.38,0.08,0.12,-0.08,1721201248250
-0.89,-0.22,10.88,0.02,0.02,-0.01,1721201248260
-1.90,2.90,10.03,0.11,-0.05,0.02,1721201248270
1.18,1.08,11.22,-0.00,0.24,-0.03,1721201248280
-0.64,-1.88,8.65,-0.02,-0.11,-0.08,1721201248290
-1.50,1.67,11.22,0.00,0.20,-0.12,1721201248300
-1.46,-2.11,9.62,0.00,-0.09,0.05,1721201248310
-1.29,2.14,11.16,0.03,0.13,0.12,1721201248320
1.10,1.16,10.42,0.04,-0.01,0.08,1721201248330
0.51,1.06,9.99,0.00,0.03,0.01,1721201248340
-0.11,-1.18,9.03,0.00,-0.03,-0.05,1721201248350
-1.70,1.09,10.62,0.04,0.06,-0.03,1721201248360
-0.74,0.33,9.56,0.07,-0.01,0.12,1721201248370
-0.42,2.10,10.50,0.07,0.01,0.15,1721201248380
1.83,4.54,13.00,0.19,0.04,0.04,1721201248390
1.50,1.81,6.57,0.04,-0.08,-0.05,1721201248400
-0.49,1.54,12.53,-0.05,0.09,-0.18,1721201248410
-2.15,1.41,13.03,0.04,-0.10,-0.10,1721201248420
-2.93,1.47,8.45,0.03,-0.02,0.19,1721201248430
0.45,-1.29,9.10,-0.00,0.05,0.33,1721201248440
2.57,1.28,11.85,0.01,0.03,0.15,1721201248450
2.37,3.81,7.96,0.10,-0.10,-0.15,1721201248460
-1.00,-0.62,9.33,-0.18,0.03,-0.34,1721201248470
-6.54,0.41,10.80,0.02,-0.24,-0.04,1721201248480
-5.32,-2.59,9.77,-0.16,0.11,0.40,1721201248490
-2.51,1.23,11.16,-0.01,-0.17,0.59,1721201248500
4.08,-2.07,10.92,-0.09,0.11,0.44,1721201248510
5.00,2.00,10.11,-0.04,-0.17,0.06,1721201248520
3.32,0.16,10.98,-0.18,0.02,-0.25,1721201248530
-1.42,1.58,11.38,-0.06,-0.15,-0.33,1721201248540
-3.82,-1.96,7.94,-0.20,-0.09,-0.13,1721201248550
-4.22,-3.30,12.06,-0.12,-0.07,0.16,1721201248560
-1.55,0.46,8.56,-0.00,-0.06,0.24,1721201248570
0.36,0.57,7.67,-0.13,-0.05,0.22,1721201248580
1.36,1.57,10.76,-0.13,-0.03,0.04,1721201248590
1.27,-0.87,9.79,-0.12,-0.09,-0.07,1721201248600
0.31,-5.37,10.33,-0.25,-0.11,-0.02,1721201248610
-0.90,2.51,11.11,0.00,-0.04,-0.02,1721201248620
1.42,0.31,10.74,-0.10,-0.07,0.11,1721201248630
0.84,1.84,10.70,-0.01,-0.08,0.11,1721201248640
1.85,-0.21,11.33,-0.06,0.02,-0.15,1721201248650
-0.18,-1.49,11.36,-0.08,-0.12,-0.23,1721201248660
-2.45,1.92,10.69,0.06,-0.05,-0.15,1721201248670
-1.04,1.08,10.92,0.02,-0.02,0.04,1721201248680
-0.25,1.18,9.60,0.14,-0.15,0.21,1721201248690
3.81,3.09,9.96,0.12,0.21,-0.02,1721201248700
2.12,-0.04,12.35,-0.07,-0.23,-0.30,1721201248710
-2.24,2.51,11.49,0.19,0.02,-0.36,1721201248720
-1.18,-3.81,7.28,0.03,-0.03,-0.20,1721201248730
-4.68,1.23,13.08,0.17,-0.01,0.00,1721201248740
1.22,0.89,10.14,0.18,-0.02,0.13,1721201248750
1.11,2.09,12.31,0.06,-0.05,-0.11,1721201248760
1.12,1.95,9.79,0.24,-0.05,-0.17,1721201248770
-0.28,-0.96,8.59,-0.04,0.04,-0.16,1721201248780
-1.49,0.09,13.43,0.18,-0.06,-0.19,1721201248790
0.43,-1.26,7.36,0.12,0.07,0.00,1721201248800
0.95,3.59,14.33,0.09,0.09,-0.02,1721201248810
1.92,-0.28,8.56,0.20,-0.10,-0.22,1721201248820
-0.11,3.18,10.43,0.13,0.14,-0.27,1721201248830
-0.98,1.42,7.56,0.13,-0.06,-0.24,1721201248840
-1.70,-0.22,11.47,0.00,0.15,-0.20,1721201248850
-2.31,-0.87,10.91,0.13,-0.12,-0.10,1721201248860
-1.02,-0.05,6.45,0.04,0.13,-0.02,1721201248870
1.09,0.41,10.64,-0.05,0.12,-0.09,1721201248880
1.00,-0.09,10.78,-0.05,-0.00,-0.24,1721201248890
-1.46,0.06,11.87,-0.05,-0.04,-0.18,1721201248900
-2.10,1.70,11.78,0.03,0.07,-0.16,1721201248910
-1.21,2.64,9.42,-0.02,0.07,-0.08,1721201248920
-0.13,3.42,10.74,-0.08,0.05,0.04,1721201248930
1.22,-3.26,6.21,-0.18,-0.08,0.01,1721201248940
1.29,-0.20,8.71,-0.07,0.11,-0.15,1721201248950
2.90,-0.61,10.37,-0.19,0.15,-0.30,1721201248960
-1.57,3.12,14.09,-0.09,-0.15,-0.26,1721201248970
-1.94,1.24,8.56,-0.04,0.04,-0.18,1721201248980
-1.74,1.52,12.42,-0.14,0.10,-0.12,1721201248990
-1.37,1.41,10.94,-0.04,-0.04,-0.03,1721201249000
1.19,-1.42,9.01,-0.06,0.10,0.04,1721201249010
1.66,-0.36,7.73,-0.13,0.06,-0.18,1721201249020
0.25,3.61,12.94,-0.02,0.11,-0.32,1721201249030
-0.37,-1.54,8.36,-0.16,0.02,-0.20,1721201249040
-1.72,0.52,14.56,-0.11,0.09,-0.10,1721201249050
-0.23,-0.35,9.89,-0.03,-0.05,-0.04,1721201249060
0.51,1.73,8.37,-0.04,0.13,-0.13,1721201249070
0.77,-1.32,11.09,-0.04,0.08,-0.28,1721201249080
-2.45,1.00,8.84,0.05,-0.01,-0.26,1721201249090
-1.98,0.18,11.50,-0.04,0.18,-0.09,1721201249100
-1.47,0.84,10.48,0.08,-0.03,-0.00,1721201249110
0.65,-0.51,9.45,-0.05,0.15,0.01,1721201249120
0.32,1.48,9.86,0.04,-0.13,-0.06,1721201249130
0.45,-3.17,7.25,-0.09,0.08,-0.15,1721201249140
-0.31,0.89,15.77,-0.07,0.08,-0.24,1721201249150
-1.36,3.85,11.39,0.06,-0.08,-0.20,1721201249160
-2.75,-1.08,7.53,-0.04,0.06,-0.10,1721201249170
-2.13,-0.84,10.11,0.02,0.02,-0.02,1721201249180
-0.33,-2.43,8.65,-0.03,0.08,-0.02,1721201249190
-0.59,2.25,12.24,0.02,0.03,-0.15,1721201249200
0.02,-0.95,9.79,-0.08,-0.06,-0.18,1721201249210
-2.07,-1.03,13.32,-0.03,0.04,-0.11,1721201249220
-1.18,-0.24,9.35,0.07,0.01,-0.07,1721201249230
-0.07,0.80,9.35,-0.02,0.02,-0.06,1721201249240
-1.11,1.16,8.80,0.03,-0.10,-0.05,1721201249250
-0.28,0.83,10.86,0.05,0.07,-0.11,1721201249260
0.10,2.32,12.35,0.04,0.01,-0.12,1721201249270
-0.54,1.09,8.74,0.08,-0.08,-0.13,1721201249280
-0.24,2.37,11.17,0.05,0.05,-0.15,1721201249290
0.54,0.23,10.30,0.10,-0.05,-0.17,1721201249300
-0.74,2.40,9.67,0.12,0.09,-0.22,1721201249310
-0.46,-0.73,9.19,0.03,0.02,-0.24,1721201249320
-2.42,2.09,11.05,0.09,-0.07,-0.15,1721201249330
-1.17,0.62,10.39,0.08,0.07,-0.07,1721201249340
-0.53,1.81,14.82,0.11,0.01,-0.09,1721201249350
0.38,0.98,8.81,0.22,-0.07,-0.04,1721201249360
-0.11,-0.12,8.36,0.08,0.03,-0.10,1721201249370
0.13,4.01,11.45,0.17,0.04,-0.21,1721201249380
0.68,1.83,9.83,0.11,0.01,-0.16,1721201249390
-0.59,-1.19,8.00,0.04,-0.07,-0.12,1721201249400
-0.19,0.48,11.60,0.01,0.11,-0.17,1721201249410
-0.11,0.05,9.07,0.07,-0.10,-0.16,1721201249420
-0.73,0.82,12.21,-0.05,0.16,-0.16,1721201249430
-1.64,2.53,10.65,0.19,-0.16,-0.04,1721201249440
-0.79,-0.95,7.90,-0.05,0.14,0.02,1721201249450
0.68,3.17,11.60,0.11,-0.03,0.07,1721201249460
1.68,1.22,8.32,-0.06,0.06,-0.13,1721201249470
-1.48,0.70,12.16,-0.03,-0.12,-0.27,1721201249480
-2.58,-0.75,9.59,0.02,0.00,-0.18,1721201249490
-2.64,0.00,8.92,-0.01,0.01,0.02,1721201249500
-0.81,-0.16,8.17,-0.07,-0.04,0.16,1721201249510
0.95,0.62,10.01,-0.05,0.03,0.12,1721201249520
1.56,0.35,10.06,-0.06,-0.02,-0.14,1721201249530
-0.02,1.48,9.33,0.00,-0.03,-0.19,1721201249540
-1.03,-1.34,8.64,-0.16,0.04,-0.13,1721201249550
-2.02,0.84,12.40,-0.11,-0.05,-0.10,1721201249560
-0.79,-2.39,9.71,-0.15,-0.03,-0.02,1721201249570
-1.62,-0.28,7.37,-0.03,-0.07,0.04,1721201249580
0.98,-0.35,8.51,-0.13,0.14,0.04,1721201249590
1.13,-0.79,9.60,-0.21,-0.09,-0.08,1721201249600
-0.39,2.51,15.27,-0.12,0.02,-0.17,1721201249610
-1.31,-1.59,9.21,-0.10,-0.13,-0.08,1721201249620
-0.73,-1.85,10.99,-0.15,0.13,-0.04,1721201249630
0.08,1.64,13.05,-0.03,-0.05,-0.02,1721201249640
1.50,0.62,7.62,-0.03,-0.00,-0.04,1721201249650
1.28,-0.26,9.64,-0.02,0.07,-0.17,1721201249660
1.20,-0.00,11.75,-0.08,0.16,-0.27,1721201249670
-1.56,1.14,13.05,-0.02,-0.04,-0.24,1721201249680
-2.15,-0.33,9.28,0.02,0.07,-0.19,1721201249690
0.07,-0.89,11.12,-0.00,0.06,0.04,1721201249705
1.32,0.95,11.89,0.10,0.22,0.02,1721201249709
1.53,1.36,11.31,0.13,-0.11,-0.10,1721201249719
1.14,0.11,9.19,0.12,0.14,-0.14,1721201249729
0.72,4.03,13.33,0.12,0.12,-0.25,1721201249739
-0.72,1.32,11.82,0.13,-0.01,-0.22,1721201249749
-1.48,-1.67,7.42,0.15,0.02,-0.14,1721201249759
-0.84,-2.13,9.70,0.06,0.17,-0.19,1721201249769
-0.83,1.30,11.46,0.16,0.04,-0.16,1721201249779
0.86,6.03,12.45,0.23,0.18,-0.14,1721201249789
0.29,1.18,8.37,0.13,-0.10,-0.17,1721201249799
-0.73,3.22,12.22,0.20,0.21,-0.18,1721201249809
-0.22,0.50,9.02,0.05,0.03,-0.23,1721201249819
-2.31,2.47,12.60,0.06,0.13,-0.19,1721201249829
-0.39,-1.53,7.17,0.11,-0.04,-0.00,1721201249839
0.37,-1.07,7.43,0.02,0.17,-0.03,1721201249849
2.11,-0.75,11.26,-0.06,0.08,-0.24,1721201249859
-1.96,1.76,8.85,0.09,-0.03,-0.38,1721201249869
-2.19,2.12,13.47,0.07,0.26,-0.26,1721201249879
-3.72,1.77,10.61,0.11,-0.13,0.01,1721201249889
-2.95,2.59,9.41,0.03,0.19,0.15,1721201249899
1.64,0.47,11.96,-0.02,0.07,0.13,1721201249909
1.92,0.05,9.04,0.01,-0.01,-0.02,1721201249919
2.15,0.52,8.49,0.01,0.11,-0.17,1721201249929
0.15,1.67,9.15,0.03,-0.00,-0.25,1721201249939
-1.47,0.28,6.95,-0.03,0.10,-0.22,1721201249949
-1.15,1.94,13.58,-0.03,0.17,-0.10,1721201249959
-2.09,-2.13,8.21,-0.12,-0.14,-0.02,1721201249969
-2.00,1.07,10.60,0.04,0.24,0.06,1721201249979
4.35,1.56,11.45,-0.03,0.21,-0.00,1721201249989
-1.69,3.04,6.40,-0.03,-0.33,-0.14,1721201249999
0.83,0.07,7.84,-0.14,0.40,-0.20,1721201250009
1.22,-3.05,18.79,-0.20,0.06,-0.33,1721201250019
-5.81,-2.22,11.06,0.13,-0.30,-0.15,1721201250029
-1.16,-1.11,11.84,0.12,0.45,0.17,1721201250039
3.40,2.10,12.15,0.12,0.03,0.15,1721201250049
2.09,0.27,8.40,0.01,0.08,-0.13,1721201250059
0.83,2.94,12.82,0.19,0.21,-0.39,1721201250069
-0.51,0.99,9.28,0.17,0.07,-0.27,1721201250079
-2.01,-1.24,9.04,0.06,0.11,0.03,1721201250089
-0.69,2.59,9.63,0.25,0.16,0.06,1721201250099
2.44,2.56,8.87,0.10,0.25,-0.07,1721201250109
0.25,3.20,13.14,0.13,0.01,-0.26,1721201250119
-1.59,-0.21,11.23,0.17,0.14,-0.29,1721201250129
-3.28,4.00,14.47,0.26,0.11,-0.06,1721201250139
-2.29,3.62,4.44,0.28,-0.01,0.15,1721201250149
0.97,2.10,10.74,0.16,0.33,0.15,1721201250159
2.06,4.37,9.66,0.36,-0.07,-0.04,1721201250169
1.14,3.34,6.26,0.24,0.16,-0.24,1721201250179
-0.98,1.35,11.32,0.17,0.09,-0.19,1721201250189
-2.15,2.10,8.66,0.25,0.06,-0.00,1721201250199
-0.17,0.01,10.00,0.14,0.19,0.03,1721201250209
-0.50,1.47,7.55,0.28,-0.04,-0.06,1721201250219
0.74,-0.62,7.75,0.08,0.27,-0.15,1721201250229
-1.34,2.22,12.72,0.20,-0.00,-0.14,1721201250239
-2.09,-2.02,8.30,0.07,0.08,-0.05,1721201250249
-3.43,-0.12,12.52,0.19,0.06,0.04,1721201250259
-1.43,0.21,6.07,0.17,0.05,0.15,1721201250269
-0.24,2.68,8.20,0.04,0.11,0.16,1721201250279
1.53,-1.05,6.56,0.00,-0.00,0.10,1721201250289
0.96,1.33,9.50,0.01,0.12,-0.07,1721201250299
-0.50,-2.76,9.59,-0.09,-0.01,-0.08,1721201250309
-3.71,0.11,11.33,0.04,-0.06,0.03,1721201250319
-0.96,0.12,9.93,0.01,0.09,0.15,1721201250329
-1.15,-1.35,8.99,-0.06,-0.15,0.18,1721201250339
-0.31,-0.12,10.74,0.02,0.07,0.11,1721201250349
0.40,1.61,12.50,0.05,-0.04,0.04,1721201250359
-1.45,0.83,8.12,0.00,-0.12,0.11,1721201250369
-1.11,0.90,10.33,-0.04,0.09,0.21,1721201250379
0.63,-0.39,9.17,-0.06,-0.13,0.24,1721201250389
2.00,-0.79,12.40,-0.09,0.06,0.12,1721201250399
2.23,0.70,13.79,0.00,-0.06,-0.04,1721201250409
0.07,2.27,11.35,0.07,-0.09,-0.08,1721201250419
-0.88,-1.30,7.76,-0.08,-0.00,0.03,1721201250429
-1.92,-0.03,8.62,-0.02,-0.09,0.10,1721201250439
0.53,1.07,9.18,0.00,0.13,0.15,1721201250449
2.07,0.64,13.27,-0.12,-0.07,0.15,1721201250459
-0.06,1.55,8.90,0.00,-0.16,0.09,1721201250469
2.29,-0.13,13.81,-0.12,0.19,-0.04,1721201250479
-0.42,0.38,11.65,0.02,-0.31,0.00,1721201250489
-1.16,-0.35,7.22,-0.09,0.11,0.11,1721201250499
1.08,3.40,10.96,0.09,-0.02,0.22,1721201250509
2.88,-1.34,10.22,-0.19,-0.04,0.06,1721201250519
-1.54,1.50,11.97,0.04,-0.20,-0.08,1721201250529
1.39,2.44,8.67,0.04,0.28,-0.14,1721201250539
-0.10,4.32,14.98,-0.03,-0.18,0.00,1721201250549
-1.94,-3.03,6.52,-0.06,-0.17,0.05,1721201250559
-1.92,0.87,8.51,0.13,0.13,0.02,1721201250569
3.43,2.94,10.09,-0.00,0.19,0.09,1721201250579
1.36,2.31,11.75,-0.08,-0.23,-0.03,1721201250589
0.22,0.93,10.27,0.14,0.03,-0.26,1721201250599
0.23,1.60,12.61,0.03,0.03,-0.21,1721201250609
-2.51,2.19,7.85,0.12,-0.17,0.05,1721201250619
0.70,-0.48,10.67,-0.07,0.29,0.09,1721201250629
-0.74,-0.54,12.52,0.06,-0.13,-0.02,1721201250639
0.26,-0.42,4.09,0.08,0.01,-0.15,1721201250649
-0.02,3.37,15.22,0.07,0.20,-0.24,1721201250659
-2.15,0.49,7.95,0.13,-0.26,-0.09,1721201250669
-2.55,2.52,10.91,0.05,0.20,0.04,1721201250679
1.29,0.85,8.85,0.12,-0.04,0.08,1721201250689
1.32,0.48,11.92,-0.08,0.12,-0.10,1721201250699
-0.04,1.09,10.93,0.14,-0.12,-0.17,1721201250709
-0.66,-1.60,8.16,-0.05,0.09,-0.17,1721201250719
-2.58,6.80,15.90,0.17,-0.05,-0.11,1721201250729
0.04,3.65,4.54,0.03,-0.02,0.04,1721201250739
0.41,-4.13,7.42,-0.26,0.08,-0.07,1721201250749
-0.13,-7.96,9.95,-0.15,-0.03,-0.20,1721201250759
-1.90,1.49,13.29,0.12,0.10,-0.21,1721201250769
-1.35,4.02,8.72,0.07,-0.06,0.01,1721201250779
-1.32,4.73,8.38,-0.01,-0.09,0.21,1721201250789
3.75,0.69,10.16,-0.09,0.20,0.06,1721201250799
2.63,-3.08,13.82,-0.15,-0.10,-0.20,1721201250809
-1.40,0.80,11.56,0.07,-0.04,-0.30,1721201250819
-2.09,3.18,8.06,0.12,-0.01,-0.07,1721201250829
-0.72,0.02,4.29,-0.10,0.03,0.14,1721201250839
2.17,-1.17,15.87,-0.13,0.22,-0.06,1721201250849
0.71,-1.44,12.16,0.04,-0.22,-0.25,1721201250859
-2.27,6.55,10.62,0.13,0.12,-0.21,1721201250869
-0.12,1.87,5.62,-0.07,0.00,0.02,1721201250879
-0.27,-2.31,11.37,-0.18,0.10,0.07,1721201250889
1.20,-5.05,8.08,-0.15,-0.03,-0.13,1721201250899
-0.24,3.46,15.65,0.01,0.18,-0.32,1721201250909
0.18,2.25,11.12,0.10,-0.08,-0.15,1721201250919
-2.47,-0.36,8.45,-0.10,-0.03,-0.03,1721201250929
-0.08,1.98,13.61,0.12,0.16,-0.11,1721201250939
1.41,-3.76,12.59,-0.18,0.07,-0.17,1721201250949
-3.02,5.02,20.33,0.28,-0.12,-0.17,1721201250959
-0.34,2.61,7.45,0.35,0.11,-0.18,1721201250969
-0.27,3.75,0.40,0.15,0.01,0.11,1721201250979
2.18,2.10,4.26,-0.04,0.31,0.03,1721201250989
2.32,1.72,9.47,-0.05,0.06,-0.37,1721201250999
1.51,-0.65,9.18,0.02,0.03,-0.63,1721201251009
-4.04,-2.96,10.09,0.03,0.06,-0.48,1721201251019
-6.30,-3.24,10.54,0.06,0.09,-0.13,1721201251029
-2.77,4.10,14.04,0.24,0.23,0.10,1721201251039
2.54,8.76,13.35,0.21,0.14,0.12,1721201251049
3.37,2.05,5.94,-0.01,0.01,-0.11,1721201251059
2.44,-4.91,12.55,-0.10,0.34,-0.48,1721201251069
-1.70,5.39,16.81,0.20,0.07,-0.58,1721201251079
-4.40,6.02,2.38,0.06,-0.03,-0.16,1721201251089
-1.71,-5.59,4.98,-0.26,0.31,0.01,1721201251099
0.87,-8.56,17.48,-0.23,0.25,-0.21,1721201251109
-0.71,2.44,11.37,0.28,-0.05,-0.32,1721201251119
1.34,5.06,7.91,-0.00,0.48,-0.33,1721201251129
-1.72,6.18,8.61,0.02,-0.19,-0.34,1721201251139
-3.73,-0.57,7.03,-0.07,0.38,-0.03,1721201251149
0.56,-3.95,12.67,-0.16,0.15,0.27,1721201251159
2.55,-0.13,11.89,-0.07,0.11,0.06,1721201251169
3.16,5.00,11.06,0.12,0.17,-0.27,1721201251179
0.65,0.30,7.13,-0.11,0.10,-0.43,1721201251189
-4.48,-0.90,11.42,-0.03,0.13,-0.30,1721201251199
-2.77,-1.52,10.65,-0.10,0.25,-0.06,1721201251209
-3.55,4.55,9.65,0.03,-0.01,0.10,1721201251219
0.80,3.61,7.55,0.00,0.32,0.14,1721201251229
1.18,1.11,3.75,-0.04,-0.07,0.08,1721201251239
1.01,-2.09,4.22,-0.24,0.20,-0.08,1721201251249
0.43,0.46,9.84,-0.10,0.12,-0.14,1721201251259
0.10,-2.29,9.19,-0.29,0.21,-0.10,1721201251269
-2.77,-1.98,20.08,-0.13,0.05,-0.11,1721201251279
-1.81,-0.99,20.53,0.19,0.13,-0.01,1721201251289
-0.74,3.78,6.58,0.24,-0.03,0.28,1721201251299
2.04,5.09,5.76,-0.14,0.37,0.25,1721201251309
3.14,-5.27,24.24,-0.39,0.16,-0.22,1721201251319
-4.48,3.74,16.12,0.62,-0.32,-0.19,1721201251329
2.27,5.81,6.45,0.18,0.72,0.07,1721201251339
4.53,7.12,7.54,0.27,-0.06,0.32,1721201251349
-0.49,-4.09,9.18,-0.19,0.56,0.07,1721201251359
-1.28,3.36,17.05,0.32,0.14,-0.32,1721201251369
-4.80,-4.35,6.84,0.04,-0.15,-0.21,1721201251379
-4.35,3.54,16.07,0.20,0.30,0.14,1721201251389
0.64,-1.65,10.57,0.04,0.21,0.30,1721201251399
0.46,8.05,10.48,0.30,-0.03,0.18,1721201251409
4.31,-2.67,9.17,-0.04,0.33,-0.06,1721201251419
0.24,3.77,3.73,0.24,-0.18,-0.10,1721201251429
1.92,-0.40,8.96,0.03,0.49,-0.01,1721201251439
-4.44,1.29,9.01,0.02,0.03,0.08,1721201251449
0.96,1.50,4.89,-0.07,0.22,-0.05,1721201251459
1.40,0.95,15.12,0.02,0.25,-0.09,1721201251469
-1.55,0.53,6.06,0.02,-0.06,0.02,1721201251479
-1.17,-1.90,8.59,-0.20,0.29,0.11,1721201251489
0.27,0.27,14.60,-0.04,0.13,0.14,1721201251499
0.39,0.85,7.55,-0.03,0.06,0.06,1721201251509
0.20,-0.31,7.62,-0.13,0.14,0.02,1721201251519
0.67,-0.12,10.80,-0.15,0.21,0.03,1721201251529
0.05,-0.36,10.41,-0.21,0.09,-0.00,1721201251539
-0.62,2.95,10.42,-0.02,0.12,0.01,1721201251549
1.60,-1.46,8.49,-0.21,0.24,0.07,1721201251559
-0.36,2.24,12.00,-0.12,0.01,0.04,1721201251569
2.67,-0.94,10.72,-0.14,0.30,-0.06,1721201251579
0.72,2.52,15.50,-0.10,0.14,-0.22,1721201251589
-1.28,2.63,7.75,0.07,0.09,-0.16,1721201251599
-0.80,0.10,9.33,-0.16,0.44,-0.11,1721201251609
-4.30,-5.96,10.53,0.03,-0.08,-0.37,1721201251619
-10.75,7.79,6.22,-0.10,0.08,-0.24,1721201251629
-7.07,-2.20,21.11,-0.33,0.49,0.75,1721201251639
6.81,-4.17,11.75,0.12,0.18,1.40,1721201251649
13.26,0.77,0.99,0.02,0.25,0.48,1721201251659
13.22,6.16,13.81,-0.12,0.35,-0.99,1721201251669
0.65,3.92,12.35,-0.01,-0.50,-1.36,1721201251679
-14.29,1.02,7.81,0.01,0.23,-0.95,1721201251689
-12.67,-0.73,13.51,-0.06,0.21,0.24,1721201251699
-0.13,-0.24,8.71,0.09,0.31,0.93,1721201251714
4.01,-0.83,10.30,0.06,0.33,0.93,1721201251718
8.40,1.21,10.10,0.04,0.18,0.28,1721201251728
6.78,4.28,12.37,0.07,0.14,-0.43,1721201251738
-1.10,-1.92,9.80,-0.12,0.06,-0.67,1721201251748
-8.44,3.75,10.93,0.12,0.03,-0.42,1721201251758
-4.67,-3.61,10.18,-0.01,0.26,0.27,1721201251768
-3.65,3.31,9.21,0.22,0.05,0.68,1721201251778
3.13,-2.43,4.26,0.01,0.30,0.40,1721201251788
2.87,3.87,15.29,0.04,0.21,-0.04,1721201251798
1.23,1.36,7.56,0.07,-0.06,-0.29,1721201251808
-2.81,0.19,16.62,-0.06,0.21,-0.08,1721201251818
-4.50,0.70,7.89,0.21,-0.10,0.28,1721201251828
-0.63,1.67,10.75,-0.00,0.39,0.39,1721201251838
1.13,-0.22,9.86,0.08,-0.14,0.26,1721201251848
0.40,-1.85,7.31,-0.01,0.18,0.03,1721201251858
-0.71,-0.44,12.22,0.05,0.10,-0.00,1721201251868
-2.68,0.64,10.75,0.08,0.05,0.09,1721201251878
-2.69,-0.39,7.47,0.08,-0.02,0.38,1721201251888
0.53,0.66,10.68,0.02,0.23,0.35,1721201251898
1.65,0.80,10.55,0.01,-0.02,0.16,1721201251908
-0.87,-1.24,9.31,-0.13,-0.02,0.08,1721201251918
-1.91,1.83,12.42,0.09,0.04,0.10,1721201251928
-0.85,-3.86,7.89,-0.12,-0.01,0.28,1721201251938
-1.42,4.78,14.03,0.12,0.06,0.28,1721201251948
0.89,0.84,6.84,-0.02,-0.06,0.24,1721201251958
-1.35,0.15,12.74,-0.06,0.09,0.19,1721201251968
-0.26,-0.56,11.04,0.01,-0.07,0.21,1721201251978
-1.43,0.02,10.17,-0.02,-0.06,0.35,1721201251988
1.03,3.83,10.64,0.09,0.05,0.33,1721201251998
2.30,-0.51,11.12,-0.10,-0.02,0.24,1721201252008
-0.31,5.86,12.62,0.16,-0.10,0.12,1721201252018
0.26,-0.35,7.27,-0.07,-0.04,0.08,1721201252028
-2.98,-2.24,10.18,-0.12,-0.10,0.26,1721201252038
-0.92,1.12,12.77,0.03,0.05,0.32,1721201252048
0.53,3.22,8.14,0.02,-0.15,0.35,1721201252058
1.50,1.73,7.02,-0.07,-0.02,0.26,1721201252068
2.32,-0.17,13.18,-0.11,0.01,0.04,1721201252078
-1.34,3.30,12.17,0.05,-0.16,-0.02,1721201252088
-3.65,-0.72,5.88,-0.17,-0.10,0.09,1721201252098
-3.50,-1.38,10.87,-0.06,-0.09,0.31,1721201252108
1.39,-0.92,10.94,-0.09,0.05,0.40,1721201252118
2.02,1.92,13.67,-0.12,-0.18,0.24,1721201252128
-1.33,3.02,8.91,-0.02,-0.25,-0.02,1721201252138
-3.20,1.11,7.29,-0.19,-0.10,0.13,1721201252148
-2.51,2.43,12.33,-0.09,-0.10,0.42,1721201252158
-1.25,-0.21,4.78,-0.09,-0.28,0.50,1721201252168
1.41,-0.42,10.12,-0.21,-0.02,0.44,1721201252178
3.07,-1.23,10.77,-0.18,-0.25,0.24,1721201252188
1.48,1.99,11.39,-0.16,-0.13,0.05,1721201252198
-0.35,-1.76,9.87,-0.22,-0.23,0.11,1721201252208
-2.74,0.40,11.34,-0.19,-0.15,0.11,1721201252218
-2.46,-1.59,11.47,-0.20,-0.29,0.29,1721201252228
-1.29,2.59,12.41,-0.04,-0.12,0.42,1721201252238
0.78,-1.89,2.72,-0.19,-0.23,0.32,1721201252248
1.13,0.28,15.44,-0.22,0.01,0.03,1721201252258
-0.11,-1.80,8.22,-0.00,-0.52,0.11,1721201252268
1.17,0.56,13.63,-0.28,0.24,0.16,1721201252278
1.78,3.14,15.10,0.03,-0.40,0.17,1721201252288
-0.57,3.84,7.45,-0.07,-0.12,0.02,1721201252298
1.13,-1.85,10.22,-0.05,-0.12,0.00,1721201252308
0.92,-1.10,12.39,-0.04,-0.01,-0.08,1721201252318
0.59,0.96,13.19,-0.02,-0.20,-0.01,1721201252328
-0.52,-4.15,9.88,0.00,-0.16,0.07,1721201252338
0.92,2.95,12.30,0.14,0.06,-0.04,1721201252348
2.09,3.46,9.05,0.15,-0.21,-0.09,1721201252358
0.73,-2.08,7.20,0.03,-0.09,-0.17,1721201252368
-0.08,-0.94,11.69,0.10,0.02,-0.23,1721201252378
-1.53,-2.20,10.44,0.06,-0.12,-0.11,1721201252388
-2.82,2.77,9.59,0.22,-0.08,0.02,1721201252398
2.40,-2.98,7.66,0.03,0.09,0.01,1721201252408
0.34,0.56,11.83,0.04,-0.18,-0.15,1721201252418
1.22,-1.42,11.45,0.01,0.08,-0.26,1721201252428
-2.56,-1.34,13.53,0.03,-0.19,-0.21,1721201252438
-0.13,0.13,12.38,0.11,0.15,-0.10,1721201252448
-1.54,1.78,7.32,0.10,-0.28,0.02,1721201252458
-0.41,0.68,9.50,0.01,0.26,-0.11,1721201252468
0.03,1.36,13.69,0.18,-0.12,-0.13,1721201252478
0.70,-0.68,7.13,0.09,0.05,0.03,1721201252488
-0.01,0.73,9.30,0.09,-0.08,-0.00,1721201252498
1.57,-0.91,11.98,0.07,0.13,-0.14,1721201252508
0.18,3.05,11.07,0.18,-0.11,-0.17,1721201252518
-0.26,1.33,6.59,0.13,0.01,-0.09,1721201252528
-0.25,-3.45,13.75,-0.05,0.14,-0.18,1721201252538
-2.61,2.52,14.23,0.26,-0.09,-0.16,1721201252548
-2.59,3.94,4.63,0.20,0.03,-0.00,1721201252558
-0.02,0.51,8.28,0.07,0.10,0.09,1721201252568
2.11,-1.14,10.05,0.09,0.03,-0.02,1721201252578
1.65,0.87,11.76,0.04,0.07,-0.19,1721201252588
-1.05,0.09,8.32,0.05,-0.11,-0.20,1721201252598
-0.96,2.50,11.88,0.07,0.21,-0.10,1721201252608
0.74,3.12,9.59,0.14,-0.07,0.00,1721201252618
0.22,-0.01,6.73,-0.06,0.07,-0.02,1721201252628
0.86,1.70,14.47,0.05,0.14,-0.22,1721201252638
-1.07,2.91,10.52,-0.06,-0.04,-0.25,1721201252648
-4.22,2.54,10.83,-0.03,-0.02,-0.15,1721201252658
-2.28,-3.12,9.79,-0.12,0.08,0.14,1721201252668
-0.07,1.11,12.47,0.00,-0.00,0.40,1721201252678
5.25,0.24,7.16,-0.03,0.13,0.08,1721201252688
4.75,3.17,12.08,-0.11,0.09,-0.32,1721201252698
-0.54,2.93,8.09,0.03,-0.11,-0.52,1721201252708
-5.46,-3.95,6.74,-0.24,0.06,-0.29,1721201252718
-5.33,-3.43,14.27,-0.03,0.09,0.13,1721201252728
-0.88,-1.98,7.79,-0.06,0.01,0.35,1721201252738
1.60,2.49,12.11,-0.10,0.11,0.28,1721201252748
5.52,4.00,13.31,0.09,0.10,-0.10,1721201252758
1.74,0.44,6.88,-0.10,-0.10,-0.40,1721201252768
-3.13,-2.21,9.39,-0.15,0.01,-0.37,1721201252778
-3.78,-3.46,10.87,-0.12,0.03,-0.05,1721201252788
-2.15,2.58,10.38,0.07,0.08,0.10,1721201252798
-0.54,-0.64,3.14,-0.07,-0.09,0.10,1721201252808
1.93,-1.00,11.92,-0.07,0.28,-0.14,1721201252818
0.43,-3.54,12.15,-0.13,-0.12,-0.18,1721201252828
-4.35,0.26,9.37,-0.03,-0.13,-0.16,1721201252838
-0.95,-0.35,9.55,-0.03,0.04,0.04,1721201252848
1.03,-0.53,11.27,-0.06,-0.03,0.21,1721201252858
3.90,1.56,17.50,-0.16,0.14,0.11,1721201252868
2.85,5.50,15.17,0.06,0.15,-0.60,1721201252878
-3.70,9.16,8.03,-0.01,-0.07,-0.71,1721201252888
-11.24,-7.38,8.91,-0.26,-0.14,-0.27,1721201252898
-5.64,-12.12,14.77,-0.08,0.14,0.72,1721201252908
3.72,4.57,10.20,0.17,0.10,0.94,1721201252918
9.76,5.16,13.64,-0.03,0.14,0.15,1721201252928
4.91,5.86,10.49,0.19,-0.36,-0.73,1721201252938
-2.38,-2.93,3.53,-0.02,-0.11,-0.85,1721201252948
-8.05,-1.16,14.94,-0.11,0.11,-0.24,1721201252958
-5.83,1.55,10.98,0.20,-0.14,0.31,1721201252968
-0.07,-0.18,7.96,0.05,0.14,0.47,1721201252978
3.16,-1.42,9.16,0.11,-0.11,0.16,1721201252988
2.77,2.18,10.56,0.11,0.01,-0.22,1721201252998
0.85,4.89,7.17,0.14,-0.09,-0.24,1721201253008
-2.20,1.78,8.28,-0.02,-0.07,-0.22,1721201253018
-3.81,-2.29,10.00,0.04,-0.17,0.01,1721201253028
-2.09,-1.24,6.59,0.12,-0.06,0.26,1721201253038
1.18,-1.06,9.63,-0.08,-0.01,0.23,1721201253048
2.47,3.51,14.18,0.04,-0.01,-0.02,1721201253058
1.02,3.83,7.55,0.07,-0.18,-0.28,1721201253068
-3.01,2.27,3.45,0.02,-0.15,-0.20,1721201253078
-4.75,-3.17,1.46,-0.22,-0.21,0.04,1721201253088
-3.59,-9.02,14.68,-0.62,0.06,0.19,1721201253098
1.92,-1.87,35.22,-0.09,-0.09,0.30,1721201253108
0.69,9.11,11.91,0.34,-0.42,0.14,1721201253118
0.98,2.97,-1.76,-0.16,-0.09,-0.03,1721201253128
0.85,4.52,15.41,-0.06,-0.12,-0.05,1721201253138
1.89,0.18,10.00,0.06,-0.26,0.08,1721201253148
-0.38,3.07,10.43,0.04,-0.15,0.09,1721201253158
1.33,-1.80,8.37,-0.00,-0.16,-0.02,1721201253168
-0.49,-0.15,11.42,0.03,-0.19,-0.09,1721201253178
-0.82,1.77,12.85,0.03,-0.09,-0.13,1721201253188
-1.19,2.44,10.42,0.11,-0.24,0.03,1721201253198
-0.01,1.01,6.86,0.00,-0.10,0.10,1721201253208
1.41,1.70,14.41,-0.02,-0.08,-0.02,1721201253218
-0.02,-1.76,6.48,-0.03,-0.33,-0.07,1721201253228
-0.03,1.53,13.42,-0.01,0.08,-0.11,1721201253238
0.89,-0.78,5.78,0.05,-0.34,0.00,1721201253248
-0.28,2.20,11.06,-0.01,0.10,-0.08,1721201253258
1.67,-1.03,7.34,-0.07,-0.26,-0.25,1721201253268
-1.70,-0.97,9.38,-0.09,-0.04,-0.37,1721201253278
-1.56,-3.84,13.51,-0.15,-0.14,-0.18,1721201253288
-3.43,-0.04,7.73,0.07,-0.27,0.01,1721201253298
1.47,-0.28,11.37,-0.10,0.20,0.02,1721201253308
2.46,1.42,12.82,0.06,-0.22,-0.11,1721201253318
1.71,2.24,7.13,0.06,0.02,-0.39,1721201253328
0.22,1.14,12.89,-0.07,-0.02,-0.45,1721201253338
-2.53,0.66,10.02,0.06,-0.16,-0.32,1721201253348
-1.00,-4.84,7.71,-0.05,0.03,-0.06,1721201253358
0.99,-1.37,11.55,-0.01,0.01,-0.11,1721201253368
2.91,3.10,11.45,0.10,0.00,-0.25,1721201253378
1.14,2.20,10.24,0.02,-0.03,-0.49,1721201253388
-1.61,-1.99,7.42,0.05,-0.06,-0.51,1721201253398
-3.67,1.24,14.50,0.06,0.11,-0.36,1721201253408
-2.55,0.22,10.42,0.10,-0.12,-0.03,1721201253418
-0.07,3.28,9.29,0.19,0.09,0.10,1721201253428
4.50,-3.27,11.61,-0.00,0.17,-0.14,1721201253438
-0.38,5.40,8.88,0.24,-0.21,-0.62,1721201253448
0.51,-1.16,8.86,0.05,0.31,-0.58,1721201253458
-7.04,2.34,13.69,0.17,-0.20,-0.33,1721201253468
-1.14,-0.91,9.54,0.10,0.22,-0.08,1721201253478
-0.70,0.22,14.56,0.09,-0.02,-0.09,1721201253488
0.91,1.55,6.53,0.18,0.04,-0.15,1721201253498
1.60,0.62,11.46,0.08,0.11,-0.21,1721201253508
0.41,4.28,7.47,0.25,-0.02,-0.34,1721201253518
-1.28,2.94,8.07,0.06,0.12,-0.34,1721201253528
-1.87,0.26,8.92,0.10,0.01,-0.12,1721201253538
0.04,-4.00,6.48,-0.11,0.17,-0.05,1721201253548
0.34,-0.79,16.46,-0.09,0.07,-0.22,1721201253558
0.11,-0.61,10.77,0.14,-0.10,-0.18,1721201253568
0.41,0.68,9.07,0.12,0.18,-0.19,1721201253578
-0.91,2.27,6.33,0.10,-0.03,-0.30,1721201253588
-1.82,0.99,12.73,-0.01,0.21,-0.21,1721201253598
-2.44,3.24,12.78,0.09,-0.08,-0.12,1721201253608
-2.11,-0.19,2.84,0.04,-0.04,0.01,1721201253618
1.66,-2.60,11.77,-0.19,0.26,0.02,1721201253628
2.04,0.99,15.03,-0.00,-0.08,-0.23,1721201253638
0.24,-0.94,10.16,-0.16,0.03,-0.35,1721201253648
-3.18,4.83,8.03,0.12,-0.08,-0.27,1721201253658
