AccX,AccY,AccZ,GyrX,GyrY,GyrZ,Time
-0.37,0.16,11.84,0.03,0.34,-0.31,1721201453145
-1.03,-0.03,11.95,0.08,0.24,-0.29,1721201453150
-2.10,0.27,10.27,0.07,0.32,-0.26,1721201453160
-3.08,0.91,10.16,0.06,0.26,-0.22,1721201453170
-4.06,1.08,8.19,0.07,0.19,-0.19,1721201453180
-3.81,-0.58,11.08,-0.03,0.28,-0.10,1721201453190
-2.48,0.40,12.43,0.15,0.18,0.02,1721201453200
-0.74,2.08,7.47,0.07,0.31,-0.14,1721201453210
-1.03,2.39,11.75,-0.08,0.09,-0.15,1721201453220
-1.33,-3.62,10.88,-0.03,0.21,0.01,1721201453230
-3.60,0.77,11.30,0.11,0.10,-0.05,1721201453240
-2.36,1.73,5.92,0.02,0.19,-0.09,1721201453250
0.02,-6.96,7.19,0.03,0.13,-0.04,1721201453260
-0.47,4.63,9.29,0.15,0.20,0.00,1721201453270
3.27,1.44,15.82,-0.06,0.51,-0.30,1721201453280
-3.15,-0.10,10.33,0.09,-0.15,-0.59,1721201453290
-7.58,-2.28,5.63,-0.09,0.23,-0.16,1721201453300
-5.57,0.83,11.44,0.04,0.21,0.43,1721201453310
-0.85,2.04,9.00,0.09,0.18,0.26,1721201453320
-1.28,0.02,8.74,-0.04,-0.09,-0.15,1721201453330
-3.47,-1.66,14.15,0.02,0.09,-0.09,1721201453340
-3.14,-2.08,10.25,0.02,0.06,0.34,1721201453350
-2.02,2.06,10.53,0.07,0.08,0.30,1721201453360
0.67,-0.12,10.80,0.11,0.03,0.05,1721201453370
0.13,-0.53,8.44,-0.02,-0.01,0.10,1721201453380
-0.14,1.54,10.39,-0.10,0.05,0.07,1721201453390
-1.20,-0.84,13.83,-0.04,-0.01,-0.22,1721201453400
-5.69,-9.39,4.48,-0.01,-0.27,-0.23,1721201453410
-3.35,-9.28,10.35,0.25,0.41,0.63,1721201453420
10.74,2.46,10.09,0.25,0.68,1.10,1721201453430
10.32,13.73,15.76,-0.21,0.38,-0.28,1721201453440
-1.73,1.60,16.94,-0.13,-0.76,-1.92,1721201453450
-19.25,-5.71,8.58,0.14,-0.47,-1.11,1721201453460
-20.84,-5.54,1.99,-0.06,0.15,1.27,1721201453470
-4.48,-1.31,5.63,0.18,0.37,2.00,1721201453480
5.94,-1.43,8.87,0.09,-0.17,1.12,1721201453490
8.83,-0.48,13.77,-0.07,-0.08,0.17,1721201453500
4.83,1.30,13.93,-0.01,-0.14,-0.24,1721201453510
-3.53,2.87,6.54,-0.05,-0.24,-0.33,1721201453520
-7.26,-4.06,5.49,-0.22,-0.25,0.22,1721201453530
-3.24,-8.22,13.75,-0.07,-0.04,1.10,1721201453540
4.33,0.17,11.48,0.26,0.09,0.85,1721201453550
4.46,6.18,6.76,-0.03,-0.31,-0.27,1721201453560
-6.25,-0.75,10.12,-0.36,-0.66,-0.50,1721201453570
-12.55,-2.16,14.71,-0.03,-0.32,0.41,1721201453580
-5.90,2.63,12.71,0.12,0.07,1.11,1721201453590
4.88,-5.88,12.34,-0.04,-0.14,1.42,1721201453600
10.69,1.73,4.85,-0.08,0.07,0.94,1721201453610
13.87,5.33,10.77,-0.29,0.04,-0.09,1721201453620
4.58,2.23,9.83,-0.15,-0.45,-0.93,1721201453630
-8.68,1.64,3.41,-0.07,-0.35,-1.24,1721201453640
-22.99,1.70,7.14,-0.28,-0.71,-0.38,1721201453650
-23.56,3.96,17.56,-0.06,-0.39,1.21,1721201453660
-7.21,3.05,13.63,0.01,-0.12,2.55,1721201453670
9.89,6.28,10.65,0.06,0.04,2.59,1721201453680
19.78,4.88,6.30,-0.03,0.28,1.50,1721201453690
20.49,7.24,6.98,-0.28,-0.43,-0.21,1721201453700
8.30,4.61,7.84,-0.34,-0.73,-1.19,1721201453710
2.15,5.34,14.19,-0.24,-0.96,-1.27,1721201453720
-11.65,-0.36,8.24,-0.07,-0.40,-0.69,1721201453730
-13.71,-0.96,12.57,-0.09,-0.18,0.30,1721201453740
-7.95,1.17,10.63,0.09,-0.21,1.06,1721201453750
1.95,2.58,8.44,0.13,-0.10,1.18,1721201453760
7.35,0.21,9.76,0.08,-0.17,0.76,1721201453770
6.95,-0.22,9.71,0.01,-0.26,0.21,1721201453780
3.43,-3.84,9.87,-0.10,-0.23,-0.20,1721201453790
-3.31,-1.11,11.63,-0.11,-0.39,-0.23,1721201453800
-4.98,-5.11,10.19,-0.06,-0.29,0.12,1721201453810
-3.01,-5.33,9.55,-0.03,-0.28,0.50,1721201453820
-0.88,-4.54,8.52,-0.10,-0.20,0.45,1721201453830
-0.57,-4.38,13.89,-0.16,-0.12,0.18,1721201453840
-3.84,-2.59,11.22,0.03,-0.46,0.19,1721201453850
-3.54,-4.05,8.48,-0.05,-0.19,0.45,1721201453860
-0.96,-2.27,11.91,-0.00,-0.37,0.79,1721201453870
2.05,-1.07,9.31,0.00,-0.34,0.77,1721201453880
5.83,1.02,12.60,0.03,-0.23,0.50,1721201453890
7.68,0.33,7.84,0.09,-0.33,0.30,1721201453900
6.00,-2.74,9.19,-0.08,-0.22,-0.02,1721201453910
1.42,1.63,12.43,0.20,-0.36,-0.32,1721201453920
0.12,0.58,9.39,0.11,-0.13,-0.18,1721201453930
-1.62,2.68,12.35,0.12,-0.17,0.20,1721201453940
1.24,0.69,9.60,0.13,-0.08,0.29,1721201453950
4.77,0.58,10.40,0.10,-0.09,0.11,1721201453960
4.46,0.80,8.64,0.18,-0.21,-0.01,1721201453970
2.75,-1.82,8.43,0.00,-0.01,-0.17,1721201453980
-0.27,1.98,14.00,0.16,-0.13,-0.18,1721201453990
0.41,-2.28,5.08,0.07,-0.05,0.02,1721201454000
1.08,-0.07,13.95,-0.09,0.07,0.18,1721201454010
4.05,0.05,13.19,0.10,-0.03,0.13,1721201454020
5.54,2.35,11.31,0.16,0.07,-0.09,1721201454030
6.14,-0.14,6.60,0.07,0.02,-0.24,1721201454040
3.56,-0.84,8.91,-0.09,0.11,-0.51,1721201454050
-0.46,-0.74,10.86,0.01,0.00,-0.65,1721201454060
-3.93,-1.00,9.49,-0.06,0.13,-0.53,1721201454070
-4.81,-0.27,10.70,-0.10,0.07,-0.25,1721201454080
-2.26,-0.77,10.35,-0.12,0.14,-0.09,1721201454090
0.72,0.37,10.73,-0.07,0.11,-0.15,1721201454100
1.76,0.04,8.55,-0.18,0.13,-0.34,1721201454110
0.33,0.71,11.63,-0.17,0.07,-0.51,1721201454120
-0.65,-3.18,7.85,-0.21,0.04,-0.53,1721201454130
-1.44,0.40,10.68,-0.22,0.17,-0.47,1721201454140
0.57,-3.50,8.89,-0.31,0.14,-0.43,1721201454150
0.13,-0.53,11.12,-0.32,0.14,-0.48,1721201454160
1.14,-0.87,8.96,-0.31,0.18,-0.61,1721201454170
-0.59,-1.65,9.46,-0.41,0.18,-0.77,1721201454180
-1.43,0.30,11.49,-0.30,0.19,-0.82,1721201454190
-3.32,-2.41,9.40,-0.34,0.09,-0.73,1721201454200
-3.64,-0.62,11.54,-0.33,0.26,-0.59,1721201454210
-1.79,1.37,11.96,-0.21,0.22,-0.49,1721201454220
-0.64,0.15,9.59,-0.18,0.22,-0.50,1721201454230
0.76,-0.30,11.36,-0.11,0.19,-0.56,1721201454240
0.46,2.98,9.88,-0.00,0.17,-0.65,1721201454250
0.54,-0.64,9.61,-0.10,0.28,-0.75,1721201454260
-1.63,3.02,12.51,-0.00,0.13,-0.69,1721201454270
-2.36,-0.16,11.35,0.13,0.14,-0.62,1721201454280
-3.09,0.30,10.21,0.01,0.28,-0.42,1721201454290
-1.89,1.65,12.54,0.06,0.21,-0.32,1721201454300
-0.72,1.50,10.09,0.17,0.15,-0.28,1721201454310
-0.20,-2.83,7.30,0.19,0.20,-0.33,1721201454320
0.56,-2.14,12.34,0.02,0.21,-0.38,1721201454330
-0.25,0.20,9.98,0.29,0.16,-0.41,1721201454340
-0.45,-3.48,5.80,0.12,0.20,-0.36,1721201454350
-0.98,-3.13,12.47,0.06,0.28,-0.34,1721201454360
-1.65,-1.58,12.78,0.21,0.16,-0.25,1721201454370
-0.51,-1.27,8.26,0.14,0.20,-0.25,1721201454380
-0.39,-3.56,10.33,0.10,0.16,-0.21,1721201454390
0.02,-0.94,9.67,0.08,0.18,-0.31,1721201454400
-0.56,-1.75,10.07,0.01,0.24,-0.45,1721201454410
-0.95,-0.12,12.36,0.04,0.28,-0.47,1721201454420
-2.66,-0.28,8.96,0.17,0.10,-0.30,1721201454430
-0.50,-1.39,9.49,-0.02,0.39,-0.25,1721201454440
-0.70,2.82,13.60,0.14,0.22,-0.28,1721201454450
0.05,-0.29,8.04,0.16,0.16,-0.31,1721201454460
0.34,1.65,10.02,0.13,0.31,-0.37,1721201454470
-0.87,0.99,10.99,0.13,0.18,-0.40,1721201454480
-2.94,-1.15,8.93,0.10,0.20,-0.44,1721201454490
-3.68,0.98,10.08,0.12,0.19,-0.36,1721201454500
-2.61,0.97,8.20,0.21,0.20,-0.20,1721201454510
-0.85,-0.13,9.70,0.11,0.27,-0.11,1721201454520
0.44,0.81,11.77,0.14,0.22,-0.20,1721201454530
0.15,1.75,8.50,0.17,0.13,-0.32,1721201454540
-1.95,0.22,8.30,-0.02,0.15,-0.39,1721201454550
-4.65,0.70,11.09,0.00,0.09,-0.31,1721201454560
-5.54,0.38,8.77,0.04,0.13,-0.10,1721201454570
-5.12,-1.43,10.17,-0.08,0.11,0.18,1721201454580
-3.34,0.36,11.02,0.04,0.07,0.36,1721201454590
0.11,0.69,9.97,-0.04,0.16,0.30,1721201454600
0.77,-1.08,9.10,-0.04,-0.01,0.15,1721201454610
0.45,0.01,9.51,-0.11,0.11,0.08,1721201454620
-0.23,-0.57,9.92,-0.10,-0.04,0.11,1721201454630
-0.98,-1.92,9.94,-0.13,0.02,0.16,1721201454640
-0.69,-2.85,9.26,-0.11,-0.00,0.23,1721201454650
-0.76,-2.75,10.50,-0.16,0.03,0.27,1721201454660
-1.91,-0.75,9.37,-0.11,-0.04,0.28,1721201454670
-1.47,-2.53,9.02,-0.24,0.05,0.21,1721201454680
-2.29,-3.42,13.91,-0.15,-0.11,0.19,1721201454690
-2.17,-1.72,10.90,-0.05,-0.11,0.36,1721201454700
-1.41,-4.30,8.81,-0.11,-0.05,0.65,1721201454710
-0.72,-0.24,10.74,-0.17,-0.01,0.63,1721201454720
1.63,0.55,10.72,-0.14,-0.04,0.40,1721201454730
0.53,-0.24,10.01,-0.14,-0.23,0.09,1721201454740
1.93,-1.08,11.77,-0.13,0.04,0.08,1721201454750
1.16,-4.69,9.26,-0.13,-0.13,0.34,1721201454760
-2.10,-1.96,9.54,-0.17,0.00,0.35,1721201454770
0.12,2.48,13.59,0.03,-0.02,0.25,1721201454780
0.78,-3.56,9.00,0.03,-0.27,0.27,1721201454790
2.49,-1.84,12.42,0.01,0.14,0.27,1721201454800
2.85,-1.23,14.19,0.19,-0.02,0.23,1721201454810
-2.32,0.09,6.66,0.19,-0.29,0.21,1721201454820
-1.83,-0.25,9.14,0.02,0.10,0.24,1721201454830
0.14,-3.21,13.88,0.16,-0.22,0.32,1721201454840
1.62,-1.09,9.77,0.19,-0.11,0.34,1721201454850
3.81,-0.40,10.26,0.19,0.04,0.33,1721201454860
1.98,1.93,11.78,0.17,0.00,0.11,1721201454870
1.12,-0.65,7.99,0.09,0.06,0.08,1721201454880
0.08,-3.71,10.29,-0.01,-0.03,0.18,1721201454890
-0.21,0.36,12.61,0.19,-0.06,0.29,1721201454900
3.39,-1.48,7.50,0.15,0.09,0.33,1721201454910
1.29,-0.31,9.40,-0.01,-0.05,0.16,1721201454920
1.74,1.78,13.13,0.12,0.19,-0.05,1721201454930
1.22,-2.20,10.00,0.11,0.04,0.04,1721201454940
-1.24,-0.43,8.80,0.14,0.05,0.16,1721201454950
0.22,0.50,11.25,0.15,0.16,0.16,1721201454960
1.81,-0.98,10.34,0.13,0.04,0.14,1721201454970
1.56,2.79,10.54,0.17,0.18,0.04,1721201454980
2.19,2.90,8.00,0.15,0.15,-0.11,1721201454990
1.60,-0.43,6.90,-0.01,0.14,-0.18,1721201455000
0.00,0.30,11.11,-0.05,0.22,-0.27,1721201455010
-1.66,0.12,11.32,0.03,0.12,-0.31,1721201455020
-3.08,1.06,10.91,-0.04,0.13,-0.28,1721201455030
-3.12,-2.69,8.66,-0.09,0.01,-0.10,1721201455040
-2.20,0.93,8.50,-0.00,0.25,-0.04,1721201455050
1.72,-1.59,7.50,-0.15,0.22,-0.04,1721201455060
2.43,0.60,14.42,-0.13,0.23,-0.25,1721201455070
0.73,-2.44,6.76,-0.01,-0.08,-0.34,1721201455080
-0.53,-1.61,8.34,-0.20,0.30,-0.39,1721201455090
-0.12,1.40,14.03,0.01,0.11,-0.33,1721201455100
-1.42,-3.71,5.06,-0.10,0.09,-0.23,1721201455110
-2.24,-1.98,12.71,-0.17,0.24,-0.27,1721201455120
-1.02,1.46,12.29,0.05,0.17,-0.23,1721201455130
-3.05,0.89,9.69,-0.10,0.16,-0.13,1721201455140
-1.30,2.07,11.27,0.11,0.05,0.12,1721201455155
1.15,1.78,9.66,0.14,0.10,0.15,1721201455159
2.33,-2.96,9.78,-0.07,0.26,0.08,1721201455169
2.55,0.94,13.58,0.16,0.09,-0.00,1721201455179
2.61,1.44,7.96,0.29,0.14,-0.12,1721201455189
-1.43,3.98,12.68,0.29,0.24,-0.26,1721201455199
-4.22,-1.20,11.20,0.26,-0.07,-0.29,1721201455209
-2.83,0.28,12.95,0.11,0.24,-0.09,1721201455219
-3.01,-5.46,11.17,0.29,0.02,0.07,1721201455229
-4.63,-7.73,10.19,0.16,0.08,0.06,1721201455239
-1.64,-0.38,10.92,0.35,0.05,0.13,1721201455249
-2.12,-6.02,6.23,0.24,0.05,0.19,1721201455259
-2.18,-3.29,13.28,0.05,0.22,0.08,1721201455269
-0.57,4.36,12.09,0.26,-0.02,0.10,1721201455279
-2.51,-4.94,3.77,-0.00,0.04,0.06,1721201455289
-1.31,-5.01,13.27,0.06,-0.01,0.17,1721201455299
-2.06,-2.40,8.29,0.10,-0.03,0.20,1721201455309
-0.92,2.99,10.10,-0.02,-0.03,0.19,1721201455319
1.03,2.39,11.85,0.14,-0.03,0.12,1721201455329
-1.46,1.96,8.54,0.04,-0.14,0.14,1721201455339
-1.49,1.41,8.65,0.05,-0.02,0.19,1721201455349
-0.50,-3.79,5.76,0.06,-0.14,0.33,1721201455359
1.69,-2.21,8.93,0.15,0.07,0.44,1721201455369
4.72,7.56,12.06,0.35,-0.00,0.33,1721201455379
4.96,10.43,7.13,0.22,-0.07,0.04,1721201455389
3.75,6.44,7.55,-0.21,-0.01,-0.22,1721201455399
-0.92,-1.11,12.67,-0.40,-0.08,-0.47,1721201455409
-7.48,-2.42,13.17,-0.25,-0.25,-0.40,1721201455419
-11.63,-1.48,7.29,0.03,-0.26,0.17,1721201455429
-8.01,-4.05,-1.27,-0.17,-0.09,0.92,1721201455439
0.38,0.37,11.31,-0.24,0.19,0.99,1721201455449
7.31,2.38,12.20,-0.13,-0.13,0.41,1721201455459
6.65,1.41,12.23,-0.29,-0.10,-0.18,1721201455469
-1.10,0.59,11.92,-0.20,-0.42,-0.43,1721201455479
-6.24,-7.48,8.03,-0.31,-0.18,-0.13,1721201455489
-5.00,-5.99,21.10,-0.20,0.06,0.37,1721201455499
-2.11,-1.17,11.07,0.11,-0.39,0.60,1721201455509
0.25,-4.79,7.83,-0.28,-0.08,0.63,1721201455519
4.48,0.61,11.56,0.00,-0.09,0.34,1721201455529
6.48,-8.32,3.52,-0.39,0.08,0.08,1721201455539
-0.55,-1.24,16.52,-0.17,-0.25,-0.10,1721201455549
-0.31,-7.24,6.69,-0.15,-0.13,0.09,1721201455559
-2.53,-3.29,15.70,-0.18,-0.09,0.23,1721201455569
2.11,2.30,10.90,0.09,-0.18,0.27,1721201455579
5.09,-0.74,8.21,-0.15,0.11,0.09,1721201455589
4.53,-1.64,14.64,-0.04,0.03,-0.20,1721201455599
-1.01,0.89,9.42,0.02,-0.11,-0.25,1721201455609
-4.87,0.01,14.79,-0.11,-0.12,-0.19,1721201455619
-2.26,3.41,10.25,0.19,-0.03,0.10,1721201455629
1.42,-1.49,6.31,-0.01,0.22,0.18,1721201455639
3.63,5.62,10.92,0.15,-0.03,0.18,1721201455649
4.08,-0.46,5.54,0.01,-0.00,0.04,1721201455659
1.93,0.41,10.17,-0.13,0.17,-0.19,1721201455669
1.83,-6.00,16.98,-0.09,0.12,-0.33,1721201455679
-1.36,-2.53,19.95,0.10,-0.06,-0.20,1721201455689
-3.07,5.17,11.29,0.45,-0.05,0.13,1721201455699
0.81,8.00,6.59,0.35,0.25,0.22,1721201455709
5.23,3.39,4.34,0.15,0.20,0.11,1721201455719
4.19,0.13,7.35,-0.05,0.30,-0.43,1721201455729
1.20,-0.93,12.85,0.03,0.17,-0.69,1721201455739
-3.64,0.02,8.14,0.15,0.02,-0.46,1721201455749
-3.53,3.89,8.43,0.07,0.37,-0.20,1721201455759
-1.77,-1.33,7.43,0.04,0.05,-0.15,1721201455769
0.16,-0.68,10.15,-0.18,0.32,-0.14,1721201455779
3.02,-0.53,12.24,-0.05,0.21,-0.22,1721201455789
1.19,-0.05,8.47,-0.11,0.16,-0.37,1721201455799
0.65,1.02,8.66,-0.05,0.20,-0.38,1721201455809
-0.61,-5.51,4.87,-0.14,0.13,-0.28,1721201455819
-1.33,-1.30,11.58,-0.28,0.38,-0.23,1721201455829
0.14,-4.32,5.40,-0.06,0.10,-0.18,1721201455839
0.23,-6.81,13.85,-0.39,0.45,-0.40,1721201455849
-1.72,-4.69,14.57,0.10,-0.00,-0.46,1721201455859
-2.60,-7.69,5.13,-0.20,0.38,-0.34,1721201455869
-6.18,-1.22,17.18,-0.19,0.11,-0.41,1721201455879
-6.90,-0.48,11.65,0.03,-0.04,-0.34,1721201455889
-3.54,-6.53,7.98,-0.28,0.27,0.09,1721201455899
-2.52,-9.78,10.73,-0.30,0.15,0.09,1721201455909
-0.56,-6.51,22.40,-0.44,0.38,-0.24,1721201455919
-3.06,4.94,16.37,0.22,-0.31,0.01,1721201455929
-1.75,3.38,3.95,-0.05,0.23,0.14,1721201455939
-0.62,0.72,11.90,-0.02,0.11,0.14,1721201455949
-0.49,-0.26,10.49,0.08,-0.07,0.19,1721201455959
-0.43,4.83,7.83,0.19,0.09,0.21,1721201455969
0.15,0.69,10.07,0.04,-0.09,0.15,1721201455979
-0.65,9.76,10.02,0.35,-0.07,0.15,1721201455989
0.54,-2.41,6.82,0.17,-0.01,0.13,1721201455999
-0.88,2.72,12.30,0.34,0.04,0.21,1721201456009
0.23,2.14,5.19,0.42,-0.11,0.26,1721201456019
3.00,3.92,10.86,0.18,0.25,0.28,1721201456029
3.85,2.86,12.77,0.40,-0.11,0.06,1721201456039
1.12,0.60,7.06,0.12,0.07,-0.11,1721201456049
-1.67,6.34,12.74,0.11,0.12,-0.26,1721201456059
-3.54,-1.72,11.89,-0.03,-0.11,-0.14,1721201456069
-8.49,4.30,11.43,0.26,-0.20,0.03,1721201456079
-5.22,-2.17,2.04,0.19,-0.09,0.49,1721201456089
-6.19,4.21,5.12,0.04,-0.16,0.58,1721201456099
5.13,-7.20,8.72,-0.05,-0.10,1.04,1721201456109
10.59,-2.69,12.73,0.05,0.38,0.74,1721201456119
10.84,-2.39,8.46,-0.44,0.01,-0.30,1721201456129
8.17,-0.81,23.86,-0.12,-0.07,-1.24,1721201456139
-7.47,-2.02,4.47,0.15,-0.65,-1.57,1721201456149
-22.22,-1.97,-0.49,-0.15,-0.03,-0.92,1721201456159
-23.98,-1.88,11.86,-0.19,-0.00,0.84,1721201456169
-10.84,-5.28,11.09,-0.05,0.24,2.11,1721201456179
7.58,-2.75,10.86,0.10,0.23,2.22,1721201456189
18.04,4.03,9.84,0.08,0.65,1.56,1721201456199
21.46,0.91,6.17,-0.22,-0.23,0.27,1721201456209
14.02,4.03,10.48,-0.31,-0.01,-1.21,1721201456219
-15.71,10.20,5.93,-1.39,-3.21,-3.13,1721201456229
2.07,-38.21,43.00,0.83,1.32,0.68,1721201456239
-23.62,7.60,-15.85,-0.37,-1.38,0.14,1721201456249
-4.01,-1.95,7.69,-1.05,0.43,2.11,1721201456259
-0.45,22.39,17.35,0.55,-0.27,0.29,1721201456269
-2.91,0.96,-9.21,0.78,-0.98,0.97,1721201456279
5.04,6.42,11.54,-0.14,0.62,-0.21,1721201456289
7.95,16.48,27.26,-0.66,0.68,-0.98,1721201456299
1.38,-0.38,22.38,0.40,0.19,-0.40,1721201456309
-10.20,-14.82,-4.95,-0.11,-0.58,0.17,1721201456319
-3.20,1.64,13.41,-0.14,0.68,0.05,1721201456329
2.20,7.42,23.19,0.20,-0.56,0.41,1721201456339
3.85,2.53,9.25,0.20,-0.00,0.26,1721201456349
0.82,0.85,8.95,0.11,-0.01,0.10,1721201456359
0.93,2.51,14.21,0.04,0.00,0.26,1721201456369
1.49,6.13,9.31,0.22,-0.13,0.09,1721201456379
1.12,2.25,9.51,-0.06,-0.00,0.21,1721201456389
1.97,-8.32,5.48,-0.04,-0.06,0.12,1721201456399
0.99,-3.26,13.83,-0.01,0.17,-0.12,1721201456409
-2.75,-1.51,7.75,0.11,-0.27,0.05,1721201456419
-2.38,6.81,10.39,-0.04,0.29,0.17,1721201456429
4.90,-2.75,11.24,0.09,0.07,0.27,1721201456439
2.35,-5.85,7.38,-0.18,-0.03,-0.01,1721201456449
-1.03,2.15,12.72,0.13,0.01,-0.35,1721201456459
-0.96,-1.52,8.69,-0.01,-0.01,-0.20,1721201456469
-2.43,1.69,13.38,0.04,-0.07,0.02,1721201456479
-0.96,2.56,6.11,0.22,0.04,0.06,1721201456489
0.37,0.50,8.01,-0.11,0.12,0.02,1721201456499
-0.63,0.96,9.87,-0.01,-0.13,-0.03,1721201456509
0.28,2.05,9.07,0.11,0.18,-0.10,1721201456519
2.14,-6.69,9.13,-0.26,0.01,-0.02,1721201456529
-3.02,4.39,11.66,0.08,-0.25,0.08,1721201456539
3.75,1.47,14.69,0.00,0.54,-0.08,1721201456549
0.31,-2.89,14.04,-0.08,-0.47,-0.03,1721201456559
-3.24,6.74,7.27,0.18,0.05,-0.11,1721201456569
2.19,0.77,5.54,-0.06,0.11,-0.05,1721201456579
-1.70,-0.16,9.13,-0.12,-0.14,0.01,1721201456589
-0.94,2.11,15.53,-0.13,0.19,-0.16,1721201456599
-2.12,-4.31,12.30,-0.08,-0.33,0.02,1721201456609
-1.87,4.15,11.47,-0.03,0.21,0.06,1721201456619
3.28,5.09,13.77,0.13,0.14,-0.09,1721201456629
0.90,-1.50,3.39,-0.09,-0.26,-0.08,1721201456639
-0.28,-0.58,14.94,-0.13,0.28,-0.30,1721201456649
-2.45,0.85,8.01,0.21,-0.34,-0.27,1721201456659
-1.35,-2.40,8.82,-0.26,0.40,-0.20,1721201456669
-0.86,0.28,17.17,0.16,-0.25,0.04,1721201456679
-1.38,-1.69,3.04,-0.01,0.06,0.05,1721201456689
0.36,2.82,13.88,-0.01,0.11,-0.13,1721201456699
2.68,-1.30,10.28,0.06,-0.01,-0.21,1721201456709
-0.41,0.50,8.44,-0.02,-0.09,-0.04,1721201456719
0.03,0.34,12.84,-0.05,0.16,-0.18,1721201456729
-1.72,-3.52,9.76,0.01,-0.17,-0.17,1721201456739
-1.66,-2.15,9.92,-0.09,0.09,0.09,1721201456749
2.36,-0.06,11.22,0.10,0.14,0.07,1721201456759
2.56,1.74,8.45,-0.02,0.05,-0.24,1721201456769
0.76,4.36,11.66,0.12,-0.05,-0.29,1721201456779
-0.04,-3.66,6.18,-0.11,0.10,-0.25,1721201456789
-2.93,-0.97,13.18,-0.08,-0.02,-0.14,1721201456799
-0.86,-1.15,11.75,0.10,0.13,0.05,1721201456809
-1.20,-0.64,8.72,0.07,-0.15,0.06,1721201456819
0.50,0.67,10.38,0.05,0.15,-0.00,1721201456829
1.92,-0.79,10.75,0.04,0.12,-0.13,1721201456839
-0.36,1.73,9.33,0.08,0.00,-0.17,1721201456849
-0.71,-0.18,11.54,-0.05,0.17,-0.11,1721201456859
-0.95,-1.09,10.98,0.03,-0.03,-0.02,1721201456869
1.35,0.83,11.98,0.01,0.30,-0.03,1721201456879
0.55,-4.62,9.77,0.00,-0.25,-0.01,1721201456889
-2.22,3.36,11.08,-0.02,0.26,-0.20,1721201456899
1.95,-0.26,14.11,0.05,0.16,-0.20,1721201456909
-2.98,-0.77,8.75,-0.02,-0.19,-0.14,1721201456919
-2.65,0.11,11.96,-0.02,0.21,-0.04,1721201456929
-0.87,1.32,7.47,0.20,-0.03,0.05,1721201456939
0.23,-0.69,9.00,-0.13,0.13,-0.04,1721201456949
-1.40,4.43,14.79,0.13,-0.10,-0.10,1721201456959
-0.97,-0.58,3.64,0.14,0.01,-0.07,1721201456969
-0.23,0.71,12.38,-0.10,0.19,0.05,1721201456979
-1.03,2.44,11.14,0.12,-0.21,0.03,1721201456989
-0.27,1.07,8.63,0.04,0.14,-0.04,1721201456999
0.31,-0.64,9.42,0.04,-0.09,-0.02,1721201457009
-0.33,2.24,11.81,0.05,-0.02,-0.02,1721201457019
0.08,2.32,12.61,0.10,0.04,-0.10,1721201457029
-2.53,2.96,4.62,0.14,-0.20,-0.16,1721201457039
0.06,0.01,8.40,-0.09,0.16,-0.08,1721201457049
0.33,-2.79,12.56,-0.17,-0.11,-0.03,1721201457059
-3.80,2.37,11.21,0.02,-0.07,-0.08,1721201457069
-2.51,0.20,10.08,-0.07,0.04,0.04,1721201457079
-1.27,2.07,18.42,-0.04,-0.03,0.20,1721201457089
-1.45,-0.36,6.01,0.10,-0.39,0.32,1721201457099
1.02,3.84,12.83,-0.10,0.24,0.25,1721201457109
2.14,-2.94,5.51,-0.02,-0.54,0.16,1721201457119
-0.05,-2.20,7.68,-0.27,0.12,0.11,1721201457129
0.22,2.27,14.35,0.07,-0.24,0.06,1721201457139
-0.84,-2.43,3.84,-0.11,-0.25,0.09,1721201457149
-1.65,2.90,13.40,-0.08,-0.25,0.09,1721201457164
-0.93,-3.56,9.62,-0.09,-0.37,0.13,1721201457168
-2.32,-0.30,11.53,-0.14,0.04,0.14,1721201457178
-0.82,-1.03,11.33,-0.05,-0.16,0.05,1721201457188
-3.42,-3.60,7.86,-0.22,-0.34,0.11,1721201457198
-2.86,0.68,13.59,-0.09,-0.11,0.25,1721201457208
0.52,-7.50,9.72,-0.19,-0.22,0.36,1721201457218
-0.21,4.52,12.95,0.10,-0.22,0.50,1721201457228
4.07,-4.86,-0.85,-0.03,-0.28,0.37,1721201457238
-1.81,0.42,17.38,-0.27,0.13,0.04,1721201457248
1.78,0.12,15.42,0.17,-0.49,-0.14,1721201457258
-1.35,-3.63,7.48,-0.23,-0.31,0.03,1721201457268
-2.83,7.75,12.21,0.13,-0.32,0.20,1721201457278
4.37,-1.88,10.87,-0.15,0.10,0.15,1721201457288
-0.54,1.25,9.17,0.08,-0.69,0.07,1721201457298
2.77,2.03,6.80,0.05,0.11,-0.19,1721201457308
1.59,-5.09,13.58,-0.03,-0.41,-0.08,1721201457318
-0.65,3.06,10.24,0.24,-0.09,-0.12,1721201457328
2.75,-1.47,12.52,0.04,0.02,-0.10,1721201457338
-2.27,3.29,10.62,0.20,-0.52,-0.04,1721201457348
1.92,-3.31,9.10,-0.01,0.12,-0.15,1721201457358
2.20,0.57,15.89,0.18,-0.24,-0.25,1721201457368
1.12,0.62,6.26,0.26,-0.18,-0.34,1721201457378
-0.73,-5.71,8.04,-0.01,-0.17,-0.23,1721201457388
1.80,4.59,16.18,0.28,-0.05,-0.05,1721201457398
5.04,-4.59,9.42,0.15,0.11,-0.18,1721201457408
0.37,5.25,9.78,0.35,-0.42,-0.39,1721201457418
2.49,1.07,6.93,0.11,0.32,-0.57,1721201457428
-1.94,2.73,16.48,0.07,-0.07,-0.48,1721201457438
-2.91,-0.94,9.25,0.08,-0.09,-0.20,1721201457448
0.50,-4.59,7.47,0.04,0.16,-0.12,1721201457458
3.77,-7.47,12.81,0.04,0.03,-0.26,1721201457468
2.11,8.17,12.32,0.42,-0.03,-0.45,1721201457478
3.46,2.91,1.03,0.10,0.26,-0.55,1721201457488
0.27,-0.46,9.31,-0.19,0.27,-0.69,1721201457498
-1.05,-11.65,13.10,-0.27,0.11,-0.74,1721201457508
-6.45,-1.09,19.03,0.09,-0.01,-0.74,1721201457518
-5.30,3.35,3.35,0.29,0.07,-0.16,1721201457528
1.64,2.68,6.10,0.02,0.55,-0.01,1721201457538
4.02,0.68,8.76,-0.11,0.15,-0.47,1721201457548
-0.74,-3.76,5.69,-0.29,0.15,-0.75,1721201457558
-3.39,0.50,18.36,-0.21,0.45,-0.60,1721201457568
-1.84,-1.26,13.21,0.12,0.13,-0.24,1721201457578
-0.66,1.23,1.50,0.01,0.19,-0.07,1721201457588
3.60,1.76,7.04,-0.23,0.49,-0.25,1721201457598
3.99,1.32,11.91,-0.19,0.22,-0.65,1721201457608
-1.00,-0.60,8.78,-0.11,0.13,-0.92,1721201457618
-5.60,0.69,6.93,-0.09,0.25,-0.69,1721201457628
-4.57,0.85,14.77,-0.20,0.50,-0.29,1721201457638
-1.00,-2.08,20.72,-0.22,0.24,-0.06,1721201457648
1.12,0.12,18.73,0.07,0.10,-0.12,1721201457658
2.88,1.54,2.34,0.05,0.21,-0.34,1721201457668
3.64,2.90,8.84,-0.17,0.53,-0.81,1721201457678
-0.96,1.36,10.68,-0.03,0.09,-0.83,1721201457688
-7.87,-6.31,5.76,-0.29,0.14,-0.59,1721201457698
-6.58,5.22,17.58,-0.03,0.49,-0.23,1721201457708
0.23,-2.80,13.12,-0.17,0.27,-0.04,1721201457718
-1.68,5.23,10.74,0.02,0.18,0.09,1721201457728
2.01,-2.29,1.92,0.00,0.42,-0.18,1721201457738
1.23,-2.32,12.23,-0.19,0.20,-0.42,1721201457748
-1.24,1.19,9.63,0.05,0.19,-0.49,1721201457758
-2.90,3.74,11.09,-0.04,0.40,-0.43,1721201457768
-4.18,1.78,11.28,0.08,0.06,-0.30,1721201457778
-3.63,1.75,10.50,0.06,0.40,-0.19,1721201457788
-4.20,-5.63,5.14,0.05,-0.11,-0.01,1721201457798
-1.97,7.32,15.22,0.10,0.60,0.04,1721201457808
2.76,-0.13,12.29,0.20,-0.09,-0.02,1721201457818
-2.77,-0.87,6.12,0.04,0.22,-0.01,1721201457828
2.07,1.14,9.37,0.13,0.51,-0.06,1721201457838
-1.79,-4.98,8.49,0.02,-0.19,0.05,1721201457848
-3.92,2.24,11.79,0.26,0.17,0.22,1721201457858
0.64,1.12,9.97,0.25,0.18,0.26,1721201457868
-1.01,-0.24,7.95,0.02,0.03,0.16,1721201457878
0.21,0.87,13.02,0.13,0.23,0.12,1721201457888
0.30,-0.87,7.78,0.11,-0.07,0.11,1721201457898
-2.03,-0.43,9.25,-0.03,0.02,0.07,1721201457908
-1.08,-2.15,10.51,0.11,0.02,0.14,1721201457918
-0.89,-2.09,9.84,-0.03,0.16,0.21,1721201457928
0.87,-1.48,11.73,-0.00,-0.01,0.25,1721201457938
-0.24,-1.48,12.40,-0.06,0.00,0.05,1721201457948
-0.37,0.44,12.73,0.13,-0.07,0.01,1721201457958
-0.84,0.62,6.04,0.04,0.10,0.03,1721201457968
-2.21,-1.49,7.89,-0.10,-0.12,0.14,1721201457978
-2.19,1.44,11.12,0.05,-0.00,0.21,1721201457988
1.48,3.52,13.76,0.06,0.17,0.18,1721201457998
-1.47,-0.29,6.70,-0.09,-0.33,0.09,1721201458008
-2.76,0.06,11.65,0.01,0.06,0.11,1721201458018
1.20,-0.78,11.36,0.08,-0.01,0.11,1721201458028
-0.30,-1.36,8.55,-0.02,-0.21,0.18,1721201458038
1.70,3.86,14.01,0.13,0.11,0.08,1721201458048
1.51,0.46,5.73,0.12,-0.27,-0.02,1721201458058
-1.98,3.34,11.29,-0.16,0.06,-0.10,1721201458068
-1.50,-0.69,10.49,0.01,-0.22,0.13,1721201458078
0.66,-0.29,12.17,-0.18,0.29,0.13,1721201458088
1.18,-0.62,10.35,-0.03,-0.41,0.13,1721201458098
-0.40,0.78,6.92,-0.11,0.01,-0.03,1721201458108
0.75,3.24,13.55,-0.05,-0.00,-0.15,1721201458118
-1.46,1.69,9.14,-0.00,-0.21,-0.02,1721201458128
-2.31,-2.31,8.82,-0.29,-0.00,0.01,1721201458138
-2.36,2.59,15.13,-0.03,-0.18,0.06,1721201458148
-1.46,1.46,5.82,-0.01,-0.16,0.19,1721201458158
-0.92,-0.40,7.27,-0.17,-0.10,0.23,1721201458168
1.57,-4.18,8.71,-0.19,-0.05,0.05,1721201458178
0.39,2.34,13.63,-0.10,-0.09,-0.07,1721201458188
-0.07,-3.33,9.74,-0.14,-0.25,-0.08,1721201458198
-3.37,2.55,9.16,-0.11,-0.17,0.04,1721201458208
-0.67,-4.78,7.57,-0.17,-0.07,0.20,1721201458218
-0.60,1.62,10.44,-0.14,-0.15,0.20,1721201458228
0.16,0.23,12.88,-0.18,-0.15,0.02,1721201458238
1.57,3.65,11.69,-0.01,-0.06,0.13,1721201458248
1.14,-3.65,4.21,-0.26,-0.16,0.18,1721201458258
0.23,-0.98,15.05,-0.27,0.02,0.08,1721201458268
0.21,-0.96,9.98,0.05,-0.22,-0.01,1721201458278
0.96,1.66,9.62,-0.16,0.06,-0.06,1721201458288
1.08,5.68,14.61,0.04,-0.18,0.09,1721201458298
2.12,2.35,8.43,0.07,-0.08,0.06,1721201458308
2.62,-3.97,7.78,-0.15,-0.05,-0.06,1721201458318
1.51,1.53,12.48,0.06,-0.01,-0.36,1721201458328
0.56,-0.98,9.79,0.17,-0.18,-0.21,1721201458338
-3.08,-3.84,3.18,0.02,-0.15,-0.00,1721201458348
-0.66,2.62,17.62,0.00,0.33,-0.02,1721201458358
1.67,3.88,14.00,0.30,-0.30,0.08,1721201458368
-0.30,-4.61,5.60,-0.01,-0.04,-0.06,1721201458378
1.56,-3.75,10.69,0.10,0.09,-0.09,1721201458388
2.05,3.33,13.27,0.19,0.13,-0.21,1721201458398
-1.34,1.01,5.34,0.28,-0.42,-0.01,1721201458408
1.65,-4.29,4.84,-0.09,0.41,-0.04,1721201458418
3.02,-1.44,17.93,-0.05,0.00,-0.08,1721201458428
-0.39,-0.21,12.92,0.10,-0.12,-0.31,1721201458438
-0.45,-1.58,8.39,0.21,0.03,-0.13,1721201458448
1.77,-1.19,12.27,0.02,0.37,0.03,1721201458458
0.01,3.41,11.77,0.22,-0.12,-0.03,1721201458468
1.75,0.31,8.29,0.15,0.30,-0.24,1721201458478
0.94,-0.92,8.44,0.07,-0.01,-0.19,1721201458488
0.57,3.59,12.08,0.10,0.32,-0.27,1721201458498
0.09,-3.55,11.14,0.02,0.01,-0.30,1721201458508
-1.93,1.32,11.94,0.26,0.19,-0.20,1721201458518
1.60,0.37,8.71,0.10,0.33,-0.15,1721201458528
-1.48,2.14,8.39,-0.01,-0.01,-0.31,1721201458538
-0.99,5.18,13.27,0.11,0.44,-0.48,1721201458548
-0.35,-1.64,7.58,-0.03,0.04,-0.27,1721201458558
-2.37,-3.03,9.64,-0.25,0.19,-0.12,1721201458568
-0.50,4.71,12.12,0.15,0.20,-0.25,1721201458578
1.89,-0.88,5.81,-0.11,0.28,-0.37,1721201458588
-0.57,0.65,12.76,-0.07,0.02,-0.37,1721201458598
-1.12,-1.79,7.70,0.07,0.17,-0.36,1721201458608
-0.68,0.43,11.03,-0.10,0.37,-0.32,1721201458618
-0.38,1.70,12.00,0.01,0.20,-0.35,1721201458628
-0.86,0.12,6.69,-0.08,0.19,-0.42,1721201458638
-1.67,-0.60,9.25,-0.10,0.29,-0.46,1721201458648
-0.79,2.43,10.19,0.02,0.24,-0.36,1721201458658
-1.06,-3.51,13.04,-0.34,0.27,-0.24,1721201458668
-3.01,0.97,14.86,-0.09,0.09,-0.23,1721201458678
-0.58,-1.59,7.81,-0.06,0.28,-0.28,1721201458688
-0.64,-1.33,6.98,-0.13,0.11,-0.24,1721201458698
0.89,1.22,13.63,-0.13,0.48,-0.28,1721201458708
-2.17,0.74,10.61,0.01,0.00,-0.24,1721201458718
-2.02,5.20,9.12,-0.07,0.39,-0.22,1721201458728
0.15,-0.87,8.90,-0.13,0.14,-0.11,1721201458738
-1.06,-0.78,14.23,-0.21,0.32,-0.12,1721201458748
-1.43,-0.41,9.06,0.08,-0.02,-0.11,1721201458758
-0.23,0.80,5.27,-0.09,0.35,-0.24,1721201458768
-0.56,2.14,13.83,-0.04,0.21,-0.19,1721201458778
-2.08,1.26,13.13,0.06,0.21,-0.22,1721201458788
-1.92,1.41,11.59,0.14,0.25,-0.08,1721201458798
-0.04,0.41,6.98,0.05,0.19,0.02,1721201458808
-1.22,3.36,12.46,0.08,0.22,0.01,1721201458818
-0.84,-0.21,5.76,0.26,0.06,-0.05,1721201458828
0.02,-3.27,7.95,-0.06,0.34,-0.08,1721201458838
-1.23,0.00,13.62,0.12,0.07,-0.04,1721201458848
-2.48,-1.41,10.44,0.06,0.29,-0.10,1721201458858
-0.73,0.95,13.75,0.10,0.16,-0.04,1721201458868
-0.66,-3.79,6.22,0.20,0.01,0.15,1721201458878
-0.75,-2.11,9.09,0.09,0.32,0.12,1721201458888
2.27,2.00,13.39,0.25,0.25,-0.04,1721201458898
-0.54,-2.77,8.00,0.08,0.02,-0.07,1721201458908
-3.97,0.15,10.22,0.22,0.10,-0.15,1721201458918
-1.36,-1.17,14.26,0.24,0.19,0.06,1721201458928
-1.81,6.83,12.79,0.32,0.04,0.24,1721201458938
0.04,5.68,8.74,0.26,0.13,0.12,1721201458948
-0.53,-3.53,9.61,-0.00,-0.03,-0.04,1721201458958
-2.66,-1.98,8.83,0.15,0.08,0.01,1721201458968
-0.46,-1.37,12.12,0.03,0.29,0.10,1721201458978
-2.25,5.37,12.92,0.29,-0.22,0.21,1721201458988
-0.54,3.49,6.17,0.31,0.13,0.26,1721201458998
2.17,-2.96,9.21,0.01,0.03,0.19,1721201459008
0.44,3.49,9.28,0.17,-0.02,0.03,1721201459018
1.95,2.24,12.31,-0.06,0.30,-0.10,1721201459028
-2.81,-0.45,10.84,0.04,-0.31,0.07,1721201459038
-3.00,-1.58,6.12,-0.00,0.22,0.30,1721201459048
1.17,0.60,12.41,-0.06,0.10,0.27,1721201459058
-0.67,3.51,7.28,0.05,-0.19,0.20,1721201459068
-0.79,2.20,5.90,-0.21,0.17,0.05,1721201459078
-2.03,-0.73,10.60,-0.09,-0.22,0.10,1721201459088
-2.66,-3.58,2.95,-0.13,0.03,0.18,1721201459098
-3.34,1.14,8.15,-0.17,0.01,0.11,1721201459108
-1.95,-0.49,5.23,-0.10,-0.09,0.36,1721201459118
-0.26,0.27,2.61,-0.21,0.05,0.49,1721201459128
2.53,-6.90,5.37,-0.56,-0.01,0.38,1721201459138
2.96,-6.67,31.11,-0.69,0.16,-0.14,1721201459148
1.05,6.12,32.52,0.21,-0.37,-0.35,1721201459158
-6.56,-0.64,-10.57,-0.41,0.20,0.18,1721201459173
-7.06,-5.38,-6.99,-0.80,-0.00,0.55,1721201459177
-1.98,-2.48,20.98,-0.36,0.32,0.65,1721201459187
3.66,-1.42,13.45,0.14,-0.25,0.36,1721201459197
3.93,2.14,2.43,-0.18,0.02,0.08,1721201459207
0.90,7.94,13.08,-0.27,-0.06,-0.15,1721201459217
2.72,-2.09,17.57,-0.29,-0.09,-0.09,1721201459227
-0.27,3.29,13.16,0.14,-0.14,0.08,1721201459237
0.46,-2.30,4.70,-0.08,0.17,0.11,1721201459247
-1.32,-0.07,12.44,-0.16,-0.12,0.01,1721201459257
-0.61,0.95,12.12,0.07,0.01,-0.07,1721201459267
1.81,1.05,11.39,0.15,0.10,0.08,1721201459277
1.32,2.44,11.45,0.17,0.10,0.02,1721201459287
-0.76,-1.84,7.86,0.24,-0.23,-0.09,1721201459297
0.73,0.47,13.87,0.06,0.39,-0.14,1721201459307
-0.10,5.79,14.35,0.40,-0.21,0.02,1721201459317
-0.22,-2.23,5.22,0.19,0.09,0.11,1721201459327
1.53,-1.92,9.51,0.11,0.07,0.00,1721201459337
1.64,-2.63,9.03,0.17,0.07,-0.11,1721201459347
0.08,3.01,13.75,0.19,0.19,-0.21,1721201459357
-1.80,2.07,6.86,0.35,-0.20,0.08,1721201459367
0.00,-3.04,6.62,-0.04,0.28,0.22,1721201459377
1.91,2.04,14.16,0.18,0.07,0.09,1721201459387
2.15,-4.72,7.98,0.04,0.14,-0.09,1721201459397
-1.30,1.86,11.48,0.12,-0.02,0.00,1721201459407
0.46,-1.70,6.93,0.12,0.15,0.12,1721201459417
1.06,-0.31,9.72,0.15,0.12,0.10,1721201459427
1.69,0.00,8.57,0.10,0.22,-0.06,1721201459437
-0.20,-0.04,14.16,0.03,0.13,-0.17,1721201459447
-2.56,1.77,11.38,0.14,0.08,-0.12,1721201459457
-1.87,-1.86,7.94,0.05,0.07,0.05,1721201459467
-0.17,0.14,7.70,0.04,0.17,0.32,1721201459477
3.29,2.83,11.46,-0.03,0.35,0.06,1721201459487
2.58,0.39,11.40,-0.03,-0.01,-0.34,1721201459497
-3.13,-1.75,5.51,-0.06,0.01,-0.37,1721201459507
-3.94,0.31,9.97,-0.13,0.30,-0.11,1721201459517
-1.61,1.65,14.68,0.02,0.15,0.11,1721201459527
-1.65,2.59,6.44,0.03,-0.06,0.19,1721201459537
1.04,1.36,11.26,-0.22,0.26,0.03,1721201459547
0.70,1.05,8.67,0.00,-0.15,-0.15,1721201459557
-0.85,-2.03,5.16,-0.29,0.19,-0.15,1721201459567
-2.32,-2.19,15.39,-0.24,0.08,-0.16,1721201459577
-3.32,-3.59,13.26,-0.10,-0.11,0.03,1721201459587
-2.55,1.73,9.30,-0.09,0.14,0.18,1721201459597
1.59,0.17,8.78,-0.20,0.06,0.27,1721201459607
2.04,-1.60,10.07,-0.25,0.09,0.12,1721201459617
1.90,-1.57,9.60,-0.13,-0.03,-0.05,1721201459627
-0.94,-1.59,7.06,-0.09,0.01,-0.16,1721201459637
-0.97,-1.40,11.31,-0.31,0.13,-0.01,1721201459647
-0.85,-1.30,12.96,-0.29,-0.04,0.25,1721201459657
1.19,-0.06,11.01,-0.23,0.15,0.26,1721201459667
2.86,2.26,13.05,-0.16,0.09,0.09,1721201459677
1.82,-2.19,7.23,-0.02,-0.06,-0.11,1721201459687
0.76,0.84,10.09,-0.15,0.25,-0.18,1721201459697
-2.07,1.18,12.63,0.06,0.00,-0.09,1721201459707
-2.09,3.40,12.18,0.03,0.13,-0.01,1721201459717
-2.27,-0.14,12.89,0.04,0.08,0.05,1721201459727
-1.40,0.68,10.72,0.05,0.03,0.10,1721201459737
-1.14,-0.18,10.65,0.08,0.09,0.12,1721201459747
-0.69,-0.63,8.35,0.13,0.01,0.03,1721201459757
-2.01,3.89,8.32,0.14,0.10,-0.11,1721201459767
-1.59,-1.03,11.52,0.05,0.02,-0.05,1721201459777
-3.80,0.62,11.81,0.11,-0.05,0.01,1721201459787
-1.64,-2.44,9.38,0.07,0.05,0.13,1721201459797
-0.56,0.44,11.13,0.06,0.05,0.11,1721201459807
-0.30,0.43,8.33,0.15,-0.10,0.03,1721201459817
-1.53,-0.14,8.68,0.10,-0.01,-0.09,1721201459827
-2.73,0.77,11.73,0.09,-0.15,-0.10,1721201459837
-2.21,1.61,11.32,0.11,0.06,0.11,1721201459847
-1.93,-0.81,9.78,0.05,-0.11,0.19,1721201459857
-1.07,0.53,11.59,0.12,-0.11,0.12,1721201459867
-0.34,5.76,11.45,0.34,-0.16,0.15,1721201459877
-1.12,1.25,5.50,0.11,-0.24,0.19,1721201459887
-0.30,-0.53,6.85,0.04,-0.08,0.14,1721201459897
1.73,-2.86,11.07,-0.04,-0.10,0.16,1721201459907
0.54,3.19,13.07,0.14,-0.19,0.12,1721201459917
1.90,2.51,8.54,0.14,0.02,0.04,1721201459927
0.77,1.24,10.63,-0.03,-0.16,0.03,1721201459937
-1.11,1.55,10.35,0.05,-0.23,0.03,1721201459947
-1.44,2.00,8.55,0.02,-0.16,0.06,1721201459957
0.10,-1.09,10.60,-0.03,-0.21,0.30,1721201459967
2.65,-0.04,12.53,-0.01,-0.05,0.33,1721201459977
3.04,2.98,11.13,0.02,-0.21,-0.01,1721201459987
-0.14,0.42,7.40,-0.15,-0.14,-0.35,1721201459997
-6.06,-2.29,9.43,-0.21,-0.37,-0.21,1721201460007
-6.43,-2.18,10.62,-0.09,0.01,0.14,1721201460017
-4.70,-1.00,10.74,0.01,-0.20,0.57,1721201460027
-0.30,-2.39,7.87,-0.16,-0.14,0.68,1721201460037
4.18,-0.75,11.93,-0.21,-0.14,0.40,1721201460047
4.26,0.90,10.83,-0.10,-0.28,0.05,1721201460057
0.95,-2.13,5.38,-0.22,-0.34,-0.19,1721201460067
-2.23,0.77,10.24,-0.12,-0.18,-0.20,1721201460077
-1.81,-1.45,9.43,-0.07,-0.18,-0.01,1721201460087
-1.87,0.24,12.37,-0.11,-0.22,0.25,1721201460097
0.58,0.67,11.56,-0.06,-0.20,0.32,1721201460107
2.64,3.29,11.84,-0.08,-0.02,0.05,1721201460117
2.29,2.43,10.90,0.04,-0.29,-0.07,1721201460127
0.91,0.23,5.72,0.01,-0.19,-0.17,1721201460137
0.29,-5.22,9.72,-0.11,-0.09,-0.12,1721201460147
0.01,1.10,13.40,0.13,-0.17,-0.08,1721201460157
1.14,2.90,9.34,0.21,-0.12,-0.04,1721201460167
0.80,1.08,11.45,0.09,-0.20,-0.05,1721201460177
0.84,0.00,8.07,0.11,-0.06,-0.11,1721201460187
2.52,-3.01,11.93,0.04,0.09,-0.25,1721201460197
-1.31,-4.55,9.32,0.13,-0.42,-0.20,1721201460207
-0.85,0.65,10.39,0.20,0.16,-0.02,1721201460217
3.09,0.57,11.04,0.20,0.01,0.06,1721201460227
1.53,0.81,11.19,0.05,-0.04,-0.14,1721201460237
1.43,0.21,10.41,0.20,0.04,-0.31,1721201460247
0.07,-2.86,8.15,0.07,-0.05,-0.14,1721201460257
-2.48,0.21,13.38,0.10,0.03,-0.05,1721201460267
-0.30,0.77,9.46,0.33,0.01,0.02,1721201460277
2.82,-1.21,9.01,0.07,0.20,0.12,1721201460287
3.58,1.90,13.20,0.12,0.07,-0.03,1721201460297
2.67,0.52,9.72,0.13,0.11,-0.36,1721201460307
0.90,2.09,10.06,0.16,0.11,-0.36,1721201460317
-1.41,2.32,7.60,0.08,0.08,-0.18,1721201460327
-0.55,3.98,12.26,0.07,0.28,-0.16,1721201460337
0.72,0.85,6.18,0.04,0.01,-0.19,1721201460347
-1.35,-0.78,7.23,-0.23,0.12,-0.24,1721201460357
-2.04,-0.58,13.27,-0.04,0.15,-0.26,1721201460367
-2.15,3.44,12.91,0.12,0.17,-0.24,1721201460377
-1.70,2.53,7.74,0.02,0.00,0.01,1721201460387
-0.85,1.79,7.45,-0.11,0.09,0.08,1721201460397
2.63,-0.43,12.49,-0.07,0.21,-0.05,1721201460407
2.46,-0.67,7.34,0.03,-0.03,-0.24,1721201460417
0.62,-0.55,8.66,-0.11,0.15,-0.39,1721201460427
-1.43,0.30,10.27,-0.00,-0.01,-0.30,1721201460437
-2.47,-2.51,9.76,-0.21,0.13,-0.07,1721201460447
-0.69,-0.07,13.82,0.03,0.13,-0.06,1721201460457
0.75,-4.64,4.87,0.03,0.01,-0.15,1721201460467
0.04,-0.95,9.54,-0.11,0.24,-0.23,1721201460477
-0.17,0.40,12.97,0.09,0.10,-0.30,1721201460487
-4.70,0.64,5.91,0.08,-0.16,-0.23,1721201460497
-2.64,-0.69,11.03,-0.13,0.29,-0.10,1721201460507
-1.38,-2.20,12.10,0.00,-0.08,0.13,1721201460517
-1.11,-1.50,12.82,-0.05,0.19,-0.05,1721201460527
-2.01,-3.27,8.29,0.03,-0.19,-0.10,1721201460537
-1.61,0.53,9.49,0.02,0.26,-0.14,1721201460547
0.40,1.52,13.61,0.11,0.02,0.06,1721201460557
-0.74,-2.17,5.51,0.00,-0.20,0.02,1721201460567
-1.00,-1.98,9.40,-0.10,0.12,-0.05,1721201460577
-0.30,-0.19,14.05,0.02,0.09,-0.16,1721201460587
-1.84,0.65,9.52,0.04,-0.28,-0.04,1721201460597
-1.49,-0.48,9.89,-0.01,0.18,0.02,1721201460607
-0.58,2.27,10.96,0.06,-0.12,0.14,1721201460617
1.48,5.40,13.23,0.04,0.21,-0.04,1721201460627
-0.23,0.26,9.38,0.09,-0.38,-0.10,1721201460637
-2.60,2.12,6.70,0.09,0.09,-0.09,1721201460647
-0.91,4.02,10.60,0.16,-0.03,0.05,1721201460657
-1.55,3.19,8.31,0.15,-0.20,0.25,1721201460667
1.16,0.78,11.04,0.08,0.05,0.23,1721201460677
2.77,0.52,10.36,0.12,-0.08,-0.02,1721201460687
2.15,3.83,12.07,0.10,0.02,-0.16,1721201460697
-1.14,3.61,10.58,0.12,-0.19,-0.18,1721201460707
-3.66,3.25,8.66,0.12,-0.21,-0.04,1721201460717
-1.25,-1.46,4.15,0.07,-0.03,0.20,1721201460727
1.43,-2.28,10.74,-0.20,0.10,0.18,1721201460737
3.05,4.64,16.23,0.13,-0.10,-0.01,1721201460747
1.66,-1.06,3.97,0.05,-0.19,-0.18,1721201460757
-1.98,1.34,9.75,-0.13,0.08,-0.17,1721201460767
-0.55,0.09,13.83,-0.02,-0.05,-0.09,1721201460777
-0.96,-2.88,8.46,-0.11,-0.18,0.02,1721201460787
-0.71,-0.90,11.72,-0.13,0.06,0.13,1721201460797
1.38,0.36,10.05,-0.02,-0.02,-0.08,1721201460807
-0.56,0.65,8.71,-0.16,-0.14,-0.37,1721201460817
-1.78,-2.53,13.00,-0.25,-0.06,-0.30,1721201460827
-3.51,-2.53,11.19,-0.16,-0.12,-0.06,1721201460837
-3.19,0.45,9.04,-0.10,0.02,0.11,1721201460847
0.67,-2.65,12.91,-0.20,0.04,0.25,1721201460857
2.25,0.51,10.86,-0.05,-0.13,0.08,1721201460867
5.43,-0.29,12.55,-0.12,0.01,-0.21,1721201460877
1.08,2.84,11.20,0.00,-0.18,-0.46,1721201460887
-2.91,1.94,11.68,-0.09,0.10,-0.50,1721201460897
-5.51,-2.43,10.31,-0.05,-0.22,-0.25,1721201460907
-4.27,-1.58,9.36,0.02,0.01,0.20,1721201460917
1.96,2.50,11.15,0.08,0.14,0.38,1721201460927
3.31,2.09,10.72,0.01,-0.03,0.02,1721201460937
3.62,3.94,12.05,0.12,0.01,-0.28,1721201460947
3.35,-3.81,7.93,-0.05,0.02,-0.48,1721201460957
-1.87,-0.57,12.16,0.06,-0.04,-0.37,1721201460967
-2.32,1.68,9.15,0.16,0.15,-0.17,1721201460977
-0.41,-1.00,10.50,0.01,0.08,-0.01,1721201460987
1.17,2.71,11.73,0.15,0.04,-0.03,1721201460997
3.02,0.69,9.59,0.13,0.17,-0.26,1721201461007
0.43,1.54,10.93,0.09,0.03,-0.42,1721201461017
-2.56,-0.57,9.46,0.07,0.10,-0.38,1721201461027
-2.56,1.03,11.17,0.15,0.19,-0.14,1721201461037
-0.27,1.81,8.00,0.17,0.14,-0.01,1721201461047
1.41,-2.42,9.72,-0.05,0.20,-0.08,1721201461057
-0.07,3.61,13.12,0.18,0.04,-0.30,1721201461067
0.06,-0.38,6.08,0.07,0.21,-0.28,1721201461077
-1.35,0.04,13.58,0.01,0.16,-0.17,1721201461087
0.01,2.21,10.06,0.26,0.06,0.05,1721201461097
1.23,2.27,4.39,0.02,0.25,-0.11,1721201461107
1.83,0.39,11.18,-0.07,0.15,-0.37,1721201461117
0.11,-0.45,13.98,0.04,0.19,-0.33,1721201461127
-2.72,0.89,10.97,0.11,0.16,-0.19,1721201461137
-2.09,3.37,5.76,0.12,0.19,0.03,1721201461147
1.73,3.45,9.13,-0.02,0.37,-0.02,1721201461157
2.81,0.86,9.96,0.03,0.13,-0.14,1721201461167
-0.25,-5.02,6.79,-0.02,0.15,-0.59,1721201461182
-7.91,12.37,14.91,0.07,0.18,-0.72,1721201461186
-8.01,-6.75,9.29,-0.19,-0.18,0.20,1721201461196
-3.50,-1.79,16.79,0.00,0.32,1.04,1721201461206
10.56,1.61,5.25,0.49,0.48,0.66,1721201461216
10.60,-0.27,-0.01,-0.22,0.07,-0.27,1721201461226
0.69,1.92,13.14,-0.09,0.02,-1.21,1721201461236
-5.57,-1.47,13.15,0.04,-0.05,-1.20,1721201461246
-13.71,-1.43,9.58,-0.02,0.03,-0.18,1721201461256
-11.18,-1.85,12.35,0.04,0.15,0.68,1721201461266
-1.57,0.29,10.86,0.09,0.31,0.91,1721201461276
7.08,0.90,10.63,0.04,0.20,0.69,1721201461286
9.84,1.39,10.54,0.00,0.16,-0.14,1721201461296
5.36,-1.02,8.20,0.03,-0.07,-0.71,1721201461306
-3.11,-2.20,8.18,-0.13,0.07,-0.70,1721201461316
-6.97,2.29,14.05,0.02,0.09,-0.26,1721201461326
-4.57,-1.83,9.10,0.02,0.13,0.38,1721201461336
0.37,-1.13,11.12,-0.04,0.19,0.36,1721201461346
4.36,-0.54,10.03,0.06,0.12,0.05,1721201461356
1.31,0.35,7.62,-0.07,0.08,-0.38,1721201461366
-3.74,-0.24,11.78,-0.06,0.01,-0.35,1721201461376
-4.85,2.42,12.15,0.08,0.19,0.01,1721201461386
-2.65,-0.84,10.08,0.06,-0.02,0.37,1721201461396
0.77,-1.70,10.00,0.02,0.12,0.34,1721201461406
3.00,2.36,11.79,0.14,0.08,0.08,1721201461416
1.49,3.42,8.43,0.14,0.02,-0.18,1721201461426
-0.80,0.83,10.34,0.01,0.06,-0.25,1721201461436
-2.38,-1.36,10.30,0.12,-0.09,-0.03,1721201461446
-1.62,-1.92,5.71,0.09,0.15,0.10,1721201461456
-0.10,0.96,9.73,-0.01,0.09,0.05,1721201461466
0.24,4.70,12.70,0.16,0.05,-0.09,1721201461476
-0.55,1.36,5.96,0.18,-0.07,-0.22,1721201461486
-2.32,-1.93,9.62,-0.10,0.08,-0.17,1721201461496
-1.85,-0.23,15.02,0.04,0.00,-0.04,1721201461506
-1.87,1.32,10.87,0.10,0.01,-0.03,1721201461516
-0.76,2.69,9.14,0.15,0.04,0.07,1721201461526
1.62,1.66,8.62,0.13,0.11,0.08,1721201461536
1.32,0.50,8.99,0.04,-0.06,-0.04,1721201461546
-0.40,1.54,9.38,0.03,0.02,-0.20,1721201461556
-0.61,1.00,11.65,-0.00,0.08,-0.16,1721201461566
-1.91,-0.12,9.57,0.05,-0.03,0.00,1721201461576
-1.26,0.49,9.97,-0.01,0.07,0.06,1721201461586
-1.06,2.17,9.39,0.05,-0.05,0.06,1721201461596
-0.11,1.53,8.48,-0.11,0.07,0.10,1721201461606
-0.14,1.16,12.38,-0.09,-0.06,0.04,1721201461616
0.05,2.72,12.18,-0.05,0.02,0.09,1721201461626
0.33,0.45,9.23,-0.11,-0.08,0.08,1721201461636
-0.67,-1.47,7.32,-0.17,-0.03,0.03,1721201461646
-0.11,-4.31,8.58,-0.31,0.12,-0.08,1721201461656
-1.76,-0.27,12.97,-0.13,-0.13,-0.05,1721201461666
-1.82,-2.28,8.89,-0.13,0.00,0.10,1721201461676
-0.91,0.81,12.84,-0.06,-0.00,0.19,1721201461686
-0.05,1.98,10.07,-0.10,-0.13,0.16,1721201461696
0.35,0.00,8.36,-0.26,0.01,0.05,1721201461706
-0.07,-2.31,11.35,-0.31,-0.02,-0.05,1721201461716
-0.91,-2.98,11.99,-0.18,-0.03,0.06,1721201461726
-0.40,-2.07,4.46,-0.12,-0.05,0.15,1721201461736
1.03,-2.17,10.09,-0.32,0.09,0.14,1721201461746
0.58,0.38,16.28,-0.23,-0.10,-0.05,1721201461756
-0.49,5.64,11.53,-0.03,-0.17,-0.16,1721201461766
-1.01,-2.67,4.20,-0.19,-0.07,0.04,1721201461776
-1.88,-3.76,13.99,-0.36,0.17,0.05,1721201461786
-2.45,-0.66,15.01,-0.12,-0.21,0.02,1721201461796
-1.19,2.19,9.05,-0.01,0.00,0.14,1721201461806
2.32,2.97,16.44,-0.09,0.12,0.16,1721201461816
1.18,3.62,17.66,0.01,-0.21,0.15,1721201461826
-0.58,-0.34,4.43,0.23,-0.07,-0.02,1721201461836
1.21,0.12,3.77,0.04,0.07,-0.08,1721201461846
0.05,0.90,9.31,0.33,-0.19,0.03,1721201461856
1.30,7.16,10.34,0.40,0.14,-0.10,1721201461866
2.11,9.94,15.35,0.24,-0.05,0.02,1721201461876
0.37,-6.46,11.00,-0.16,-0.13,-0.12,1721201461886
0.01,-9.83,12.43,-0.15,0.09,-0.33,1721201461896
-2.90,0.54,9.64,0.34,-0.26,-0.03,1721201461906
0.86,-1.38,0.92,0.32,0.26,0.27,1721201461916
1.57,2.41,11.37,0.33,0.16,0.08,1721201461926
3.44,0.42,11.98,0.23,-0.04,-0.21,1721201461936
0.90,0.09,14.53,0.01,0.03,-0.42,1721201461946
-2.91,2.45,13.28,0.16,-0.13,-0.30,1721201461956
-0.90,2.04,9.20,0.26,0.25,0.09,1721201461966
0.95,-1.18,2.95,0.22,-0.00,0.24,1721201461976
2.59,-9.11,2.22,-0.11,0.27,-0.02,1721201461986
3.48,-1.55,16.29,-0.01,0.35,-0.43,1721201461996
0.29,4.01,15.16,0.34,-0.03,-0.46,1721201462006
-2.54,3.08,7.14,0.22,0.11,-0.22,1721201462016
-2.82,4.28,8.32,0.12,0.26,-0.09,1721201462026
0.75,-2.46,4.73,-0.03,0.25,-0.21,1721201462036
-0.25,-5.93,7.63,-0.48,0.21,-0.29,1721201462046
-2.74,-4.36,32.02,-0.43,0.26,-0.37,1721201462056
-2.49,11.18,26.12,0.62,0.03,-0.32,1721201462066
-0.17,3.39,-9.42,0.48,0.07,0.02,1721201462076
0.85,1.89,5.31,-0.50,0.51,0.03,1721201462086
1.86,7.03,13.37,0.19,0.10,-0.42,1721201462096
-0.07,0.82,-2.94,0.22,-0.27,-0.51,1721201462106
-6.17,-3.16,2.74,-0.33,0.23,-0.13,1721201462116
-3.44,0.46,18.91,-0.04,0.31,0.23,1721201462126
2.71,-0.15,11.37,-0.04,0.16,0.29,1721201462136
4.43,6.11,16.48,-0.13,0.20,-0.04,1721201462146
2.64,-0.12,8.82,0.02,-0.11,-0.48,1721201462156
-3.11,-7.26,0.02,-0.20,0.05,-0.48,1721201462166
-5.07,-3.77,3.04,-0.21,0.30,-0.20,1721201462176
-3.24,-0.33,13.92,-0.30,0.25,0.03,1721201462186
-1.24,0.87,18.55,-0.07,-0.05,0.12,1721201462196
-0.55,-1.32,11.49,0.01,0.14,0.08,1721201462206
1.08,-2.52,8.41,-0.32,0.26,0.01,1721201462216
1.18,4.29,9.62,-0.10,0.04,0.13,1721201462226
3.51,-0.73,5.32,-0.26,0.17,-0.04,1721201462236
1.94,-3.79,16.03,-0.41,0.20,-0.34,1721201462246
-3.18,-1.83,14.92,-0.11,-0.02,-0.41,1721201462256
-4.92,-0.91,6.76,-0.13,0.11,-0.01,1721201462266
-2.27,10.03,14.97,-0.18,0.41,0.18,1721201462276
0.48,8.51,12.16,0.01,-0.06,0.08,1721201462286
-0.80,-9.71,3.12,-0.21,0.07,-0.01,1721201462296
-1.59,-9.68,9.40,-0.31,0.08,-0.00,1721201462306
0.37,8.75,19.43,0.09,0.24,-0.06,1721201462316
0.31,1.06,18.47,0.12,0.13,-0.08,1721201462326
-7.11,-1.83,4.67,0.13,-0.38,-0.14,1721201462336
-5.09,11.10,10.77,0.40,0.51,0.14,1721201462346
3.57,-2.44,7.60,0.12,-0.13,0.44,1721201462356
2.28,-0.70,7.61,0.03,0.18,0.29,1721201462366
2.69,6.07,13.50,0.33,0.19,-0.13,1721201462376
-1.71,-1.45,8.70,0.01,-0.11,-0.33,1721201462386
-5.26,-3.68,11.68,0.01,0.02,-0.04,1721201462396
-1.86,-4.38,12.66,0.06,0.07,0.28,1721201462406
0.17,0.72,14.82,0.10,0.10,0.29,1721201462416
0.34,6.08,5.98,0.43,-0.16,0.10,1721201462426
-1.14,-6.86,-5.61,-0.10,-0.09,0.10,1721201462436
-2.10,-6.22,21.89,-0.40,0.58,-0.22,1721201462446
-1.68,-0.31,30.18,-0.03,-0.45,-0.23,1721201462456
-4.63,6.25,10.67,0.32,0.02,0.18,1721201462466
1.25,2.26,4.60,0.22,0.05,0.49,1721201462476
0.27,-0.44,2.61,0.07,-0.28,0.41,1721201462486
1.80,0.90,7.52,0.00,0.13,0.09,1721201462496
0.67,6.14,6.82,0.28,-0.30,-0.11,1721201462506
-0.55,0.91,2.37,-0.06,0.04,-0.02,1721201462516
-1.62,-1.99,14.75,-0.21,-0.04,0.06,1721201462526
-2.48,-0.06,11.27,0.12,-0.27,0.10,1721201462536
2.31,2.41,8.34,-0.07,0.28,0.16,1721201462546
3.65,4.28,19.58,-0.11,-0.07,-0.06,1721201462556
-0.33,1.87,12.39,0.05,-0.36,-0.16,1721201462566
-3.59,0.23,11.04,-0.08,0.02,-0.18,1721201462576
-4.84,4.26,7.98,0.24,-0.37,0.10,1721201462586
-4.02,-1.02,-2.40,-0.11,-0.07,0.38,1721201462596
0.14,0.59,13.99,-0.14,0.09,0.49,1721201462606
4.35,-1.20,13.45,0.04,-0.20,0.21,1721201462616
2.57,0.29,11.67,-0.15,-0.11,-0.18,1721201462626
-0.95,2.70,11.50,-0.04,-0.23,-0.27,1721201462636
-3.51,-0.84,8.40,-0.18,-0.11,0.02,1721201462646
-2.66,-1.06,9.75,-0.08,-0.16,0.36,1721201462656
1.12,-5.22,6.26,-0.12,-0.08,0.42,1721201462666
2.18,0.35,12.72,-0.13,-0.05,0.11,1721201462676
3.80,0.10,12.11,-0.09,-0.19,-0.05,1721201462686
-1.56,1.81,11.98,-0.26,-0.16,-0.21,1721201462696
-3.17,0.88,11.79,-0.11,-0.23,-0.15,1721201462706
-2.34,-5.47,5.92,-0.17,-0.19,0.20,1721201462716
-1.28,-4.30,9.95,-0.31,-0.03,0.28,1721201462726
0.99,-1.80,11.97,-0.18,-0.08,0.17,1721201462736
1.48,2.49,10.99,-0.11,-0.06,0.03,1721201462746
1.99,2.36,9.02,-0.06,-0.12,-0.03,1721201462756
1.98,2.49,11.16,-0.18,-0.02,-0.10,1721201462766
1.18,2.05,15.01,-0.19,-0.09,-0.17,1721201462776
-0.40,-0.56,10.84,-0.07,-0.15,-0.19,1721201462786
-0.85,-0.91,7.55,-0.04,-0.08,-0.09,1721201462796
0.69,-0.58,9.47,0.05,-0.03,0.02,1721201462806
1.06,1.97,11.28,0.16,-0.05,-0.00,1721201462816
0.74,3.35,11.20,0.13,-0.03,-0.16,1721201462826
-0.27,0.89,10.65,0.09,-0.16,-0.23,1721201462836
-0.45,-3.67,9.16,0.03,-0.02,-0.14,1721201462846
-0.61,-1.52,13.22,0.20,-0.03,-0.02,1721201462856
-0.34,0.41,8.05,0.28,-0.06,0.07,1721201462866
0.03,2.47,10.54,0.17,0.02,-0.06,1721201462876
2.00,0.10,14.06,0.12,0.04,-0.24,1721201462886
-0.39,1.92,11.42,0.24,-0.12,-0.21,1721201462896
-0.45,-1.64,6.17,0.20,-0.01,-0.02,1721201462906
-0.44,0.61,11.39,0.12,0.13,-0.01,1721201462916
0.45,0.51,10.61,0.25,-0.09,-0.07,1721201462926
1.10,-3.91,7.96,0.08,0.07,-0.07,1721201462936
-0.04,0.45,14.47,0.16,0.07,-0.20,1721201462946
-0.17,2.58,6.45,0.30,-0.09,-0.05,1721201462956
0.10,-0.40,7.97,0.09,0.18,-0.03,1721201462966
-0.39,-0.94,11.15,0.20,-0.07,-0.16,1721201462976
-0.88,-0.51,10.23,0.20,0.11,-0.14,1721201462986
-1.64,2.18,9.32,0.21,0.01,-0.05,1721201462996
-1.39,2.38,8.91,0.16,0.07,-0.01,1721201463006
0.40,-1.34,8.75,0.11,0.02,0.04,1721201463016
0.48,0.29,7.42,0.11,0.02,-0.04,1721201463026
1.66,0.72,9.57,-0.04,0.15,-0.10,1721201463036
0.17,-0.78,13.22,-0.13,-0.03,-0.24,1721201463046
-2.17,0.75,14.02,0.02,-0.08,-0.26,1721201463056
-1.91,1.09,7.81,0.05,0.06,-0.09,1721201463066
-0.20,0.88,7.61,-0.10,0.15,-0.06,1721201463076
-0.21,-0.68,11.31,-0.21,-0.04,-0.05,1721201463086
-0.25,-0.84,12.10,-0.10,-0.00,-0.12,1721201463096
-0.13,1.84,9.14,-0.04,-0.06,-0.12,1721201463106
1.06,-1.83,5.60,-0.06,-0.04,-0.00,1721201463116
2.33,0.53,9.06,-0.18,0.21,-0.17,1721201463126
-1.67,-1.30,6.30,-0.04,0.08,0.15,1721201463676
-1.58,-6.46,3.13,-0.15,-0.20,0.18,1721201463681
1.67,-3.44,11.21,-0.23,0.27,0.08,1721201463690
1.46,-0.39,17.16,-0.12,-0.20,-0.06,1721201463700
-1.01,3.76,11.13,-0.06,-0.09,-0.12,1721201463709
-0.35,0.11,5.07,-0.19,0.06,-0.07,1721201463719
-2.05,-2.56,4.35,-0.24,-0.09,0.01,1721201463728
-0.09,-6.44,10.42,-0.31,0.08,-0.00,1721201463738
0.93,-2.73,17.35,-0.20,-0.02,0.03,1721201463747
1.31,2.30,15.76,-0.18,-0.02,-0.04,1721201463757
1.28,2.35,15.56,-0.21,-0.02,-0.06,1721201463767
0.37,5.15,12.13,0.01,-0.07,-0.06,1721201463777
1.38,-1.43,4.47,0.01,0.03,-0.03,1721201463786
1.33,-1.31,7.28,-0.04,0.15,-0.25,1721201463796
-0.30,0.74,13.16,0.09,-0.05,-0.25,1721201463805
-0.94,1.74,13.71,0.11,0.07,-0.20,1721201463815
-1.83,1.98,11.82,0.12,-0.01,-0.10,1721201463825
-1.11,1.87,10.84,0.19,0.13,-0.05,1721201463835
0.73,0.20,9.75,0.26,0.01,-0.02,1721201463844
2.55,0.82,10.01,0.31,0.12,-0.02,1721201463854
2.20,1.66,10.17,0.31,0.10,-0.15,1721201463863
0.74,2.01,9.89,0.25,0.13,-0.33,1721201463873
-0.34,0.12,9.80,0.18,0.11,-0.37,1721201463882
-0.43,-2.40,11.85,0.19,0.17,-0.20,1721201463892
-1.79,0.89,7.62,0.36,0.01,-0.04,1721201463902
0.80,-0.69,7.37,0.22,0.29,-0.00,1721201463912
1.93,2.03,13.48,0.20,0.14,-0.19,1721201463922
-0.06,-1.94,8.10,0.17,0.08,-0.29,1721201463932
-3.19,-0.32,8.62,0.17,0.21,-0.35,1721201463942
-2.95,-1.84,9.48,0.16,0.15,-0.12,1721201463952
-2.63,0.87,11.81,0.15,0.18,0.05,1721201463962
0.07,2.75,8.35,0.25,0.17,0.11,1721201463972
0.97,-0.49,6.40,-0.08,0.21,0.02,1721201463982
0.60,1.47,14.16,-0.09,0.23,-0.14,1721201463992
0.53,-0.04,9.64,0.01,0.11,-0.22,1721201464002
-2.09,-2.25,8.79,-0.15,0.04,-0.01,1721201464012
-1.25,2.27,13.91,0.01,0.24,-0.02,1721201464022
-0.01,0.85,5.14,0.07,-0.00,-0.12,1721201464032
-0.42,-1.06,7.64,-0.28,0.21,-0.07,1721201464042
-0.24,-0.08,15.87,-0.07,0.10,-0.12,1721201464052
-1.27,1.43,12.23,0.02,0.05,-0.08,1721201464062
-1.77,0.58,6.57,-0.00,0.03,0.05,1721201464072
-0.14,-1.28,4.58,-0.24,0.16,0.09,1721201464082
1.10,-1.38,11.51,-0.21,0.13,-0.05,1721201464092
1.30,-2.48,12.77,-0.20,0.02,-0.16,1721201464102
-0.85,0.00,12.38,-0.12,0.07,-0.23,1721201464112
-1.71,-2.18,7.03,-0.20,-0.01,-0.06,1721201464121
-1.74,-2.03,13.25,-0.43,0.22,0.08,1721201464131
0.70,0.28,14.48,-0.15,0.02,0.14,1721201464141
1.56,0.36,11.24,-0.23,0.08,-0.02,1721201464151
-0.97,0.28,11.51,-0.28,-0.06,-0.10,1721201464161
-0.54,-0.79,10.03,-0.20,0.06,0.03,1721201464171
0.23,0.53,9.76,-0.12,0.06,0.17,1721201464181
0.97,0.65,8.58,-0.06,0.07,0.01,1721201464191
1.26,0.16,10.15,-0.08,0.07,-0.13,1721201464201
-0.63,3.82,11.18,0.08,0.02,-0.18,1721201464211
-1.30,3.40,11.55,0.08,0.05,-0.07,1721201464221
-1.55,1.49,11.65,0.06,0.06,-0.03,1721201464231
-1.32,-1.76,8.32,0.12,-0.04,0.01,1721201464241
-0.40,-0.61,9.07,0.12,0.15,0.01,1721201464251
-0.74,1.75,11.14,0.22,0.01,-0.00,1721201464261
-0.44,2.67,10.24,0.20,0.09,-0.02,1721201464271
0.51,-1.73,11.52,0.03,0.10,-0.14,1721201464281
-1.07,-1.75,12.59,0.09,0.04,-0.16,1721201464291
-2.39,0.19,8.12,0.21,0.03,0.02,1721201464301
-1.29,0.45,9.12,0.15,0.10,0.02,1721201464311
0.25,2.75,11.76,0.29,-0.02,0.05,1721201464321
-0.31,-1.04,7.79,0.13,0.02,-0.03,1721201464331
0.19,1.88,12.13,0.10,0.07,-0.09,1721201464341
-0.32,1.54,11.32,0.22,-0.06,-0.08,1721201464351
-1.52,-1.20,6.75,0.11,-0.03,-0.06,1721201464361
-1.68,0.89,10.80,0.12,0.05,-0.09,1721201464371
-1.66,-0.19,6.43,0.18,-0.13,-0.01,1721201464381
-0.93,-0.15,7.89,0.05,0.09,0.04,1721201464391
-0.18,0.37,12.96,0.06,-0.02,-0.07,1721201464401
-1.58,0.18,11.99,0.12,-0.13,-0.09,1721201464411
-0.82,1.54,8.09,0.19,-0.05,0.06,1721201464421
-0.01,-1.16,7.50,0.03,0.04,0.08,1721201464431
1.07,0.12,13.58,0.03,-0.03,0.03,1721201464441
1.03,1.29,9.38,0.17,-0.12,-0.10,1721201464451
0.69,1.09,8.16,0.06,0.01,-0.15,1721201464461
-0.75,2.46,10.96,0.06,-0.04,-0.13,1721201464471
-1.29,0.17,9.12,-0.01,-0.05,-0.10,1721201464481
-2.31,0.71,8.38,0.04,-0.10,0.04,1721201464491
-0.56,1.87,8.76,-0.04,0.12,0.01,1721201464501
-0.23,-0.49,13.58,-0.05,-0.12,0.08,1721201464511
-0.20,0.51,10.83,-0.00,-0.05,0.00,1721201464521
0.37,2.17,10.59,-0.00,-0.03,-0.01,1721201464531
0.06,-0.63,7.18,-0.10,0.01,-0.02,1721201464541
-1.54,4.58,13.11,-0.08,-0.06,-0.04,1721201464551
-0.42,-3.40,6.24,-0.01,-0.22,0.05,1721201464561
0.10,-6.31,10.06,-0.32,0.20,0.06,1721201464571
-2.20,1.41,11.90,-0.14,-0.21,-0.07,1721201464581
-2.04,-1.56,7.06,-0.26,0.05,-0.04,1721201464591
-1.82,1.53,16.36,-0.17,-0.01,0.06,1721201464601
0.48,-2.94,4.99,-0.04,-0.21,0.20,1721201464611
1.25,1.46,8.31,-0.31,0.23,0.01,1721201464621
0.23,1.90,16.19,-0.30,-0.17,-0.19,1721201464631
-3.01,1.20,11.87,-0.18,-0.15,-0.14,1721201464641
-2.58,-5.16,4.94,-0.28,-0.10,0.11,1721201464651
-0.56,-4.82,10.01,-0.33,0.04,0.27,1721201464661
1.20,0.33,11.65,-0.06,-0.03,0.11,1721201464670
2.31,-3.97,6.99,-0.00,-0.19,-0.01,1721201464680
0.23,1.07,9.55,0.01,0.06,-0.13,1721201464690
0.65,4.14,12.69,0.19,-0.09,-0.14,1721201464700
-0.40,6.99,10.21,0.29,-0.08,-0.03,1721201464710
1.92,0.89,18.20,-0.21,0.16,-0.15,1721201464720
0.04,0.19,21.77,-0.04,-0.32,-0.07,1721201464730
-0.36,1.24,3.08,0.49,0.03,-0.03,1721201464740
1.47,-2.26,1.00,0.17,0.05,0.00,1721201464750
3.17,6.12,8.08,0.20,0.12,0.02,1721201464760
1.52,2.72,13.16,0.48,-0.04,-0.09,1721201464770
1.28,-3.40,8.52,0.07,0.09,-0.19,1721201464780
-1.65,5.68,15.25,0.21,-0.04,-0.30,1721201464790
-0.16,-5.87,9.09,0.20,-0.08,-0.07,1721201464800
-1.13,3.14,13.47,0.19,0.23,-0.04,1721201464810
1.07,1.24,11.52,0.40,-0.06,-0.06,1721201464820
0.20,-0.69,6.43,0.19,0.09,-0.12,1721201464830
1.64,4.13,12.31,0.33,0.26,-0.28,1721201464840
1.10,0.28,5.58,0.41,-0.06,-0.14,1721201464850
-1.58,5.50,-2.68,0.42,0.14,-0.03,1721201464860
2.82,-0.76,2.86,0.13,0.34,-0.12,1721201464870
1.51,-1.44,13.57,0.03,-0.01,-0.20,1721201464880
-2.17,0.34,12.79,0.05,0.03,-0.39,1721201464890
-5.14,-5.34,10.56,0.05,-0.13,-0.18,1721201464900
-3.73,-1.38,9.86,0.11,0.31,0.16,1721201464910
0.53,2.74,7.65,0.17,0.16,0.25,1721201464920
1.98,2.40,8.54,-0.19,0.14,0.03,1721201464930
2.24,4.55,15.75,-0.14,0.17,-0.25,1721201464940
1.08,-7.31,10.63,-0.37,0.02,-0.36,1721201464950
-3.17,-1.53,16.91,-0.31,0.03,-0.09,1721201464960
-1.36,2.85,7.46,-0.05,0.10,0.03,1721201464970
1.33,-2.13,4.64,-0.32,0.22,-0.07,1721201464980
-0.89,-3.78,11.14,-0.41,0.02,-0.28,1721201464990
-2.43,3.06,15.79,0.01,-0.00,-0.14,1721201465000
-2.48,3.12,5.35,0.00,-0.05,0.11,1721201465010
-2.26,1.06,8.49,-0.29,-0.01,0.30,1721201465020
1.11,1.92,9.28,-0.07,0.06,0.16,1721201465030
3.69,-6.48,6.41,-0.32,0.01,0.04,1721201465040
2.89,0.05,14.44,-0.21,0.08,-0.17,1721201465050
-0.19,0.98,9.73,-0.12,-0.09,-0.40,1721201465060
-4.03,2.99,13.61,-0.33,0.09,-0.46,1721201465070
-4.00,-0.10,8.84,-0.08,-0.12,0.01,1721201465080
0.57,-3.84,7.33,-0.39,0.32,0.42,1721201465090
4.99,-5.17,22.07,-0.53,0.13,0.12,1721201465100
2.38,11.44,25.03,0.01,-0.09,-0.26,1721201465110
0.59,1.49,4.73,0.15,-0.17,-0.41,1721201465120
-3.75,-5.86,5.20,-0.37,0.15,-0.20,1721201465130
-1.89,2.33,19.77,0.09,0.03,0.07,1721201465140
0.92,3.84,7.69,0.50,-0.01,0.07,1721201465150
-1.36,2.04,-0.33,0.27,0.03,-0.21,1721201465160
1.79,1.40,9.64,0.21,0.31,-0.25,1721201465170
0.62,-1.81,9.16,0.21,0.00,-0.19,1721201465180
-2.61,-0.21,8.80,0.18,0.11,-0.28,1721201465190
-2.85,0.70,12.00,0.24,0.08,-0.22,1721201465200
-2.51,-0.76,7.12,0.26,-0.10,0.04,1721201465210
-1.20,-6.72,6.50,0.05,0.20,0.07,1721201465220
0.89,-6.72,15.44,0.13,0.23,-0.13,1721201465230
-1.29,-0.02,8.15,0.46,-0.12,-0.35,1721201465240
-2.48,5.98,10.67,0.23,0.16,-0.33,1721201465250
-2.29,17.01,20.83,0.35,0.05,-0.05,1721201465260
-1.09,-5.95,5.43,-0.07,-0.09,0.08,1721201465270
-2.16,-16.73,6.93,-0.42,0.17,-0.03,1721201465280
-0.62,8.45,17.72,0.28,0.15,-0.07,1721201465290
1.25,4.86,2.52,0.32,-0.18,-0.05,1721201465300
-1.20,-2.20,4.74,-0.02,0.09,-0.13,1721201465310
-0.85,-1.10,11.64,0.20,0.07,-0.17,1721201465320
1.11,5.43,15.59,0.04,0.25,-0.21,1721201465330
-0.54,1.66,15.30,0.02,-0.19,-0.16,1721201465340
-4.71,2.10,3.61,0.28,-0.14,-0.06,1721201465350
-0.14,-5.10,3.89,0.11,0.22,0.13,1721201465360
0.82,0.83,9.44,0.14,-0.06,0.14,1721201465370
2.76,4.73,12.93,0.11,0.21,-0.18,1721201465380
-1.62,7.01,7.74,0.21,-0.28,-0.37,1721201465390
-4.01,-0.13,-6.33,0.09,-0.03,-0.09,1721201465400
-0.69,-4.25,2.72,-0.25,0.29,0.37,1721201465410
3.62,-12.43,7.66,-0.30,0.07,0.27,1721201465420
0.68,-10.40,40.66,-0.84,0.55,-0.36,1721201465430
-2.82,11.44,42.46,0.69,-0.66,-0.37,1721201465440
-6.29,-2.30,-17.31,0.47,-0.18,-0.03,1721201465450
-5.23,3.10,8.46,-0.79,0.35,0.49,1721201465460
-11.07,6.56,20.75,-0.00,-0.30,0.43,1721201465470
7.95,2.71,2.58,0.03,-0.02,0.00,1721201465480
-1.08,0.18,4.53,-0.15,-0.55,-0.16,1721201465490
-0.04,-0.06,12.73,-0.26,0.30,-0.18,1721201465500
-1.40,2.09,18.38,-0.11,-0.04,-0.02,1721201465510
-2.41,2.52,9.17,-0.04,-0.13,0.13,1721201465520
0.13,-3.63,4.47,-0.18,0.05,0.26,1721201465530
1.87,-1.22,12.51,-0.17,0.12,0.10,1721201465540
2.04,4.67,11.95,-0.07,-0.09,-0.06,1721201465550
-0.44,-1.22,8.26,-0.27,-0.11,-0.16,1721201465560
-3.56,-2.32,11.02,-0.20,-0.06,-0.10,1721201465570
-2.53,-3.24,9.37,-0.09,-0.03,0.09,1721201465580
-0.28,-1.18,11.27,-0.15,0.06,0.25,1721201465590
0.58,1.98,12.00,-0.04,-0.10,0.21,1721201465600
2.06,2.72,9.23,0.06,0.04,0.03,1721201465610
1.10,1.41,11.73,-0.02,-0.06,-0.18,1721201465620
-1.26,0.94,9.99,0.04,-0.19,-0.06,1721201465630
-1.12,1.73,7.78,0.09,0.08,-0.03,1721201465640
0.73,-4.90,10.79,-0.07,-0.05,0.03,1721201465650
-0.78,2.58,13.10,0.14,-0.06,-0.03,1721201465660
0.74,2.63,8.32,0.21,-0.08,-0.04,1721201465670
0.72,0.16,12.58,0.05,-0.04,-0.15,1721201465685
1.18,-2.29,11.47,0.06,-0.05,-0.12,1721201465689
-0.21,-2.94,11.62,0.07,-0.03,-0.15,1721201465699
-1.47,-0.32,8.21,0.11,-0.05,-0.03,1721201465709
0.71,-0.74,16.18,0.03,0.18,0.06,1721201465719
1.30,5.96,15.88,0.37,-0.06,0.05,1721201465729
1.67,2.26,1.78,0.22,-0.01,-0.01,1721201465739
2.26,-5.42,6.89,-0.16,0.16,-0.11,1721201465749
0.28,1.58,16.64,0.23,-0.01,-0.25,1721201465759
-0.66,0.77,4.90,0.26,-0.11,-0.08,1721201465769
0.28,3.04,8.35,0.10,0.25,0.08,1721201465779
2.19,-1.18,9.31,0.14,0.02,-0.07,1721201465789
0.51,-2.51,10.02,-0.05,0.16,-0.28,1721201465799
-1.96,3.85,16.48,0.24,0.03,-0.33,1721201465809
-1.90,-1.20,3.47,0.18,-0.02,0.01,1721201465819
-0.21,-2.76,8.84,-0.04,0.29,0.10,1721201465829
2.47,-0.30,15.19,0.14,0.10,-0.13,1721201465839
1.30,0.78,10.62,0.15,0.08,-0.29,1721201465849
-0.29,2.16,10.26,0.09,0.19,-0.31,1721201465859
-1.50,4.58,9.29,0.14,0.18,-0.23,1721201465869
-0.36,-2.04,8.09,-0.10,0.25,-0.19,1721201465879
-1.44,-1.37,16.35,-0.08,0.16,-0.19,1721201465889
-0.99,1.84,10.76,0.11,0.18,-0.16,1721201465899
-0.84,2.63,9.78,-0.11,0.16,-0.09,1721201465909
0.18,3.43,11.82,0.08,0.17,-0.16,1721201465919
3.06,-1.87,4.13,-0.09,0.22,-0.18,1721201465929
0.57,0.93,10.15,-0.17,0.12,-0.21,1721201465939
0.88,2.42,12.86,-0.03,0.31,-0.37,1721201465949
0.30,1.12,8.55,-0.07,0.15,-0.30,1721201465959
-2.60,0.23,6.74,-0.12,0.15,-0.24,1721201465969
-0.54,-4.35,8.99,-0.18,0.34,-0.12,1721201465979
1.09,-4.36,10.82,-0.08,0.28,-0.15,1721201465989
0.22,1.67,9.74,0.05,0.22,-0.22,1721201465999
-1.92,5.92,7.96,0.08,0.25,-0.31,1721201466009
-1.92,4.90,10.07,0.02,0.30,-0.23,1721201466019
-1.89,-5.11,7.86,-0.20,0.12,0.01,1721201466029
-1.40,-5.15,13.33,-0.25,0.41,-0.03,1721201466039
0.81,2.31,14.61,0.04,0.22,-0.13,1721201466049
-0.66,0.21,2.27,0.06,0.11,-0.27,1721201466059
-1.91,0.00,10.94,-0.18,0.48,-0.33,1721201466069
-2.66,1.94,13.92,0.15,0.08,-0.17,1721201466079
-3.08,-1.22,7.36,-0.10,0.28,0.00,1721201466089
-1.31,2.54,18.82,0.01,0.34,-0.02,1721201466099
-0.52,1.30,5.91,0.28,0.00,-0.07,1721201466109
-0.93,-1.74,8.57,-0.20,0.35,-0.14,1721201466119
-1.29,0.68,20.39,0.11,0.12,-0.18,1721201466129
-2.79,1.99,9.12,0.26,0.13,-0.16,1721201466139
-4.32,2.11,3.43,0.23,0.08,-0.06,1721201466149
-3.68,0.88,-0.21,0.21,0.13,0.12,1721201466159
-0.51,-3.23,7.75,-0.08,0.26,0.17,1721201466169
-0.47,-1.66,17.68,-0.02,-0.01,0.03,1721201466179
-1.54,5.23,14.10,0.24,0.13,-0.06,1721201466189
-2.21,-0.44,10.55,-0.06,0.01,0.06,1721201466199
-3.92,2.56,12.33,0.15,-0.10,0.20,1721201466209
-0.57,-1.62,6.82,0.15,0.09,0.32,1721201466219
0.19,-0.86,7.75,0.05,-0.00,0.21,1721201466229
0.99,0.76,11.19,0.02,-0.03,0.13,1721201466239
-1.25,1.82,12.53,0.03,-0.09,0.04,1721201466249
-3.31,-0.00,10.48,0.06,-0.14,0.16,1721201466259
-1.95,-1.79,9.05,0.06,-0.04,0.45,1721201466269
0.94,-0.72,9.01,0.05,-0.10,0.60,1721201466279
3.69,0.91,11.30,0.04,-0.03,0.38,1721201466289
3.84,1.89,12.34,0.09,-0.16,0.08,1721201466299
1.51,5.49,8.95,0.18,-0.15,-0.08,1721201466309
-0.80,0.56,7.65,-0.04,-0.11,0.08,1721201466319
-3.22,1.02,10.61,-0.01,-0.18,0.24,1721201466329
-0.34,-0.98,8.06,-0.08,-0.02,0.33,1721201466339
0.45,1.35,9.93,-0.06,-0.17,0.28,1721201466349
0.34,1.61,8.59,-0.04,-0.14,0.19,1721201466359
-0.04,1.04,12.96,-0.07,-0.11,0.13,1721201466369
-0.99,1.06,11.94,-0.04,-0.23,0.15,1721201466379
-1.53,0.78,8.62,-0.10,-0.21,0.22,1721201466389
-0.54,0.77,10.89,-0.07,-0.15,0.29,1721201466399
0.68,-0.46,9.07,-0.01,-0.21,0.35,1721201466409
1.20,1.70,8.99,-0.00,-0.17,0.25,1721201466419
3.27,1.30,8.62,-0.03,-0.12,0.09,1721201466429
2.27,-2.04,11.04,-0.20,-0.14,-0.08,1721201466439
-1.31,0.73,11.17,0.03,-0.32,-0.08,1721201466449
-0.82,-1.38,5.38,-0.07,-0.03,0.01,1721201466459
-0.94,1.90,11.28,-0.11,-0.12,0.08,1721201466469
0.48,-1.36,11.40,-0.14,-0.11,-0.00,1721201466479
-0.31,-2.71,9.18,-0.12,-0.16,-0.12,1721201466489
-2.72,1.04,8.88,-0.05,-0.20,-0.09,1721201466499
-1.46,3.26,11.11,-0.05,-0.07,0.07,1721201466509
0.93,-1.04,8.80,-0.06,-0.25,0.18,1721201466519
2.18,-2.24,10.04,-0.16,0.04,0.00,1721201466529
1.56,-2.19,12.47,-0.14,-0.17,-0.29,1721201466539
-0.85,1.81,12.11,-0.02,-0.12,-0.24,1721201466549
-1.17,1.84,9.54,0.11,-0.08,-0.01,1721201466559
0.27,-6.10,5.61,0.00,-0.06,0.02,1721201466569
0.84,-6.75,8.69,0.01,-0.05,-0.15,1721201466579
0.91,3.00,15.80,0.17,-0.02,-0.23,1721201466589
0.68,26.22,21.33,0.34,-0.10,-0.11,1721201466599
-0.05,16.99,5.96,0.32,-0.06,-0.00,1721201466609
2.16,-40.96,-7.48,-0.52,-0.03,-0.27,1721201466619
-3.42,0.94,26.27,-0.38,0.19,-0.58,1721201466629
-7.65,12.18,28.23,0.35,0.60,0.09,1721201466639
-2.33,-1.79,21.55,-0.07,0.29,0.21,1721201466649
0.85,5.69,11.50,0.13,-0.45,0.17,1721201466659
4.28,-1.88,3.94,-0.28,0.33,-0.26,1721201466669
0.20,-7.39,17.62,-0.50,-0.05,-0.71,1721201466679
-6.81,-0.05,14.46,0.02,-0.31,-0.20,1721201466689
-3.85,1.54,4.29,0.00,0.14,0.54,1721201466699
4.01,2.72,8.46,0.02,0.17,0.49,1721201466709
6.27,-0.28,8.67,-0.23,0.04,-0.20,1721201466719
0.10,0.44,13.43,-0.22,-0.18,-0.69,1721201466729
-4.32,2.33,-0.20,0.15,-0.15,-0.29,1721201466739
-1.97,1.58,-15.45,-0.13,0.17,0.33,1721201466749
7.96,-13.41,2.80,-1.07,0.03,0.28,1721201466759
1.72,-19.00,46.41,-0.63,0.96,-0.96,1721201466769
-3.80,18.07,65.05,0.76,-0.64,-0.86,1721201466779
-7.61,3.13,-17.60,0.45,-0.40,0.12,1721201466789
-3.56,-2.91,2.30,-0.98,0.62,0.40,1721201466799
2.08,-3.05,29.01,-0.17,0.09,-0.05,1721201466809
-1.26,0.03,15.74,0.47,-0.60,-0.21,1721201466819
-1.41,6.41,4.96,-0.03,0.08,-0.27,1721201466829
-4.18,6.69,15.24,0.21,0.09,-0.01,1721201466839
-0.39,2.64,8.81,0.30,-0.11,0.48,1721201466849
4.68,-1.37,5.62,0.23,0.15,0.47,1721201466859
7.03,-0.87,8.32,0.26,0.06,0.03,1721201466869
6.11,3.66,10.53,0.36,-0.00,-0.64,1721201466879
-0.54,3.16,11.61,0.31,-0.19,-0.83,1721201466889
-5.68,2.29,8.89,0.40,-0.07,-0.56,1721201466899
-6.75,-3.45,4.43,0.36,0.04,0.04,1721201466909
-2.95,-2.26,4.58,0.35,0.12,0.48,1721201466919
2.72,-1.30,9.42,0.31,0.20,0.27,1721201466929
4.69,7.24,15.23,0.30,0.07,-0.10,1721201466939
2.12,3.31,7.32,0.26,-0.13,-0.46,1721201466949
-0.20,2.34,15.07,-0.32,0.24,-0.48,1721201466959
-2.76,8.97,20.28,-0.00,-0.16,-0.17,1721201466969
-2.63,-9.16,-3.10,0.09,0.02,0.12,1721201466979
-0.54,-10.78,2.09,-0.22,0.26,0.11,1721201466989
2.47,2.77,18.11,0.13,0.01,-0.15,1721201466999
1.43,7.08,12.38,0.22,0.08,-0.56,1721201467009
-5.74,7.89,5.60,0.09,-0.25,-0.57,1721201467019
-5.80,-5.75,-1.67,-0.23,0.09,-0.17,1721201467029
-2.45,-10.42,10.43,-0.46,0.34,0.16,1721201467039
0.92,0.05,18.02,0.13,-0.06,0.17,1721201467049
1.87,0.81,1.05,-0.01,0.01,-0.10,1721201467059
0.38,-0.77,9.80,-0.41,0.25,-0.44,1721201467069
-2.74,-0.79,14.54,-0.06,-0.23,-0.36,1721201467079
-3.25,-4.20,1.54,-0.31,0.04,-0.06,1721201467089
-0.95,-1.27,11.84,-0.39,0.25,-0.04,1721201467099
0.29,-4.55,10.59,-0.26,-0.10,-0.14,1721201467109
0.16,-0.35,11.72,-0.21,0.21,-0.32,1721201467119
1.54,-8.98,26.82,-0.81,0.18,-0.35,1721201467129
-1.34,10.65,36.66,-0.18,-0.13,-0.49,1721201467139
-4.84,12.87,4.90,0.64,-0.31,-0.34,1721201467149
-5.53,-9.39,-8.45,-0.32,0.22,0.10,1721201467159
-2.67,0.32,18.13,-0.06,0.45,0.30,1721201467169
2.39,4.14,15.84,0.54,0.07,-0.02,1721201467179
0.44,9.21,8.00,0.17,-0.01,-0.36,1721201467189
0.40,3.24,15.54,0.16,0.18,-0.54,1721201467199
-2.85,2.18,13.99,0.37,-0.13,-0.30,1721201467209
-1.95,2.04,7.58,0.31,0.12,-0.07,1721201467219
0.82,0.62,10.72,0.25,0.17,-0.02,1721201467229
1.33,4.12,8.22,0.39,0.06,-0.12,1721201467239
1.18,1.41,6.95,0.20,0.18,-0.41,1721201467249
-2.57,-1.35,10.19,0.10,-0.04,-0.46,1721201467259
-5.51,0.07,10.41,0.18,0.13,-0.31,1721201467269
-5.34,0.73,9.26,0.15,0.06,0.06,1721201467279
-3.21,1.53,7.92,0.03,0.05,0.28,1721201467289
-0.02,-0.27,10.93,0.03,0.15,0.28,1721201467299
1.15,-0.71,8.43,-0.03,-0.02,0.11,1721201467309
1.16,-1.78,10.34,-0.14,0.06,-0.07,1721201467319
-0.99,-0.68,10.15,-0.02,-0.08,-0.03,1721201467329
-0.61,1.23,7.81,-0.01,0.06,0.21,1721201467339
0.96,1.82,8.49,-0.10,-0.03,0.19,1721201467349
1.47,-0.50,10.36,-0.13,-0.04,0.02,1721201467359
0.96,-5.79,11.38,-0.22,0.06,-0.08,1721201467369
-2.38,-2.25,12.56,-0.14,-0.11,-0.03,1721201467379
-2.23,2.32,10.07,0.02,0.03,0.20,1721201467389
1.60,1.83,9.17,-0.04,0.06,0.38,1721201467399
3.68,-0.16,10.53,-0.12,0.02,0.18,1721201467409
1.88,-2.71,8.99,-0.18,-0.11,-0.14,1721201467419
-0.82,-1.59,10.36,-0.13,0.04,-0.19,1721201467429
-0.99,-1.40,10.97,-0.11,0.07,-0.02,1721201467439
-0.85,-2.48,7.01,0.02,-0.13,0.27,1721201467449
1.58,1.13,8.70,-0.17,0.23,0.19,1721201467459
3.62,7.53,20.08,-0.02,0.09,-0.10,1721201467469
1.49,-3.06,7.16,0.04,-0.20,-0.19,1721201467479
-3.31,-3.53,5.65,-0.24,0.16,-0.28,1721201467489
-3.39,4.21,15.94,0.09,0.07,-0.11,1721201467499
-0.34,0.72,10.78,0.10,0.17,0.23,1721201467509
-0.49,2.58,11.15,0.12,-0.01,0.16,1721201467519
1.39,0.85,8.38,0.15,0.11,-0.07,1721201467529
0.40,0.29,9.08,0.10,-0.10,-0.01,1721201467539
-0.94,2.07,7.58,0.17,0.05,0.05,1721201467549
0.90,1.17,11.53,0.22,0.22,-0.03,1721201467559
0.08,-2.06,11.28,0.12,-0.11,-0.02,1721201467569
-1.77,4.60,13.51,0.29,0.07,-0.06,1721201467579
0.92,2.54,8.97,0.32,0.17,0.05,1721201467589
0.03,1.65,9.55,0.23,-0.01,0.15,1721201467599
1.25,2.90,8.05,0.40,0.00,0.20,1721201467609
2.50,-0.42,2.38,0.15,0.09,0.02,1721201467619
1.15,-1.78,12.24,-0.13,0.07,-0.15,1721201467629
-1.55,-0.14,21.87,0.15,0.01,-0.30,1721201467639
-4.48,0.34,6.90,0.40,-0.27,0.01,1721201467649
-3.29,1.03,0.25,0.07,0.19,0.35,1721201467659
2.40,-0.08,11.12,-0.07,0.20,0.28,1721201467669
2.62,-0.15,11.68,0.08,-0.11,0.00,1721201467679
0.81,2.69,8.94,-0.06,0.08,-0.04,1721201467694
-0.13,0.84,7.40,-0.14,-0.01,-0.06,1721201467698
0.52,0.77,9.33,-0.15,0.11,0.01,1721201467708
-0.08,0.21,7.32,-0.21,-0.03,-0.06,1721201467718
0.57,-2.00,8.54,-0.28,0.08,-0.03,1721201467728
0.08,-0.79,9.80,-0.27,-0.02,-0.02,1721201467738
0.23,1.39,13.33,-0.24,0.07,0.03,1721201467748
1.84,3.68,11.89,-0.05,0.09,-0.07,1721201467758
1.19,-4.76,10.11,-0.56,-0.07,-0.10,1721201467768
-2.27,-0.11,24.80,-0.29,-0.06,-0.23,1721201467778
-1.44,-0.09,12.52,0.05,-0.12,-0.14,1721201467788
-2.58,1.79,8.92,-0.22,0.05,0.01,1721201467798
-2.76,2.94,10.77,-0.10,-0.03,0.09,1721201467808
0.23,-0.04,7.21,-0.03,-0.01,0.14,1721201467818
2.00,0.64,8.55,-0.07,-0.02,0.11,1721201467828
2.79,2.02,11.93,-0.07,0.10,-0.05,1721201467838
1.50,3.56,16.31,-0.01,-0.04,-0.34,1721201467848
-1.73,0.11,7.27,0.10,-0.26,-0.22,1721201467858
-3.23,-1.85,6.60,-0.00,0.15,-0.19,1721201467868
-1.79,3.11,12.50,0.20,-0.07,0.03,1721201467878
-0.67,-0.05,9.85,0.17,-0.09,0.08,1721201467888
-0.42,2.88,8.60,0.21,-0.03,0.02,1721201467898
1.38,-1.33,11.11,0.00,0.04,-0.14,1721201467908
-0.18,-0.66,15.22,0.10,-0.10,-0.25,1721201467918
-0.91,1.34,6.80,0.26,-0.10,-0.09,1721201467928
-1.54,-2.66,7.25,0.05,0.02,-0.03,1721201467938
-1.61,-0.74,12.46,0.15,-0.02,-0.05,1721201467948
1.47,-0.28,9.74,0.16,0.07,-0.05,1721201467958
1.35,-0.08,9.27,0.03,-0.06,-0.17,1721201467968
-1.79,3.17,9.09,0.15,-0.12,-0.32,1721201467978
-1.52,-3.55,6.26,-0.02,0.03,-0.24,1721201467988
-1.82,-2.35,15.48,0.03,0.10,-0.17,1721201467998
-0.08,1.41,11.72,0.21,-0.02,-0.11,1721201468008
0.10,-1.56,5.82,-0.10,-0.06,-0.12,1721201468018
-1.37,1.11,8.50,0.08,-0.18,-0.21,1721201468028
0.10,-0.50,5.23,-0.00,0.17,-0.29,1721201468038
0.29,-0.94,12.02,-0.03,0.05,-0.32,1721201468048
-1.31,-1.49,9.27,-0.03,-0.06,-0.45,1721201468058
-2.59,0.29,11.93,-0.12,0.12,-0.36,1721201468068
-3.11,-1.92,8.53,0.04,-0.08,-0.25,1721201468078
-1.97,-1.41,10.34,-0.02,0.18,-0.14,1721201468088
0.17,5.55,15.67,0.14,0.09,-0.07,1721201468098
-0.02,0.02,6.82,0.02,-0.08,-0.22,1721201468108
-1.35,0.53,8.65,0.01,0.07,-0.30,1721201468118
-0.04,-0.71,7.21,-0.04,0.12,-0.33,1721201468128
-1.41,3.33,13.83,0.01,0.12,-0.28,1721201468138
0.04,2.38,10.22,0.14,0.03,-0.11,1721201468148
0.28,2.71,8.62,0.02,0.20,-0.25,1721201468158
0.34,-1.47,4.08,-0.08,-0.02,-0.39,1721201468168
-0.32,0.93,16.88,-0.16,0.45,-0.39,1721201468178
-0.81,5.72,17.09,0.25,0.12,-0.41,1721201468188
-2.91,-1.62,4.16,-0.10,0.02,-0.19,1721201468198
-3.13,-1.82,12.85,-0.14,0.27,-0.12,1721201468208
-0.45,5.04,12.77,0.22,0.20,-0.16,1721201468218
-1.82,0.62,5.09,-0.14,0.04,-0.13,1721201468228
-5.63,2.02,11.38,-0.04,-0.06,-0.09,1721201468238
-1.65,-1.32,5.71,0.05,0.11,0.04,1721201468248
0.30,-2.46,11.93,-0.25,0.24,0.06,1721201468258
0.67,0.15,16.23,-0.12,0.08,-0.10,1721201468268
-0.59,3.34,10.54,0.07,0.02,-0.14,1721201468278
-0.28,-0.25,6.51,-0.11,0.10,0.05,1721201468288
-0.13,0.37,10.13,-0.04,0.06,0.11,1721201468298
1.66,-2.81,8.91,-0.17,0.08,-0.10,1721201468308
-1.11,0.65,15.36,-0.15,0.09,-0.24,1721201468318
-3.00,2.42,9.22,0.12,-0.07,-0.07,1721201468328
-1.80,-0.44,5.37,-0.12,0.21,0.21,1721201468338
0.50,-1.41,11.59,-0.15,0.08,0.23,1721201468348
3.03,-2.43,13.18,-0.06,0.23,-0.00,1721201468358
0.51,1.14,11.39,0.04,-0.01,-0.18,1721201468368
-1.55,1.17,7.10,0.03,0.02,0.14,1721201468378
0.17,-0.45,10.41,-0.01,0.14,0.29,1721201468388
2.04,1.98,12.02,0.03,0.02,0.07,1721201468398
2.34,1.27,8.81,0.07,0.15,-0.24,1721201468408
0.08,-2.38,11.95,-0.14,0.16,-0.30,1721201468418
-4.14,-1.50,11.93,0.07,-0.10,-0.08,1721201468428
-2.54,0.88,10.76,0.22,0.28,0.16,1721201468438
1.29,1.43,10.07,0.15,0.10,0.26,1721201468448
-0.10,4.55,10.13,0.07,0.04,0.04,1721201468458
0.93,-0.59,12.35,0.06,0.21,-0.11,1721201468468
-0.74,-2.43,11.49,0.14,0.04,-0.03,1721201468478
-2.52,2.26,3.68,0.25,-0.00,0.16,1721201468488
1.55,-1.29,10.75,0.04,0.31,0.34,1721201468498
2.74,4.26,16.40,0.23,-0.04,0.26,1721201468508
3.06,-1.32,5.90,0.23,0.05,0.06,1721201468518
1.83,-1.07,8.49,0.07,0.18,-0.04,1721201468528
-0.41,1.74,11.44,0.19,-0.04,-0.08,1721201468538
-0.63,0.89,10.00,0.18,0.19,0.02,1721201468548
0.19,-0.30,9.36,0.26,0.07,0.12,1721201468558
1.58,-2.40,5.28,0.12,0.16,0.23,1721201468568
2.64,2.12,11.27,0.09,0.21,0.04,1721201468578
2.35,2.78,10.28,0.24,0.07,-0.23,1721201468588
-0.98,1.91,4.30,0.21,0.10,-0.33,1721201468598
-1.76,-2.34,4.46,-0.08,0.22,-0.14,1721201468608
-1.94,-0.68,14.51,-0.15,0.28,-0.12,1721201468618
-0.53,2.02,14.47,0.10,0.15,-0.09,1721201468628
0.30,-0.41,8.64,-0.06,0.17,-0.05,1721201468638
0.04,-0.56,11.15,-0.10,0.12,-0.02,1721201468648
0.21,-0.01,11.44,-0.05,0.27,-0.26,1721201468658
-0.28,-0.54,11.82,-0.08,0.10,-0.21,1721201468668
-1.96,-0.29,11.01,-0.07,0.14,-0.11,1721201468678
-1.55,3.89,12.49,0.06,0.23,-0.09,1721201468688
0.72,-0.41,6.40,-0.05,0.16,-0.02,1721201468698
0.46,-2.80,8.24,-0.23,0.16,-0.07,1721201468708
0.27,-0.75,13.89,-0.08,0.21,-0.23,1721201468718
-1.89,2.58,6.20,0.09,0.04,-0.23,1721201468728
-1.92,0.79,6.49,-0.14,0.27,-0.12,1721201468738
-1.72,-3.40,11.05,-0.17,0.12,0.01,1721201468748
-1.15,-0.04,13.86,-0.07,0.20,0.04,1721201468758
-0.28,-0.21,10.59,-0.07,0.06,-0.04,1721201468768
-1.25,1.56,8.08,-0.07,0.09,-0.16,1721201468778
-1.58,0.67,11.30,-0.08,0.20,-0.01,1721201468788
-1.81,-1.51,13.91,-0.08,0.11,0.08,1721201468798
-1.30,0.64,9.94,-0.02,0.07,0.15,1721201468808
0.30,-3.76,9.25,-0.18,0.17,0.14,1721201468818
-0.36,1.57,12.28,0.10,0.01,0.11,1721201468828
0.22,1.05,5.20,0.10,0.09,0.07,1721201468838
-1.03,0.53,11.26,-0.07,0.10,0.03,1721201468848
-2.08,3.41,12.76,0.17,-0.06,0.05,1721201468858
-0.10,-0.54,7.88,-0.02,0.17,0.11,1721201468868
-0.95,0.44,13.10,0.02,-0.06,0.24,1721201468878
-0.70,-1.90,9.56,0.03,0.05,0.12,1721201468888
-0.74,-1.04,10.45,0.04,0.00,0.08,1721201468898
-1.00,1.87,11.23,0.10,-0.02,0.10,1721201468908
-0.46,0.89,9.43,-0.00,-0.02,0.16,1721201468918
-2.27,-0.85,6.78,0.11,-0.26,0.21,1721201468928
0.05,-0.72,9.09,-0.03,0.08,0.19,1721201468938
1.65,1.50,12.20,0.01,-0.06,0.09,1721201468948
0.90,-2.65,14.77,-0.08,-0.01,0.01,1721201468958
-0.97,-1.61,14.02,0.03,-0.15,-0.01,1721201468968
-2.17,2.43,5.94,0.04,-0.09,0.09,1721201468978
-1.68,-1.50,9.09,-0.09,-0.07,0.19,1721201468988
0.46,-0.31,9.20,0.10,-0.17,0.19,1721201468998
2.15,2.80,10.88,0.01,0.09,0.01,1721201469008
-0.16,3.08,9.39,0.07,-0.24,-0.13,1721201469018
-2.95,-2.40,10.47,-0.21,-0.00,-0.16,1721201469028
-3.54,1.37,18.52,0.11,-0.19,0.03,1721201469038
-1.81,-2.72,4.48,0.13,-0.18,0.25,1721201469048
0.15,-1.61,9.99,-0.02,-0.01,0.33,1721201469058
3.16,3.53,8.34,0.25,-0.25,0.41,1721201469068
4.60,6.25,9.61,0.05,0.07,0.04,1721201469078
2.40,1.43,10.80,0.08,-0.34,-0.24,1721201469088
-1.48,1.10,6.65,0.07,-0.05,-0.31,1721201469098
-3.24,-1.88,12.37,-0.25,-0.12,-0.11,1721201469108
-5.32,-0.22,19.35,-0.09,-0.34,0.14,1721201469118
-3.49,2.26,5.41,0.23,-0.28,0.36,1721201469128
2.04,-1.05,6.26,-0.10,0.07,0.44,1721201469138
4.46,2.21,14.09,-0.04,-0.09,0.13,1721201469148
1.66,1.39,8.28,-0.06,-0.27,-0.17,1721201469158
-3.42,3.26,9.34,-0.07,-0.10,-0.23,1721201469168
-1.94,-3.10,9.61,-0.08,-0.11,0.09,1721201469178
-0.17,-4.79,11.63,-0.26,-0.08,0.34,1721201469188
0.04,1.85,15.93,-0.02,-0.27,0.13,1721201469198
1.26,-1.91,3.42,-0.01,-0.28,0.09,1721201469208
1.08,-0.58,6.70,-0.17,0.08,-0.05,1721201469218
0.44,-1.43,8.35,-0.03,-0.28,-0.17,1721201469228
-1.19,-0.72,8.40,-0.18,-0.00,-0.14,1721201469238
-1.17,1.10,13.21,-0.14,-0.15,0.00,1721201469248
-2.30,-2.02,7.55,-0.18,-0.26,0.12,1721201469258
-0.01,-2.36,13.20,-0.25,-0.00,0.10,1721201469268
2.08,-5.36,9.34,-0.15,-0.21,0.08,1721201469278
0.99,1.20,14.73,-0.20,0.04,-0.19,1721201469288
0.47,5.47,14.82,0.04,-0.25,-0.23,1721201469298
0.16,2.18,2.76,0.00,-0.09,-0.07,1721201469308
2.18,-0.43,11.33,-0.20,0.17,-0.03,1721201469318
0.28,-4.03,8.70,-0.02,-0.30,-0.20,1721201469328
-0.48,0.79,9.23,-0.14,0.14,-0.26,1721201469338
1.07,4.29,16.48,0.08,-0.01,-0.14,1721201469348
1.70,-0.35,12.98,0.04,-0.03,-0.05,1721201469358
-0.05,3.57,11.40,0.09,-0.01,-0.25,1721201469368
-0.67,2.10,9.04,0.15,0.00,-0.38,1721201469378
-2.87,0.44,9.61,0.11,-0.03,-0.17,1721201469388
-1.97,-1.26,9.14,0.14,0.08,0.09,1721201469398
-0.27,1.73,9.28,0.24,0.07,0.01,1721201469408
2.64,-1.84,11.58,0.09,0.10,-0.11,1721201469418
0.84,4.93,12.46,0.35,-0.11,-0.01,1721201469428
3.34,-1.00,8.85,0.20,0.33,-0.12,1721201469438
0.20,5.36,15.61,0.35,-0.14,-0.27,1721201469448
-0.45,1.11,2.55,0.32,-0.06,-0.12,1721201469458
0.41,-3.94,8.25,-0.02,0.29,-0.09,1721201469468
-1.69,-1.39,15.93,0.11,-0.04,-0.22,1721201469478
-1.19,-0.17,11.04,0.24,-0.04,-0.02,1721201469488
2.50,3.49,6.79,0.27,0.26,0.12,1721201469498
3.97,-0.95,6.61,-0.01,0.22,-0.16,1721201469508
-0.89,-0.77,12.90,-0.04,-0.02,-0.50,1721201469518
-3.95,-0.93,9.10,0.10,0.07,-0.35,1721201469528
-3.92,-3.86,8.77,-0.13,0.18,0.01,1721201469538
-3.02,7.57,11.08,0.21,0.03,0.35,1721201469548
4.04,-2.14,4.47,-0.19,0.33,0.17,1721201469558
3.57,-2.31,16.08,-0.23,-0.07,-0.16,1721201469568
0.57,3.86,11.13,0.12,0.03,-0.41,1721201469578
-0.73,1.78,5.51,-0.15,0.19,-0.28,1721201469588
-3.20,1.95,12.18,-0.16,0.05,-0.13,1721201469598
-2.16,-0.05,9.82,-0.08,0.06,0.00,1721201469608
-0.76,-2.41,6.06,-0.20,0.03,0.05,1721201469618
1.17,-0.20,12.38,-0.24,0.23,-0.05,1721201469628
1.36,1.39,15.88,-0.09,0.06,-0.25,1721201469638
-1.49,1.00,9.88,-0.03,-0.06,-0.19,1721201469648
-2.43,-0.10,7.18,-0.14,0.08,-0.10,1721201469658
-1.21,-0.81,11.67,-0.14,0.16,-0.03,1721201469668
-0.94,-0.63,13.06,-0.03,0.04,0.11,1721201469678
0.67,0.22,7.79,-0.03,-0.04,0.01,1721201469688
-0.40,1.79,9.07,-0.00,-0.07,-0.11,1721201469703
0.09,-0.72,7.58,0.03,-0.03,-0.05,1721201469707
-0.02,-0.63,11.99,-0.17,0.17,-0.13,1721201469717
-0.78,5.83,14.24,0.10,-0.07,-0.03,1721201469727
-0.60,-1.78,6.01,-0.03,-0.02,-0.03,1721201469737
-2.51,-0.91,7.93,-0.04,0.05,-0.03,1721201469747
1.51,-0.49,11.60,0.03,0.19,0.05,1721201469757
1.39,-2.16,10.55,-0.03,-0.05,-0.03,1721201469767
-1.26,1.71,12.13,0.06,0.02,-0.17,1721201469777
-0.46,3.50,10.41,0.21,0.15,-0.25,1721201469787
-1.05,0.33,10.73,0.01,-0.04,-0.06,1721201469797
-2.16,4.22,12.35,0.24,0.08,-0.09,1721201469807
0.97,-6.22,4.07,0.03,0.12,-0.09,1721201469817
-1.46,-3.00,11.17,-0.07,0.07,-0.19,1721201469827
-0.72,7.74,13.96,0.32,0.11,-0.26,1721201469837
0.32,-3.40,5.41,0.02,0.04,-0.14,1721201469847
-2.72,1.12,13.01,0.03,0.09,-0.20,1721201469857
-0.06,1.58,8.00,0.25,0.03,-0.11,1721201469867
-0.45,-3.19,6.37,-0.04,0.09,-0.21,1721201469877
-0.85,-1.01,15.20,0.01,0.02,-0.29,1721201469887
-2.11,2.32,6.68,0.17,0.05,-0.24,1721201469897
-0.76,1.10,10.08,0.00,0.21,-0.12,1721201469907
-0.31,-0.51,11.81,0.01,-0.07,-0.14,1721201469917
-1.29,2.04,10.88,0.03,0.10,-0.19,1721201469927
-2.24,3.25,7.17,0.14,-0.01,-0.10,1721201469937
-2.16,-1.50,5.93,-0.08,0.10,-0.06,1721201469947
-1.77,0.49,10.74,0.00,-0.03,-0.00,1721201469957
-0.86,-2.61,8.25,-0.05,-0.01,0.06,1721201469967
0.23,3.89,14.12,0.09,0.09,0.03,1721201469977
1.34,0.89,9.78,0.10,-0.03,0.14,1721201469987
1.61,3.13,11.91,0.07,0.10,-0.01,1721201469997
1.82,-0.51,11.36,0.04,0.03,-0.15,1721201470007
-2.06,2.45,8.90,0.04,-0.13,-0.19,1721201470017
-2.30,0.07,8.13,0.03,0.04,0.00,1721201470027
-1.36,0.59,13.75,-0.04,0.14,0.05,1721201470037
-2.37,0.20,9.53,0.08,-0.26,0.13,1721201470047
-1.26,-1.10,8.46,-0.07,0.11,0.16,1721201470057
0.47,2.26,12.53,-0.01,0.03,-0.04,1721201470067
0.52,-0.01,12.50,-0.10,-0.12,-0.00,1721201470077
-2.09,0.88,8.70,0.01,-0.14,0.07,1721201470087
0.05,-0.49,8.19,-0.16,0.10,0.06,1721201470097
0.83,-1.27,12.24,-0.13,-0.11,0.06,1721201470107
-0.98,0.36,7.26,-0.07,-0.11,-0.05,1721201470117
-0.46,0.14,9.39,-0.15,0.14,-0.08,1721201470127
-1.78,0.70,11.65,-0.06,-0.19,0.07,1721201470137
-3.04,1.56,9.38,-0.11,-0.08,0.10,1721201470147
-1.71,-1.71,9.01,-0.12,-0.19,0.22,1721201470157
-1.25,-1.58,10.47,-0.24,-0.06,0.24,1721201470167
0.26,-3.20,10.69,-0.12,-0.23,0.28,1721201470177
1.82,1.89,7.31,0.01,-0.05,0.17,1721201470187
3.29,-1.74,10.50,-0.27,-0.02,0.04,1721201470197
-1.21,3.66,14.67,-0.13,-0.29,-0.03,1721201470207
-0.42,0.41,9.99,-0.04,-0.08,0.10,1721201470217
0.52,-3.10,10.78,-0.17,-0.11,0.26,1721201470227
0.59,4.83,9.86,0.15,-0.24,0.29,1721201470237
4.04,0.24,5.62,0.00,0.05,0.13,1721201470247
3.00,0.09,13.31,-0.04,-0.14,-0.09,1721201470257
1.03,0.94,12.91,0.08,-0.15,-0.20,1721201470267
-1.02,0.35,9.49,0.08,-0.10,-0.07,1721201470277
-2.25,0.79,8.71,0.07,-0.14,0.07,1721201470287
1.34,-0.30,11.25,0.08,0.09,0.13,1721201470297
1.71,0.74,10.42,0.11,-0.15,-0.01,1721201470307
1.08,-0.16,10.91,0.04,-0.04,-0.13,1721201470317
0.34,2.24,11.77,0.11,-0.06,-0.24,1721201470327
-1.32,0.40,11.82,0.17,-0.11,-0.18,1721201470337
-0.40,-1.56,9.12,0.14,-0.02,0.13,1721201470347
0.30,0.09,8.47,0.14,0.07,-0.05,1721201470357
1.88,0.56,11.98,0.09,-0.03,-0.09,1721201470367
0.75,1.16,11.49,0.15,-0.10,-0.17,1721201470377
1.18,-0.33,9.05,0.18,-0.01,-0.16,1721201470387
1.02,-1.83,8.07,0.12,0.04,-0.20,1721201470397
-0.16,1.23,13.56,0.13,0.06,-0.33,1721201470407
-0.88,4.00,10.98,0.26,-0.06,-0.26,1721201470417
-2.11,1.01,8.40,0.14,-0.06,-0.09,1721201470427
-2.23,-1.85,7.47,0.01,0.02,-0.06,1721201470437
0.00,0.61,10.91,0.06,0.12,0.00,1721201470447
1.46,0.75,8.90,0.04,0.01,-0.11,1721201470457
0.63,-1.51,7.53,-0.10,-0.07,-0.12,1721201470467
0.22,3.00,10.97,0.01,0.06,-0.22,1721201470477
1.20,1.58,11.84,0.01,0.00,-0.19,1721201470487
-0.95,1.00,9.18,-0.02,-0.08,-0.19,1721201470497
-0.31,-1.10,8.58,-0.18,0.10,-0.11,1721201470507
0.12,-0.55,14.45,-0.12,0.02,-0.11,1721201470517
0.05,4.74,8.38,0.14,-0.01,-0.13,1721201470527
1.07,0.30,5.65,-0.18,0.09,-0.21,1721201470537
-1.22,0.59,14.11,-0.08,-0.10,-0.24,1721201470547
-1.00,-0.28,7.23,-0.01,-0.03,-0.07,1721201470557
0.36,-0.29,7.71,-0.15,0.10,-0.04,1721201470567
1.29,3.48,10.61,0.04,-0.00,-0.16,1721201470577
1.43,-2.80,4.37,-0.09,0.04,-0.27,1721201470587
-2.09,-2.93,13.61,-0.26,0.07,-0.24,1721201470597
-1.95,5.49,15.07,0.08,0.01,-0.34,1721201470607
-1.05,2.21,9.73,0.00,0.04,-0.12,1721201470617
-2.46,-0.48,5.61,-0.04,-0.12,0.00,1721201470627
0.89,6.44,12.40,-0.08,0.31,-0.07,1721201470637
3.23,20.29,21.22,-0.04,0.12,-0.15,1721201470647
-0.21,-11.15,3.64,-0.40,-0.25,-0.33,1721201470657
-3.10,-16.26,1.65,-0.45,0.47,-0.37,1721201470667
9.56,-2.63,13.08,-0.06,0.32,-0.16,1721201470677
-2.12,0.50,11.09,-0.15,-0.14,-0.16,1721201470687
-5.35,11.89,14.58,0.23,0.00,-0.24,1721201470697
-0.80,-2.11,1.35,0.11,0.02,-0.05,1721201470707
-1.29,-12.08,9.13,-0.44,0.26,0.10,1721201470717
3.92,-0.93,18.54,0.11,0.18,-0.03,1721201470727
3.34,6.48,2.21,0.33,-0.14,-0.30,1721201470737
-0.59,-6.21,3.29,-0.22,0.13,-0.64,1721201470747
-3.84,-5.04,15.39,0.05,0.00,-0.53,1721201470757
-5.70,1.32,9.62,0.13,0.12,-0.19,1721201470767
-3.68,5.67,10.78,0.02,0.10,0.11,1721201470777
-1.41,-3.38,7.58,-0.08,0.02,0.08,1721201470787
1.44,-2.71,8.03,0.15,0.12,-0.06,1721201470797
2.89,-16.05,10.13,-0.46,0.22,-0.28,1721201470807
-2.04,-6.04,45.92,-0.45,0.06,-0.62,1721201470817
-2.26,58.20,51.00,0.46,-0.09,-0.74,1721201470827
-6.53,9.55,-10.60,2.00,-0.63,0.05,1721201470837
-6.34,-42.65,-26.62,0.41,0.33,0.55,1721201470847
3.08,-9.30,25.41,-0.30,1.35,0.46,1721201470857
-3.87,27.48,21.02,1.01,-1.33,-0.01,1721201470867
-6.74,-14.03,10.44,0.98,-1.23,-0.22,1721201470877
-10.02,8.35,-6.62,0.18,0.65,-0.37,1721201470887
2.31,7.69,14.82,0.62,0.44,-0.08,1721201470897
-2.57,3.06,-5.14,0.08,-0.13,0.14,1721201470907
1.46,4.11,5.17,0.26,0.33,0.03,1721201470917
5.70,-0.40,4.22,0.57,0.08,0.10,1721201470927
2.60,0.88,-7.86,0.13,0.12,-0.06,1721201470937
3.20,-3.82,8.27,-0.27,0.31,-0.50,1721201470947
-9.48,-1.78,17.47,0.01,0.11,-0.65,1721201470957
-6.32,-1.71,9.59,0.41,-0.28,-0.33,1721201470967
-7.18,-3.30,-2.06,-0.04,0.07,0.17,1721201470977
-1.80,7.64,-0.96,0.17,0.22,0.32,1721201470987
3.44,-14.51,-2.40,-1.08,0.22,0.05,1721201470997
-2.59,-29.68,64.23,-0.84,1.14,-0.84,1721201471007
-4.48,25.50,56.69,1.48,-0.88,-0.75,1721201471017
-9.97,-19.70,-41.99,1.36,-0.33,-0.09,1721201471027
-6.24,2.03,-15.01,-2.65,0.59,0.96,1721201471037
14.65,16.02,36.90,-0.35,0.57,0.64,1721201471047
27.30,2.06,-18.10,0.17,-2.09,-0.03,1721201471057
17.06,4.52,-7.79,-0.26,1.41,-0.65,1721201471067
10.00,9.36,23.61,-0.40,-0.58,-0.51,1721201471077
-1.95,9.17,11.82,-0.14,0.17,-0.60,1721201471087
-4.44,0.24,7.07,-0.21,-0.10,-0.49,1721201471097
-4.98,-4.55,7.01,-0.29,0.08,0.14,1721201471107
-1.40,-5.67,7.90,-0.26,0.18,0.32,1721201471117
3.08,1.58,17.59,-0.12,0.23,0.23,1721201471127
1.56,9.65,8.28,0.12,-0.10,-0.02,1721201471137
1.62,2.38,3.61,-0.16,0.18,-0.25,1721201471147
-1.88,-7.37,14.62,-0.36,0.12,-0.40,1721201471157
-4.79,-3.93,16.45,0.04,-0.11,-0.20,1721201471167
-1.51,-2.29,12.96,-0.02,0.32,0.06,1721201471177
-0.91,6.57,18.14,0.28,-0.18,0.30,1721201471187
4.49,3.80,7.77,0.28,0.32,0.22,1721201471197
3.14,1.92,9.84,0.08,0.09,-0.35,1721201471207
-0.91,-3.28,14.20,0.03,0.03,-0.53,1721201471217
-3.58,-2.68,9.87,0.27,-0.06,-0.12,1721201471227
-0.37,-0.88,8.51,0.20,0.25,0.16,1721201471237
3.34,7.06,11.96,0.28,0.13,0.20,1721201471247
5.36,-0.59,11.11,0.00,0.23,-0.10,1721201471257
0.78,0.50,14.73,0.12,0.03,-0.52,1721201471267
-2.10,-0.23,5.00,0.27,-0.12,-0.36,1721201471277
-1.82,-3.68,3.27,-0.01,0.22,0.11,1721201471287
0.94,3.86,9.33,0.19,0.32,0.07,1721201471297
3.56,-0.32,14.01,0.04,0.29,-0.29,1721201471307
0.45,1.41,11.59,0.15,0.02,-0.42,1721201471317
-1.98,2.76,8.73,0.12,0.43,-0.41,1721201471327
-2.98,4.07,8.62,0.23,0.19,-0.08,1721201471337
-1.70,1.75,3.22,0.05,0.26,0.06,1721201471347
1.15,0.07,10.43,-0.13,0.35,-0.19,1721201471357
0.82,-2.85,13.81,-0.15,0.15,-0.20,1721201471367
-1.16,9.11,15.83,0.27,0.33,-0.19,1721201471377
1.44,0.88,0.39,-0.04,0.26,-0.10,1721201471387
-4.12,-2.15,12.17,-0.45,0.25,-0.20,1721201471397
-2.44,1.89,19.07,0.11,0.18,-0.10,1721201471407
0.26,3.30,5.05,-0.08,0.32,0.25,1721201471417
-2.05,10.69,10.14,-0.10,0.10,0.05,1721201471427
-1.11,-6.46,3.13,-0.45,0.01,-0.15,1721201471437
-3.96,-3.26,17.27,-0.32,0.16,0.00,1721201471447
-1.19,3.26,12.28,0.06,0.17,0.16,1721201471457
-0.26,4.45,5.63,-0.28,-0.01,0.27,1721201471467
-0.46,3.84,10.41,-0.38,0.15,-0.11,1721201471477
-0.88,-9.68,9.05,-0.46,-0.15,-0.11,1721201471487
-4.36,-5.44,10.14,-0.32,0.00,0.19,1721201471497
2.41,-0.83,11.82,-0.19,0.36,0.28,1721201471507
2.94,2.83,15.24,-0.13,-0.01,0.08,1721201471517
1.08,-0.21,10.63,-0.17,-0.07,-0.10,1721201471527
-3.18,-3.12,6.96,-0.30,-0.24,0.05,1721201471537
-1.11,-0.25,18.63,-0.16,0.26,0.19,1721201471547
0.08,0.94,10.28,0.03,-0.29,0.27,1721201471557
1.08,2.59,4.57,-0.12,0.10,0.16,1721201471567
2.82,0.34,15.58,-0.05,0.23,-0.10,1721201471577
-0.60,1.16,21.42,-0.02,-0.18,-0.20,1721201471587
-4.42,7.61,13.64,0.21,-0.15,-0.04,1721201471597
-2.71,5.58,1.44,0.35,0.02,0.22,1721201471607
1.30,-2.69,5.91,0.11,-0.00,0.39,1721201471617
2.86,1.85,23.68,0.08,0.13,0.00,1721201471627
1.35,-2.74,16.01,0.50,-0.34,-0.16,1721201471637
-3.91,7.48,0.87,0.44,0.13,-0.23,1721201471647
-2.56,4.57,8.15,0.14,0.06,-0.19,1721201471657
-5.16,-0.32,5.67,0.32,-0.46,0.18,1721201471667
-1.70,-7.56,7.87,-0.10,0.33,0.23,1721201471677
2.05,7.84,21.51,0.45,-0.06,0.22,1721201471687
2.17,1.33,0.45,0.30,-0.34,0.18,1721201471697
-0.94,-4.32,7.32,-0.33,-0.24,-0.13,1721201471712
1.52,-7.41,10.09,-0.31,-0.17,-0.15,1721201471716
-3.26,-1.53,7.14,0.07,-0.25,-0.11,1721201471726
0.07,-0.46,12.66,-0.11,0.24,0.08,1721201471736
-1.02,0.89,16.38,-0.09,-0.35,0.22,1721201471746
-0.96,2.26,10.44,-0.01,-0.13,0.02,1721201471756
3.35,-6.22,10.18,-0.13,-0.13,0.08,1721201471766
-0.56,0.62,8.78,0.03,-0.36,0.09,1721201471776
-0.37,-0.75,5.58,-0.25,-0.15,-0.04,1721201471786
-0.75,5.76,17.68,0.02,-0.19,-0.07,1721201471796
0.90,-0.41,7.09,-0.17,-0.12,0.04,1721201471806
-1.62,1.56,15.87,-0.45,-0.15,-0.07,1721201471816
-1.90,-1.75,21.12,-0.23,-0.40,-0.14,1721201471826
-4.31,5.64,11.69,0.33,-0.39,0.20,1721201471836
0.42,2.02,-4.84,-0.19,-0.07,0.46,1721201471846
3.31,0.91,16.27,-0.43,-0.24,0.34,1721201471856
5.64,5.10,14.04,0.15,-0.75,0.27,1721201471866
7.15,-0.67,3.93,-0.27,0.31,-0.13,1721201471876
0.60,7.49,17.35,0.03,-0.56,-0.37,1721201471886
0.31,-8.51,4.81,-0.28,-0.22,-0.14,1721201471896
-4.03,4.57,16.29,-0.09,-0.16,-0.21,1721201471906
-3.15,7.42,11.12,0.31,-0.06,-0.08,1721201471916
-1.66,-4.08,4.70,-0.38,0.01,0.12,1721201471926
-2.94,1.35,19.45,0.01,-0.39,0.11,1721201471936
1.94,2.34,8.43,0.26,-0.18,0.27,1721201471946
5.03,1.28,4.43,-0.11,-0.09,0.16,1721201471956
3.24,-9.28,4.55,-0.25,-0.42,-0.24,1721201471966
-1.23,-5.10,12.82,-0.10,-0.10,-0.46,1721201471976
-0.01,2.09,23.72,0.27,0.11,-0.31,1721201471986
0.04,7.21,13.07,0.50,-0.36,0.15,1721201471996
-1.99,-3.00,-9.73,-0.10,-0.44,0.22,1721201472006
2.13,4.13,11.21,-0.10,0.38,0.03,1721201472016
3.17,-4.57,15.62,0.03,-0.37,-0.20,1721201472026
-0.99,-0.68,12.04,-0.05,-0.09,-0.32,1721201472036
-0.49,1.60,12.61,0.37,-0.18,-0.36,1721201472046
0.74,-8.21,2.23,-0.17,0.05,-0.19,1721201472056
-3.31,5.22,22.70,0.08,0.05,-0.23,1721201472066
2.13,6.95,1.08,0.65,-0.23,-0.31,1721201472076
3.15,-8.60,0.76,-0.45,0.40,-0.47,1721201472086
18.09,11.39,18.32,0.07,0.22,-0.56,1721201472096
-5.80,-1.66,2.16,0.19,0.20,-0.47,1721201472106
-3.71,3.20,16.52,-0.11,0.36,-0.35,1721201472116
-0.69,0.52,17.83,0.42,-0.06,-0.06,1721201472126
-1.48,-0.49,-2.60,0.17,-0.10,0.04,1721201472136
0.76,1.22,9.89,-0.10,0.38,-0.33,1721201472146
0.76,5.04,14.78,0.34,-0.23,-0.33,1721201472156
-2.83,2.76,4.29,0.08,0.01,-0.29,1721201472166
-4.75,-2.79,7.73,-0.14,-0.16,-0.19,1721201472176
-2.31,-5.91,6.37,-0.08,0.04,0.09,1721201472186
2.46,-4.10,17.23,-0.04,0.48,-0.18,1721201472196
2.25,2.61,15.61,0.33,-0.27,0.08,1721201472206
2.28,3.30,3.31,0.10,0.26,-0.09,1721201472216
4.39,2.62,13.04,0.07,0.18,-0.25,1721201472226
1.65,-3.86,10.15,-0.06,0.07,-0.48,1721201472236
-4.26,3.14,12.66,0.23,-0.22,-0.43,1721201472246
-1.04,-0.82,-1.22,0.11,0.28,-0.03,1721201472256
1.53,2.74,18.42,-0.05,0.56,-0.23,1721201472266
0.21,4.11,16.16,0.39,-0.09,-0.50,1721201472276
-1.92,-0.71,0.74,-0.02,0.15,-0.27,1721201472286
-1.13,4.51,16.14,0.03,0.50,-0.30,1721201472296
2.90,4.21,11.96,0.31,0.12,-0.22,1721201472306
-0.30,-3.31,-4.13,-0.10,-0.08,-0.13,1721201472316
-3.77,-1.08,13.32,-0.26,0.49,-0.35,1721201472326
0.54,6.66,21.49,0.20,0.17,-0.36,1721201472336
-1.40,-0.65,0.40,0.03,-0.09,-0.23,1721201472346
-2.16,1.65,10.12,-0.14,0.50,-0.14,1721201472356
2.64,2.00,11.51,0.11,0.28,-0.14,1721201472366
2.40,-0.06,8.49,-0.11,0.13,-0.31,1721201472376
-1.34,-0.94,12.00,-0.15,0.00,-0.52,1721201472386
-4.42,5.90,14.27,0.14,0.15,-0.44,1721201472396
-0.88,-0.23,5.95,0.04,0.22,-0.20,1721201472406
-2.07,-5.82,1.94,-0.30,0.07,-0.13,1721201472416
-1.97,0.58,10.70,-0.06,0.46,-0.35,1721201472426
0.28,-0.29,9.63,0.02,0.38,-0.29,1721201472436
0.23,-1.06,18.01,-0.21,0.44,-0.36,1721201472446
-1.70,8.50,15.25,0.37,0.05,-0.28,1721201472456
-0.70,-1.62,3.75,-0.15,0.11,0.04,1721201472466
-1.63,-0.41,12.12,-0.09,-0.05,-0.01,1721201472476
2.91,-1.35,5.03,0.32,0.30,-0.12,1721201472486
2.28,-4.36,4.90,-0.26,0.32,-0.38,1721201472496
-4.24,1.75,14.79,-0.03,0.01,-0.52,1721201472506
-2.72,2.18,12.49,0.23,0.54,-0.17,1721201472516
0.22,5.60,10.65,0.15,0.27,0.10,1721201472526
2.12,-0.07,10.36,-0.06,0.20,0.07,1721201472536
-0.06,-5.84,3.08,-0.06,-0.15,-0.18,1721201472546
-0.61,-0.49,7.06,-0.08,0.52,-0.48,1721201472556
-0.05,0.78,13.64,-0.01,0.47,-0.56,1721201472566
-4.50,-4.88,16.02,-0.24,0.16,-0.33,1721201472576
-5.21,7.20,18.08,0.45,0.11,0.08,1721201472586
0.37,-0.04,-0.28,0.05,0.39,0.01,1721201472596
-2.55,-0.20,13.46,-0.24,0.23,-0.21,1721201472606
-2.15,-1.56,10.65,0.16,0.05,-0.35,1721201472616
-2.65,0.05,6.11,-0.07,0.44,-0.30,1721201472626
-3.50,3.85,16.98,0.04,0.32,-0.17,1721201472636
-2.64,1.42,12.91,0.16,0.18,0.20,1721201472646
-1.88,0.40,3.12,0.14,0.02,0.43,1721201472656
2.25,-2.79,12.59,-0.16,0.56,0.08,1721201472666
0.00,5.60,13.01,0.15,-0.40,-0.14,1721201472676
-2.02,1.80,6.97,0.12,0.30,-0.23,1721201472686
-4.00,-4.29,7.23,-0.01,0.01,-0.04,1721201472696
-5.55,2.88,6.80,0.18,0.06,0.28,1721201472706
2.12,-1.02,10.52,0.06,0.39,0.49,1721201472716
3.00,2.53,21.32,0.04,-0.12,0.40,1721201472726
0.90,8.40,6.34,0.39,-0.32,0.11,1721201472736
1.74,-4.53,2.90,-0.29,0.24,-0.02,1721201472746
-3.15,-0.60,16.10,-0.06,-0.20,-0.15,1721201472756
-5.11,1.96,2.61,0.12,-0.02,-0.05,1721201472766
-3.00,-0.66,11.91,-0.16,0.31,0.35,1721201472776
-0.63,2.87,15.13,0.24,-0.06,0.60,1721201472786
2.30,0.36,6.58,0.00,0.01,0.42,1721201472796
1.93,3.30,13.50,0.04,-0.16,0.26,1721201472806
0.98,2.20,10.48,0.07,-0.10,0.05,1721201472816
-3.21,-1.49,5.65,-0.06,-0.45,0.18,1721201472826
-2.64,-2.37,12.63,0.01,0.04,0.41,1721201472836
1.50,-0.93,5.79,0.02,-0.05,0.47,1721201472846
3.49,1.39,12.02,-0.19,0.07,0.26,1721201472856
3.80,-0.13,11.83,0.06,-0.17,0.14,1721201472866
3.04,2.31,3.81,-0.00,0.09,0.07,1721201472876
3.11,2.86,9.52,-0.26,0.15,0.00,1721201472886
1.55,-1.62,17.81,-0.21,-0.00,-0.16,1721201472896
-1.21,-9.57,16.60,-0.22,-0.25,-0.13,1721201472906
-4.80,0.56,11.92,0.13,-0.15,0.20,1721201472916
2.74,3.78,8.83,0.10,0.30,0.29,1721201472926
3.89,4.94,8.80,0.03,-0.14,0.08,1721201472936
2.96,-1.43,6.16,-0.19,0.12,-0.34,1721201472946
-0.57,-1.70,12.69,-0.11,0.12,-0.54,1721201472956
-3.29,-0.68,10.04,0.05,0.05,-0.31,1721201472966
-2.10,-0.62,6.18,-0.05,0.06,0.07,1721201472976
1.81,-0.61,12.17,-0.08,0.27,0.13,1721201472986
4.23,2.86,12.89,0.13,0.23,-0.29,1721201472996
0.77,-2.95,6.84,-0.14,0.07,-0.59,1721201473006
-4.70,-1.11,12.97,-0.06,0.11,-0.52,1721201473016
-2.64,-0.94,15.31,0.09,0.33,-0.25,1721201473026
-1.73,0.23,7.14,0.24,0.05,0.13,1721201473036
0.44,3.01,6.41,-0.00,0.47,-0.00,1721201473046
1.81,-0.63,13.56,-0.09,0.08,-0.36,1721201473056
-0.52,0.18,12.23,0.12,0.22,-0.40,1721201473066
-1.68,-0.55,9.16,0.09,0.22,-0.17,1721201473076
-2.87,3.57,10.09,0.04,0.16,-0.01,1721201473086
-1.41,-0.00,12.37,0.06,0.22,-0.02,1721201473096
-0.84,-2.41,8.75,0.11,0.19,0.01,1721201473106
0.26,2.51,9.76,0.07,0.34,0.01,1721201473116
-0.77,2.02,8.50,0.07,0.05,-0.04,1721201473126
-1.36,0.44,12.70,0.08,0.31,0.07,1721201473136
1.38,2.72,11.34,0.28,0.29,0.10,1721201473146
0.77,-3.62,5.13,-0.02,0.08,0.05,1721201473156
-2.63,2.57,12.26,0.01,0.20,-0.03,1721201473166
-0.18,4.79,9.18,0.38,0.20,0.07,1721201473176
0.41,-3.26,4.47,-0.03,0.20,0.24,1721201473186
-1.30,-0.87,14.51,0.02,0.17,0.18,1721201473196
-0.85,-1.64,8.93,0.16,0.08,0.20,1721201473206
0.51,2.59,10.81,-0.09,0.30,0.23,1721201473216
0.87,14.80,20.52,0.31,0.04,0.18,1721201473226
1.01,5.00,1.89,0.17,-0.11,0.23,1721201473236
-0.34,-14.89,2.37,-0.57,0.23,0.04,1721201473246
-2.95,-1.74,24.44,-0.11,0.09,-0.03,1721201473256
-1.28,0.68,8.81,0.18,0.03,0.20,1721201473266
-1.79,4.62,5.05,-0.02,0.09,0.28,1721201473276
0.82,5.79,9.63,0.09,0.08,0.35,1721201473286
3.28,3.75,10.32,-0.10,0.18,0.18,1721201473296
2.28,-5.68,14.31,-0.32,0.05,-0.09,1721201473306
-1.67,0.87,12.07,0.09,-0.09,-0.02,1721201473316
-1.16,2.33,4.64,0.00,0.20,0.15,1721201473326
-0.39,0.26,10.63,-0.13,0.10,0.12,1721201473336
-0.77,1.87,10.15,0.03,-0.08,0.18,1721201473346
0.16,-1.11,6.66,-0.28,0.22,0.06,1721201473356
-1.43,-2.80,11.61,-0.30,-0.13,0.09,1721201473366
-1.43,0.96,10.44,0.07,0.09,0.13,1721201473376
1.57,-0.81,-1.63,-0.02,0.04,0.21,1721201473386
0.06,-6.35,9.87,-0.68,0.18,0.11,1721201473396
-0.73,-3.22,38.49,-0.24,-0.17,-0.17,1721201473406
-1.98,5.89,15.64,0.69,-0.20,-0.06,1721201473416
-1.96,-2.71,-10.95,-0.08,0.16,0.29,1721201473426
4.45,-5.10,11.64,-0.30,0.40,0.39,1721201473436
-4.19,-5.39,23.99,0.19,-0.65,0.24,1721201473446
-2.09,-1.41,8.88,0.09,-0.01,-0.16,1721201473456
-1.69,0.14,10.17,-0.09,0.11,-0.19,1721201473466
-3.95,-1.98,9.98,-0.03,-0.05,0.07,1721201473476
-0.73,-1.38,12.88,-0.01,0.12,0.26,1721201473486
2.60,6.16,17.17,0.13,0.04,0.15,1721201473496
1.47,11.42,13.80,0.04,-0.09,-0.06,1721201473506
-0.68,-10.69,5.00,-0.35,-0.06,-0.24,1721201473516
-1.91,-9.08,14.08,-0.14,0.27,-0.23,1721201473526
-3.31,6.77,7.64,0.31,-0.31,0.05,1721201473536
-2.28,1.71,7.37,-0.08,0.26,0.18,1721201473546
-0.41,6.08,15.14,0.28,-0.20,0.28,1721201473556
2.36,-1.42,4.53,0.05,0.13,0.09,1721201473566
2.25,-1.25,13.07,-0.16,0.04,-0.13,1721201473576
-0.86,2.22,8.55,0.10,-0.12,-0.18,1721201473586
-3.48,1.22,6.08,-0.02,0.00,-0.09,1721201473596
-3.45,-3.39,8.56,-0.01,-0.07,0.17,1721201473606
-1.46,-1.45,6.99,-0.01,-0.01,0.32,1721201473616
1.71,2.39,14.37,-0.13,0.04,0.26,1721201473626
0.75,9.74,14.25,0.15,-0.16,0.05,1721201473636
0.37,0.31,-1.30,0.07,-0.19,0.05,1721201473646
4.08,6.41,17.59,0.08,0.16,0.29,1721201474197
4.37,-3.35,7.18,-0.13,0.08,0.09,1721201474202
6.84,-9.97,11.65,-0.41,0.40,-0.45,1721201474211
0.67,6.84,16.35,0.03,-0.07,-0.81,1721201474221
-3.95,4.07,-1.20,0.12,0.17,-0.77,1721201474231
-5.76,3.15,6.67,-0.10,0.19,-0.26,1721201474241
-5.22,2.15,8.27,0.01,-0.04,0.20,1721201474251
-0.78,-2.05,11.01,-0.28,0.32,0.33,1721201474261
4.93,4.69,18.31,0.02,0.15,0.09,1721201474271
5.92,3.04,4.75,0.03,-0.03,-0.29,1721201474281
0.87,-0.71,8.16,-0.16,0.20,-0.66,1721201474291
-3.55,-1.75,11.68,-0.02,0.03,-0.68,1721201474301
-6.61,-0.24,12.53,-0.08,0.14,-0.26,1721201474311
-5.15,1.18,7.70,0.07,0.08,0.31,1721201474321
1.03,-0.39,8.52,0.06,0.36,0.39,1721201474331
4.53,-1.24,8.79,-0.09,0.09,0.05,1721201474341
4.01,3.06,6.40,-0.01,0.16,-0.41,1721201474351
1.60,-12.17,20.56,-0.80,0.32,-0.71,1721201474361
-5.87,8.19,35.24,0.13,-0.28,-0.60,1721201474371
-6.69,4.10,-4.95,0.72,0.06,-0.06,1721201474381
-2.69,-3.04,0.16,-0.32,0.50,0.45,1721201474391
-2.77,11.63,19.63,0.31,0.04,0.33,1721201474401
9.28,4.11,10.07,0.08,-0.08,-0.11,1721201474411
3.69,-2.57,3.46,-0.34,0.17,-0.60,1721201474421
-4.13,-2.35,13.72,0.10,0.02,-0.46,1721201474431
-4.19,-0.90,9.57,0.02,0.25,-0.06,1721201474441
-5.60,1.71,5.71,0.11,-0.18,0.18,1721201474451
-0.68,-2.35,8.64,-0.07,0.31,0.23,1721201474461
3.49,-0.56,17.37,0.12,0.16,0.04,1721201474471
1.94,-1.39,10.16,0.04,0.08,-0.26,1721201474481
-2.57,7.50,10.34,0.08,-0.07,-0.30,1721201474491
-3.62,-3.24,9.63,-0.15,-0.14,-0.06,1721201474501
-5.03,-5.26,8.45,0.04,-0.07,0.08,1721201474511
-0.93,-1.10,6.81,0.08,0.30,0.04,1721201474521
2.55,4.58,17.53,-0.08,0.29,0.08,1721201474531
1.58,0.30,15.73,0.11,-0.21,0.00,1721201474541
-0.29,3.90,5.72,0.25,0.01,-0.17,1721201474551
0.29,1.32,9.15,-0.04,0.16,-0.13,1721201474561
-2.92,1.27,10.11,0.03,-0.25,-0.08,1721201474571
-3.85,1.24,6.83,0.00,-0.01,0.02,1721201474581
-1.71,0.47,11.70,0.04,0.06,0.05,1721201474591
0.19,-1.41,6.03,0.16,0.09,-0.10,1721201474601
1.41,-0.91,12.40,-0.10,0.18,0.03,1721201474611
-0.83,7.27,9.99,0.14,-0.35,0.14,1721201474621
1.76,0.88,7.07,-0.05,0.25,-0.11,1721201474631
0.09,-1.82,7.58,0.07,-0.18,-0.16,1721201474641
0.37,0.72,17.15,-0.03,0.36,-0.09,1721201474651
-1.69,1.97,15.36,0.13,-0.21,-0.12,1721201474661
-3.94,0.62,6.53,0.00,0.03,0.10,1721201474671
0.28,-1.95,13.66,0.04,0.20,0.16,1721201474681
2.03,2.93,8.66,0.24,-0.25,0.20,1721201474691
0.56,10.49,7.53,0.11,0.06,-0.11,1721201474701
-1.67,2.31,14.62,-0.03,-0.23,-0.23,1721201474711
-6.15,-10.22,3.02,-0.21,-0.39,-0.00,1721201474721
-3.90,-1.24,5.13,-0.08,0.33,0.13,1721201474731
2.62,-1.78,16.87,-0.33,0.26,0.35,1721201474741
1.19,8.32,15.49,0.22,-0.32,0.42,1721201474751
6.02,4.76,3.65,0.12,0.21,0.02,1721201474761
2.86,-4.99,11.55,-0.43,-0.31,-0.21,1721201474771
-3.74,1.19,14.03,-0.08,-0.32,-0.37,1721201474781
-3.81,1.90,7.09,-0.00,0.15,-0.20,1721201474791
-3.84,-3.99,8.08,-0.15,-0.22,0.29,1721201474801
-0.47,0.85,7.21,0.06,-0.17,0.53,1721201474811
2.47,-7.43,4.17,-0.40,0.11,0.03,1721201474821
0.36,12.11,18.51,0.07,-0.02,-0.26,1721201474831
3.74,-1.84,6.96,0.03,-0.11,-0.28,1721201474841
-2.31,-6.89,10.22,-0.42,-0.35,-0.10,1721201474851
-5.66,1.46,4.75,0.22,-0.17,-0.08,1721201474861
5.15,-3.80,3.75,-0.27,0.40,0.15,1721201474871
0.27,-2.24,19.79,-0.37,-0.33,-0.04,1721201474881
-1.26,3.44,13.41,0.17,0.12,-0.20,1721201474891
2.72,-3.76,4.52,-0.03,0.10,-0.10,1721201474901
0.65,6.34,21.07,-0.07,0.15,-0.13,1721201474911
0.19,1.69,13.20,0.23,-0.26,-0.12,1721201474921
-3.80,-2.89,1.72,0.01,-0.08,-0.05,1721201474931
0.35,2.80,12.87,0.15,0.40,-0.03,1721201474941
1.16,-8.54,8.75,-0.14,-0.31,0.02,1721201474951
-4.75,8.41,14.04,0.27,0.00,0.02,1721201474961
5.22,-3.19,8.96,0.19,0.37,0.04,1721201474971
-0.33,2.60,11.60,-0.04,-0.31,-0.05,1721201474981
-2.02,2.65,5.63,0.19,-0.05,-0.07,1721201474991
3.12,-4.44,10.07,-0.02,0.38,-0.12,1721201475001
0.70,1.38,14.00,0.06,-0.10,-0.14,1721201475011
-2.62,0.99,5.55,0.09,-0.15,-0.06,1721201475021
1.75,-0.53,9.00,0.09,0.33,0.03,1721201475031
5.36,2.79,12.15,0.22,0.22,-0.16,1721201475041
1.36,5.29,10.75,0.08,0.11,-0.44,1721201475051
-3.19,1.76,11.54,0.10,-0.06,-0.38,1721201475061
-2.87,-4.65,5.35,0.09,0.12,-0.12,1721201475071
-0.18,-1.88,7.18,-0.17,0.24,0.13,1721201475081
0.25,5.13,18.96,0.05,0.18,-0.21,1721201475091
1.36,3.52,5.78,0.33,-0.04,-0.21,1721201475101
1.27,1.70,4.19,-0.10,0.31,-0.01,1721201475111
0.08,1.84,15.70,-0.08,0.04,-0.22,1721201475121
-3.10,-0.46,7.90,-0.02,-0.06,-0.38,1721201475131
-3.80,3.12,9.60,-0.14,0.24,-0.17,1721201475141
-0.75,0.50,7.98,0.01,0.09,0.14,1721201475151
2.10,-4.56,11.48,-0.25,0.35,0.01,1721201475161
0.25,8.56,16.86,0.10,-0.07,-0.35,1721201475171
-0.47,1.86,3.64,0.05,0.06,-0.31,1721201475181
-0.53,-2.32,10.15,-0.22,0.33,-0.15,1721201475191
-0.77,0.46,17.90,-0.05,0.06,-0.02,1721201475201
-1.77,3.53,10.78,0.11,-0.03,-0.06,1721201475211
-0.95,-0.49,4.20,-0.12,0.16,-0.10,1721201475221
-0.10,-0.97,14.05,-0.21,0.26,-0.24,1721201475231
-0.29,-0.19,14.90,0.09,-0.06,-0.01,1721201475241
-0.68,1.69,6.36,0.03,0.07,-0.09,1721201475251
-0.62,0.97,6.21,-0.02,-0.06,-0.13,1721201475261
-1.94,-2.51,5.18,-0.15,0.13,-0.10,1721201475271
0.84,0.66,15.05,-0.00,0.47,-0.19,1721201475281
1.71,-2.77,11.00,-0.07,-0.03,-0.08,1721201475291
-4.41,0.46,8.36,-0.11,-0.06,-0.19,1721201475301
-1.26,6.71,13.18,0.19,0.34,-0.14,1721201475311
0.84,-1.84,12.25,-0.20,0.18,0.07,1721201475321
-2.86,5.39,12.41,0.19,-0.28,-0.04,1721201475331
1.73,-3.86,4.80,-0.03,0.32,-0.05,1721201475341
-3.10,-0.61,8.88,-0.13,-0.10,-0.23,1721201475351
-2.47,3.51,16.64,0.04,0.25,-0.28,1721201475361
-1.81,-6.78,7.01,0.03,-0.02,-0.01,1721201475371
-1.93,-1.23,13.29,-0.05,0.29,0.14,1721201475381
0.62,3.37,13.92,0.27,-0.04,0.04,1721201475391
1.79,0.01,9.38,0.02,0.11,-0.05,1721201475401
-2.60,3.25,8.30,0.15,-0.16,-0.14,1721201475411
-2.18,-0.50,12.06,0.00,0.14,-0.22,1721201475421
-1.53,-3.42,13.25,0.12,-0.10,0.11,1721201475431
-2.69,3.42,4.94,0.17,0.02,0.06,1721201475441
0.24,-1.14,12.15,-0.07,0.23,0.01,1721201475451
0.33,6.73,8.66,0.43,-0.30,0.10,1721201475461
-0.45,-4.88,-0.15,-0.12,0.01,0.08,1721201475471
-0.44,-0.06,19.32,-0.19,0.13,-0.05,1721201475481
-0.26,5.77,13.85,0.35,-0.26,-0.09,1721201475491
-1.92,-7.93,2.09,-0.29,0.00,0.06,1721201475501
-4.33,1.43,13.58,0.13,-0.13,0.22,1721201475511
-0.91,1.88,8.01,0.17,0.04,0.28,1721201475521
1.97,2.59,10.60,-0.02,-0.10,0.28,1721201475531
1.37,3.40,11.02,0.11,-0.08,0.12,1721201475541
0.40,-0.31,14.30,0.14,-0.00,-0.01,1721201475551
0.08,0.01,7.24,0.09,-0.54,0.18,1721201475561
-2.31,4.84,5.84,-0.02,-0.08,0.16,1721201475571
1.39,-2.40,10.90,-0.15,-0.04,0.07,1721201475581
0.47,-0.85,13.81,0.02,-0.16,0.03,1721201475591
-0.36,-1.03,7.77,-0.07,-0.17,-0.01,1721201475601
-1.92,2.69,14.29,-0.05,-0.25,0.24,1721201475611
-0.21,4.13,11.04,0.14,-0.16,0.27,1721201475621
1.15,2.20,7.32,-0.02,-0.14,0.22,1721201475631
1.68,-2.52,11.92,-0.19,-0.12,0.04,1721201475641
-0.36,1.26,11.09,0.05,-0.39,0.03,1721201475651
0.02,1.21,10.70,-0.10,0.13,0.08,1721201475661
-0.41,1.83,12.76,-0.01,-0.39,0.23,1721201475671
1.85,1.99,3.66,0.11,-0.19,0.17,1721201475681
6.36,0.37,8.68,-0.17,0.10,-0.00,1721201475691
3.04,0.78,16.71,-0.16,-0.32,-0.30,1721201475701
-3.77,-2.26,12.96,-0.08,-0.22,-0.38,1721201475711
-6.29,-3.09,6.78,-0.02,-0.22,-0.13,1721201475721
-2.23,-2.77,5.52,-0.13,0.01,0.32,1721201475731
3.38,-1.43,15.07,-0.21,0.23,0.16,1721201475741
4.30,2.28,15.76,0.06,-0.23,-0.14,1721201475751
3.27,-0.84,4.91,0.03,-0.14,-0.27,1721201475761
0.34,1.17,10.50,-0.12,0.03,-0.43,1721201475771
0.09,6.33,13.63,0.09,-0.08,-0.35,1721201475781
-2.20,-4.02,7.15,-0.18,-0.19,-0.16,1721201475791
-2.63,-5.92,12.61,-0.25,-0.02,-0.14,1721201475801
1.27,2.42,9.96,0.21,0.03,0.00,1721201475811
3.66,0.40,2.93,-0.06,0.03,-0.14,1721201475821
4.48,2.53,15.46,-0.14,0.20,-0.43,1721201475831
1.33,1.54,15.87,0.08,-0.04,-0.68,1721201475841
-4.82,-2.35,6.72,-0.04,-0.09,-0.57,1721201475851
-6.53,0.72,7.77,0.02,0.06,-0.16,1721201475861
-2.15,-3.85,8.36,0.00,0.04,0.19,1721201475871
0.13,6.24,12.19,0.22,0.04,0.17,1721201475881
5.06,-1.02,6.88,0.07,0.17,-0.13,1721201475891
2.03,1.25,12.37,-0.07,0.07,-0.49,1721201475901
-1.51,0.99,14.24,0.13,-0.11,-0.48,1721201475911
-3.88,1.27,7.27,0.17,0.06,-0.16,1721201475921
-2.20,-0.83,7.68,0.02,0.16,0.12,1721201475931
0.45,-0.87,11.44,0.07,0.11,0.05,1721201475941
4.10,0.59,11.93,0.09,0.22,-0.09,1721201475951
3.35,4.73,16.58,0.16,0.19,-0.28,1721201475961
-0.68,-0.93,5.74,0.16,-0.21,-0.29,1721201475971
-2.55,0.62,8.45,0.15,0.26,-0.25,1721201475981
0.90,0.18,11.66,0.24,0.26,-0.21,1721201475991
-1.47,-0.55,8.09,0.11,-0.03,-0.12,1721201476001
-3.45,-0.21,9.25,0.05,0.05,-0.02,1721201476011
0.01,6.51,12.35,0.34,0.23,-0.11,1721201476021
3.04,-0.07,7.68,0.16,0.26,-0.16,1721201476031
-0.14,-3.05,6.00,-0.12,0.03,-0.25,1721201476041
-2.06,-1.44,9.82,-0.14,0.12,-0.25,1721201476051
0.15,3.82,19.29,0.12,0.34,-0.21,1721201476061
-0.12,0.02,6.46,0.08,-0.01,-0.23,1721201476071
-3.55,-0.24,4.87,-0.09,0.07,-0.18,1721201476081
1.24,1.10,16.12,-0.11,0.49,-0.11,1721201476091
2.18,1.34,12.94,0.14,-0.05,-0.15,1721201476101
-0.25,0.58,3.20,-0.05,0.19,-0.22,1721201476111
-0.45,0.17,9.12,-0.03,0.23,-0.31,1721201476121
0.20,0.27,14.24,-0.05,0.25,-0.32,1721201476131
-0.82,5.29,11.34,0.16,0.06,-0.15,1721201476141
0.70,-0.26,8.32,-0.10,0.32,-0.26,1721201476151
-0.41,-0.71,11.01,0.04,0.02,-0.22,1721201476161
-0.69,-0.79,4.10,-0.02,0.23,-0.19,1721201476171
-0.25,0.07,11.01,-0.18,0.23,-0.29,1721201476181
-2.29,0.28,12.77,-0.04,0.05,-0.43,1721201476191
-5.42,-1.66,13.31,-0.02,0.09,-0.28,1721201476206
-4.71,-1.79,10.48,0.02,-0.01,-0.08,1721201476210
-4.40,-1.20,3.35,-0.01,0.18,0.05,1721201476220
2.40,-0.83,11.13,-0.11,0.43,0.01,1721201476230
2.81,3.28,12.91,0.09,-0.03,-0.19,1721201476240
-1.29,-1.18,6.74,-0.07,0.07,-0.48,1721201476250
-4.16,1.13,12.80,-0.01,0.20,-0.33,1721201476260
-2.27,-1.46,13.92,0.01,0.26,-0.05,1721201476270
-2.41,4.71,8.55,0.18,-0.03,0.02,1721201476280
-0.09,-0.27,4.17,-0.04,0.25,0.00,1721201476290
-0.02,0.01,14.55,-0.02,0.20,-0.04,1721201476300
-0.36,-3.49,8.31,0.04,-0.03,-0.15,1721201476310
0.08,-0.62,13.35,-0.09,0.35,-0.20,1721201476320
-1.64,2.54,12.37,0.24,-0.08,-0.12,1721201476330
-2.91,-1.39,7.79,-0.05,0.27,-0.09,1721201476340
-1.90,-0.42,12.17,0.06,0.03,0.05,1721201476350
-1.07,2.19,8.58,0.16,0.02,0.17,1721201476360
2.63,-3.32,8.48,-0.11,0.32,0.03,1721201476370
-0.61,0.42,9.42,0.14,-0.12,-0.09,1721201476380
-0.10,1.01,10.64,-0.04,0.31,-0.16,1721201476390
-0.64,3.27,12.21,0.14,-0.01,0.08,1721201476400
-0.54,-3.22,5.94,-0.07,0.09,0.23,1721201476410
-0.17,1.04,16.27,-0.07,0.17,0.01,1721201476420
0.72,2.53,11.11,0.29,-0.09,-0.11,1721201476430
-1.58,-3.58,4.83,-0.19,0.10,-0.04,1721201476440
-4.93,3.84,12.28,0.03,-0.09,-0.05,1721201476450
-1.35,1.93,12.84,0.16,0.25,0.09,1721201476460
-1.46,-2.85,4.96,-0.09,-0.21,0.31,1721201476470
-0.10,-1.03,10.66,-0.11,0.08,0.24,1721201476480
4.12,10.87,17.70,0.43,0.15,0.09,1721201476490
4.00,2.62,-0.57,0.20,-0.22,-0.05,1721201476500
-0.48,-0.73,8.97,-0.28,0.23,-0.25,1721201476510
-1.37,2.96,16.25,0.24,-0.16,-0.15,1721201476520
-1.93,-2.78,2.82,-0.18,0.06,0.04,1721201476530
-3.00,4.27,19.50,-0.02,0.03,0.11,1721201476540
-0.18,1.16,7.45,0.23,-0.24,0.14,1721201476550
0.21,-1.27,4.12,-0.21,0.16,0.17,1721201476560
0.19,1.15,11.83,-0.13,-0.08,0.02,1721201476570
-0.19,1.38,12.51,-0.06,0.00,0.01,1721201476580
-1.50,2.41,10.04,0.07,-0.11,0.10,1721201476590
-0.60,-1.80,7.92,-0.17,0.04,0.26,1721201476600
-0.45,3.29,14.80,-0.06,-0.10,0.25,1721201476610
0.98,0.48,9.67,-0.06,-0.10,0.06,1721201476620
-0.54,-4.24,9.79,-0.22,-0.08,0.10,1721201476630
-1.40,2.02,9.97,0.03,-0.02,0.15,1721201476640
1.42,0.50,10.65,-0.13,0.12,0.13,1721201476650
0.87,-5.46,10.12,-0.16,-0.40,0.15,1721201476660
-0.48,-0.10,8.67,-0.10,0.08,-0.02,1721201476670
1.34,0.05,12.38,-0.00,0.01,-0.01,1721201476680
-2.49,1.82,10.06,-0.13,-0.15,-0.03,1721201476690
-1.54,2.73,11.00,-0.02,-0.01,-0.01,1721201476700
1.22,-4.94,9.41,-0.14,0.04,0.05,1721201476710
-0.98,0.13,12.39,0.01,-0.16,0.09,1721201476720
0.64,3.51,7.10,0.13,0.04,0.09,1721201476730
3.04,3.04,9.49,0.01,0.06,0.07,1721201476740
1.92,-1.61,7.82,-0.08,-0.14,-0.09,1721201476750
-0.10,-2.57,11.38,-0.07,-0.00,-0.24,1721201476760
0.70,0.19,17.59,0.06,0.06,-0.25,1721201476770
0.08,-2.74,4.43,0.11,-0.34,0.15,1721201476780
0.69,3.76,12.69,-0.06,0.53,0.06,1721201476790
3.06,0.69,17.35,0.08,-0.07,-0.39,1721201476800
-5.08,-0.51,8.69,0.06,-0.46,-0.34,1721201476810
-4.02,-5.24,3.33,-0.01,0.13,0.19,1721201476820
-0.04,2.42,16.92,0.08,0.27,0.26,1721201476830
2.63,3.24,9.85,0.25,-0.12,0.05,1721201476840
2.10,-2.64,3.31,0.02,-0.05,-0.05,1721201476850
0.10,-2.23,11.77,-0.11,0.22,-0.30,1721201476860
-1.63,4.75,16.20,0.17,0.07,-0.32,1721201476870
-2.24,-1.13,3.72,0.12,-0.15,0.13,1721201476880
0.83,-3.51,7.45,-0.08,0.26,0.31,1721201476890
4.81,1.33,16.92,0.09,0.16,-0.02,1721201476900
1.68,4.75,11.46,0.17,-0.09,-0.40,1721201476910
-1.94,0.27,9.03,0.04,0.01,-0.40,1721201476920
-3.48,-0.22,7.58,0.17,-0.01,-0.08,1721201476930
-1.52,-2.83,7.25,0.03,0.18,0.10,1721201476940
-0.24,1.51,13.34,0.10,0.02,0.13,1721201476950
1.00,3.01,5.69,0.23,-0.07,0.10,1721201476960
2.65,-1.00,8.42,-0.04,0.21,-0.01,1721201476970
0.57,-3.85,17.73,-0.14,-0.02,-0.25,1721201476980
-4.89,10.83,10.67,0.50,-0.20,-0.15,1721201476990
0.86,0.23,0.07,-0.03,0.44,0.08,1721201477000
-6.58,-3.44,18.08,-0.20,0.06,0.07,1721201477010
-0.22,1.41,12.68,0.15,-0.12,-0.10,1721201477020
1.38,0.52,8.11,0.02,0.33,-0.15,1721201477030
-0.50,3.64,8.47,-0.02,-0.19,0.01,1721201477040
0.27,0.99,8.69,-0.05,0.10,0.05,1721201477050
1.58,-1.08,12.15,0.07,0.07,-0.16,1721201477060
0.06,1.27,5.86,0.07,0.03,-0.26,1721201477070
0.85,1.54,12.73,-0.12,0.30,-0.15,1721201477080
0.03,1.37,14.55,0.00,-0.14,0.02,1721201477090
-0.62,0.14,9.90,0.09,-0.00,-0.02,1721201477100
-0.22,0.52,4.82,0.05,0.05,-0.11,1721201477110
-1.00,-0.24,9.51,-0.10,0.05,-0.16,1721201477120
-2.35,0.05,9.71,-0.02,-0.12,-0.09,1721201477130
-1.57,1.92,11.86,0.00,0.23,-0.09,1721201477140
-0.59,-2.27,5.85,0.03,-0.02,-0.04,1721201477150
-0.76,-0.95,10.55,-0.21,0.23,-0.05,1721201477160
-0.49,-0.20,12.81,-0.03,-0.08,-0.05,1721201477170
0.17,-0.10,9.24,-0.01,0.10,0.00,1721201477180
-0.20,-1.22,13.32,-0.11,0.04,-0.19,1721201477190
-3.94,-4.30,3.40,0.06,-0.34,-0.01,1721201477200
-0.59,6.15,9.64,0.04,0.60,0.11,1721201477210
4.24,0.52,16.30,-0.10,0.19,-0.13,1721201477220
-1.89,1.46,12.35,0.08,-0.36,-0.10,1721201477230
-1.77,-1.34,1.67,0.02,0.13,-0.06,1721201477240
-0.38,-2.05,15.20,-0.21,0.21,-0.02,1721201477250
-1.84,1.63,16.92,0.09,-0.22,0.00,1721201477260
-2.91,1.59,5.65,0.08,-0.14,0.07,1721201477270
-0.94,-0.08,8.37,0.04,0.20,0.09,1721201477280
0.76,-3.00,9.39,-0.09,-0.02,0.07,1721201477290
-0.11,1.77,11.50,0.03,-0.02,0.01,1721201477300
1.66,1.05,11.57,-0.02,-0.00,0.03,1721201477310
-0.52,2.42,14.04,0.06,-0.12,-0.05,1721201477320
-0.26,0.00,8.09,0.02,-0.18,0.06,1721201477330
-0.89,1.07,11.07,0.05,-0.06,-0.07,1721201477340
0.51,2.43,7.47,0.12,-0.08,-0.02,1721201477350
0.26,1.02,14.38,-0.12,0.11,-0.18,1721201477360
-2.47,2.49,11.05,0.28,-0.38,-0.06,1721201477370
-1.19,-3.34,6.44,-0.10,0.16,0.11,1721201477380
-0.31,0.20,12.37,-0.02,-0.28,0.05,1721201477390
0.15,5.26,10.46,0.16,0.04,-0.09,1721201477400
1.47,-0.92,9.60,-0.02,-0.12,-0.09,1721201477410
-2.66,-0.84,10.47,0.04,-0.24,-0.17,1721201477420
-0.91,0.97,9.08,0.12,0.09,-0.04,1721201477430
1.17,2.42,9.29,0.01,0.01,-0.04,1721201477440
1.43,2.10,14.04,-0.02,-0.03,-0.06,1721201477450
0.55,-0.31,9.51,0.13,-0.23,-0.11,1721201477460
0.34,2.70,5.99,0.05,0.01,-0.14,1721201477470
2.11,0.56,12.47,-0.13,0.01,-0.20,1721201477480
-1.96,1.10,12.64,-0.03,-0.22,-0.22,1721201477490
-3.78,2.61,9.43,0.05,-0.03,-0.16,1721201477500
-2.38,-0.44,5.34,0.04,-0.13,0.06,1721201477510
0.12,-0.27,11.11,-0.14,0.14,0.09,1721201477520
0.88,0.58,12.88,-0.07,-0.18,-0.07,1721201477530
-1.00,2.36,9.30,0.00,-0.08,-0.27,1721201477540
-0.06,-2.12,13.84,-0.11,0.09,-0.20,1721201477550
-3.49,2.04,8.98,0.12,-0.36,0.05,1721201477560
-1.37,2.50,6.05,-0.09,0.17,0.08,1721201477570
2.61,-1.82,15.52,-0.10,-0.04,-0.04,1721201477580
-0.10,-0.26,5.54,0.08,-0.32,-0.11,1721201477590
-0.11,-2.09,6.45,-0.17,0.15,-0.12,1721201477600
0.45,-0.74,14.55,-0.04,-0.16,-0.06,1721201477610
-0.12,2.68,11.12,0.03,-0.04,-0.08,1721201477620
-0.26,1.71,8.03,-0.04,-0.11,-0.11,1721201477630
-1.13,-0.72,8.99,-0.13,-0.01,-0.18,1721201477640
-1.40,-4.00,9.04,-0.11,-0.03,-0.15,1721201477650
-1.69,-1.58,10.43,-0.12,0.01,-0.06,1721201477660
-0.96,-0.32,11.84,-0.05,-0.04,0.05,1721201477670
0.35,0.99,9.95,-0.07,-0.02,0.08,1721201477680
1.70,2.09,10.99,-0.07,-0.04,-0.11,1721201477690
2.21,0.19,9.90,-0.10,-0.07,-0.13,1721201477700
-0.06,0.71,13.78,-0.07,0.04,-0.20,1721201477710
-2.13,3.22,11.97,0.10,-0.11,-0.17,1721201477720
-1.24,-1.55,7.10,-0.02,-0.00,0.03,1721201477730
0.05,-1.56,15.51,-0.09,0.05,0.05,1721201477740
1.28,3.77,11.48,0.20,-0.14,0.03,1721201477750
2.38,2.04,9.05,0.05,0.06,-0.09,1721201477760
-0.13,-0.77,8.15,0.10,-0.25,-0.09,1721201477770
-1.44,-0.76,6.14,0.04,0.13,-0.15,1721201477780
0.04,-0.80,14.29,0.01,0.08,-0.07,1721201477790
-0.96,2.46,10.76,0.18,-0.17,0.06,1721201477800
1.53,-1.28,7.97,0.02,0.10,0.08,1721201477810
1.71,1.86,12.48,0.18,-0.08,-0.01,1721201477820
1.89,0.26,6.73,0.08,0.05,-0.20,1721201477830
-0.62,0.24,11.96,-0.02,0.01,-0.34,1721201477840
-1.00,0.09,14.89,0.16,0.00,-0.20,1721201477850
-0.60,-0.23,9.24,0.14,-0.01,0.08,1721201477860
-0.11,1.95,8.19,0.12,0.04,0.05,1721201477870
2.06,0.40,11.13,0.08,0.15,-0.21,1721201477880
0.36,0.41,9.68,0.12,-0.09,-0.34,1721201477890
-1.70,-2.02,5.48,-0.01,-0.01,-0.17,1721201477900
-1.61,-1.60,12.77,-0.03,0.10,-0.07,1721201477910
-0.86,2.08,9.02,0.18,-0.07,-0.03,1721201477920
1.20,1.27,9.60,-0.05,0.21,-0.07,1721201477930
0.83,3.00,17.00,0.09,-0.06,-0.24,1721201477940
-0.97,0.15,4.04,0.07,-0.18,-0.19,1721201477950
-0.54,-2.46,10.02,-0.14,0.28,-0.14,1721201477960
0.23,0.66,15.38,0.07,0.02,-0.16,1721201477970
-1.24,2.12,6.21,0.04,-0.10,-0.04,1721201477980
-0.44,4.41,8.35,0.01,0.12,-0.08,1721201477990
2.15,-0.57,9.00,-0.07,0.07,-0.11,1721201478000
1.10,-0.05,10.53,-0.09,0.02,-0.15,1721201478010
0.50,-0.39,9.79,-0.09,0.06,-0.32,1721201478020
-0.33,0.21,13.02,-0.09,0.06,-0.32,1721201478030
-1.15,0.94,10.40,0.04,-0.00,-0.15,1721201478040
-0.93,1.62,12.58,-0.05,0.15,-0.18,1721201478050
-0.78,0.06,9.85,0.06,-0.07,-0.16,1721201478060
-0.72,-0.61,8.40,-0.08,0.18,-0.20,1721201478070
-0.62,1.99,12.85,0.07,0.09,-0.25,1721201478080
-0.96,2.07,5.93,0.01,0.05,-0.21,1721201478090
-1.30,-1.15,11.42,-0.13,0.11,-0.17,1721201478100
0.56,-1.75,9.78,0.05,0.10,-0.18,1721201478110
0.70,-1.36,12.87,-0.16,0.24,-0.25,1721201478120
-1.41,3.44,12.83,0.08,-0.04,-0.35,1721201478130
-2.01,0.48,4.86,-0.00,0.08,-0.28,1721201478140
-2.20,-2.58,10.69,-0.10,0.14,-0.20,1721201478150
-0.58,-0.13,10.54,0.03,0.09,-0.09,1721201478160
0.57,-0.60,9.73,-0.08,0.09,-0.17,1721201478170
-0.80,0.57,9.99,0.01,0.06,-0.30,1721201478180
-1.39,-1.32,8.40,-0.10,0.17,-0.33,1721201478190
-2.69,0.49,12.36,-0.01,0.01,-0.22,1721201478200
-2.24,1.96,8.90,-0.05,0.10,-0.08,1721201478215
-0.25,-1.71,11.67,-0.07,0.07,-0.11,1721201478220
-1.51,1.62,9.61,0.03,0.01,-0.19,1721201478230
-0.85,1.45,12.21,-0.04,0.17,-0.21,1721201478240
-2.34,-1.73,8.84,0.03,-0.08,-0.05,1721201478250
-1.74,-1.04,8.28,-0.10,0.10,0.07,1721201478260
0.48,-0.03,12.28,-0.01,0.00,0.04,1721201478270
1.10,-0.75,9.76,0.04,0.01,-0.05,1721201478280
1.18,2.55,12.65,-0.02,0.09,-0.13,1721201478290
-0.30,3.57,11.59,0.14,-0.09,-0.10,1721201478300
-1.23,-1.19,5.59,-0.06,0.01,-0.10,1721201478310
-1.56,-0.88,13.90,-0.04,0.04,-0.05,1721201478320
-0.11,-0.75,10.38,0.07,-0.00,-0.02,1721201478330
-0.17,2.29,11.10,0.04,0.06,-0.03,1721201478340
-0.14,3.50,10.75,0.19,0.10,-0.15,1721201478350
-0.15,-0.05,6.57,0.02,-0.04,-0.05,1721201478360
-1.45,0.77,9.02,-0.00,-0.06,-0.00,1721201478370
0.40,0.23,11.64,0.03,0.09,0.03,1721201478380
0.36,-2.21,8.08,0.01,-0.18,0.00,1721201478390
0.31,0.39,9.45,-0.00,-0.04,-0.06,1721201478400
0.99,2.56,13.17,0.04,0.16,-0.22,1721201478410
-0.32,3.54,8.87,0.20,-0.12,-0.19,1721201478420
-0.73,-1.60,8.15,-0.14,0.16,-0.17,1721201478430
-1.50,2.12,16.38,0.06,-0.08,-0.06,1721201478440
-2.17,3.45,4.87,0.11,-0.04,-0.09,1721201478450
0.07,-2.00,10.42,-0.15,0.19,-0.06,1721201478460
-1.33,0.11,9.34,0.04,-0.19,-0.12,1721201478470
-0.50,0.09,8.28,-0.10,0.17,-0.07,1721201478480
0.54,1.75,10.90,-0.04,-0.02,-0.00,1721201478490
1.39,3.82,11.64,-0.02,0.16,-0.08,1721201478500
-0.10,0.88,10.33,0.00,-0.04,-0.18,1721201478510
-1.76,-1.85,10.74,-0.18,0.02,-0.24,1721201478520
-3.25,1.14,10.86,-0.04,-0.09,-0.13,1721201478530
-0.86,1.47,11.74,0.06,0.17,0.09,1721201478540
0.95,-3.54,9.50,-0.17,0.04,-0.02,1721201478550
-0.98,2.54,12.82,0.05,-0.14,-0.08,1721201478560
1.94,2.58,9.38,0.04,0.25,-0.20,1721201478570
-1.55,-1.45,10.69,-0.05,-0.17,-0.23,1721201478580
-3.34,-0.87,10.07,0.02,-0.01,-0.09,1721201478590
-0.78,0.85,9.88,0.05,0.10,0.11,1721201478600
-0.12,-2.72,6.46,-0.05,-0.12,0.11,1721201478610
1.36,-5.43,11.04,-0.19,0.15,0.04,1721201478620
1.02,2.64,15.24,0.04,-0.07,-0.10,1721201478630
1.19,1.48,7.99,0.03,-0.01,-0.07,1721201478640
1.12,-3.03,7.66,-0.08,-0.01,0.01,1721201478650
-0.68,2.53,10.11,-0.06,0.07,-0.16,1721201478660
-0.92,0.41,7.19,-0.03,0.00,-0.23,1721201478670
-0.58,-5.35,8.64,-0.24,0.04,-0.09,1721201478680
0.44,-1.91,15.58,-0.13,0.07,0.07,1721201478690
-0.59,-1.84,8.72,-0.08,-0.11,0.02,1721201478700
-0.70,2.37,9.39,-0.08,0.16,-0.07,1721201478710
1.74,1.29,12.40,-0.09,0.18,-0.19,1721201478720
-1.41,-2.93,8.67,-0.20,-0.21,-0.20,1721201478730
-3.21,-0.67,9.58,-0.19,0.11,-0.01,1721201478740
-0.26,2.07,12.54,-0.03,0.15,0.08,1721201478750
-0.61,0.62,8.96,-0.14,-0.10,0.13,1721201478760
-0.19,2.10,10.53,-0.13,0.05,0.05,1721201478770
1.40,2.03,10.80,0.00,0.04,-0.07,1721201478780
-0.04,-0.53,10.15,-0.08,0.04,-0.05,1721201478790
-2.03,4.32,13.52,0.03,0.00,-0.10,1721201478800
-0.36,1.87,10.02,0.14,-0.09,-0.05,1721201478810
0.75,4.47,12.87,0.10,0.15,0.16,1721201478820
1.36,0.10,11.20,0.09,-0.08,-0.01,1721201478830
-0.46,-1.66,9.14,0.09,-0.09,-0.06,1721201478840
0.04,5.28,11.18,0.26,0.17,-0.18,1721201478850
0.37,0.04,8.67,0.27,-0.13,-0.05,1721201478860
-1.87,1.86,8.76,0.25,0.03,0.07,1721201478870
0.14,3.73,9.61,0.36,0.03,0.01,1721201478880
0.33,-3.62,9.52,0.04,-0.07,0.01,1721201478890
-0.05,4.96,12.05,0.24,-0.02,-0.03,1721201478900
2.14,-2.04,6.41,0.06,0.06,-0.13,1721201478910
-0.56,1.27,12.78,0.01,0.01,-0.21,1721201478920
-0.98,-2.00,10.06,0.16,-0.08,-0.20,1721201478930
-2.69,-0.90,8.67,0.00,-0.04,-0.08,1721201478940
-1.36,2.18,10.45,0.10,0.02,0.06,1721201478950
2.20,1.79,11.50,0.03,0.09,0.08,1721201478960
1.93,-0.31,7.30,0.06,-0.12,-0.05,1721201478970
1.13,-2.90,5.27,-0.12,0.02,-0.20,1721201478980
1.42,-0.19,17.22,-0.10,0.11,-0.29,1721201478990
0.49,0.35,6.30,0.15,-0.16,-0.22,1721201479000
-0.35,-1.72,7.64,-0.24,0.22,-0.19,1721201479010
-0.51,-0.49,16.70,-0.04,-0.14,-0.22,1721201479020
-1.46,2.91,6.93,0.12,0.01,-0.19,1721201479030
0.29,-1.34,6.47,-0.21,0.25,-0.21,1721201479040
0.17,-2.87,15.44,-0.16,0.01,-0.19,1721201479050
-0.57,-2.09,12.00,-0.03,0.04,-0.24,1721201479060
-0.92,1.65,9.64,0.01,0.03,-0.23,1721201479070
-0.76,2.63,11.86,-0.03,0.12,-0.16,1721201479080
-0.68,-3.56,8.70,-0.10,-0.11,-0.07,1721201479090
-1.19,-0.81,9.49,-0.06,0.02,-0.16,1721201479100
1.84,-0.66,10.63,-0.03,0.15,-0.23,1721201479110
-1.49,-2.61,7.12,-0.09,-0.13,-0.31,1721201479120
-2.62,0.97,13.05,-0.06,0.20,-0.28,1721201479130
-0.99,0.14,11.92,0.08,0.08,-0.21,1721201479140
-0.99,1.72,8.71,0.02,0.05,-0.06,1721201479150
-0.12,1.09,10.05,-0.01,0.08,-0.15,1721201479160
-0.15,-1.57,10.73,-0.03,0.00,-0.19,1721201479170
-1.63,3.33,10.85,0.05,0.08,-0.32,1721201479180
-1.44,-1.36,10.53,-0.01,0.05,-0.17,1721201479190
-2.56,-0.73,10.34,0.02,0.04,-0.06,1721201479200
0.03,-1.15,9.92,-0.02,0.15,-0.08,1721201479210
0.72,5.03,11.47,0.21,-0.06,-0.12,1721201479220
1.27,2.13,8.32,0.10,0.06,-0.23,1721201479230
-1.21,0.13,8.85,0.07,-0.13,-0.28,1721201479240
-2.08,-0.35,7.61,0.06,0.03,-0.20,1721201479250
-1.42,1.89,11.10,0.02,0.12,-0.19,1721201479260
-0.13,0.97,12.73,0.07,0.08,-0.09,1721201479270
-0.44,0.81,8.07,0.08,0.01,-0.07,1721201479280
-0.32,-1.11,9.64,-0.00,0.10,-0.17,1721201479290
0.84,2.60,13.14,0.09,0.15,-0.22,1721201479300
-0.60,2.11,9.30,0.03,-0.09,-0.21,1721201479310
-2.07,1.92,11.33,0.06,0.07,-0.11,1721201479320
0.17,-1.60,12.09,0.09,0.12,-0.05,1721201479330
-0.46,4.28,8.55,0.18,-0.07,-0.11,1721201479340
0.66,0.81,7.38,0.01,0.09,-0.15,1721201479350
-1.02,-5.81,9.82,-0.12,-0.08,-0.20,1721201479360
-2.18,2.83,11.10,0.20,0.15,-0.09,1721201479370
1.23,-1.73,6.81,-0.02,0.05,-0.02,1721201479380
-0.06,3.93,12.60,0.11,0.00,-0.02,1721201479390
1.53,3.39,6.44,0.22,0.17,-0.26,1721201479400
0.51,-2.36,10.17,-0.19,0.07,-0.32,1721201479410
-2.43,-1.78,15.68,-0.03,-0.03,-0.29,1721201479420
-2.93,0.94,8.86,0.11,0.05,-0.04,1721201479430
-0.98,-0.28,8.01,-0.05,0.12,0.14,1721201479440
0.48,2.40,11.61,0.03,0.04,-0.04,1721201479450
0.52,0.11,7.22,0.01,-0.06,-0.20,1721201479460
-2.15,-2.89,9.08,-0.19,0.03,-0.09,1721201479470
-1.61,2.59,13.86,-0.00,0.03,0.06,1721201479480
0.12,0.60,8.62,-0.00,-0.02,0.12,1721201479490
1.71,0.41,9.27,-0.08,-0.01,0.07,1721201479500
1.80,-2.17,12.59,-0.12,0.01,-0.15,1721201479510
-2.96,3.65,8.04,0.02,-0.18,-0.28,1721201479520
-3.71,0.05,12.04,-0.18,0.09,-0.14,1721201479530
-3.53,0.46,13.13,0.04,-0.13,0.21,1721201479540
-0.21,4.41,7.75,0.09,0.02,0.27,1721201479550
2.94,0.77,11.47,-0.05,-0.04,0.20,1721201479560
1.09,-4.30,6.90,-0.09,-0.31,-0.04,1721201479570
0.17,1.49,8.71,-0.07,0.08,-0.24,1721201479580
1.67,1.87,14.15,0.04,0.01,-0.19,1721201479590
-2.29,-1.49,11.77,-0.06,-0.25,-0.02,1721201479600
-4.53,2.86,7.11,0.12,-0.23,0.06,1721201479610
1.07,0.18,7.36,0.02,0.18,0.13,1721201479620
1.98,1.16,14.97,-0.05,-0.08,-0.06,1721201479630
-1.04,-1.08,5.23,0.02,-0.38,-0.10,1721201479640
