AccX,AccY,AccZ,GyrX,GyrY,GyrZ,Time
-2.42,0.51,2.21,0.06,-0.14,-0.05,1721200915141
-2.18,-0.75,3.02,-0.26,-0.12,0.02,1721200915146
-2.45,-1.28,19.11,-0.20,-0.17,0.08,1721200915156
0.80,1.63,9.48,0.20,-0.09,0.14,1721200915166
2.91,1.97,3.45,-0.25,0.02,-0.01,1721200915176
-1.19,-1.13,8.46,-0.28,-0.33,-0.17,1721200915186
-1.80,3.82,15.03,0.14,0.06,-0.11,1721200915196
3.23,1.33,1.07,-0.19,-0.05,-0.02,1721200915206
-1.38,0.72,16.28,-0.38,-0.17,-0.07,1721200915216
-1.28,2.39,16.99,0.10,0.01,-0.08,1721200915226
-2.70,1.10,0.19,-0.16,-0.25,-0.03,1721200915236
-6.15,4.04,13.89,-0.27,-0.03,-0.05,1721200915246
-3.26,2.40,7.98,-0.04,-0.23,0.11,1721200915256
-3.67,6.02,8.68,-0.23,-0.01,0.10,1721200915266
-2.01,3.90,14.76,-0.26,-0.12,0.08,1721200915276
-4.12,6.49,12.62,-0.10,-0.35,0.16,1721200915286
-2.45,8.21,9.81,-0.07,-0.13,0.28,1721200915296
0.64,6.06,11.99,-0.19,-0.24,0.30,1721200915306
5.31,1.68,13.87,-0.05,-0.67,0.93,1721200915316
8.08,2.19,4.06,-0.05,0.18,0.31,1721200915326
12.34,0.95,10.70,-0.42,-0.12,-0.81,1721200915336
-0.52,-1.20,10.76,-0.14,-0.43,-1.50,1721200915346
-17.32,-6.26,6.71,-0.09,-0.32,-1.09,1721200915356
-24.19,-2.08,10.87,0.00,-0.08,0.07,1721200915366
-18.68,-0.55,8.98,-0.01,-0.36,1.51,1721200915376
2.45,-4.47,6.85,-0.23,-0.08,1.98,1721200915386
14.00,1.21,15.17,-0.11,-0.14,1.29,1721200915396
15.70,-0.73,4.70,-0.04,-0.33,0.26,1721200915406
10.01,-1.37,7.33,-0.25,-0.30,-0.70,1721200915416
0.06,-1.45,11.68,-0.20,-0.74,-0.81,1721200915426
-10.27,-1.71,13.81,-0.20,-0.32,-0.18,1721200915436
-6.48,-2.12,13.38,-0.09,-0.21,0.66,1721200915446
1.33,-0.22,6.86,-0.07,-0.17,0.74,1721200915456
3.65,-1.99,8.55,-0.09,-0.26,0.16,1721200915466
1.73,-0.86,13.39,0.02,-0.31,-0.10,1721200915476
-0.29,0.35,10.91,0.16,-0.24,0.07,1721200915486
0.78,-3.87,10.82,0.03,-0.22,0.40,1721200915496
3.31,-0.04,13.22,0.12,-0.16,0.36,1721200915506
4.89,4.19,12.81,0.23,-0.26,0.02,1721200915516
3.83,0.84,6.08,0.10,-0.12,-0.23,1721200915526
0.73,-1.85,15.31,0.05,-0.13,-0.34,1721200915536
-1.07,-3.10,9.57,0.33,-0.20,-0.22,1721200915546
-1.04,-1.43,8.75,0.21,-0.07,-0.00,1721200915556
1.18,-0.03,13.31,0.18,-0.04,0.10,1721200915566
1.98,2.78,12.30,0.18,-0.09,-0.16,1721200915576
2.47,-0.87,6.62,0.10,-0.16,-0.24,1721200915586
0.44,0.74,8.79,0.08,-0.01,-0.42,1721200915596
0.98,-6.10,11.77,0.09,-0.01,-0.29,1721200915606
-3.11,0.64,11.30,0.31,-0.19,-0.06,1721200915616
2.72,-2.75,1.41,-0.04,0.21,0.03,1721200915626
2.39,0.68,17.38,0.05,0.00,-0.29,1721200915636
1.07,-4.37,9.62,0.17,-0.09,-0.35,1721200915646
-3.63,-0.96,11.94,0.07,0.02,-0.16,1721200915656
0.12,4.25,10.93,0.13,0.19,0.09,1721200915666
3.45,-0.04,2.29,0.10,-0.08,0.04,1721200915676
3.60,0.40,13.04,-0.12,0.28,-0.38,1721200915686
0.96,-1.26,12.48,0.18,-0.11,-0.48,1721200915696
-2.07,-0.62,7.52,0.04,0.13,-0.24,1721200915706
-1.09,0.18,10.64,0.00,0.16,-0.04,1721200915716
0.94,2.15,15.69,0.14,0.14,-0.04,1721200915726
3.31,-1.50,2.55,0.08,0.06,-0.07,1721200915736
1.97,1.82,12.47,-0.16,0.30,-0.28,1721200915746
1.65,1.74,13.63,0.00,0.15,-0.41,1721200915756
-0.80,1.44,8.34,0.06,0.10,-0.36,1721200915766
-0.97,0.68,4.46,-0.07,0.28,-0.31,1721200915776
-2.02,0.58,13.92,-0.24,0.19,-0.27,1721200915786
-3.80,2.01,9.81,0.03,-0.02,-0.26,1721200915796
-1.57,1.41,9.25,-0.23,0.30,-0.27,1721200915806
0.71,-5.30,6.21,-0.24,-0.06,-0.18,1721200915816
-1.32,0.87,12.07,-0.14,0.14,-0.29,1721200915826
3.78,-3.74,7.63,-0.24,0.27,-0.33,1721200915836
0.37,3.79,16.91,-0.14,0.16,-0.30,1721200915846
3.02,-0.79,8.96,-0.16,0.31,-0.25,1721200915856
1.61,0.64,10.13,-0.21,0.19,-0.41,1721200915866
1.01,-0.80,11.35,-0.31,0.20,-0.65,1721200915876
-1.41,0.94,13.95,0.02,-0.07,-0.64,1721200915886
-3.41,-7.09,-0.37,-0.02,-0.01,-0.39,1721200915896
-3.21,-2.34,18.65,-0.28,0.60,-0.38,1721200915906
-1.31,3.54,12.67,0.20,-0.04,-0.28,1721200915916
1.27,-0.28,5.82,-0.25,0.52,-0.46,1721200915926
1.05,-2.29,15.45,-0.14,0.07,-0.56,1721200915936
-3.33,-2.46,5.74,0.21,-0.10,-0.27,1721200915946
-1.79,0.65,13.02,0.01,0.56,-0.17,1721200915956
-5.55,-4.52,13.80,0.05,-0.19,-0.19,1721200915966
-4.24,1.33,15.30,0.08,0.49,-0.23,1721200915976
-0.27,-2.52,3.11,0.24,-0.18,-0.08,1721200915986
-1.57,-5.77,9.88,-0.08,0.23,-0.09,1721200915996
0.06,1.51,13.07,0.34,0.10,-0.09,1721200916006
-0.35,-3.16,8.45,0.03,0.11,-0.18,1721200916016
-6.89,1.92,14.39,0.25,-0.37,-0.24,1721200916026
-2.20,-2.47,5.60,0.21,0.36,-0.14,1721200916036
-0.31,-4.07,15.98,0.08,-0.05,-0.00,1721200916046
-2.94,-0.59,6.79,0.24,-0.11,0.01,1721200916056
-1.39,1.77,9.60,0.06,0.20,-0.16,1721200916066
-3.26,1.36,14.87,0.24,-0.27,-0.23,1721200916076
-5.93,-3.67,2.92,0.12,-0.21,-0.15,1721200916086
-4.03,0.50,11.28,0.13,0.02,0.02,1721200916096
0.06,0.04,11.09,0.13,0.02,-0.01,1721200916106
-1.52,3.48,9.98,0.26,-0.11,-0.17,1721200916116
-0.23,-0.58,7.65,0.13,0.01,-0.22,1721200916126
-2.09,-0.92,6.47,0.14,-0.27,-0.09,1721200916136
-1.78,2.23,15.46,0.04,0.15,-0.03,1721200916146
0.96,5.50,14.44,0.35,-0.07,0.01,1721200916156
-0.16,-0.10,4.56,0.05,-0.28,-0.13,1721200916166
-3.73,3.42,9.32,0.18,-0.32,-0.18,1721200916176
-1.84,-0.46,6.14,-0.05,-0.05,-0.07,1721200916186
-2.29,5.32,14.65,0.23,-0.15,0.06,1721200916196
1.54,0.43,4.90,-0.01,-0.10,0.10,1721200916206
0.99,4.48,13.26,0.02,-0.21,0.05,1721200916216
2.31,3.80,6.30,0.02,-0.16,-0.04,1721200916226
1.47,2.22,14.43,-0.17,0.05,-0.25,1721200916236
-1.47,-2.45,3.16,0.07,-0.53,-0.14,1721200916246
-1.48,-3.50,13.24,-0.31,0.16,-0.12,1721200916256
-4.42,1.30,14.08,0.22,-0.17,-0.12,1721200916266
-4.54,-6.79,0.23,-0.23,-0.33,-0.07,1721200916276
-5.43,-0.82,16.35,0.06,-0.17,0.23,1721200916286
-1.29,0.52,3.46,0.12,-0.16,0.42,1721200916296
-0.09,-4.75,14.55,-0.29,-0.27,0.26,1721200916306
3.22,-2.26,11.86,0.29,-0.30,0.46,1721200916316
10.45,-6.10,10.75,-0.40,0.19,0.22,1721200916326
2.89,2.10,18.95,0.27,-0.78,0.23,1721200916336
5.63,-3.46,1.00,-0.12,0.18,-0.01,1721200916346
-3.05,2.54,23.20,-0.12,0.12,-0.22,1721200916356
-3.37,-7.99,3.10,-0.03,-0.65,-0.16,1721200916366
-2.92,0.83,15.30,-0.11,0.22,0.28,1721200916376
5.01,3.14,7.92,-0.02,0.09,0.16,1721200916386
4.07,-8.43,2.80,-0.21,-0.49,-0.04,1721200916396
2.66,-3.42,11.56,-0.18,0.31,-0.47,1721200916406
3.60,-0.71,23.14,-0.01,0.13,-0.52,1721200916416
-3.28,-1.36,0.34,0.10,-0.44,-0.12,1721200916426
-1.37,-7.58,11.79,-0.38,0.31,-0.05,1721200916436
5.91,5.50,23.47,0.25,0.10,-0.25,1721200916446
7.00,0.43,0.30,0.04,-0.01,-0.24,1721200916456
-4.40,-5.57,10.18,-0.24,-0.05,-0.41,1721200916466
-2.98,3.04,16.63,0.17,0.32,-0.43,1721200916476
-0.07,-0.61,8.07,-0.02,0.01,-0.10,1721200916486
0.43,5.30,12.79,0.20,-0.01,0.11,1721200916496
4.71,-1.01,0.39,0.08,0.20,-0.32,1721200916506
1.56,4.05,19.63,-0.01,0.31,-0.83,1721200916516
-3.33,2.43,7.85,0.49,-0.17,-0.56,1721200916526
-3.07,-1.16,8.03,0.01,0.41,-0.12,1721200916536
1.23,3.23,16.26,0.31,0.18,0.11,1721200916546
4.91,3.38,4.56,0.18,0.18,-0.10,1721200916556
4.36,2.88,11.71,0.00,0.31,-0.58,1721200916566
0.04,3.26,13.75,0.23,0.18,-0.71,1721200916576
-2.57,-0.59,7.35,0.10,0.25,-0.40,1721200916586
-1.51,1.47,9.97,0.16,0.29,-0.13,1721200916596
3.75,3.50,9.51,0.16,0.36,-0.29,1721200916606
4.56,-0.52,7.60,-0.07,0.30,-0.50,1721200916616
-1.35,4.80,18.17,0.14,0.18,-0.90,1721200916626
-3.68,-2.38,0.28,-0.06,0.21,-0.77,1721200916636
-6.68,-1.87,14.44,-0.20,0.26,-0.37,1721200916646
-0.60,-3.79,10.05,0.04,0.40,-0.16,1721200916656
0.16,2.32,7.42,-0.04,0.30,-0.41,1721200916666
2.37,0.23,10.35,0.02,0.42,-0.56,1721200916676
0.32,-4.04,9.70,-0.24,0.32,-0.53,1721200916686
1.16,-3.47,20.29,-0.03,0.35,-0.54,1721200916696
-2.46,-3.36,4.28,0.07,0.20,-0.66,1721200916706
-6.00,-4.62,6.14,-0.18,0.17,-0.64,1721200916716
-5.27,-3.16,5.71,-0.03,0.25,-0.38,1721200916726
2.06,-4.32,10.62,-0.26,0.71,-0.28,1721200916736
-0.18,-1.95,17.78,-0.02,0.34,-0.53,1721200916746
-2.78,-2.94,16.03,-0.01,0.17,-0.66,1721200916756
-7.20,-0.02,2.93,0.08,0.06,-0.34,1721200916766
-3.00,-4.44,7.86,-0.28,0.55,-0.04,1721200916776
0.90,-3.43,14.31,-0.09,0.19,-0.00,1721200916786
-1.80,-11.29,8.53,-0.27,0.08,-0.28,1721200916796
-4.90,2.15,13.86,0.16,0.27,-0.46,1721200916806
-1.55,-2.77,4.12,-0.09,0.42,-0.33,1721200916816
-4.62,3.21,20.47,0.07,0.24,-0.08,1721200916826
-1.19,-3.95,3.69,0.05,0.05,0.10,1721200916836
-3.23,1.91,18.14,0.02,0.37,0.01,1721200916846
-1.41,-1.74,2.59,0.28,-0.23,-0.01,1721200916856
-1.47,2.86,10.86,-0.03,0.60,-0.23,1721200916866
0.50,6.30,14.24,0.28,0.16,-0.11,1721200916876
-2.21,5.01,15.04,-0.17,0.31,-0.26,1721200916886
-5.67,4.79,9.94,0.37,-0.16,0.07,1721200916896
-2.69,-0.88,10.05,0.02,0.35,0.41,1721200916906
-0.63,6.97,12.46,0.38,-0.26,0.44,1721200916916
1.50,10.52,8.98,0.19,0.02,0.12,1721200916926
-2.66,-1.56,-0.47,0.15,-0.59,0.22,1721200916936
-4.88,5.52,18.93,0.01,0.43,0.26,1721200916946
2.73,-0.27,5.72,0.23,-0.13,0.43,1721200916956
1.95,7.52,17.73,-0.19,0.24,0.19,1721200916966
3.79,0.91,4.83,0.18,-0.27,0.14,1721200916976
1.05,-0.74,12.01,-0.33,0.27,-0.15,1721200916986
-0.74,-1.14,9.36,0.19,-0.18,0.12,1721200916996
-3.28,-1.55,7.17,-0.18,0.13,0.18,1721200917006
-5.35,-1.02,3.53,0.03,-0.36,0.37,1721200917016
2.12,-5.82,16.85,-0.29,0.35,0.75,1721200917026
-1.23,1.40,0.18,0.23,-0.47,0.27,1721200917036
-1.68,1.35,15.52,-0.64,0.45,-0.23,1721200917046
-0.65,2.85,16.97,0.38,-0.11,0.21,1721200917056
-4.36,-7.91,0.71,-0.48,0.01,0.73,1721200917066
-2.12,2.79,15.73,0.09,-0.48,0.98,1721200917076
8.20,-2.40,7.00,-0.22,0.19,0.67,1721200917086
5.71,6.39,18.14,-0.11,-0.49,0.30,1721200917096
4.65,0.94,4.87,-0.03,-0.12,0.07,1721200917106
0.00,-6.79,10.60,-0.34,-0.02,0.08,1721200917116
-4.77,-4.89,16.09,-0.13,-0.27,0.19,1721200917126
-4.48,1.27,8.62,-0.04,-0.06,0.40,1721200917136
0.82,2.26,13.62,0.07,-0.09,0.55,1721200917151
4.19,3.27,11.11,0.16,-0.18,0.44,1721200917155
4.54,-0.57,5.19,-0.04,-0.13,0.11,1721200917165
0.96,-3.21,13.93,-0.06,-0.15,-0.24,1721200917175
-2.38,0.60,13.06,0.21,-0.15,0.13,1721200917185
-1.46,-5.17,4.85,-0.09,-0.07,0.48,1721200917195
-0.65,4.70,17.88,0.15,-0.05,0.32,1721200917205
4.05,-1.07,3.73,0.13,-0.17,0.15,1721200917215
1.82,-1.59,13.70,-0.05,-0.00,-0.07,1721200917225
0.06,-2.41,14.12,0.18,-0.21,0.18,1721200917235
-0.19,3.28,12.03,0.33,-0.11,0.44,1721200917245
5.54,-0.90,4.04,0.10,-0.05,0.31,1721200917255
3.06,-2.00,11.39,-0.15,-0.06,-0.21,1721200917265
-3.10,-0.36,12.06,0.17,-0.34,-0.20,1721200917275
-3.22,-6.77,5.96,-0.17,0.13,0.09,1721200917285
-0.31,2.99,16.82,0.16,-0.21,0.40,1721200917295
4.78,1.42,4.52,0.05,-0.05,0.18,1721200917305
3.47,2.20,15.39,-0.13,-0.03,-0.20,1721200917315
0.67,0.69,9.52,0.10,-0.12,-0.25,1721200917325
-2.27,-4.39,10.29,-0.13,0.00,-0.09,1721200917335
-0.07,-1.38,13.52,0.14,-0.07,0.19,1721200917345
2.70,4.22,8.37,0.08,0.08,0.02,1721200917355
2.56,2.92,6.18,-0.05,-0.08,-0.25,1721200917365
0.57,1.07,15.32,-0.10,0.18,-0.49,1721200917375
-1.66,-5.17,7.89,0.12,-0.17,-0.12,1721200917385
-3.17,2.40,10.08,0.06,0.04,0.13,1721200917395
3.40,5.93,15.51,0.18,0.18,0.03,1721200917405
5.03,-2.33,5.89,0.04,-0.08,-0.07,1721200917415
0.34,3.13,10.78,0.03,0.15,-0.44,1721200917425
-1.23,-3.32,10.65,-0.08,0.13,-0.50,1721200917435
-5.65,3.48,11.02,0.22,-0.15,0.06,1721200917445
1.77,1.24,6.65,0.01,0.36,0.22,1721200917455
4.08,-2.24,7.12,-0.12,-0.06,-0.01,1721200917465
2.09,10.36,17.34,0.09,0.15,-0.47,1721200917475
2.72,-4.19,4.11,-0.07,-0.02,-0.46,1721200917485
-4.30,8.71,15.70,0.11,0.10,-0.37,1721200917495
-1.17,-8.07,5.24,-0.10,0.33,-0.27,1721200917505
-7.32,11.70,19.26,0.01,0.27,-0.67,1721200917515
-8.77,-4.07,-2.31,-0.06,-0.58,0.10,1721200917525
3.87,-5.05,20.68,-0.62,0.98,0.89,1721200917535
15.58,-2.43,6.27,0.44,-0.04,0.76,1721200917545
15.71,4.98,7.28,-0.43,0.83,-0.97,1721200917555
11.10,3.39,9.68,-0.34,-0.72,-1.93,1721200917565
-13.26,-5.09,3.69,-0.16,0.17,-1.49,1721200917575
-15.90,-3.33,16.28,-0.27,0.21,-0.11,1721200917585
-6.27,-4.68,9.41,-0.10,0.28,0.58,1721200917595
2.14,4.40,9.36,-0.03,0.30,0.33,1721200917605
4.89,-1.47,5.25,-0.32,-0.05,-0.18,1721200917615
-1.31,3.94,13.10,-0.26,0.18,-0.62,1721200917625
-1.66,-3.54,10.06,-0.20,0.13,-0.44,1721200917635
-3.23,-1.29,9.24,-0.29,0.10,-0.13,1721200917645
0.24,-0.25,17.55,-0.39,0.23,-0.03,1721200917655
0.06,7.18,9.53,0.19,-0.13,0.05,1721200917665
3.05,-5.65,2.97,-0.32,0.25,-0.15,1721200917675
-3.01,7.44,17.59,0.04,0.01,-0.52,1721200917685
-3.00,-4.28,8.72,0.14,0.06,-0.44,1721200917695
-5.83,2.08,11.04,-0.12,0.36,-0.21,1721200917705
-3.08,-1.22,7.08,0.10,-0.06,0.23,1721200917715
0.90,6.43,13.83,0.11,0.46,0.14,1721200917725
4.12,1.25,10.04,0.30,-0.07,-0.11,1721200917735
0.32,-4.73,9.31,-0.08,0.13,-0.37,1721200917745
-2.30,6.51,18.67,0.26,0.10,-0.31,1721200917755
-3.73,-2.65,4.89,0.09,-0.04,-0.06,1721200917765
-3.86,5.02,13.59,0.25,0.12,0.02,1721200917775
2.77,-7.23,2.07,0.22,0.12,0.05,1721200917785
1.21,2.22,15.68,0.04,0.40,-0.34,1721200917795
0.30,-0.18,13.35,0.26,-0.25,-0.30,1721200917805
-5.03,4.29,12.36,0.11,0.25,-0.20,1721200917815
-3.07,-5.59,7.03,0.06,-0.10,0.06,1721200917825
-4.60,-3.82,5.69,0.01,0.04,0.17,1721200917835
4.30,1.90,13.87,0.09,0.41,0.00,1721200917845
2.11,-0.33,9.31,0.10,-0.22,-0.13,1721200917855
-2.25,-2.92,8.77,-0.13,0.23,-0.25,1721200917865
-3.21,-1.58,13.00,0.08,-0.03,-0.01,1721200917875
0.36,0.87,12.80,0.04,0.17,0.30,1721200917885
2.88,0.74,11.28,0.05,0.03,0.15,1721200917895
-0.15,4.08,7.74,0.15,-0.11,-0.18,1721200917905
-0.17,-2.79,7.34,-0.07,0.10,-0.12,1721200917915
-2.96,0.36,9.99,0.10,-0.13,0.15,1721200917925
-1.71,-5.83,4.08,-0.19,0.08,0.16,1721200917935
-0.98,4.48,22.63,0.04,0.15,0.09,1721200917945
0.35,-3.32,3.45,0.15,-0.26,0.14,1721200917955
-0.02,5.08,11.30,-0.03,0.21,0.09,1721200917965
3.74,-4.52,11.87,-0.08,0.08,-0.16,1721200917975
-4.13,5.45,11.05,0.20,-0.29,-0.21,1721200917985
0.34,-5.06,6.44,-0.15,0.33,0.03,1721200917995
-0.84,6.46,17.07,0.26,-0.08,0.25,1721200918005
2.71,-3.62,7.57,-0.07,0.18,0.04,1721200918015
-0.77,2.85,11.32,0.13,-0.35,-0.13,1721200918025
1.75,3.69,7.29,0.13,0.46,-0.27,1721200918035
-1.11,-2.18,9.37,-0.01,-0.22,-0.10,1721200918045
-5.14,3.75,12.02,0.13,-0.02,-0.03,1721200918055
-0.01,-1.64,9.80,0.02,0.13,-0.02,1721200918065
-1.69,3.26,14.99,0.17,-0.12,0.02,1721200918075
0.75,2.01,10.26,-0.08,0.17,-0.09,1721200918085
-1.56,3.84,12.28,0.25,-0.25,-0.07,1721200918095
-0.66,0.40,5.46,-0.08,0.20,-0.03,1721200918105
-2.53,0.62,9.87,0.09,-0.21,0.11,1721200918115
-2.01,-0.05,9.32,-0.11,0.15,0.07,1721200918125
0.68,2.28,16.59,0.07,-0.13,0.09,1721200918135
0.18,-1.32,1.89,0.12,-0.18,0.17,1721200918145
4.13,1.24,17.35,-0.20,0.36,0.14,1721200918155
2.06,-4.96,2.15,0.16,-0.50,-0.01,1721200918165
-1.52,1.04,16.30,-0.32,0.52,-0.34,1721200918175
-2.90,-2.26,13.92,0.27,-0.31,0.03,1721200918185
-3.93,-4.53,1.29,-0.25,0.05,0.34,1721200918195
0.20,1.30,12.82,-0.12,0.09,0.27,1721200918205
2.21,-6.40,3.15,-0.23,-0.28,0.06,1721200918215
-0.42,2.34,16.60,-0.14,0.12,-0.21,1721200918225
-1.35,-1.36,7.31,-0.09,-0.21,-0.26,1721200918235
-5.85,-3.13,10.02,-0.32,-0.22,0.07,1721200918245
-1.38,-1.29,17.17,-0.36,0.22,0.23,1721200918255
-0.90,-1.67,6.48,-0.09,-0.39,0.18,1721200918265
-0.34,2.09,9.42,-0.32,0.19,-0.08,1721200918275
0.36,0.79,11.63,-0.03,-0.29,0.11,1721200918285
-1.64,1.28,6.55,-0.20,-0.02,0.15,1721200918295
0.71,0.37,11.60,-0.15,-0.14,0.17,1721200918305
1.77,-3.06,13.06,-0.15,-0.20,0.16,1721200918315
3.44,6.12,16.94,0.04,-0.01,0.19,1721200918325
2.02,-2.21,5.34,0.03,-0.27,0.14,1721200918335
-0.36,5.47,15.25,-0.10,0.17,-0.11,1721200918345
0.27,-3.37,9.79,0.09,-0.41,-0.09,1721200918355
-1.87,-3.08,8.35,-0.05,-0.04,0.06,1721200918365
0.23,6.71,13.65,0.32,-0.05,0.11,1721200918375
2.40,-0.89,6.42,0.23,-0.20,0.19,1721200918385
3.84,3.49,15.67,0.04,0.22,0.02,1721200918395
1.13,-1.01,6.54,0.33,-0.37,-0.15,1721200918405
-1.63,-0.19,9.67,-0.04,0.30,-0.25,1721200918415
-0.80,1.91,12.68,0.30,-0.21,0.09,1721200918425
-0.18,-4.85,4.97,-0.02,0.06,0.07,1721200918435
1.16,-0.19,13.78,0.15,-0.10,-0.14,1721200918445
2.26,-3.41,7.42,0.10,-0.04,-0.30,1721200918455
-0.77,3.51,15.97,0.19,0.00,-0.15,1721200918465
0.73,-4.58,7.66,0.10,0.01,-0.03,1721200918475
-0.68,-2.03,11.29,0.04,-0.00,-0.14,1721200918485
0.71,-0.85,6.41,0.16,-0.04,-0.20,1721200918495
0.20,-2.02,12.65,0.01,0.02,-0.26,1721200918505
-2.27,-1.08,12.41,0.11,0.04,-0.22,1721200918515
-2.18,-0.71,14.09,0.14,0.03,-0.23,1721200918525
-0.72,2.61,7.15,0.19,0.07,-0.09,1721200918535
0.49,-1.25,10.77,-0.08,0.10,-0.24,1721200918545
0.29,-0.34,11.30,0.35,-0.19,-0.19,1721200918555
2.44,-2.28,6.55,-0.04,0.34,-0.20,1721200918565
-0.99,2.45,12.85,0.11,-0.11,-0.35,1721200918575
-2.29,-0.22,9.50,0.02,0.04,-0.41,1721200918585
-1.06,-1.18,13.21,0.12,0.10,-0.19,1721200918595
-0.49,-1.18,7.52,0.08,0.03,0.01,1721200918605
-0.20,2.62,13.35,0.19,0.07,-0.20,1721200918615
0.91,0.35,7.53,0.13,0.09,-0.24,1721200918625
-1.11,3.90,12.50,0.13,0.02,-0.18,1721200918635
-1.25,-2.59,5.83,0.02,-0.01,-0.20,1721200918645
-1.63,-3.06,16.54,-0.02,0.17,-0.07,1721200918655
-0.74,1.78,9.38,0.29,-0.00,0.08,1721200918665
2.67,5.80,13.26,0.19,0.28,-0.10,1721200918675
3.24,2.60,2.11,0.28,-0.14,-0.16,1721200918685
0.74,0.64,14.37,-0.21,0.40,-0.48,1721200918695
-3.08,-1.06,6.74,0.24,-0.18,-0.07,1721200918705
-0.75,-0.25,11.65,-0.27,0.60,-0.08,1721200918715
-1.89,-2.42,12.25,0.12,-0.30,0.05,1721200918725
-0.22,0.35,8.66,-0.26,0.26,0.03,1721200918735
2.20,2.74,11.80,0.17,0.22,-0.27,1721200918745
0.88,-3.96,5.34,-0.37,0.01,-0.26,1721200918755
-4.86,5.75,17.46,0.01,-0.17,0.05,1721200918765
2.37,-2.11,1.93,-0.06,0.18,0.22,1721200918775
4.74,-4.68,15.21,-0.43,0.13,0.00,1721200918785
2.23,3.23,14.29,0.24,0.04,-0.26,1721200918795
2.03,-2.06,-2.83,-0.27,0.20,-0.39,1721200918805
-7.02,1.73,18.77,-0.41,0.17,-0.44,1721200918815
-1.20,-4.48,5.41,0.03,0.04,-0.14,1721200918825
-1.75,3.17,9.81,-0.16,0.38,-0.14,1721200918835
2.43,-1.24,12.23,-0.18,0.11,-0.17,1721200918845
-0.15,-3.66,10.00,-0.29,0.04,-0.25,1721200918855
-2.03,-0.32,9.87,-0.16,0.27,-0.42,1721200918865
-2.60,8.46,11.53,0.03,0.17,-0.38,1721200918875
-2.24,-2.82,3.77,-0.25,-0.05,-0.06,1721200918885
-1.98,-4.21,14.79,-0.31,0.22,0.04,1721200918895
2.48,6.39,14.39,0.05,0.23,-0.21,1721200918905
1.05,4.43,8.00,-0.08,-0.02,-0.52,1721200918915
-5.42,4.66,4.36,0.08,-0.06,-0.52,1721200918925
-2.66,-6.80,6.57,-0.16,0.33,-0.22,1721200918935
-2.93,0.92,20.13,0.06,0.06,0.03,1721200918945
-3.09,0.34,4.30,0.21,-0.07,-0.07,1721200918955
2.58,3.28,17.42,-0.18,0.69,-0.12,1721200918965
0.34,-0.42,9.86,0.24,-0.45,-0.07,1721200918975
-0.93,-4.08,9.49,-0.18,0.48,-0.09,1721200918985
0.34,11.49,20.41,0.35,0.08,-0.26,1721200918995
-3.66,-6.54,-0.91,0.02,-0.32,-0.40,1721200919005
-8.88,5.50,10.97,0.26,0.27,-0.18,1721200919015
1.04,-9.26,4.49,0.08,0.14,0.10,1721200919025
-7.15,-7.07,14.34,0.07,-0.23,0.10,1721200919035
2.39,4.94,17.43,0.30,0.52,-0.19,1721200919045
1.97,1.11,8.37,0.12,-0.23,-0.28,1721200919055
-4.63,-2.38,3.07,-0.05,-0.01,-0.20,1721200919065
-0.31,-6.85,9.39,-0.01,0.28,0.05,1721200919075
-0.31,2.60,13.96,0.28,-0.05,0.11,1721200919085
1.71,-4.31,9.69,-0.04,0.05,0.05,1721200919095
-1.30,4.37,17.66,0.23,-0.05,-0.08,1721200919105
-0.15,-1.04,0.21,0.09,0.21,-0.19,1721200919115
-1.76,2.61,14.48,-0.11,0.22,-0.16,1721200919125
-1.23,-3.96,6.34,0.25,-0.35,0.12,1721200919135
0.87,-2.50,9.14,-0.12,0.58,0.08,1721200919145
2.34,2.72,14.49,0.15,0.33,-0.05,1721200919160
-2.87,0.57,7.96,-0.01,0.02,-0.08,1721200919164
1.75,-0.57,13.06,-0.02,0.38,-0.17,1721200919174
0.68,5.03,12.68,0.11,0.02,-0.30,1721200919184
-3.66,-1.93,6.34,-0.08,-0.14,-0.17,1721200919194
-4.05,4.12,13.25,0.20,0.21,0.05,1721200919203
1.75,-6.09,8.21,-0.12,0.24,-0.02,1721200919213
-2.55,7.44,13.56,0.16,-0.25,-0.12,1721200919223
1.57,1.50,8.49,0.10,0.31,-0.20,1721200919233
0.17,1.58,15.10,0.21,-0.08,-0.01,1721200919243
0.35,-0.47,2.24,0.15,0.09,-0.11,1721200919253
0.62,1.79,12.58,-0.05,0.33,-0.33,1721200919263
-3.70,2.31,9.36,0.10,-0.17,-0.35,1721200919273
-4.35,0.17,14.47,-0.10,0.20,-0.12,1721200919283
-2.70,0.39,12.67,0.23,-0.11,0.27,1721200919293
-0.86,5.83,4.70,-0.01,0.14,0.21,1721200919303
4.03,0.70,9.62,-0.22,0.17,0.00,1721200919313
0.40,1.29,11.84,-0.10,-0.17,-0.21,1721200919323
-3.22,2.14,12.96,-0.04,0.03,-0.26,1721200919333
-4.01,-2.53,9.61,-0.18,0.03,0.07,1721200919343
-4.04,-0.27,6.36,-0.04,-0.17,0.49,1721200919353
2.85,-0.86,12.04,-0.30,0.34,0.34,1721200919363
2.56,3.55,13.42,0.13,-0.17,0.00,1721200919373
2.52,-4.44,4.95,-0.17,-0.04,-0.13,1721200919383
-3.17,3.71,8.35,0.18,-0.10,0.02,1721200919393
0.28,-5.02,5.75,-0.41,0.17,0.25,1721200919403
-1.86,7.85,19.09,0.06,-0.18,0.40,1721200919413
5.28,-7.56,4.65,-0.30,0.20,0.05,1721200919423
-2.00,-0.26,12.72,-0.18,-0.31,-0.13,1721200919433
-3.44,-0.83,8.82,-0.32,0.24,-0.27,1721200919443
-4.67,0.05,18.02,-0.20,-0.20,0.15,1721200919453
-1.44,0.69,2.98,0.07,-0.03,0.54,1721200919463
4.78,-0.66,12.19,-0.38,0.20,0.32,1721200919473
2.85,-1.87,12.24,-0.18,-0.25,0.22,1721200919483
2.79,2.90,13.34,-0.21,0.36,-0.14,1721200919493
-2.58,-2.62,7.17,-0.01,-0.41,-0.12,1721200919503
-3.67,-0.97,13.58,-0.38,0.28,-0.01,1721200919513
0.46,10.94,17.65,0.11,-0.16,0.21,1721200919523
3.11,-6.49,-0.14,-0.04,0.00,0.16,1721200919533
1.01,2.74,17.35,-0.30,0.26,-0.12,1721200919543
-1.53,6.06,13.66,0.35,-0.22,-0.08,1721200919553
1.25,-2.62,6.97,-0.09,0.18,0.08,1721200919563
-0.02,1.33,9.44,0.32,-0.20,0.24,1721200919573
3.77,4.64,6.78,0.17,0.36,-0.09,1721200919583
1.64,2.38,14.58,0.32,-0.21,-0.08,1721200919593
-0.74,-5.48,6.14,0.21,0.16,-0.08,1721200919603
-2.31,0.22,18.58,-0.01,0.21,0.01,1721200919613
-2.96,4.81,10.35,0.31,-0.25,0.26,1721200919623
2.07,0.40,6.96,0.03,0.21,0.07,1721200919633
3.04,-1.80,9.57,0.25,-0.06,-0.09,1721200919643
0.42,-2.26,12.94,0.12,0.14,-0.21,1721200919653
-2.53,3.36,12.11,0.31,0.10,-0.11,1721200919663
-3.54,-9.07,6.30,-0.07,-0.03,0.06,1721200919673
-2.84,5.75,16.49,0.25,0.10,0.27,1721200919683
3.84,-4.16,3.56,0.04,0.09,0.15,1721200919693
2.38,3.76,10.86,0.25,-0.04,0.01,1721200919703
4.35,-4.38,7.29,-0.03,0.27,-0.33,1721200919713
-5.15,3.95,20.00,0.15,-0.16,-0.30,1721200919723
-4.50,-1.44,5.46,-0.00,0.13,0.06,1721200919733
-0.60,-0.39,10.11,0.01,0.09,0.30,1721200919743
4.20,-2.01,10.32,-0.04,0.16,0.25,1721200919753
3.05,4.69,14.78,0.23,0.04,-0.20,1721200919763
1.41,-3.69,1.29,0.09,-0.01,-0.31,1721200919773
-4.16,3.91,13.42,0.06,0.10,-0.14,1721200919783
-1.39,-3.25,9.64,0.02,0.15,0.15,1721200919793
-2.63,3.92,11.48,0.19,-0.05,0.24,1721200919803
1.96,-0.03,4.51,-0.06,0.20,0.13,1721200919813
2.87,0.18,13.98,-0.01,0.11,-0.01,1721200919823
0.80,-4.09,10.78,-0.13,0.02,-0.22,1721200919833
-2.94,6.61,16.97,0.25,0.06,-0.06,1721200919843
-0.20,1.09,4.02,-0.07,0.21,0.12,1721200919853
-1.26,0.43,9.82,-0.03,-0.11,0.15,1721200919863
1.37,-1.08,8.13,-0.09,0.24,-0.10,1721200919873
0.30,1.54,17.53,-0.03,0.13,-0.24,1721200919883
-2.18,5.02,11.42,0.18,-0.05,0.07,1721200919893
-0.88,2.35,8.78,-0.10,0.10,0.19,1721200919903
0.35,-4.07,4.33,-0.21,-0.13,0.05,1721200919913
2.41,-1.08,17.34,-0.32,0.54,-0.35,1721200919923
-1.01,-1.84,12.01,0.09,-0.33,-0.29,1721200919933
-3.78,1.62,3.47,-0.11,0.10,-0.01,1721200919943
1.53,-1.90,14.66,-0.26,0.33,0.06,1721200919953
-0.55,-1.71,13.21,-0.17,-0.36,-0.02,1721200919963
-0.61,4.99,9.62,-0.06,0.09,-0.15,1721200919973
2.18,-5.19,2.98,-0.26,-0.01,-0.22,1721200919983
-2.17,-6.03,12.50,-0.35,0.09,-0.27,1721200919993
-1.93,-2.19,9.33,-0.02,0.06,-0.06,1721200920003
-2.44,2.77,8.52,-0.13,0.10,0.00,1721200920013
0.40,0.20,9.97,-0.15,-0.06,0.04,1721200920023
1.65,-3.48,17.55,-0.40,0.22,-0.12,1721200920033
-0.96,4.62,11.80,0.02,-0.16,-0.18,1721200920043
-2.62,2.48,4.42,-0.23,0.08,-0.09,1721200920053
-5.02,3.78,8.08,-0.07,-0.23,0.00,1721200920063
1.30,-2.74,11.64,-0.19,0.29,0.18,1721200920073
1.71,-2.99,14.04,-0.20,-0.23,0.16,1721200920083
-0.74,1.36,13.27,-0.14,0.13,-0.11,1721200920093
-0.69,5.83,12.52,0.04,-0.13,0.02,1721200920103
-2.74,3.04,6.52,0.08,-0.09,-0.05,1721200920113
-2.18,-0.92,8.95,0.15,-0.14,0.03,1721200920123
-0.38,-1.03,7.94,0.17,-0.06,0.11,1721200920133
1.04,1.92,16.92,0.04,0.15,0.08,1721200920143
-0.71,2.80,13.73,0.15,-0.19,0.06,1721200920153
-0.44,-1.21,9.16,0.07,-0.02,-0.01,1721200920163
0.06,-2.42,9.14,0.17,-0.04,0.10,1721200920173
1.45,6.89,8.72,0.36,0.12,0.10,1721200920183
0.96,0.79,8.96,0.11,-0.19,-0.14,1721200920193
-1.75,0.92,14.83,0.17,-0.08,-0.20,1721200920202
0.59,2.50,7.78,0.39,0.06,0.04,1721200920212
-0.07,-7.78,2.61,-0.03,-0.31,0.22,1721200920222
-2.36,0.05,17.02,-0.04,0.21,-0.07,1721200920232
0.55,3.06,13.17,0.30,0.11,-0.38,1721200920242
-2.46,0.63,9.31,-0.04,-0.19,-0.29,1721200920252
-5.66,-3.44,4.79,0.11,-0.44,0.19,1721200920262
1.08,0.89,11.90,0.13,0.50,0.15,1721200920272
4.25,2.77,14.97,0.20,-0.18,-0.13,1721200920282
-4.52,-1.58,3.28,0.02,-0.48,-0.24,1721200920292
-2.95,1.88,13.65,0.12,0.33,-0.12,1721200920302
1.64,1.76,11.71,0.13,-0.21,0.10,1721200920312
-1.19,-1.22,7.13,-0.03,-0.32,0.02,1721200920322
2.15,2.10,14.09,0.13,0.25,-0.25,1721200920332
0.41,-3.14,5.39,0.14,-0.44,-0.15,1721200920342
-3.39,4.98,13.07,0.14,0.11,-0.21,1721200920352
1.28,-1.86,7.78,0.20,-0.15,-0.01,1721200920362
-0.52,2.35,12.01,-0.03,0.02,-0.18,1721200920372
0.85,1.55,5.43,0.20,-0.15,-0.33,1721200920382
-1.12,2.30,11.96,-0.10,0.16,-0.41,1721200920392
-3.55,1.43,8.37,0.16,-0.32,-0.26,1721200920402
-1.96,-2.60,11.49,-0.22,0.25,0.05,1721200920412
-1.64,6.40,14.26,0.07,-0.17,0.13,1721200920422
2.04,0.20,9.49,-0.28,0.03,-0.26,1721200920432
-0.91,4.30,15.81,0.12,-0.29,-0.36,1721200920442
-0.53,-4.98,4.77,-0.25,0.01,-0.12,1721200920452
-3.67,5.95,14.06,0.05,-0.12,-0.03,1721200920462
1.94,2.52,9.72,-0.07,0.18,-0.15,1721200920472
-3.73,-4.20,2.43,-0.11,-0.55,-0.14,1721200920482
-1.42,-0.22,13.20,-0.27,0.46,-0.28,1721200920492
0.26,-7.79,11.79,-0.15,-0.16,-0.13,1721200920502
-5.54,-0.12,12.48,-0.11,-0.16,-0.05,1721200920512
0.88,-2.17,6.58,0.02,-0.04,0.21,1721200920522
3.64,4.29,9.79,0.01,0.16,-0.00,1721200920532
3.91,-0.02,6.88,-0.13,0.04,-0.28,1721200920542
-3.20,-9.11,10.36,-0.52,-0.14,-0.39,1721200920552
-7.21,4.19,18.03,-0.13,-0.06,-0.22,1721200920562
-5.11,-1.65,7.31,-0.20,-0.04,0.12,1721200920572
-2.38,1.82,5.61,-0.05,-0.12,0.47,1721200920582
5.96,0.57,6.76,-0.27,0.31,0.20,1721200920592
2.71,2.25,14.95,-0.12,-0.19,-0.04,1721200920602
-0.08,2.11,11.18,-0.11,0.01,-0.26,1721200920612
-0.72,-0.17,13.24,-0.23,-0.12,-0.25,1721200920622
-1.39,1.83,11.50,-0.06,-0.21,0.07,1721200920632
3.39,0.82,7.10,0.06,0.04,0.38,1721200920642
3.81,-2.98,7.50,0.12,0.01,0.09,1721200920652
0.54,1.26,13.88,0.18,0.03,-0.37,1721200920662
-3.68,-0.15,16.16,0.10,-0.18,-0.37,1721200920672
-4.23,7.35,15.86,0.24,-0.04,0.06,1721200920682
1.23,-7.43,4.20,0.09,-0.03,0.44,1721200920692
1.75,-5.09,8.59,0.06,0.05,0.17,1721200920702
4.38,4.40,13.01,0.30,0.05,-0.24,1721200920712
0.85,0.71,10.31,0.29,-0.11,-0.31,1721200920722
-2.49,0.17,10.77,0.24,-0.04,-0.04,1721200920732
-0.79,-3.13,9.13,0.06,0.14,0.02,1721200920742
-1.06,0.14,12.76,0.24,-0.12,0.11,1721200920753
1.87,-0.24,5.46,0.18,0.12,0.11,1721200920763
3.42,-0.32,10.33,0.08,0.08,-0.04,1721200920773
2.15,-1.86,6.85,0.14,-0.01,-0.23,1721200920783
-0.48,0.95,15.56,0.03,0.16,-0.33,1721200920793
-3.03,-3.06,9.52,0.11,-0.08,0.02,1721200920803
-1.58,5.17,15.04,0.03,0.22,0.20,1721200920813
3.93,-0.10,5.56,0.14,0.09,0.09,1721200920823
0.96,-0.16,12.10,-0.04,0.03,-0.17,1721200920833
0.61,-1.14,8.05,0.12,-0.03,-0.14,1721200920843
0.28,1.89,12.87,-0.04,0.28,-0.29,1721200920853
-3.08,-3.80,7.41,0.18,-0.22,-0.13,1721200920863
-3.94,4.91,13.22,0.09,0.27,0.02,1721200920873
1.61,1.39,8.61,0.10,0.11,0.20,1721200920883
0.74,-1.19,7.03,-0.05,-0.08,0.05,1721200920893
1.48,0.23,11.11,-0.04,0.17,-0.23,1721200920903
1.44,-2.03,9.42,0.08,-0.05,-0.18,1721200920913
-1.59,3.07,9.54,0.10,0.04,-0.12,1721200920923
-1.20,2.61,7.04,-0.02,0.07,-0.07,1721200920933
-0.28,-0.55,14.46,-0.23,0.10,-0.01,1721200920943
1.99,-2.98,11.20,-0.18,0.05,-0.13,1721200920953
1.22,1.72,14.48,-0.09,0.11,-0.26,1721200920963
-0.16,3.79,8.80,0.01,0.08,-0.32,1721200920973
-2.44,0.90,3.44,-0.05,-0.12,-0.21,1721200920983
-1.55,-2.07,8.69,-0.21,0.12,-0.00,1721200920993
2.23,-1.66,13.46,-0.21,0.01,-0.02,1721200921003
2.67,-3.18,9.45,-0.20,-0.04,-0.21,1721200921013
2.31,1.34,12.31,-0.25,0.38,-0.54,1721200921023
-0.59,-5.25,7.47,-0.35,-0.11,-0.48,1721200921033
-4.26,-1.41,10.57,-0.30,0.15,-0.36,1721200921043
2.81,6.78,13.92,0.01,0.42,-0.15,1721200921053
0.40,-4.77,5.92,-0.37,-0.12,-0.29,1721200921063
-2.99,-1.97,12.32,-0.26,0.23,-0.50,1721200921073
2.16,4.77,15.32,-0.00,0.39,-0.32,1721200921083
-2.69,-2.41,2.04,-0.08,-0.30,-0.18,1721200921093
-2.23,1.57,10.20,-0.03,0.55,-0.38,1721200921103
2.33,4.75,16.75,0.05,0.13,-0.33,1721200921113
-3.25,-5.26,5.56,-0.13,-0.05,-0.40,1721200921123
-2.92,-0.32,12.64,0.01,0.40,-0.31,1721200921133
-1.84,5.14,12.12,0.23,0.09,-0.29,1721200921143
-1.57,-1.14,5.28,0.02,0.14,-0.26,1721200921153
-2.80,-0.11,14.98,0.15,0.08,-0.30,1721200921168
-1.86,-0.13,13.11,0.31,-0.04,-0.12,1721200921172
-0.85,-1.08,6.16,0.15,0.34,-0.17,1721200921182
-1.96,5.59,12.68,0.16,0.07,-0.35,1721200921192
-1.20,0.33,8.76,0.13,0.17,-0.35,1721200921202
-1.75,-3.79,10.24,0.12,0.20,-0.25,1721200921212
-1.64,0.32,9.30,0.30,0.20,-0.10,1721200921222
0.61,-8.68,7.78,-0.13,0.36,-0.19,1721200921232
-1.55,6.84,20.54,0.20,0.24,-0.36,1721200921242
-1.37,3.70,6.77,0.37,0.15,-0.41,1721200921252
-2.86,-3.41,7.20,0.02,0.15,-0.17,1721200921262
0.12,-1.21,11.96,0.16,0.38,-0.06,1721200921272
2.49,2.47,9.75,0.27,0.31,-0.07,1721200921282
-1.65,-1.81,8.12,-0.06,0.20,-0.49,1721200921292
-5.09,-0.40,12.15,0.09,0.08,-0.63,1721200921302
-4.47,-0.00,8.75,0.36,0.30,-0.09,1721200921312
-1.79,5.15,11.28,0.15,0.46,0.06,1721200921322
0.60,1.06,13.09,0.08,0.04,-0.05,1721200921332
-1.22,1.70,11.33,0.15,0.14,-0.17,1721200921342
-2.29,-1.80,7.33,0.09,0.17,-0.25,1721200921352
-4.65,0.75,6.56,0.19,0.08,-0.10,1721200921362
-0.56,3.22,10.71,0.20,0.47,0.09,1721200921372
-1.21,-1.93,7.98,0.15,-0.18,0.12,1721200921382
-1.66,4.22,12.25,0.18,0.22,-0.00,1721200921392
2.97,-3.08,11.19,0.01,0.21,-0.08,1721200921402
-1.46,3.32,14.75,0.14,-0.02,-0.10,1721200921412
0.13,0.56,4.64,0.10,0.20,0.01,1721200921422
-1.37,0.07,6.44,0.05,0.06,0.11,1721200921432
-0.01,3.64,15.03,0.05,0.37,0.10,1721200921442
1.10,-0.45,5.52,0.07,-0.06,0.04,1721200921452
-1.20,3.60,16.45,-0.18,0.39,-0.14,1721200921462
-1.66,0.81,13.12,0.17,-0.02,0.00,1721200921472
-3.63,3.78,7.38,0.02,0.11,0.16,1721200921482
-2.35,-6.23,0.26,-0.13,-0.20,0.36,1721200921492
-2.36,-3.23,14.53,-0.24,0.31,0.20,1721200921502
-1.13,3.44,13.12,0.17,-0.03,0.14,1721200921512
-2.86,0.77,4.87,-0.26,0.13,0.08,1721200921522
-2.93,0.23,16.81,-0.16,-0.00,0.32,1721200921532
-0.52,-1.63,9.05,-0.11,-0.03,0.43,1721200921542
0.77,0.18,11.42,-0.04,-0.03,0.37,1721200921552
0.85,-3.68,5.35,-0.24,-0.13,0.24,1721200921562
-1.32,-2.62,11.04,-0.26,-0.17,0.25,1721200921572
-0.12,0.70,9.72,-0.08,0.00,0.18,1721200921582
-1.58,-2.20,9.84,-0.24,-0.11,0.22,1721200921592
-2.79,-2.11,10.81,-0.21,-0.20,0.39,1721200921602
0.46,-2.05,12.23,-0.29,-0.03,0.38,1721200921612
2.32,9.20,18.94,0.00,-0.16,0.53,1721200921622
4.50,-0.59,2.79,-0.01,-0.22,0.39,1721200921632
2.55,-2.79,10.89,-0.37,0.08,-0.02,1721200921642
-0.85,0.76,11.76,-0.03,-0.22,-0.15,1721200921652
-3.05,-5.85,5.15,-0.13,-0.22,0.29,1721200921662
0.07,1.91,15.28,0.10,0.02,0.49,1721200921672
4.34,2.54,7.42,0.40,-0.21,0.29,1721200921682
3.64,-6.81,7.93,-0.05,-0.04,-0.12,1721200921692
0.79,2.23,24.36,0.12,-0.07,-0.09,1721200921702
-1.42,1.92,13.50,0.26,-0.15,0.07,1721200921712
-1.63,2.42,5.34,0.13,-0.01,0.22,1721200921722
1.73,-6.03,4.62,0.02,0.03,0.03,1721200921732
1.04,-1.92,11.71,0.28,-0.26,0.02,1721200921742
0.68,-2.79,7.95,0.14,0.09,0.01,1721200921753
-2.01,5.17,13.40,0.23,-0.09,0.03,1721200921763
0.04,2.78,12.59,0.05,0.04,0.03,1721200921773
1.84,-3.57,9.40,0.13,-0.16,0.23,1721200921783
1.94,-5.94,5.12,-0.01,0.12,0.10,1721200921793
0.36,-1.10,12.52,0.05,-0.01,0.03,1721200921803
-0.53,1.25,14.53,0.12,-0.07,-0.01,1721200921813
1.33,-0.56,11.59,0.13,-0.01,0.17,1721200921823
2.39,-1.01,10.62,0.08,0.10,0.11,1721200921833
1.44,2.70,13.26,0.11,0.01,0.06,1721200921843
0.83,0.57,5.49,0.16,0.02,-0.00,1721200921853
0.64,-1.22,7.37,0.05,0.14,-0.06,1721200921863
-0.10,-2.92,10.64,0.00,0.06,-0.06,1721200921873
-0.63,2.15,13.22,0.09,0.06,-0.02,1721200921883
-0.48,1.80,10.53,0.09,0.08,0.03,1721200921893
1.14,1.53,15.82,0.06,0.10,0.01,1721200921903
2.88,3.69,10.34,0.29,0.02,0.04,1721200921913
2.40,2.38,3.74,-0.06,0.18,-0.10,1721200921923
-0.30,-0.64,10.97,-0.25,0.11,-0.31,1721200921933
-2.24,2.75,15.11,0.05,0.09,-0.31,1721200921943
-2.74,-1.45,1.77,0.15,0.00,-0.11,1721200921953
-2.70,0.73,15.75,-0.25,0.23,0.02,1721200921963
0.96,4.97,16.98,0.22,0.01,0.01,1721200921973
1.38,5.34,6.99,-0.01,0.04,-0.24,1721200921983
-0.71,0.20,14.06,-0.17,0.06,-0.31,1721200921993
-3.28,-1.09,4.05,0.10,-0.10,-0.16,1721200922003
-1.76,-0.53,7.33,-0.22,0.40,-0.21,1721200922013
0.12,-1.12,13.67,-0.10,-0.03,-0.05,1721200922023
-0.71,-1.92,9.14,-0.09,-0.03,-0.16,1721200922033
0.79,-3.66,11.51,-0.17,0.22,-0.34,1721200922043
0.17,1.31,11.55,0.02,0.13,-0.28,1721200922053
-1.81,2.87,6.67,-0.09,-0.05,-0.22,1721200922063
-2.85,0.73,2.64,-0.01,-0.10,-0.10,1721200922073
1.57,-3.44,9.47,-0.32,0.35,-0.18,1721200922083
0.59,-0.32,19.31,-0.24,0.04,-0.24,1721200922093
-3.38,-0.46,12.09,-0.10,-0.07,-0.29,1721200922103
-6.15,-1.64,5.02,-0.06,-0.05,-0.10,1721200922113
-1.38,4.07,12.69,-0.09,0.38,0.19,1721200922123
1.78,2.03,13.56,-0.04,-0.24,0.29,1721200922133
-0.19,-1.71,8.13,-0.16,0.01,-0.03,1721200922143
0.64,-0.84,12.81,-0.12,0.13,-0.33,1721200922153
-2.04,2.86,13.25,0.08,-0.12,-0.18,1721200922163
-5.59,-1.20,9.41,-0.03,-0.10,-0.07,1721200922173
-6.58,-0.87,9.91,0.17,-0.18,0.21,1721200922183
1.58,5.26,15.23,0.20,0.38,0.40,1721200922193
1.92,-2.52,8.68,0.19,-0.47,0.32,1721200922202
-0.96,-2.36,10.77,-0.01,0.19,-0.16,1721200922212
1.92,7.07,14.10,0.34,0.24,-0.29,1721200922222
-2.64,-5.97,5.58,-0.03,-0.37,-0.01,1721200922232
-8.60,0.79,10.89,0.23,-0.38,0.16,1721200922242
2.51,-4.10,12.11,0.12,0.46,0.21,1721200922252
2.83,5.06,14.48,0.38,-0.34,0.31,1721200922262
1.11,-3.06,0.16,0.01,-0.16,0.15,1721200922272
0.46,-0.42,13.36,0.03,-0.06,-0.04,1721200922282
2.04,1.18,11.88,0.28,0.05,-0.18,1721200922292
-0.36,-4.77,6.23,-0.00,-0.31,-0.07,1721200922302
-4.32,-2.30,9.00,0.05,-0.22,0.08,1721200922312
0.52,2.52,13.97,0.16,0.27,-0.03,1721200922322
1.12,1.06,12.98,0.03,-0.13,-0.19,1721200922332
-3.47,-0.80,7.13,0.09,-0.35,-0.13,1721200922342
-2.20,-1.99,7.29,-0.00,0.11,-0.10,1721200922352
-1.29,3.38,14.59,0.09,0.00,-0.08,1721200922362
-0.57,-0.88,11.54,-0.00,-0.25,0.01,1721200922372
-4.31,6.66,7.61,0.26,-0.55,0.00,1721200922382
0.94,-0.82,5.46,-0.06,0.16,0.00,1721200922392
2.70,-2.80,14.78,-0.08,-0.26,-0.04,1721200922402
-0.72,2.02,7.28,0.07,-0.41,-0.00,1721200922412
-0.22,1.04,7.36,-0.07,0.06,-0.09,1721200922422
-1.50,5.89,10.70,0.18,-0.25,-0.06,1721200922432
0.60,-1.22,11.41,-0.22,-0.10,0.04,1721200922442
-2.24,-1.03,16.25,-0.06,-0.34,0.05,1721200922452
-0.66,3.79,13.16,0.00,-0.05,0.20,1721200922462
4.23,2.49,6.22,0.00,-0.28,0.27,1721200922472
1.82,2.86,1.33,-0.03,-0.32,0.05,1721200922482
2.05,-3.51,8.71,-0.31,0.14,-0.42,1721200922492
-4.60,-2.60,15.57,-0.15,-0.37,-0.52,1721200922502
-10.42,-0.05,17.33,-0.10,-0.19,-0.03,1721200922512
-6.31,-0.54,4.05,0.10,-0.27,0.83,1721200922522
5.77,-0.37,8.03,-0.19,0.16,0.70,1721200922532
8.81,0.09,12.13,0.00,-0.41,0.07,1721200922542
3.77,-5.76,8.32,-0.29,-0.27,-0.52,1721200922552
-5.78,4.87,14.10,0.06,-0.32,-0.48,1721200922562
-4.91,0.72,9.64,-0.06,-0.08,0.13,1721200922572
-1.37,-4.11,9.37,-0.01,-0.36,0.62,1721200922582
4.55,1.81,9.86,-0.02,0.04,0.40,1721200922592
6.71,4.02,10.52,-0.03,-0.17,-0.24,1721200922602
0.37,1.82,10.21,-0.03,-0.34,-0.45,1721200922612
-3.57,-3.57,7.67,-0.10,-0.07,-0.17,1721200922622
-2.67,-1.65,5.12,0.02,-0.17,0.10,1721200922632
2.35,0.87,13.61,-0.06,0.05,0.03,1721200922642
6.88,-1.72,14.08,-0.03,-0.11,0.02,1721200922652
3.10,4.13,13.30,-0.00,-0.11,-0.29,1721200922662
2.09,1.02,9.60,0.07,0.02,-0.61,1721200922672
-1.37,1.19,8.91,0.14,-0.18,-0.53,1721200922682
-2.08,-4.09,9.67,-0.10,0.03,-0.30,1721200922692
-2.53,-1.78,15.09,0.18,-0.08,-0.10,1721200922702
1.32,0.64,6.93,0.15,0.11,-0.07,1721200922712
4.30,-1.94,8.97,-0.03,0.12,-0.28,1721200922722
-0.01,4.92,14.66,0.21,-0.05,-0.57,1721200922732
0.39,5.58,10.78,0.19,0.24,-0.44,1721200922742
0.11,-4.99,6.93,-0.07,0.12,-0.44,1721200922753
-2.24,-4.70,10.58,0.04,-0.01,-0.36,1721200922763
0.49,5.57,11.34,0.29,0.41,-0.25,1721200922773
4.24,-3.57,8.75,-0.05,0.36,-0.37,1721200922783
-1.14,1.72,17.37,0.26,0.02,-0.50,1721200922793
-0.16,8.05,8.41,0.44,0.34,-0.34,1721200922803
2.55,-1.51,2.00,-0.04,0.33,-0.42,1721200922813
-1.81,0.27,14.04,0.13,0.12,-0.47,1721200922823
0.16,-2.04,9.22,0.13,0.42,-0.26,1721200922833
0.90,0.63,4.66,0.14,0.25,-0.25,1721200922843
0.60,1.17,8.69,-0.09,0.39,-0.54,1721200922853
-1.22,2.48,19.61,0.00,0.38,-0.62,1721200922863
-2.12,-1.25,11.23,0.17,0.18,-0.11,1721200922873
-0.21,2.41,3.20,0.08,0.49,-0.13,1721200922883
2.63,-1.81,8.49,-0.11,0.54,-0.54,1721200922893
-3.11,2.48,14.06,0.03,0.25,-0.50,1721200922903
-5.61,3.65,15.78,0.03,0.36,-0.24,1721200922913
-3.30,-1.67,5.26,0.01,0.23,0.01,1721200922923
1.20,0.12,12.18,-0.11,0.48,-0.00,1721200922933
3.61,-1.88,9.04,0.01,0.26,-0.29,1721200922943
-2.59,6.56,8.32,0.10,0.17,-0.46,1721200922953
-3.40,5.08,1.08,-0.02,0.40,-0.34,1721200922963
0.94,-8.64,15.67,-0.52,0.57,-0.11,1721200922973
0.66,-2.99,15.84,0.01,0.11,-0.05,1721200922983
0.09,7.21,7.38,0.09,0.29,-0.23,1721200922993
0.12,-4.14,11.01,-0.43,0.45,-0.50,1721200923003
-6.93,-0.09,13.55,0.10,-0.18,-0.15,1721200923013
-1.12,-5.84,5.48,-0.25,0.62,0.24,1721200923023
1.50,3.03,14.56,0.04,0.06,0.26,1721200923033
4.53,4.62,12.49,-0.09,0.67,-0.37,1721200923043
-1.14,4.07,12.72,0.03,-0.00,-0.61,1721200923053
-8.70,-6.99,-2.54,-0.21,-0.03,-0.01,1721200923063
-2.86,0.42,17.71,-0.09,0.91,0.46,1721200923073
5.02,2.80,14.20,0.17,0.10,0.35,1721200923083
0.67,6.03,10.03,-0.13,-0.04,-0.14,1721200923093
-1.35,-2.12,6.13,-0.08,0.11,-0.33,1721200923103
-2.55,-1.65,8.73,0.07,0.44,-0.06,1721200923113
-1.76,-0.56,8.85,-0.14,0.17,0.23,1721200923123
-4.67,1.08,11.51,-0.07,-0.27,0.25,1721200923133
-2.05,-0.66,12.90,0.09,0.28,0.29,1721200923143
3.16,1.83,17.96,0.17,0.50,0.21,1721200923153
0.80,6.79,-0.16,0.21,-0.16,0.04,1721200923163
-1.58,1.71,17.89,-0.00,0.34,-0.01,1721200923178
-5.90,0.74,14.03,0.14,-0.35,-0.06,1721200923182
-2.71,0.23,6.39,0.08,0.36,0.13,1721200923192
2.17,-1.66,14.30,0.02,0.07,0.44,1721200923202
0.91,-0.89,10.78,-0.02,-0.03,0.21,1721200923212
-0.04,-0.18,10.81,-0.04,0.02,-0.06,1721200923222
-1.74,-0.87,7.75,0.12,-0.01,-0.09,1721200923232
-0.64,-5.17,10.54,-0.01,0.04,0.20,1721200923242
-0.53,6.69,14.88,0.22,0.04,0.33,1721200923252
2.33,1.29,6.46,-0.07,0.03,0.07,1721200923262
-2.97,1.60,18.98,0.02,-0.25,-0.27,1721200923272
-3.92,-6.07,6.45,0.14,0.02,0.02,1721200923282
-4.35,7.19,7.10,0.18,0.01,0.35,1721200923292
0.57,3.30,9.70,-0.01,-0.02,0.39,1721200923302
4.40,1.40,15.55,0.18,0.10,0.20,1721200923312
3.26,-1.93,1.15,-0.01,-0.27,-0.23,1721200923322
-5.94,7.25,12.33,-0.00,-0.20,-0.36,1721200923332
-4.80,1.41,13.30,0.13,0.09,0.12,1721200923342
-0.70,-2.89,13.12,-0.10,-0.07,0.45,1721200923352
2.45,4.65,9.97,0.16,-0.19,0.28,1721200923362
4.09,4.73,2.42,-0.07,-0.03,-0.16,1721200923372
0.56,-0.28,13.76,-0.20,-0.09,-0.25,1721200923382
-3.27,1.51,11.43,0.18,-0.12,-0.03,1721200923392
-1.52,0.25,4.49,-0.04,-0.06,0.11,1721200923402
-0.52,1.33,10.34,-0.08,-0.12,0.14,1721200923412
0.90,2.94,18.49,-0.08,0.16,-0.07,1721200923422
-2.97,0.42,3.36,0.10,-0.43,0.03,1721200923432
-4.81,-1.20,2.60,-0.29,0.03,0.13,1721200923442
-0.80,-3.87,17.90,-0.22,0.06,0.26,1721200923452
-0.12,-3.68,8.51,-0.04,-0.31,0.17,1721200923462
0.15,0.98,14.54,-0.18,0.04,-0.02,1721200923472
1.15,3.79,13.76,0.16,-0.14,0.14,1721200923482
-0.35,-1.58,-0.75,-0.15,-0.20,0.02,1721200923492
-2.49,-4.98,13.99,-0.30,-0.05,-0.17,1721200923502
-2.65,1.07,13.90,0.10,-0.18,-0.04,1721200923512
-3.90,-1.93,7.38,-0.22,-0.15,0.23,1721200923522
-0.59,-4.69,12.25,-0.15,-0.19,0.57,1721200923532
4.71,0.91,10.91,-0.10,0.07,0.22,1721200923542
5.15,3.06,11.98,-0.01,-0.20,-0.17,1721200923552
0.28,0.88,11.30,-0.05,-0.11,-0.32,1721200923562
-3.51,-0.37,7.46,-0.00,-0.18,-0.13,1721200923572
-2.82,0.71,8.41,-0.09,-0.06,0.23,1721200923582
2.77,-1.97,10.47,-0.07,0.05,0.26,1721200923592
4.37,3.47,13.75,0.07,-0.02,-0.02,1721200923602
0.99,3.30,11.06,0.13,-0.12,-0.32,1721200923612
-4.63,-2.80,6.86,-0.11,-0.08,-0.39,1721200923622
-3.92,-0.92,16.23,0.08,-0.22,0.18,1721200923632
2.45,-2.92,8.67,0.01,0.12,0.19,1721200923642
0.75,5.98,8.62,0.19,-0.23,-0.03,1721200923652
0.62,-0.14,5.60,-0.14,0.12,-0.13,1721200923662
-0.21,0.50,17.80,0.11,0.01,-0.10,1721200923672
1.11,0.12,11.40,0.23,-0.05,0.17,1721200923682
2.66,2.53,5.17,0.04,0.06,0.30,1721200923692
2.45,0.57,14.09,0.01,0.02,-0.20,1721200923702
1.82,5.42,13.59,0.28,0.05,-0.37,1721200923712
0.43,-6.25,-0.87,0.05,-0.14,-0.10,1721200923722
-3.06,0.13,16.34,-0.08,0.13,0.03,1721200923732
0.72,1.86,11.05,0.26,0.06,0.10,1721200923742
3.11,2.25,6.85,0.20,0.07,0.02,1721200923752
5.17,-0.66,7.77,0.01,0.17,-0.25,1721200923762
-1.08,0.93,9.31,0.21,-0.19,-0.41,1721200923772
-3.36,4.30,11.53,0.10,0.31,-0.22,1721200923782
-0.35,-1.69,10.19,-0.03,0.07,-0.01,1721200923792
-1.82,0.68,7.15,0.17,-0.17,0.09,1721200923802
3.08,-1.44,3.70,-0.22,0.35,-0.05,1721200923812
1.35,1.93,25.47,-0.10,0.20,-0.47,1721200923822
-3.57,5.80,12.91,0.35,-0.08,-0.45,1721200923832
-5.07,1.31,-0.56,-0.10,0.04,-0.09,1721200923842
-1.42,-1.82,9.62,-0.31,0.11,0.22,1721200923852
3.74,0.01,14.06,-0.11,0.15,-0.02,1721200923862
2.88,1.76,3.35,0.06,-0.20,-0.25,1721200923872
0.03,0.83,9.92,-0.30,0.32,-0.45,1721200923882
-0.87,-0.26,18.60,-0.04,-0.03,-0.28,1721200923892
-1.79,4.09,13.38,-0.05,0.10,-0.06,1721200923902
0.62,3.84,2.50,-0.03,-0.13,-0.00,1721200923912
1.21,-2.37,8.53,-0.26,0.17,-0.22,1721200923922
-0.64,-6.47,12.01,-0.08,-0.10,-0.37,1721200923932
-5.66,-1.42,6.97,-0.10,-0.08,-0.22,1721200923942
-2.47,4.98,12.44,0.06,0.23,0.04,1721200923952
1.81,-1.62,6.76,-0.19,0.06,-0.02,1721200923962
-0.97,-5.60,11.50,-0.27,-0.11,-0.25,1721200923972
1.23,6.23,15.09,0.24,0.34,-0.36,1721200923982
-0.47,-2.85,3.78,-0.12,-0.19,-0.27,1721200923992
-8.61,1.03,11.91,-0.11,-0.20,-0.05,1721200924002
1.21,-3.09,11.66,-0.02,0.37,0.17,1721200924012
2.28,4.51,13.52,0.21,-0.10,0.07,1721200924022
2.32,2.06,5.13,0.05,-0.02,-0.23,1721200924032
-2.15,-0.14,11.99,-0.05,-0.08,-0.31,1721200924042
-3.50,1.59,12.76,0.17,0.06,-0.25,1721200924052
-1.65,0.60,10.40,0.09,0.16,0.03,1721200924062
-2.45,-4.83,7.02,-0.04,-0.27,0.03,1721200924072
-2.83,-1.29,9.66,0.09,-0.01,0.05,1721200924082
1.64,5.75,13.62,0.25,0.35,-0.28,1721200924092
2.76,-1.47,7.35,0.04,-0.09,-0.29,1721200924102
-3.12,-3.79,7.08,-0.03,-0.16,-0.05,1721200924112
-1.31,0.25,12.94,0.11,0.22,-0.07,1721200924122
1.24,5.20,14.43,0.25,0.18,-0.18,1721200924132
0.95,-2.60,2.88,0.07,-0.08,-0.15,1721200924142
-2.22,-3.93,11.11,-0.12,0.12,-0.23,1721200924152
-0.52,0.78,13.84,0.21,0.07,-0.29,1721200924162
-1.39,3.55,7.98,0.20,0.05,-0.19,1721200924172
-1.82,-0.79,5.83,0.02,-0.04,-0.13,1721200924182
-2.24,1.68,10.21,0.14,0.05,-0.09,1721200924192
-0.33,-2.94,10.30,-0.08,0.06,-0.14,1721200924202
-2.15,0.74,12.27,0.13,-0.16,-0.16,1721200924212
-0.61,0.58,7.94,-0.01,0.33,-0.17,1721200924222
-2.53,5.13,19.30,0.16,0.05,-0.14,1721200924232
-1.04,1.02,2.55,0.09,-0.10,0.25,1721200924242
3.24,0.60,16.74,-0.12,0.35,-0.03,1721200924252
4.60,1.42,8.82,0.15,-0.28,-0.15,1721200924262
0.29,2.74,8.39,-0.09,0.11,-0.43,1721200924272
-0.89,0.23,15.51,0.14,0.25,-0.50,1721200924282
-4.85,-3.97,5.56,-0.14,-0.13,-0.18,1721200924292
-6.50,3.69,14.48,0.03,-0.10,0.25,1721200924302
2.87,6.45,10.40,0.10,0.23,0.18,1721200924312
4.65,3.18,14.16,-0.11,-0.10,0.07,1721200924322
-3.47,3.17,5.31,0.02,-0.24,-0.37,1721200924332
-2.71,-2.42,14.30,-0.28,0.33,-0.37,1721200924342
-3.92,0.38,7.68,0.06,-0.31,0.29,1721200924352
-0.91,1.89,6.23,-0.21,0.24,0.43,1721200924362
5.25,1.05,12.64,-0.05,-0.07,0.13,1721200924372
4.23,-4.39,5.20,-0.11,-0.11,-0.27,1721200924382
-3.45,3.73,14.89,-0.10,0.15,-0.51,1721200924392
-5.84,-2.97,9.73,-0.03,-0.12,-0.35,1721200924402
-5.82,-5.14,11.67,-0.02,-0.01,0.35,1721200924412
0.03,5.07,9.78,0.24,0.22,0.50,1721200924422
5.05,-3.67,1.16,-0.16,-0.16,0.28,1721200924432
0.62,-1.85,18.36,-0.34,-0.04,-0.28,1721200924442
0.51,7.67,11.43,0.38,-0.07,-0.29,1721200924452
0.55,-6.00,4.78,-0.26,0.03,-0.09,1721200924462
-4.77,-2.89,9.49,-0.00,-0.21,0.26,1721200924472
-0.11,3.69,10.68,-0.04,0.32,-0.08,1721200924482
4.34,-5.65,15.20,-0.15,-0.03,-0.07,1721200924492
0.25,4.46,14.51,0.24,-0.12,0.05,1721200924502
2.64,0.28,3.26,0.01,0.12,-0.01,1721200924512
-0.08,1.24,12.88,-0.08,-0.11,-0.09,1721200924522
0.04,3.81,13.02,0.18,0.16,-0.34,1721200924532
-0.25,-5.25,9.88,-0.03,0.16,-0.22,1721200924542
-5.33,-2.12,11.35,0.05,-0.16,0.10,1721200924552
0.11,5.54,12.17,0.08,0.25,0.29,1721200924562
5.88,1.77,11.50,0.07,0.11,-0.01,1721200924572
2.62,1.58,10.91,0.12,-0.02,-0.44,1721200924582
-1.51,-5.82,4.64,-0.04,-0.10,-0.38,1721200924592
-5.06,-3.62,15.05,-0.06,0.19,-0.09,1721200924602
-2.80,1.89,11.54,0.17,0.11,0.15,1721200924612
2.59,5.52,10.45,0.27,0.19,0.30,1721200924622
6.45,3.61,10.70,0.22,0.28,-0.14,1721200924632
2.41,3.67,9.48,0.29,0.10,-0.43,1721200924642
-1.17,1.45,12.91,0.17,0.22,-0.37,1721200924652
-1.80,0.76,10.42,0.28,0.17,0.01,1721200924662
-1.93,0.53,3.68,0.11,0.10,0.13,1721200924672
0.62,2.12,8.02,0.02,0.23,-0.11,1721200924682
3.21,-0.11,14.44,0.05,0.24,-0.15,1721200924692
1.56,4.09,10.80,0.26,0.20,-0.18,1721200924702
0.00,2.72,7.41,-0.05,0.37,-0.33,1721200924712
-4.87,2.24,11.59,0.03,-0.07,-0.24,1721200924722
-1.92,-3.62,9.02,-0.15,0.22,0.08,1721200924732
-0.06,1.98,15.70,0.06,0.26,0.09,1721200924742
-0.07,3.85,8.50,0.04,0.15,-0.29,1721200924753
-0.97,2.22,8.35,-0.10,0.02,-0.13,1721200924763
-1.44,1.09,4.51,0.01,0.03,-0.00,1721200924773
4.06,-2.61,10.95,-0.31,0.58,-0.22,1721200924783
3.62,2.56,18.45,0.14,0.10,-0.20,1721200924793
0.49,0.40,5.30,-0.10,0.09,-0.37,1721200924803
-6.37,0.65,11.12,-0.20,-0.28,-0.17,1721200924813
-4.19,-11.29,6.25,-0.23,-0.02,0.10,1721200924823
1.49,-3.83,19.26,-0.04,0.65,-0.08,1721200924833
2.25,0.69,5.23,0.15,-0.10,-0.17,1721200924843
-4.08,5.68,6.72,-0.12,-0.00,-0.21,1721200924853
-0.66,1.37,13.85,0.06,0.11,-0.23,1721200924863
-0.96,-10.43,5.50,-0.33,0.08,-0.06,1721200924873
-3.05,-0.89,17.29,-0.08,0.17,-0.02,1721200924883
3.12,-2.83,10.72,-0.24,0.39,-0.17,1721200924893
-4.07,8.68,12.83,0.06,-0.48,-0.10,1721200924903
-3.28,-1.67,4.11,-0.03,0.36,-0.02,1721200924913
-0.42,-2.71,12.03,-0.12,0.16,0.16,1721200924923
0.42,1.28,10.47,-0.01,-0.05,0.04,1721200924933
1.98,4.92,18.48,-0.08,0.34,-0.11,1721200924943
-0.45,-3.36,10.38,0.02,-0.32,-0.12,1721200924953
-7.81,-0.01,7.50,0.10,0.15,-0.10,1721200924963
1.56,-4.23,11.04,0.02,0.55,0.08,1721200924973
1.64,6.44,16.03,0.05,-0.07,0.05,1721200924983
-3.08,5.46,4.17,0.22,-0.20,-0.20,1721200924993
-0.08,-4.40,13.68,-0.17,0.37,0.04,1721200925003
0.18,1.50,10.32,0.32,-0.21,0.36,1721200925013
2.88,1.26,4.67,-0.04,0.32,-0.08,1721200925023
1.23,2.07,11.69,0.07,-0.13,-0.41,1721200925033
-2.70,-1.03,15.56,-0.04,0.13,-0.36,1721200925043
-5.29,7.46,11.93,0.46,-0.09,0.16,1721200925053
1.76,-4.83,4.43,-0.01,0.21,0.39,1721200925063
-0.28,5.85,12.05,0.21,-0.23,-0.17,1721200925073
-1.45,-0.06,4.06,0.06,0.16,-0.41,1721200925083
-7.16,0.84,10.28,0.06,-0.14,-0.08,1721200925093
-4.24,-0.14,11.03,0.13,0.00,0.32,1721200925103
3.38,-3.14,10.36,0.08,0.08,0.44,1721200925113
2.97,7.12,10.61,0.22,-0.07,0.05,1721200925123
1.20,-6.09,12.32,-0.20,0.04,0.16,1721200925665
2.43,-0.64,16.31,0.03,0.22,0.06,1721200925670
4.86,-2.85,5.60,-0.11,-0.00,-0.25,1721200925680
-1.93,3.71,12.61,-0.10,0.00,-0.57,1721200925690
-3.59,1.64,12.19,-0.02,0.07,-0.47,1721200925700
-4.05,-4.04,9.68,-0.11,-0.05,0.01,1721200925710
-1.96,-4.46,8.65,-0.09,-0.03,0.10,1721200925720
1.46,-0.92,12.47,-0.14,0.29,0.01,1721200925730
0.70,2.77,9.10,0.10,0.10,-0.38,1721200925740
-1.07,0.52,11.13,-0.09,0.11,-0.50,1721200925750
-5.95,0.45,8.32,0.13,-0.14,0.06,1721200925760
1.48,2.28,18.30,-0.15,0.51,0.34,1721200925770
3.92,3.33,13.93,0.18,-0.41,0.10,1721200925780
0.22,2.20,0.27,-0.20,0.04,-0.31,1721200925790
-1.06,-2.09,18.65,-0.14,0.12,-0.51,1721200925800
-5.42,1.37,7.06,0.29,-0.23,-0.14,1721200925810
-3.49,-4.85,5.17,-0.09,0.26,0.25,1721200925820
-0.06,-1.60,13.25,0.00,-0.06,0.17,1721200925830
2.34,9.05,11.34,0.28,0.16,0.01,1721200925840
4.43,5.03,10.57,-0.06,0.14,-0.38,1721200925850
-2.58,1.31,15.43,-0.01,-0.35,-0.35,1721200925860
-3.63,-8.65,7.20,-0.02,0.01,-0.18,1721200925870
-2.86,-4.44,9.43,0.04,0.06,0.04,1721200925880
-1.61,7.38,8.88,0.18,0.05,0.02,1721200925890
2.56,1.55,12.67,0.03,0.08,-0.04,1721200925900
-0.91,0.68,3.91,0.21,-0.11,-0.29,1721200925910
3.67,-5.36,16.12,-0.39,0.53,-0.43,1721200925920
-1.66,6.50,21.54,0.24,-0.41,-0.33,1721200925930
-4.29,1.95,1.36,0.05,0.14,-0.20,1721200925940
-4.22,-0.56,10.61,0.23,-0.02,0.07,1721200925950
0.42,1.47,7.68,0.17,0.12,0.27,1721200925960
2.19,1.02,12.63,0.07,-0.13,0.08,1721200925970
-0.85,3.93,3.35,0.11,-0.09,-0.32,1721200925980
-1.20,2.88,9.32,-0.06,0.17,-0.30,1721200925990
-0.32,-5.03,16.20,-0.01,0.07,0.05,1721200926000
0.72,-2.44,8.27,0.09,-0.15,0.31,1721200926010
1.10,8.03,15.08,0.02,0.19,-0.11,1721200926020
0.45,5.20,3.08,0.13,-0.28,-0.19,1721200926030
-1.30,-1.88,17.78,-0.19,0.40,-0.26,1721200926040
-2.09,2.47,8.98,0.45,-0.25,0.31,1721200926050
2.29,0.64,7.49,-0.20,0.36,0.24,1721200926060
2.34,4.92,20.23,0.01,-0.02,-0.22,1721200926070
-3.81,-0.31,0.28,0.13,-0.44,-0.14,1721200926080
-3.98,-3.11,10.87,-0.28,0.33,0.04,1721200926090
-1.08,2.10,14.17,0.13,-0.10,0.34,1721200926100
0.77,2.19,-2.08,-0.25,-0.05,0.12,1721200926110
1.12,-1.68,13.17,-0.26,-0.00,-0.23,1721200926120
-0.66,-1.19,17.72,-0.06,-0.01,-0.16,1721200926130
-1.38,-2.76,6.93,-0.03,-0.14,0.19,1721200926140
-0.44,-3.41,8.39,-0.11,0.10,-0.01,1721200926150
0.56,5.28,13.88,0.14,0.06,-0.05,1721200926160
1.07,3.41,6.34,0.07,-0.06,0.15,1721200926170
2.02,-1.51,11.23,-0.20,0.02,0.02,1721200926180
0.91,-3.21,15.22,-0.06,-0.09,-0.16,1721200926190
-0.15,3.86,3.70,0.06,0.00,-0.15,1721200926200
-0.31,0.82,12.39,-0.23,0.06,-0.04,1721200926210
0.38,-2.18,12.14,0.08,-0.19,0.16,1721200926220
4.24,3.44,8.10,0.01,0.42,-0.06,1721200926230
3.86,-0.21,14.26,-0.12,0.04,-0.41,1721200926240
-5.28,0.15,11.22,-0.00,-0.23,-0.42,1721200926250
-3.30,-1.14,9.74,0.01,0.26,-0.04,1721200926260
2.93,-1.52,12.17,0.10,0.05,0.35,1721200926270
4.24,1.19,9.78,0.09,0.11,0.05,1721200926280
-0.64,5.07,12.93,0.04,0.05,-0.49,1721200926290
-3.18,3.51,12.06,0.11,0.16,-0.37,1721200926300
-2.46,-6.76,4.25,-0.02,-0.03,0.05,1721200926310
-1.59,1.28,14.90,0.12,0.12,0.15,1721200926320
3.31,5.09,9.80,0.26,0.18,0.08,1721200926330
1.24,0.82,9.31,0.05,0.03,-0.28,1721200926340
-1.64,-5.56,9.97,-0.02,-0.04,-0.04,1721200926350
-2.00,1.62,15.54,0.13,0.04,0.05,1721200926360
3.40,2.55,4.76,0.25,0.17,0.12,1721200926370
3.90,3.97,11.08,0.19,0.15,-0.04,1721200926380
2.47,-1.19,6.82,0.15,0.12,-0.37,1721200926390
-2.85,3.94,14.35,0.13,-0.00,-0.25,1721200926400
-2.30,-0.48,7.54,0.17,0.14,0.16,1721200926410
0.74,2.56,5.71,0.12,0.30,0.24,1721200926420
2.47,1.38,13.28,-0.15,0.25,-0.14,1721200926430
1.35,4.10,10.67,0.26,-0.06,-0.23,1721200926440
0.58,-2.01,16.18,-0.19,0.34,-0.34,1721200926450
-1.65,-1.03,11.03,0.36,-0.05,0.08,1721200926460
-1.28,4.21,2.98,-0.00,0.26,0.04,1721200926470
0.53,2.48,9.02,-0.04,0.13,-0.07,1721200926480
-0.20,-2.34,12.14,-0.16,0.17,-0.10,1721200926490
-2.30,3.81,15.68,0.19,0.17,-0.10,1721200926500
-1.63,3.46,3.65,0.01,0.09,-0.14,1721200926510
-1.71,-1.58,13.84,-0.19,0.07,-0.01,1721200926520
0.74,-0.00,15.90,0.02,0.22,0.03,1721200926530
1.53,2.12,11.61,0.24,0.05,-0.10,1721200926540
-1.52,1.39,2.71,0.02,-0.06,-0.21,1721200926550
-2.07,-4.98,11.92,-0.24,0.11,-0.25,1721200926560
-0.82,-0.14,13.32,0.19,0.09,-0.04,1721200926570
0.62,-4.60,9.74,-0.20,0.14,-0.03,1721200926580
-1.96,-0.27,12.88,0.12,-0.23,-0.11,1721200926590
-1.11,0.20,5.24,0.06,0.09,-0.04,1721200926600
1.39,-3.63,7.39,-0.08,-0.02,0.01,1721200926610
0.25,-1.72,8.96,-0.09,-0.02,-0.09,1721200926620
-0.64,3.70,12.40,-0.06,0.21,-0.31,1721200926630
-1.30,-2.89,8.81,-0.14,0.11,-0.22,1721200926640
-2.63,-4.50,18.04,-0.16,0.09,0.02,1721200926650
-1.09,-3.24,8.09,-0.05,-0.16,0.08,1721200926660
-1.80,4.95,8.28,-0.09,-0.15,0.10,1721200926670
1.84,3.24,13.13,0.08,0.27,-0.18,1721200926680
2.24,-4.27,6.71,-0.07,0.07,-0.15,1721200926690
-1.04,5.67,18.87,0.00,0.23,-0.20,1721200926700
-0.83,1.99,9.62,0.06,-0.02,-0.11,1721200926710
-5.46,5.27,13.59,0.12,-0.02,-0.17,1721200926720
-1.65,-0.99,5.39,0.10,-0.04,-0.00,1721200926730
-0.68,-5.96,5.09,-0.09,-0.10,0.14,1721200926740
-1.25,6.24,11.40,0.15,0.05,-0.16,1721200926750
0.17,4.66,14.05,0.06,0.26,-0.51,1721200926760
-5.50,-1.15,7.04,0.06,-0.12,-0.24,1721200926770
-4.19,1.41,11.27,0.04,0.34,0.10,1721200926780
1.96,0.95,10.91,0.07,0.10,0.09,1721200926790
0.91,4.66,9.80,0.14,-0.11,-0.01,1721200926800
1.12,2.33,10.64,0.17,0.11,-0.20,1721200926810
-0.91,-0.53,5.42,0.13,-0.15,-0.03,1721200926820
-3.56,1.69,12.34,-0.02,-0.04,-0.00,1721200926830
-1.34,0.06,10.35,0.11,-0.01,0.07,1721200926840
-1.98,1.50,5.17,0.05,-0.05,-0.02,1721200926850
-2.99,-0.83,10.07,-0.12,0.04,0.08,1721200926860
0.63,2.23,19.75,0.18,0.04,0.25,1721200926870
1.81,1.99,0.22,0.09,-0.19,0.22,1721200926880
0.16,0.09,11.08,-0.10,0.02,-0.13,1721200926890
0.63,0.55,8.68,0.09,-0.03,-0.04,1721200926900
-0.11,1.42,9.29,-0.12,-0.12,0.18,1721200926910
-0.05,1.77,13.79,0.03,-0.02,0.15,1721200926920
1.19,0.42,11.18,0.02,-0.03,0.04,1721200926930
-1.39,4.93,11.23,-0.03,-0.13,-0.12,1721200926940
-3.79,0.92,11.89,-0.12,-0.11,0.06,1721200926950
-2.84,-3.20,11.80,-0.00,-0.10,0.21,1721200926960
0.64,-0.24,6.68,0.00,-0.02,0.40,1721200926970
2.79,0.44,8.96,-0.20,-0.19,0.08,1721200926980
2.09,-2.16,14.09,-0.09,-0.32,0.08,1721200926990
0.73,4.67,16.94,0.06,0.03,-0.04,1721200927000
1.19,1.66,6.88,0.21,-0.14,-0.32,1721200927010
-1.64,-9.42,4.38,-0.28,-0.11,-0.03,1721200927020
-4.75,2.17,13.19,0.02,-0.25,0.14,1721200927030
0.31,3.58,11.07,0.02,-0.01,0.25,1721200927040
4.43,2.78,9.25,0.14,-0.08,0.15,1721200927050
5.05,-2.88,4.62,-0.20,0.04,-0.31,1721200927060
-2.81,5.93,17.45,0.03,-0.16,-0.61,1721200927070
-2.84,1.30,9.79,0.11,0.01,-0.02,1721200927080
-0.59,-3.09,5.45,-0.00,0.02,0.22,1721200927090
2.83,-5.73,11.10,-0.11,-0.01,-0.01,1721200927100
2.47,0.25,12.44,-0.08,-0.17,-0.27,1721200927110
-0.80,2.20,9.29,0.07,-0.06,-0.41,1721200927120
-2.15,4.30,10.69,0.10,0.18,-0.19,1721200927130
-0.70,-1.52,8.98,-0.01,-0.00,0.12,1721200927140
1.07,-5.49,11.26,-0.07,0.05,-0.06,1721200927150
-0.19,6.42,14.96,-0.00,0.15,-0.38,1721200927160
-1.65,2.33,9.93,0.13,-0.15,-0.05,1721200927170
-0.29,-5.94,-0.35,-0.16,0.02,0.04,1721200927180
3.05,-1.92,15.77,-0.11,0.32,-0.27,1721200927190
0.59,9.58,9.98,0.28,0.01,-0.35,1721200927200
-1.47,-1.68,9.44,-0.24,0.27,-0.32,1721200927210
-1.35,-0.48,18.65,0.17,0.12,0.18,1721200927220
2.86,3.74,6.15,0.10,0.08,0.12,1721200927230
2.63,7.06,8.75,0.10,0.05,-0.34,1721200927240
0.55,-0.88,3.70,-0.17,0.08,-0.60,1721200927250
-5.47,0.21,16.55,-0.03,0.01,-0.36,1721200927260
-4.56,5.10,10.72,0.16,0.23,0.06,1721200927270
1.39,-2.88,6.65,-0.09,0.22,0.33,1721200927280
3.18,1.19,15.69,0.01,0.13,0.00,1721200927290
3.22,5.88,11.66,0.26,0.14,-0.37,1721200927300
0.62,-0.58,2.43,-0.01,0.04,-0.50,1721200927310
-2.91,-2.04,19.08,-0.16,0.22,-0.30,1721200927320
-2.23,4.58,12.13,0.41,0.05,-0.06,1721200927330
0.29,-0.37,-1.33,-0.05,0.28,-0.12,1721200927340
-0.61,-0.57,14.03,0.00,0.16,-0.16,1721200927350
2.63,2.59,16.24,0.07,0.30,-0.40,1721200927360
-0.88,1.18,10.88,0.30,0.02,-0.62,1721200927370
-6.10,-7.54,-3.05,-0.25,0.01,-0.35,1721200927380
-5.84,1.22,22.48,-0.03,0.36,0.10,1721200927390
2.27,1.70,13.17,0.18,0.16,-0.01,1721200927400
-1.96,-0.83,6.78,-0.05,-0.07,-0.29,1721200927410
-6.47,-7.83,2.98,-0.03,0.09,-0.19,1721200927420
-0.34,-2.57,11.20,-0.04,0.69,0.04,1721200927430
3.77,1.44,15.44,-0.01,-0.00,0.15,1721200927440
-0.34,0.34,13.51,-0.03,-0.34,-0.14,1721200927450
-5.18,7.07,2.67,0.33,0.07,-0.29,1721200927460
-0.38,-6.28,6.39,-0.29,0.40,-0.17,1721200927470
-4.76,-6.99,19.31,-0.18,-0.26,0.10,1721200927480
-2.95,4.34,8.24,0.10,0.12,0.23,1721200927490
0.17,5.74,4.88,0.15,0.22,0.04,1721200927500
3.21,-5.54,14.00,-0.23,0.33,0.10,1721200927510
2.45,0.86,18.22,0.05,0.05,0.07,1721200927520
1.69,10.26,13.12,0.24,0.07,-0.35,1721200927530
1.27,-1.67,10.16,-0.08,0.02,-0.32,1721200927540
-5.57,-0.99,5.49,0.20,-0.32,-0.03,1721200927550
-1.16,-3.53,10.75,-0.10,0.53,0.18,1721200927560
2.82,2.71,14.85,0.22,-0.02,-0.00,1721200927570
-0.14,2.21,2.46,-0.07,-0.10,-0.21,1721200927580
-3.14,-0.96,12.82,0.03,0.41,-0.34,1721200927590
-1.64,-2.95,7.02,0.03,0.17,-0.09,1721200927600
-1.44,-1.04,12.30,-0.21,0.25,-0.04,1721200927610
0.92,3.78,17.26,0.10,0.08,-0.11,1721200927620
-2.38,2.25,3.81,0.13,-0.31,-0.07,1721200927630
-1.72,-2.77,11.63,-0.08,0.48,0.08,1721200927640
2.16,-2.42,10.93,0.01,0.07,0.21,1721200927650
-1.36,2.88,7.30,-0.01,-0.10,0.02,1721200927660
-4.57,0.01,5.16,-0.08,-0.33,-0.23,1721200927675
-1.00,-4.81,9.16,-0.23,-0.15,-0.13,1721200927679
-5.33,3.63,10.44,0.09,-0.10,0.18,1721200927689
0.84,3.40,8.88,-0.11,0.25,0.06,1721200927699
0.79,1.16,19.71,0.02,-0.10,0.18,1721200927709
-2.08,10.36,4.19,0.21,0.01,0.04,1721200927719
2.01,-0.46,10.19,-0.25,0.24,-0.02,1721200927729
-2.15,-1.98,12.09,-0.03,-0.44,0.18,1721200927739
-3.90,0.81,3.73,-0.13,-0.03,0.18,1721200927749
-0.05,1.69,13.10,-0.09,0.16,0.04,1721200927759
0.96,2.86,13.27,0.01,0.06,0.11,1721200927769
0.16,0.88,10.93,-0.06,-0.01,0.06,1721200927779
0.10,0.04,8.39,0.04,-0.02,0.06,1721200927789
0.96,-4.19,9.20,-0.20,0.11,0.05,1721200927799
-2.53,5.54,19.96,0.12,-0.07,0.17,1721200927809
-0.92,2.92,2.99,0.06,-0.07,0.33,1721200927819
0.10,-2.53,10.34,-0.24,0.04,0.10,1721200927829
0.21,-1.91,15.90,-0.00,-0.08,0.08,1721200927839
-1.56,-0.68,8.20,-0.12,-0.08,0.20,1721200927849
-3.57,3.18,9.79,0.08,-0.24,0.36,1721200927859
3.76,1.14,8.44,-0.03,0.18,0.28,1721200927869
5.71,-5.56,13.32,-0.19,-0.18,0.16,1721200927879
-0.02,5.27,10.69,0.02,-0.15,-0.22,1721200927889
-2.51,7.45,9.67,0.03,0.07,-0.25,1721200927899
-1.00,-4.33,11.82,-0.12,-0.07,0.34,1721200927909
2.79,-2.72,13.94,0.08,-0.02,0.43,1721200927919
4.42,-2.34,3.06,-0.08,0.03,-0.08,1721200927929
0.33,4.82,17.80,0.02,0.01,-0.21,1721200927939
-0.37,-0.46,7.24,0.04,-0.08,-0.15,1721200927949
-1.22,4.47,13.70,0.11,-0.03,0.25,1721200927959
3.47,1.53,7.65,0.17,0.16,0.06,1721200927969
1.21,0.69,13.57,-0.07,-0.01,-0.32,1721200927979
-2.83,0.91,11.27,0.19,-0.12,-0.15,1721200927989
-2.46,1.16,4.02,-0.00,0.10,0.09,1721200927999
0.11,-6.20,9.22,-0.05,-0.10,0.20,1721200928009
0.97,1.93,14.17,0.05,0.05,-0.09,1721200928019
0.62,2.90,8.77,0.09,-0.03,-0.14,1721200928029
-3.12,1.63,9.79,0.06,0.05,-0.10,1721200928039
-1.85,-2.93,9.32,0.05,0.11,-0.02,1721200928049
0.93,-0.55,9.42,0.02,0.03,0.18,1721200928059
1.35,5.93,12.92,0.14,-0.01,0.10,1721200928069
4.56,0.71,10.51,0.04,0.10,-0.06,1721200928079
1.41,5.13,12.05,0.19,-0.07,-0.34,1721200928089
-2.49,-0.75,-1.32,0.07,-0.10,-0.14,1721200928099
-4.44,-4.04,15.74,-0.23,0.36,-0.07,1721200928109
-1.47,0.97,9.72,0.22,-0.09,0.25,1721200928119
1.28,1.80,8.73,-0.09,0.23,0.11,1721200928129
2.83,6.82,17.61,0.17,0.08,-0.03,1721200928139
0.77,5.56,6.24,0.09,-0.01,-0.08,1721200928149
-0.99,-3.47,13.92,-0.19,0.21,-0.24,1721200928159
-1.82,-4.11,9.31,0.08,-0.04,-0.06,1721200928169
-1.93,3.33,7.06,0.13,0.13,0.12,1721200928179
2.70,-1.20,10.28,-0.12,0.19,0.05,1721200928189
0.92,9.48,14.88,0.41,-0.14,-0.11,1721200928199
2.74,1.11,2.75,-0.05,0.05,-0.20,1721200928209
-2.10,-5.12,18.09,-0.35,-0.08,-0.22,1721200928219
-3.23,0.73,13.08,0.15,-0.06,-0.17,1721200928229
0.09,0.40,5.38,-0.03,0.14,-0.07,1721200928239
-0.01,-7.80,3.45,-0.24,-0.12,0.01,1721200928249
-2.66,3.93,8.32,-0.04,0.02,-0.09,1721200928259
1.60,-0.85,7.02,-0.10,0.25,-0.41,1721200928269
0.80,-4.87,18.16,-0.27,0.22,-0.24,1721200928279
-2.43,2.73,6.76,0.14,-0.00,-0.16,1721200928289
-2.54,-5.25,10.60,-0.55,0.30,-0.20,1721200928299
-2.28,5.70,19.93,0.16,-0.07,0.03,1721200928309
1.71,-2.41,2.00,-0.08,0.15,0.02,1721200928319
-0.80,2.31,17.22,-0.04,0.09,-0.18,1721200928329
-1.65,2.95,6.17,0.18,-0.09,-0.15,1721200928339
-0.89,5.21,4.35,-0.04,0.20,-0.14,1721200928349
0.76,-3.50,16.11,-0.18,0.07,-0.11,1721200928359
-2.51,2.92,14.20,0.21,-0.23,0.08,1721200928369
-1.31,-4.85,0.53,-0.16,0.03,0.05,1721200928379
-1.42,2.89,21.42,0.04,-0.06,-0.01,1721200928389
0.13,5.96,7.17,0.46,-0.13,-0.05,1721200928399
-1.03,-2.68,-0.21,-0.04,-0.07,-0.16,1721200928409
-2.47,0.75,15.94,0.09,0.12,-0.11,1721200928419
0.84,-1.23,9.51,0.09,-0.05,0.09,1721200928429
-3.08,-0.17,4.95,-0.00,-0.29,-0.04,1721200928439
-1.11,1.49,12.04,0.04,0.22,0.02,1721200928449
0.56,-3.25,4.57,0.10,-0.12,0.05,1721200928459
-0.96,-3.80,12.80,-0.22,0.19,-0.06,1721200928469
-0.60,3.43,13.19,0.17,0.07,-0.03,1721200928479
0.74,4.46,13.07,0.10,0.21,-0.12,1721200928489
0.23,0.57,9.05,0.10,-0.10,0.27,1721200928499
-0.78,-2.02,5.05,-0.14,-0.25,0.20,1721200928509
1.85,3.83,16.18,0.12,0.05,-0.13,1721200928519
1.25,-0.33,7.08,-0.01,-0.11,-0.24,1721200928529
-5.84,2.80,12.54,-0.03,-0.19,-0.24,1721200928539
-4.51,0.17,5.59,0.01,0.03,0.18,1721200928549
1.83,-1.41,17.25,-0.06,0.35,0.28,1721200928559
2.34,6.01,10.88,0.28,-0.08,-0.03,1721200928569
0.53,2.18,1.51,-0.28,-0.10,-0.17,1721200928579
-2.04,5.90,22.97,0.11,-0.17,0.06,1721200928589
1.70,0.32,3.05,0.28,0.02,0.13,1721200928599
0.17,-7.43,5.49,-0.52,-0.07,-0.08,1721200928609
-5.41,7.91,20.57,0.07,-0.29,-0.13,1721200928619
-0.48,7.33,2.55,0.06,0.13,0.19,1721200928629
2.39,1.36,12.74,-0.10,0.06,0.15,1721200928639
1.36,-10.01,4.49,-0.24,-0.39,-0.11,1721200928649
-5.85,6.06,15.34,0.07,-0.16,-0.27,1721200928659
-1.22,1.20,3.30,0.06,0.00,0.11,1721200928669
-1.78,-5.64,14.85,-0.29,-0.10,0.16,1721200928679
0.33,0.03,7.61,0.13,-0.21,0.36,1721200928689
5.07,3.03,9.45,-0.15,0.20,0.01,1721200928699
3.28,2.02,15.50,-0.05,-0.29,-0.09,1721200928709
-1.91,-0.98,7.75,-0.09,-0.22,-0.20,1721200928719
-2.71,-5.66,15.60,-0.24,0.00,-0.06,1721200928729
-1.22,2.46,8.45,0.24,-0.17,0.32,1721200928739
3.43,1.50,6.38,-0.17,0.27,-0.03,1721200928749
1.55,1.16,18.89,0.03,-0.26,-0.16,1721200928759
-0.93,-4.44,9.46,-0.08,-0.18,-0.03,1721200928769
-0.93,4.08,12.02,0.05,0.05,-0.12,1721200928779
0.80,-2.50,3.33,-0.01,-0.16,-0.10,1721200928789
-1.37,-2.63,17.09,-0.18,0.15,-0.05,1721200928799
-1.13,6.00,7.93,0.26,-0.12,0.26,1721200928809
2.45,2.02,5.44,-0.15,0.22,0.23,1721200928819
4.40,1.99,18.17,0.06,0.04,-0.40,1721200928829
-0.13,-0.07,7.60,0.00,-0.29,-0.37,1721200928839
-5.30,5.38,11.56,-0.04,0.03,-0.16,1721200928849
-4.14,-2.82,6.31,-0.05,-0.07,0.01,1721200928859
-1.42,-4.37,13.19,-0.03,0.03,0.19,1721200928869
2.32,3.93,9.02,0.06,0.01,0.24,1721200928879
1.33,6.58,6.27,0.03,-0.03,-0.16,1721200928889
2.30,3.95,20.51,0.18,0.22,-0.23,1721200928899
3.61,-1.16,3.56,0.28,-0.17,-0.09,1721200928909
1.51,0.11,14.42,0.07,0.21,-0.19,1721200928919
0.86,0.22,8.55,0.31,-0.03,-0.33,1721200928929
0.08,1.47,9.74,-0.06,0.06,-0.15,1721200928939
0.38,0.51,13.25,0.29,-0.04,-0.40,1721200928949
1.41,-7.04,2.65,0.00,0.07,-0.24,1721200928959
-1.29,0.46,17.76,0.05,0.18,-0.34,1721200928969
-4.73,12.23,7.95,0.40,-0.12,-0.38,1721200928979
-1.87,-3.95,3.29,-0.05,0.12,-0.08,1721200928989
3.12,-9.54,12.91,-0.27,0.15,0.16,1721200928999
4.13,3.17,16.72,0.24,0.06,-0.17,1721200929009
4.49,3.28,2.06,-0.03,0.30,-0.77,1721200929019
-6.56,1.41,13.25,-0.18,-0.25,-0.61,1721200929029
-7.17,-0.59,20.85,0.19,0.10,-0.17,1721200929039
-4.50,-5.12,-3.14,0.13,-0.02,0.15,1721200929049
0.84,2.55,10.67,-0.25,0.67,0.09,1721200929059
4.38,0.57,16.96,-0.11,0.06,-0.32,1721200929069
0.22,-0.16,18.52,-0.11,-0.07,-0.46,1721200929079
-4.58,-0.28,5.28,0.23,-0.03,-0.29,1721200929089
-3.66,-4.58,7.00,-0.24,0.45,-0.03,1721200929099
0.11,5.07,20.32,0.15,0.18,0.24,1721200929109
2.81,2.00,2.89,0.14,0.02,0.05,1721200929119
0.51,-3.42,10.62,-0.25,0.10,-0.52,1721200929129
-2.85,-1.62,11.95,0.09,-0.06,-0.15,1721200929139
-2.92,0.56,5.33,-0.08,0.23,-0.12,1721200929149
-0.05,-4.39,18.26,-0.25,0.21,0.08,1721200929159
-3.23,3.48,10.50,0.09,-0.22,-0.08,1721200929169
-0.74,3.76,7.24,0.05,0.46,-0.14,1721200929179
1.43,-7.86,12.44,-0.12,0.01,0.05,1721200929189
-0.82,2.52,11.42,0.14,-0.13,0.28,1721200929199
4.72,4.15,17.29,-0.11,0.53,-0.23,1721200929209
-0.63,8.87,15.78,0.38,-0.34,-0.18,1721200929219
-4.58,-7.08,-0.08,-0.16,-0.08,-0.04,1721200929229
-3.54,-5.55,10.36,0.02,-0.10,0.22,1721200929239
1.15,0.20,1.36,-0.04,0.11,0.12,1721200929249
3.93,-1.90,18.79,-0.25,0.32,-0.19,1721200929259
-0.60,6.41,14.40,0.28,-0.05,-0.31,1721200929269
-3.57,4.10,4.46,0.01,0.26,-0.08,1721200929279
-1.05,2.09,14.53,-0.02,0.15,0.16,1721200929289
2.35,6.84,15.42,0.19,-0.15,0.26,1721200929299
0.79,-4.79,-0.38,-0.14,-0.43,0.12,1721200929309
-3.41,1.59,11.59,0.06,0.15,-0.24,1721200929319
2.10,0.12,9.45,-0.03,0.13,-0.01,1721200929329
-2.98,9.23,17.42,0.13,-0.25,-0.05,1721200929339
-1.89,-1.47,-3.41,0.12,-0.12,-0.01,1721200929349
1.06,-2.17,7.49,-0.30,0.27,-0.04,1721200929359
1.27,2.94,20.54,0.17,0.10,-0.08,1721200929369
1.73,4.07,12.28,0.06,0.02,-0.01,1721200929379
-1.43,2.38,11.03,0.11,-0.31,-0.07,1721200929389
-2.36,4.96,11.92,0.12,-0.01,-0.02,1721200929399
-0.58,-0.16,2.88,0.12,-0.24,0.09,1721200929409
-1.73,-0.38,10.23,-0.11,0.05,0.03,1721200929419
-2.05,-0.28,2.82,0.11,-0.23,0.05,1721200929429
-0.40,0.20,6.80,-0.11,0.26,0.18,1721200929439
3.11,4.98,20.12,0.13,0.07,0.03,1721200929449
1.53,-0.80,1.07,-0.03,-0.34,0.00,1721200929459
-2.16,-3.75,18.20,-0.31,0.12,-0.19,1721200929469
-4.14,4.57,11.06,0.25,-0.15,0.09,1721200929479
0.78,-0.21,14.09,-0.16,0.20,0.24,1721200929489
1.07,-7.54,4.26,0.02,-0.51,0.43,1721200929499
1.31,0.80,5.78,-0.19,0.13,0.08,1721200929509
3.69,7.13,23.69,0.09,0.11,-0.24,1721200929519
-0.45,-0.63,4.03,0.11,-0.41,-0.11,1721200929529
0.39,-4.50,11.45,-0.34,0.22,0.19,1721200929539
2.23,3.04,15.11,0.13,-0.00,-0.16,1721200929549
-0.46,3.47,5.68,0.03,-0.11,-0.04,1721200929559
-1.42,1.68,6.71,-0.20,0.00,-0.05,1721200929569
2.22,-1.89,18.16,0.04,0.03,-0.24,1721200929579
1.57,1.71,8.26,0.03,0.01,-0.24,1721200929589
-2.52,0.72,11.11,-0.16,-0.15,-0.10,1721200929599
-2.09,4.73,11.44,0.11,0.22,-0.10,1721200929609
1.86,-5.96,6.15,-0.03,0.17,-0.14,1721200929619
-0.71,1.13,17.55,0.01,-0.05,0.15,1721200929629
0.48,3.04,10.04,0.08,-0.09,0.11,1721200929639
3.67,4.07,13.07,0.14,0.14,-0.16,1721200929649
3.11,-4.88,4.33,0.00,-0.02,-0.45,1721200929659
-3.70,-3.73,7.54,-0.02,-0.19,-0.16,1721200929669
-3.79,3.98,11.68,0.24,-0.15,0.16,1721200929684
-0.46,-1.12,10.89,0.08,-0.10,0.28,1721200929688
2.20,6.98,10.61,0.10,0.26,0.16,1721200929698
5.56,-0.41,11.13,-0.00,0.13,-0.37,1721200929708
-1.08,0.72,11.91,0.09,-0.13,-0.55,1721200929718
-4.04,-0.45,8.85,0.12,0.16,-0.35,1721200929728
-2.77,-1.27,7.41,0.04,0.09,0.15,1721200929738
-0.11,1.92,11.98,0.05,0.06,0.07,1721200929748
3.17,2.74,11.43,0.15,0.19,-0.26,1721200929758
1.15,0.52,0.14,0.03,-0.06,-0.44,1721200929768
-4.77,-0.01,14.20,-0.19,0.35,-0.40,1721200929778
-5.08,6.37,17.92,0.21,0.17,-0.05,1721200929788
1.53,2.63,11.41,-0.00,0.23,0.29,1721200929798
4.18,1.39,3.68,0.09,0.03,-0.02,1721200929808
3.71,0.74,7.88,-0.19,0.19,-0.39,1721200929818
0.54,6.20,18.45,0.12,0.14,-0.55,1721200929828
-3.08,1.30,3.53,0.09,0.08,-0.39,1721200929838
-4.20,-2.09,10.60,-0.17,0.37,-0.08,1721200929848
-0.56,0.74,12.60,0.20,0.13,0.10,1721200929858
4.06,1.63,11.93,-0.12,0.38,-0.07,1721200929868
0.50,8.23,10.55,0.25,-0.26,-0.24,1721200929878
-0.78,-6.61,2.87,-0.26,0.18,-0.45,1721200929888
-4.64,-3.62,15.56,-0.09,-0.01,-0.39,1721200929898
-3.18,3.83,4.52,0.15,0.18,-0.15,1721200929908
-1.58,1.59,11.50,-0.17,0.30,-0.11,1721200929918
-1.89,-5.83,11.64,0.08,-0.00,-0.16,1721200929928
-2.52,-6.23,4.49,-0.14,0.14,-0.03,1721200929938
0.62,3.14,12.64,0.04,0.34,0.01,1721200929948
3.46,2.26,13.16,-0.13,0.19,-0.31,1721200929958
-1.76,0.35,16.18,0.00,-0.25,-0.26,1721200929968
-5.98,-0.13,3.52,0.05,0.01,-0.12,1721200929978
0.08,-6.08,13.10,-0.22,0.42,0.11,1721200929988
0.30,1.20,16.45,0.01,-0.05,0.07,1721200929998
-1.41,3.22,2.60,0.06,-0.05,-0.15,1721200930008
-0.97,0.04,15.05,-0.11,0.38,-0.26,1721200930018
-0.69,-1.67,8.88,0.24,-0.07,0.03,1721200930028
1.92,-1.29,15.43,-0.09,0.35,0.16,1721200930038
0.86,2.63,11.60,0.20,-0.25,-0.04,1721200930048
0.72,3.34,13.19,-0.09,0.42,-0.22,1721200930058
-0.49,0.79,12.01,0.15,-0.23,-0.07,1721200930068
-3.05,-6.89,-0.18,-0.06,-0.07,-0.01,1721200930078
-0.49,-0.04,14.95,0.03,0.57,-0.21,1721200930088
1.83,8.24,20.51,0.17,0.24,-0.15,1721200930098
-3.20,2.50,9.63,0.12,-0.22,-0.06,1721200930108
-2.82,-5.60,4.76,0.07,0.07,0.14,1721200930118
1.85,1.96,10.20,0.10,0.17,0.25,1721200930128
1.21,8.87,13.79,0.06,-0.16,-0.17,1721200930138
-2.17,1.77,5.47,0.22,-0.36,-0.12,1721200930148
-3.23,-7.69,5.45,-0.14,0.40,-0.09,1721200930158
-2.94,3.80,13.19,0.19,-0.17,0.20,1721200930168
1.13,5.19,2.64,0.02,0.07,0.34,1721200930178
4.40,6.52,18.70,0.09,0.22,-0.04,1721200930188
2.92,-3.25,9.25,0.08,-0.11,-0.24,1721200930198
-4.95,-0.66,5.48,-0.08,-0.21,-0.14,1721200930208
-3.75,5.94,11.35,0.06,0.08,0.17,1721200930218
1.79,3.15,9.59,0.03,0.17,0.22,1721200930228
2.77,-0.76,16.13,0.01,0.01,-0.10,1721200930238
-1.13,0.91,6.14,0.02,-0.20,-0.21,1721200930248
-3.03,0.44,13.43,-0.06,-0.09,0.13,1721200930258
-3.62,3.66,3.37,0.12,-0.13,0.15,1721200930268
-0.32,0.40,9.88,-0.24,0.07,0.15,1721200930278
0.84,0.25,15.96,0.02,-0.16,-0.03,1721200930288
-2.38,-5.31,4.63,-0.20,-0.32,0.04,1721200930298
-2.39,-0.18,12.37,-0.12,-0.04,0.12,1721200930308
0.72,-1.06,14.82,-0.09,0.03,0.14,1721200930318
0.06,2.83,13.38,0.23,-0.27,0.36,1721200930328
1.92,-7.87,1.39,-0.30,-0.11,0.10,1721200930338
-1.32,1.40,12.62,-0.04,-0.39,-0.11,1721200930348
-0.88,-0.41,7.53,-0.01,0.01,0.07,1721200930358
-0.86,2.14,13.40,-0.01,-0.02,0.26,1721200930368
-0.79,3.12,4.25,0.12,-0.36,0.30,1721200930378
7.04,-5.37,10.64,-0.22,0.32,-0.06,1721200930388
4.17,0.99,17.36,0.00,-0.34,-0.33,1721200930398
-2.28,5.50,9.12,-0.01,-0.18,-0.16,1721200930408
-3.43,4.28,5.81,-0.06,0.02,-0.00,1721200930418
1.06,-3.68,13.83,-0.06,0.09,-0.03,1721200930428
3.13,-7.53,10.23,0.02,-0.01,-0.11,1721200930438
-1.85,6.78,9.53,0.01,-0.04,-0.14,1721200930448
-0.92,5.32,14.47,-0.04,0.04,-0.09,1721200930458
3.24,-3.56,10.52,0.08,-0.09,0.07,1721200930468
1.85,0.58,2.42,0.10,-0.02,-0.35,1721200930478
-1.30,-2.00,10.89,-0.23,0.08,-0.40,1721200930488
-3.95,4.12,24.07,0.17,0.00,-0.27,1721200930498
-1.34,-4.31,4.53,0.12,-0.11,0.30,1721200930508
2.11,5.81,10.18,0.15,0.25,0.12,1721200930518
5.41,-0.63,7.62,0.05,0.10,-0.48,1721200930528
-2.77,7.63,18.06,0.22,0.02,-0.44,1721200930538
-3.29,-4.42,3.30,0.12,0.06,-0.33,1721200930548
-1.94,-5.06,11.18,-0.07,0.12,0.17,1721200930558
0.92,0.87,6.59,0.12,0.04,-0.01,1721200930568
2.79,7.28,18.23,0.08,0.32,-0.34,1721200930578
1.67,5.71,6.61,0.36,-0.04,-0.22,1721200930588
0.85,-1.50,17.59,-0.16,0.46,-0.39,1721200930598
-1.40,-1.31,7.45,0.31,-0.15,-0.13,1721200930608
-2.66,2.01,4.15,-0.19,0.33,-0.25,1721200930618
-1.57,1.54,19.77,0.14,0.11,-0.11,1721200930628
-0.05,-0.07,9.71,0.21,0.14,0.04,1721200930638
2.11,7.08,5.25,0.23,0.21,-0.07,1721200930648
2.83,0.22,4.20,-0.04,0.11,-0.42,1721200930658
-2.01,-4.47,15.73,-0.29,0.12,-0.49,1721200930668
-5.78,-0.39,8.82,0.15,-0.15,-0.08,1721200930678
-3.63,0.48,2.25,0.00,0.27,0.06,1721200930688
0.62,-2.44,10.93,-0.09,0.15,0.00,1721200930698
2.16,1.91,20.24,-0.02,0.29,-0.19,1721200930708
0.09,5.49,3.78,0.18,-0.07,-0.35,1721200930718
-1.65,-2.15,12.27,-0.23,0.42,-0.33,1721200930728
-1.33,-1.56,15.94,0.22,0.07,-0.04,1721200930738
-0.37,-5.76,1.35,-0.08,-0.03,-0.02,1721200930748
-6.31,5.61,8.10,0.09,-0.18,-0.08,1721200930758
0.50,-1.37,6.34,-0.10,0.41,-0.01,1721200930768
-0.36,2.61,17.40,0.16,0.04,-0.17,1721200930778
-0.94,0.92,-2.82,0.15,-0.03,0.03,1721200930788
1.28,-5.14,13.84,-0.45,0.39,-0.03,1721200930798
-2.92,1.05,29.17,0.14,-0.38,0.04,1721200930808
-3.21,7.05,2.79,0.25,-0.16,-0.04,1721200930818
-1.21,-4.88,6.58,-0.16,0.31,0.07,1721200930828
-0.05,-0.33,8.72,0.06,-0.02,0.28,1721200930838
2.75,3.17,13.86,-0.07,0.12,-0.02,1721200930848
0.77,4.06,13.04,0.23,-0.16,-0.27,1721200930858
-2.16,-5.24,3.86,-0.11,-0.12,-0.05,1721200930868
-3.39,-1.92,15.16,-0.08,-0.02,0.23,1721200930878
0.66,0.08,9.62,0.04,0.01,0.02,1721200930888
-0.66,2.10,8.90,0.06,-0.10,-0.17,1721200930898
-1.54,-2.86,9.14,-0.11,0.17,-0.16,1721200930908
-0.44,0.74,7.01,0.15,-0.25,0.05,1721200930918
1.54,-2.84,8.07,-0.19,0.42,0.09,1721200930928
2.98,0.53,24.72,0.09,0.07,-0.10,1721200930938
-4.34,3.11,2.55,0.15,-0.32,-0.24,1721200930948
-6.16,-1.70,11.89,-0.16,0.03,0.02,1721200930958
-0.93,-1.99,7.50,0.27,-0.18,0.34,1721200930968
3.71,-0.60,11.91,-0.13,0.38,0.09,1721200930978
2.59,4.78,16.85,0.21,-0.18,-0.15,1721200930988
-1.94,3.36,5.84,0.04,-0.24,-0.20,1721200930998
-3.84,-2.08,10.44,0.02,-0.10,0.24,1721200931008
0.22,4.82,8.95,0.09,0.12,0.32,1721200931018
3.13,5.21,15.04,-0.09,-0.04,-0.07,1721200931028
0.51,-3.27,9.27,-0.04,-0.24,-0.12,1721200931038
-4.98,-2.30,0.79,-0.24,-0.33,-0.09,1721200931048
-4.20,7.30,18.34,0.00,0.08,0.10,1721200931058
2.26,4.82,11.21,0.21,-0.03,0.37,1721200931068
2.97,-4.30,6.02,-0.29,-0.09,0.19,1721200931078
-1.28,4.66,15.70,0.04,-0.16,-0.38,1721200931088
-1.16,0.18,2.62,-0.07,-0.21,-0.06,1721200931098
-3.80,-0.64,21.87,-0.10,-0.04,0.31,1721200931108
-0.02,2.75,7.55,0.23,-0.21,0.34,1721200931118
1.23,-4.01,-2.33,-0.26,-0.39,0.04,1721200931128
-0.94,1.81,18.58,-0.20,0.00,-0.19,1721200931138
-2.63,3.48,10.04,0.20,-0.22,-0.07,1721200931148
-0.98,-6.10,5.32,-0.24,-0.16,0.26,1721200931158
0.09,-3.04,14.64,-0.08,-0.19,0.20,1721200931168
5.17,-1.99,11.54,-0.05,-0.09,0.15,1721200931178
4.63,3.66,10.41,0.06,-0.19,-0.26,1721200931188
0.36,-0.01,6.34,0.07,-0.19,-0.21,1721200931198
-1.79,2.18,21.97,-0.11,0.19,-0.13,1721200931208
-0.91,1.90,7.46,0.18,-0.24,0.03,1721200931218
-0.73,2.91,4.06,-0.08,0.00,-0.25,1721200931228
3.65,-5.41,16.02,-0.10,0.01,-0.21,1721200931238
0.77,-1.55,10.61,0.05,-0.25,0.05,1721200931248
-0.91,7.19,10.04,0.18,0.01,-0.09,1721200931258
3.50,0.40,6.50,-0.01,0.12,-0.41,1721200931268
-0.59,-9.46,5.60,-0.31,-0.30,-0.39,1721200931278
-5.53,5.68,19.95,0.11,-0.03,-0.18,1721200931288
0.65,7.51,8.19,0.35,0.12,0.09,1721200931298
4.64,-8.33,3.64,-0.10,0.06,0.24,1721200931308
2.01,-3.47,14.27,-0.05,-0.04,-0.35,1721200931318
0.64,4.26,15.67,0.04,0.18,-0.55,1721200931328
-2.72,3.85,8.54,0.15,-0.12,-0.34,1721200931338
-0.06,-1.46,6.39,0.14,0.18,0.07,1721200931348
4.13,-4.63,9.41,-0.04,0.25,-0.24,1721200931358
-0.20,5.12,17.54,0.18,0.01,-0.43,1721200931368
-2.01,4.61,9.94,0.09,0.19,-0.40,1721200931378
-1.47,1.56,10.83,0.19,0.00,-0.08,1721200931388
2.94,-4.12,1.46,-0.03,0.25,-0.06,1721200931398
1.82,0.68,17.10,-0.01,0.24,-0.47,1721200931408
-1.13,7.98,13.76,0.28,0.13,-0.54,1721200931418
-3.67,10.96,3.44,0.31,0.18,-0.24,1721200931428
0.00,-3.65,1.17,-0.10,0.31,-0.08,1721200931438
1.18,-4.10,23.47,-0.13,0.30,-0.23,1721200931448
0.62,8.03,9.16,0.45,0.02,-0.18,1721200931458
-0.15,3.48,3.78,-0.24,0.40,-0.31,1721200931468
-2.87,-2.84,15.66,0.13,-0.09,-0.21,1721200931478
-1.45,0.64,4.20,0.17,0.18,-0.02,1721200931488
2.29,2.73,7.55,-0.00,0.39,-0.19,1721200931498
-0.65,5.34,14.78,0.06,0.13,-0.29,1721200931508
-1.51,-1.10,11.79,0.03,0.19,-0.25,1721200931518
-1.22,-1.37,10.40,-0.06,0.34,-0.20,1721200931528
1.49,-2.36,16.79,-0.05,0.27,-0.11,1721200931538
-1.09,4.20,6.41,0.21,-0.11,-0.25,1721200931548
-1.57,1.12,1.16,-0.08,0.26,-0.26,1721200931558
0.05,3.78,20.00,0.04,0.41,-0.17,1721200931568
1.40,-7.21,5.26,-0.04,0.07,-0.11,1721200931578
-3.63,-0.37,14.48,-0.16,-0.01,-0.16,1721200931588
-0.33,1.16,6.89,0.19,0.21,-0.24,1721200931598
-1.26,-2.72,6.62,-0.24,0.13,-0.26,1721200931608
-3.57,-2.23,11.73,0.05,-0.07,0.04,1721200931618
-2.03,-2.10,5.09,-0.19,0.00,0.18,1721200931628
-1.98,4.40,18.15,0.01,0.11,-0.17,1721200931638
-1.12,0.46,1.27,0.01,-0.01,-0.37,1721200931648
-0.93,-3.91,18.48,-0.30,0.57,-0.06,1721200931658
-1.81,2.23,12.14,0.26,-0.10,0.23,1721200931668
-1.35,1.48,-1.34,-0.36,0.26,0.10,1721200931678
-2.30,6.89,16.21,0.29,-0.44,-0.15,1721200931693
1.61,2.87,10.77,0.29,-0.23,-0.16,1721200931697
-5.19,-4.38,-0.36,-0.28,-0.07,-0.47,1721200931707
-6.83,-3.09,24.50,0.01,0.03,-0.02,1721200931717
-2.00,12.34,6.60,0.55,-0.07,0.27,1721200931727
1.39,-4.75,-0.44,-0.27,0.00,0.19,1721200931737
-6.05,-5.81,17.08,0.07,-0.27,-0.01,1721200931747
-1.64,2.51,12.34,0.12,0.14,-0.27,1721200931757
-3.03,2.20,11.09,0.05,-0.05,-0.12,1721200931767
-3.71,-6.77,9.68,-0.12,-0.12,0.29,1721200931777
-1.04,4.48,14.80,0.33,-0.07,0.39,1721200931787
5.63,1.36,-1.35,0.16,-0.01,0.23,1721200931797
9.40,6.65,18.81,-0.16,0.05,-0.05,1721200931807
3.03,7.94,12.54,0.48,-0.16,-0.10,1721200931817
0.69,3.30,-0.90,0.07,-0.17,-0.09,1721200931827
-2.34,-3.10,12.40,-0.15,-0.11,-0.19,1721200931837
-4.26,2.09,15.98,0.15,-0.25,0.23,1721200931847
-1.25,4.89,3.48,0.11,-0.28,0.50,1721200931857
2.41,2.44,7.96,-0.11,0.09,0.21,1721200931867
3.66,-4.76,9.59,-0.12,-0.15,-0.40,1721200931877
-2.51,6.54,13.38,0.22,-0.08,-0.23,1721200931887
-1.40,0.45,7.24,-0.12,0.11,-0.07,1721200931897
-2.72,-0.25,19.62,0.08,-0.15,0.29,1721200931907
3.28,-0.38,4.39,0.13,0.04,0.24,1721200931917
4.38,-0.27,13.75,-0.13,0.06,-0.24,1721200931927
-1.36,1.47,16.38,0.01,-0.24,-0.53,1721200931937
-5.41,3.10,9.70,0.22,-0.12,-0.19,1721200931947
-2.09,-6.95,-0.79,-0.15,-0.05,0.18,1721200931957
2.65,-5.06,14.28,-0.21,0.17,0.08,1721200931967
2.84,1.66,6.05,-0.01,-0.27,-0.39,1721200931977
-1.73,3.38,14.74,-0.13,0.10,-0.43,1721200931987
-1.62,-1.85,1.45,0.11,-0.11,-0.13,1721200931997
-0.60,-5.51,6.06,-0.28,0.23,0.04,1721200932007
1.78,-3.68,27.93,-0.18,0.28,-0.34,1721200932017
-0.82,6.68,14.66,0.37,0.02,-0.26,1721200932027
-0.96,7.64,-2.19,-0.01,0.17,-0.29,1721200932037
7.66,-1.37,15.61,-0.41,0.38,-0.14,1721200932047
1.65,-1.21,15.75,0.08,-0.03,-0.14,1721200932057
-0.11,1.79,1.77,-0.19,0.09,-0.42,1721200932067
-3.32,-5.32,7.35,-0.26,0.02,-0.40,1721200932077
-3.23,-2.68,14.73,0.02,0.19,-0.05,1721200932087
1.23,3.13,4.81,-0.02,0.33,0.02,1721200932097
0.11,4.57,12.23,0.11,-0.05,-0.05,1721200932107
3.43,12.95,14.38,0.31,0.57,-0.44,1721200932117
0.99,-4.14,8.22,0.05,0.02,-0.55,1721200932127
-8.24,-0.58,16.70,0.08,-0.06,-0.13,1721200932137
-2.98,-2.45,5.69,0.20,0.27,0.24,1721200932147
2.25,-1.91,7.05,-0.05,0.25,0.24,1721200932157
1.32,6.86,12.65,0.23,0.04,-0.17,1721200932167
3.06,3.00,5.38,0.03,0.22,-0.22,1721200932177
-1.06,3.83,10.22,0.22,0.05,-0.33,1721200932187
-0.19,-6.10,7.70,-0.12,0.33,-0.16,1721200932196
-0.79,-1.78,20.19,0.05,0.10,0.12,1721200932206
-0.86,8.33,10.86,0.41,0.02,0.03,1721200932216
1.85,10.10,-0.71,0.35,0.33,-0.08,1721200932226
2.59,2.77,-3.19,-0.08,0.22,-0.18,1721200932236
4.50,0.47,13.17,-0.29,0.42,-0.36,1721200932246
0.46,-1.49,16.36,-0.01,0.26,-0.36,1721200932256
-6.96,3.44,2.66,0.17,-0.08,-0.13,1721200932266
-1.03,-0.46,5.93,-0.45,0.40,0.28,1721200932276
2.47,1.76,21.92,0.11,0.24,-0.15,1721200932286
1.73,4.30,8.01,0.28,0.10,-0.30,1721200932296
-1.86,4.03,0.75,-0.04,0.24,-0.26,1721200932306
0.31,-6.65,14.85,-0.26,0.58,-0.24,1721200932316
1.01,0.03,26.18,0.18,0.31,-0.04,1721200932326
-0.97,6.58,-0.18,0.29,-0.13,-0.22,1721200932336
-2.68,-0.06,4.07,-0.20,0.48,-0.31,1721200932346
-0.47,-4.43,6.33,-0.21,0.32,-0.01,1721200932356
1.25,-6.20,21.01,-0.23,0.41,-0.11,1721200932366
-0.35,9.05,12.11,0.42,0.03,-0.21,1721200932376
-0.10,-4.85,2.39,-0.46,0.29,-0.22,1721200932386
-7.23,-4.62,24.95,0.02,-0.31,0.10,1721200932396
-0.79,-5.17,7.35,0.06,0.29,0.17,1721200932406
0.76,-3.34,2.92,-0.11,0.07,0.08,1721200932416
-3.79,5.37,13.64,-0.18,0.26,-0.37,1721200932426
-1.13,0.61,5.01,0.09,0.10,-0.01,1721200932436
1.38,-8.46,14.31,-0.27,0.50,-0.02,1721200932446
-0.41,0.74,14.09,0.07,0.12,-0.05,1721200932456
-2.60,4.27,12.70,-0.10,0.24,-0.10,1721200932466
-3.71,0.94,5.89,0.05,-0.10,0.11,1721200932476
-2.22,-0.23,11.84,-0.08,0.33,0.33,1721200932486
5.32,0.93,19.56,0.19,0.17,0.26,1721200932496
5.12,-0.93,10.33,-0.05,-0.04,-0.17,1721200932506
-5.59,6.31,5.50,0.04,-0.26,-0.34,1721200932516
-7.05,-3.34,9.81,-0.06,0.52,-0.09,1721200932526
-0.43,-5.08,15.43,0.11,0.17,0.43,1721200932536
1.04,8.88,8.65,0.18,0.07,0.31,1721200932546
3.89,0.39,4.15,-0.12,0.02,-0.06,1721200932556
-4.00,3.73,19.53,0.07,0.25,-0.36,1721200932566
-4.26,0.87,3.63,0.34,0.05,-0.17,1721200932576
-2.85,-5.66,4.07,-0.26,0.17,0.28,1721200932586
-2.81,9.52,16.46,0.27,-0.21,0.49,1721200932596
4.08,0.31,2.77,-0.07,0.14,0.29,1721200932606
0.28,2.43,18.94,-0.03,-0.16,-0.13,1721200932616
-2.15,-5.71,-1.11,0.02,0.00,-0.22,1721200932626
-5.31,2.43,12.00,-0.20,0.44,-0.04,1721200932636
-2.56,4.17,9.52,0.14,-0.09,0.23,1721200932646
0.93,0.51,12.42,-0.05,0.26,0.43,1721200932656
3.39,-0.55,10.23,0.08,-0.13,0.28,1721200932666
0.93,5.94,15.78,-0.03,0.07,-0.17,1721200932676
-3.39,-4.25,4.70,-0.18,-0.32,0.05,1721200932686
-9.60,-0.90,10.70,-0.21,-0.15,0.43,1721200932696
-1.46,-2.01,6.23,0.03,0.04,0.60,1721200932706
5.20,-0.73,14.49,-0.22,0.10,0.63,1721200932716
6.47,6.34,12.29,0.16,-0.24,0.22,1721200932726
3.37,3.84,8.76,-0.06,0.07,-0.18,1721200932736
-1.30,-1.51,16.01,-0.08,-0.03,0.04,1721200932746
-4.12,-4.23,9.77,-0.09,-0.16,0.30,1721200932756
-3.37,2.00,14.93,-0.07,-0.12,0.43,1721200932766
-0.25,1.47,1.77,-0.01,-0.36,0.43,1721200932776
3.08,2.09,13.38,-0.22,0.07,0.20,1721200932786
6.51,-0.93,13.72,0.08,-0.18,-0.05,1721200932796
0.61,-3.31,5.18,-0.06,-0.16,-0.18,1721200932806
-5.87,2.61,10.30,-0.06,-0.16,0.04,1721200932816
-1.49,-0.86,13.65,-0.06,-0.07,0.33,1721200932826
4.13,-1.25,12.83,0.10,-0.06,0.38,1721200932836
5.55,-1.30,7.28,-0.02,-0.19,0.06,1721200932846
-0.75,6.92,9.15,0.03,-0.20,-0.44,1721200932856
-1.89,-4.65,11.06,-0.20,0.02,-0.37,1721200932866
-3.65,0.26,6.80,0.09,-0.28,0.37,1721200932876
1.29,-2.87,8.89,-0.24,0.27,-0.06,1721200932886
-0.05,1.98,16.06,0.09,-0.27,0.05,1721200932896
2.09,1.11,13.52,0.01,0.10,-0.07,1721200932906
0.62,5.38,10.82,0.12,0.03,-0.22,1721200932916
-2.03,2.53,7.07,0.06,-0.27,-0.07,1721200932926
-0.22,1.83,8.33,0.04,0.17,-0.10,1721200932936
0.73,-3.54,11.37,0.01,-0.04,0.01,1721200932946
-0.72,2.66,7.82,0.12,-0.05,0.13,1721200932956
1.13,2.76,11.35,0.01,0.00,-0.10,1721200932966
2.24,1.85,11.47,0.24,-0.13,-0.00,1721200932976
2.04,-1.87,1.81,-0.08,0.04,-0.13,1721200932986
-1.71,-1.95,18.23,-0.08,0.02,-0.28,1721200932996
-2.66,2.88,5.25,0.33,-0.04,0.06,1721200933006
1.27,6.21,12.15,-0.00,0.35,0.12,1721200933016
3.19,10.27,9.22,0.36,-0.11,0.01,1721200933026
5.06,-1.82,9.64,-0.25,0.24,-0.41,1721200933036
-0.87,2.31,13.83,0.29,-0.19,-0.40,1721200933046
-4.56,2.95,0.00,-0.03,0.14,-0.24,1721200933056
-4.55,0.70,14.07,-0.15,0.10,0.03,1721200933066
0.21,-4.62,6.91,0.03,-0.09,0.19,1721200933076
1.15,3.32,9.77,-0.01,0.21,-0.03,1721200933086
1.76,1.65,11.52,0.01,0.14,-0.25,1721200933096
-1.17,-2.10,8.57,-0.11,0.00,-0.31,1721200933106
-1.98,0.94,16.29,-0.03,0.11,0.04,1721200933116
0.55,4.20,11.03,0.17,0.05,-0.04,1721200933126
0.59,-0.45,11.03,-0.00,0.08,-0.27,1721200933136
-2.41,0.70,8.00,0.07,-0.07,-0.18,1721200933146
-0.53,-6.21,6.04,-0.31,0.08,-0.01,1721200933156
-3.85,4.32,14.24,0.08,-0.33,-0.23,1721200933166
-2.26,-3.37,-0.41,0.02,0.03,-0.11,1721200933176
-0.99,-6.56,13.33,-0.30,0.27,-0.09,1721200933186
-1.26,4.53,11.57,0.20,-0.07,-0.08,1721200933196
0.28,-0.93,9.95,-0.30,0.19,-0.06,1721200933206
-1.35,3.10,22.12,0.18,-0.11,0.01,1721200933216
-0.30,-3.12,3.23,-0.02,-0.18,0.04,1721200933226
-3.16,2.50,11.91,-0.16,-0.16,0.02,1721200933236
-1.77,-1.02,-0.14,0.02,-0.21,-0.08,1721200933246
-0.86,-8.18,7.74,-0.53,0.32,-0.03,1721200933256
-2.00,-0.96,21.26,0.00,-0.07,-0.11,1721200933266
-1.90,-1.32,5.27,-0.09,-0.22,0.04,1721200933276
-1.95,3.49,18.71,-0.08,0.29,-0.12,1721200933286
-0.21,1.56,4.69,0.13,-0.28,0.06,1721200933296
-0.96,-7.75,6.10,-0.31,0.06,0.12,1721200933306
1.92,-1.51,27.48,0.26,0.07,0.03,1721200933316
0.07,4.92,1.18,0.46,-0.38,0.06,1721200933326
2.82,7.66,13.77,-0.14,0.30,-0.04,1721200933336
-0.56,4.90,16.02,0.37,-0.25,-0.13,1721200933346
-1.61,-6.93,-1.37,-0.07,-0.17,0.10,1721200933356
-2.70,0.92,15.15,0.12,0.01,0.05,1721200933366
-0.21,5.60,3.61,0.43,-0.29,0.21,1721200933376
2.12,5.82,10.87,-0.13,0.39,0.13,1721200933386
2.81,-0.28,15.01,0.09,-0.25,-0.02,1721200933396
0.09,-0.20,9.48,0.01,-0.17,-0.11,1721200933406
0.91,5.77,14.56,0.21,-0.03,-0.20,1721200933416
0.73,-0.59,9.31,0.07,-0.14,-0.09,1721200933426
-0.98,2.72,10.87,0.31,-0.29,0.21,1721200933436
1.24,-7.20,4.70,-0.23,-0.11,0.05,1721200933446
-5.13,11.58,14.79,0.35,-0.57,-0.11,1721200933456
0.16,-0.79,-2.89,-0.21,0.23,-0.16,1721200933466
-4.17,-6.30,14.28,-0.20,-0.25,0.16,1721200933476
1.09,-2.53,12.50,0.10,0.15,0.25,1721200933486
4.90,4.82,19.32,0.05,0.01,-0.00,1721200933496
1.50,3.70,12.07,0.18,-0.58,-0.15,1721200933506
0.64,-0.87,7.35,-0.16,0.09,-0.33,1721200933516
-0.31,-3.99,4.09,-0.01,-0.37,-0.23,1721200933526
-4.45,-1.33,7.56,-0.14,-0.02,-0.35,1721200933536
-3.33,0.81,10.77,0.26,0.05,-0.33,1721200933546
-3.93,-0.47,7.09,-0.11,-0.11,-0.01,1721200933556
-0.89,0.90,20.73,-0.05,-0.05,0.26,1721200933566
3.86,1.57,10.26,0.13,-0.05,0.00,1721200933576
1.07,3.58,6.50,-0.16,-0.08,-0.61,1721200933586
-5.72,-1.33,6.94,-0.11,-0.39,-0.72,1721200933596
-6.65,-3.13,10.53,0.03,0.04,0.04,1721200933606
-0.11,-2.87,11.97,-0.05,0.01,0.42,1721200933616
2.42,6.49,8.94,0.24,-0.32,0.23,1721200933626
7.10,7.49,13.12,-0.11,0.44,-0.29,1721200933636
3.59,2.24,20.55,-0.02,-0.23,-0.76,1721200933646
-4.37,0.03,6.05,0.10,-0.26,-0.54,1721200933656
-3.47,-0.07,5.62,-0.10,0.12,-0.17,1721200933666
-1.65,4.41,10.26,0.13,-0.15,-0.02,1721200933676
-0.41,3.75,1.85,0.07,0.00,-0.06,1721200933686
4.47,-3.79,21.14,-0.35,0.32,-0.26,1721200933701
2.11,-1.97,23.75,-0.01,0.30,-0.27,1721200933705
2.25,-0.95,0.75,0.27,-0.14,-0.53,1721200933715
-4.92,1.83,14.99,-0.24,0.42,-0.67,1721200933725
-4.67,5.55,14.14,0.32,0.12,-0.37,1721200933735
-0.50,-6.23,3.65,-0.10,0.03,-0.10,1721200933745
-3.17,0.34,9.87,0.04,0.02,-0.12,1721200933755
1.74,-1.20,10.02,-0.06,0.42,-0.33,1721200933765
-0.17,2.74,14.60,0.16,-0.19,-0.22,1721200933775
-2.20,4.67,0.93,0.24,0.18,-0.26,1721200933785
1.76,-5.26,7.74,-0.38,0.36,-0.25,1721200933795
-2.38,2.52,24.26,-0.11,-0.16,-0.10,1721200933805
-1.38,2.94,7.49,0.19,0.09,-0.15,1721200933815
0.41,2.21,10.18,0.05,0.43,-0.34,1721200933825
-2.11,0.87,0.20,0.14,-0.09,-0.24,1721200933835
-3.17,-2.49,9.84,-0.39,0.47,-0.24,1721200933845
0.15,5.02,22.05,0.31,0.21,-0.07,1721200933855
1.78,-3.50,-2.56,-0.04,0.00,-0.11,1721200933865
-3.98,1.07,20.64,-0.06,0.39,-0.34,1721200933875
-0.75,6.15,8.27,0.40,0.15,-0.32,1721200933885
-1.73,-3.05,8.13,-0.40,0.27,-0.19,1721200933895
-4.64,-1.70,14.57,0.16,-0.11,0.09,1721200933905
0.67,-5.77,0.03,-0.00,0.39,0.19,1721200933915
2.12,3.61,19.01,0.06,0.19,0.09,1721200933925
2.09,7.13,10.41,0.43,0.00,-0.21,1721200933935
-0.03,-3.09,8.00,-0.33,0.19,-0.36,1721200933945
-3.93,-1.85,15.24,-0.00,-0.09,-0.16,1721200933955
-1.54,-1.03,12.75,0.03,0.40,-0.00,1721200933965
-0.56,3.21,3.07,0.26,-0.15,0.29,1721200933975
-2.78,3.50,0.34,-0.22,0.25,-0.09,1721200933985
0.02,-1.95,19.34,-0.14,0.34,-0.13,1721200933995
-1.04,-3.64,8.40,0.05,-0.10,0.16,1721200934005
1.59,3.39,15.41,-0.01,0.41,0.22,1721200934015
3.12,0.05,5.15,0.03,-0.09,-0.05,1721200934025
-2.60,0.31,15.82,-0.12,0.23,-0.26,1721200934035
-1.62,1.46,8.66,0.27,0.15,-0.07,1721200934045
2.05,-2.40,14.93,-0.31,0.43,0.02,1721200934055
-1.16,9.59,15.10,0.40,-0.32,0.13,1721200934065
0.48,-0.15,-1.48,-0.15,0.18,0.11,1721200934075
-2.26,-1.62,19.06,-0.03,-0.04,0.02,1721200934085
-1.99,-3.33,2.47,0.05,-0.12,0.01,1721200934095
-1.06,-3.42,13.75,-0.37,0.34,0.13,1721200934105
2.48,5.39,22.80,0.28,0.15,0.11,1721200934115
3.80,3.00,5.01,0.03,0.15,-0.10,1721200934125
-0.30,0.67,7.66,-0.10,-0.13,-0.22,1721200934135
-2.96,-2.00,10.37,-0.02,0.05,-0.03,1721200934145
-1.94,2.83,13.47,0.09,0.15,0.09,1721200934155
-0.57,1.30,12.35,-0.05,0.08,0.06,1721200934165
-0.07,-0.03,8.57,0.11,-0.18,0.11,1721200934175
2.84,0.04,8.26,-0.08,0.40,-0.09,1721200934185
1.25,3.04,14.35,0.02,-0.04,-0.23,1721200934195
-4.49,2.93,0.45,0.02,-0.27,-0.04,1721200934205
-1.12,-4.65,14.11,-0.24,0.43,-0.01,1721200934215
1.76,-2.14,18.13,0.19,-0.13,0.23,1721200934225
2.20,6.00,7.82,0.08,0.14,-0.04,1721200934235
0.96,4.08,13.57,-0.14,0.20,-0.50,1721200934245
-3.29,0.54,9.58,0.14,-0.21,-0.38,1721200934255
-4.70,-7.50,3.30,-0.15,0.11,0.04,1721200934265
-2.85,-0.57,17.32,-0.07,0.20,0.27,1721200934275
2.45,5.98,10.77,0.28,-0.05,0.26,1721200934285
4.92,1.32,7.15,-0.09,0.05,0.05,1721200934295
0.67,-0.96,8.79,-0.14,0.01,-0.37,1721200934305
-1.53,-3.12,9.88,-0.08,0.09,-0.42,1721200934315
-4.22,-2.14,13.35,0.04,0.13,-0.17,1721200934325
-2.70,6.41,9.86,0.14,0.10,0.13,1721200934335
1.84,6.73,9.23,0.14,0.08,0.14,1721200934345
3.99,-1.30,12.19,-0.10,0.05,-0.11,1721200934355
0.03,2.33,17.87,0.12,-0.12,-0.23,1721200934365
-4.00,6.53,2.84,0.15,-0.03,-0.04,1721200934375
-2.95,0.03,7.26,-0.22,0.14,0.03,1721200934385
-1.47,-5.45,10.34,0.02,-0.12,0.01,1721200934395
0.53,-1.15,13.31,0.02,0.19,0.05,1721200934405
2.89,7.98,11.40,0.18,0.12,-0.04,1721200934415
1.74,1.97,5.74,-0.08,0.00,-0.24,1721200934425
-2.64,-0.28,10.29,-0.04,-0.04,-0.22,1721200934435
-3.68,-0.87,9.28,0.09,0.13,-0.03,1721200934445
-2.44,2.17,12.05,-0.00,0.10,0.10,1721200934455
1.15,2.06,11.16,0.08,-0.01,0.24,1721200934465
1.80,3.34,12.48,-0.15,0.20,-0.01,1721200934475
2.30,2.49,14.10,0.10,-0.00,-0.10,1721200934485
-0.88,0.21,10.73,-0.10,0.16,-0.18,1721200934495
-2.51,-2.88,9.90,-0.08,-0.05,0.01,1721200934505
-3.54,0.02,9.03,0.03,-0.10,0.26,1721200934515
0.99,-0.31,4.70,0.03,-0.01,0.36,1721200934525
3.51,1.23,7.04,0.01,-0.02,-0.02,1721200934535
3.40,3.01,18.47,0.00,0.33,-0.39,1721200934545
-0.92,1.16,10.89,-0.03,-0.10,-0.26,1721200934555
-4.91,0.15,10.46,-0.04,0.01,0.12,1721200934565
-2.25,3.13,6.49,0.03,0.08,0.21,1721200934575
2.71,-0.19,10.69,-0.11,-0.03,0.30,1721200934585
0.92,2.11,8.74,0.11,-0.35,0.29,1721200934595
1.02,-0.62,1.45,-0.08,0.05,0.02,1721200934605
0.29,-1.66,17.50,-0.22,0.10,-0.14,1721200934615
1.03,0.11,17.49,0.10,0.00,0.02,1721200934625
0.55,4.08,13.16,0.12,0.05,0.02,1721200934635
0.71,1.83,5.01,0.02,-0.11,0.01,1721200934645
-1.34,3.23,13.81,-0.03,0.05,-0.15,1721200934655
-1.98,-0.82,2.94,0.13,-0.28,-0.01,1721200934665
-4.20,1.23,12.26,-0.11,-0.03,-0.02,1721200934675
-0.30,0.85,9.74,0.26,-0.08,0.13,1721200934685
2.54,-4.43,5.30,-0.27,0.24,0.01,1721200934695
-0.19,4.40,17.79,0.12,-0.30,-0.02,1721200934705
1.20,7.51,8.96,0.21,0.10,0.08,1721200934715
4.16,1.04,11.22,-0.08,0.10,-0.01,1721200934725
1.36,2.04,15.74,0.11,-0.16,-0.14,1721200934735
-1.64,0.69,-0.43,0.07,-0.22,-0.20,1721200934745
-3.27,-0.26,9.36,-0.20,-0.03,-0.19,1721200934755
-2.69,4.07,12.73,0.21,-0.03,0.02,1721200934765
2.36,-0.33,6.45,-0.05,0.08,0.04,1721200934775
2.31,-1.98,9.52,-0.11,-0.13,-0.13,1721200934785
0.20,3.28,12.39,0.01,0.01,-0.46,1721200934795
-2.44,7.26,11.12,0.13,0.04,-0.42,1721200934805
-5.71,-3.24,3.87,-0.18,-0.10,-0.15,1721200934815
-4.00,-4.37,12.93,-0.08,0.09,0.17,1721200934825
3.63,-4.30,9.62,-0.02,0.07,0.07,1721200934835
2.93,4.17,12.67,0.05,0.02,-0.39,1721200934845
-0.68,12.70,9.91,0.30,0.08,-0.61,1721200934855
-0.14,-5.41,6.34,-0.25,0.01,-0.20,1721200934865
-2.56,-4.51,18.29,-0.20,-0.05,-0.01,1721200934875
-0.24,-1.58,5.74,0.04,-0.02,-0.20,1721200934885
-3.24,7.90,8.11,-0.02,0.22,-0.52,1721200934895
-2.43,1.31,6.37,0.00,0.11,-0.37,1721200934905
-0.61,-5.68,12.56,-0.18,0.17,0.07,1721200934915
1.39,-0.57,15.31,-0.03,0.06,0.05,1721200934925
1.99,8.38,12.14,0.07,0.07,-0.30,1721200934935
1.55,1.71,3.41,-0.08,-0.01,-0.56,1721200934945
-6.10,0.57,10.81,-0.03,-0.04,-0.51,1721200934955
-4.17,-1.37,8.91,0.04,0.18,-0.05,1721200934965
-0.83,-0.71,13.44,-0.06,0.11,0.04,1721200934975
-1.71,1.31,6.15,-0.03,0.00,-0.20,1721200934985
-3.06,3.84,3.08,-0.09,0.15,-0.37,1721200934995
-1.88,-2.04,14.65,-0.25,0.28,-0.18,1721200935005
-2.12,-0.46,11.52,0.13,-0.03,0.17,1721200935015
2.65,0.15,8.10,-0.19,0.40,0.20,1721200935025
1.87,12.41,19.36,0.04,-0.01,-0.15,1721200935035
1.27,2.97,7.62,-0.01,-0.05,-0.21,1721200935045
-3.88,-1.06,8.19,-0.08,0.05,-0.24,1721200935055
-2.78,8.04,10.95,0.21,0.15,0.04,1721200935065
-3.34,-2.19,3.42,-0.17,-0.18,0.28,1721200935075
7.01,-2.56,18.70,-0.07,0.47,0.61,1721200935085
9.46,3.14,4.42,0.12,-0.02,-0.36,1721200935095
0.17,1.72,12.86,-0.30,0.17,-0.83,1721200935105
-12.91,6.67,14.05,0.28,-0.08,-0.89,1721200935115
-16.19,-5.17,8.35,-0.10,0.27,-0.07,1721200935125
-8.74,-5.42,12.10,0.17,-0.07,1.36,1721200935135
5.45,1.64,3.69,0.15,0.14,1.57,1721200935145
14.28,1.91,13.56,-0.02,0.17,0.72,1721200935155
12.03,1.22,9.15,0.07,-0.38,-0.24,1721200935165
5.60,-1.66,9.76,-0.08,0.09,-1.11,1721200935175
-5.01,-7.24,8.93,-0.18,-0.41,-1.04,1721200935185
-18.96,1.69,13.32,0.13,-0.18,-0.05,1721200935195
-6.67,1.03,11.60,0.22,0.47,0.93,1721200935205
4.52,-0.76,8.91,0.17,0.02,0.88,1721200935215
5.51,-2.29,7.62,-0.16,-0.26,0.29,1721200935225
3.12,2.12,14.42,-0.01,-0.10,-0.41,1721200935235
-0.81,4.00,12.79,0.22,-0.09,-0.37,1721200935245
-3.44,-12.00,-0.63,-0.02,-0.23,0.25,1721200935255
-2.18,-3.19,17.42,-0.03,-0.13,0.31,1721200935265
3.38,10.48,11.43,0.33,-0.13,0.35,1721200935275
6.75,-0.22,8.12,-0.03,0.30,-0.15,1721200935285
-1.56,-8.02,11.78,-0.11,-0.41,-0.34,1721200935295
-7.58,7.15,6.12,0.05,-0.22,0.02,1721200935305
-1.36,5.68,13.36,0.05,0.34,0.21,1721200935315
3.83,-1.83,11.35,0.21,-0.07,0.44,1721200935325
5.32,1.43,6.08,0.08,0.00,0.08,1721200935335
4.64,0.22,18.85,-0.04,0.07,-0.45,1721200935345
-3.64,4.02,8.89,0.23,-0.30,-0.32,1721200935355
-5.34,-0.86,1.02,-0.12,0.02,0.05,1721200935365
-1.38,-4.46,10.30,-0.09,-0.17,0.28,1721200935375
3.29,-0.93,8.62,-0.08,-0.02,0.24,1721200935385
4.10,0.31,10.17,-0.20,0.07,-0.22,1721200935395
-0.99,8.41,16.97,0.22,0.01,-0.40,1721200935405
-1.27,2.60,6.00,0.14,0.15,-0.17,1721200935415
-1.86,-7.53,5.28,-0.18,-0.11,0.31,1721200935425
-1.29,6.42,15.47,0.18,-0.08,0.10,1721200935435
4.10,-0.98,7.31,-0.07,0.13,-0.15,1721200935445
-1.48,-6.69,9.20,-0.02,-0.30,-0.06,1721200935455
-1.46,-3.47,7.97,-0.03,0.22,-0.19,1721200935465
-1.58,9.16,16.44,0.19,0.02,-0.11,1721200935475
0.39,8.37,10.01,0.05,0.06,0.11,1721200935485
1.64,-3.87,3.64,-0.07,-0.04,-0.02,1721200935495
2.40,-4.33,15.61,-0.15,0.35,-0.19,1721200935505
1.40,0.45,12.58,-0.14,-0.00,-0.34,1721200935515
-4.29,4.41,10.26,0.08,-0.19,-0.36,1721200935525
-1.10,6.03,11.69,0.22,0.39,0.06,1721200935535
2.46,-2.46,10.22,-0.18,0.13,0.14,1721200935545
-1.71,3.67,18.90,-0.08,-0.09,-0.30,1721200935555
1.45,1.63,0.04,-0.08,-0.00,-0.27,1721200935565
0.74,2.51,18.06,-0.07,0.27,-0.40,1721200935575
-1.94,2.20,3.24,0.32,-0.23,-0.25,1721200935585
-2.83,-6.28,1.15,-0.29,0.14,-0.04,1721200935595
-0.89,4.77,18.37,0.16,0.18,-0.20,1721200935605
3.42,4.45,5.80,0.01,0.23,-0.29,1721200935615
-3.79,-4.03,11.85,-0.19,-0.20,-0.40,1721200935625
-6.17,-1.98,9.47,0.08,0.05,-0.14,1721200935635
-1.54,-2.00,6.76,-0.08,0.24,0.10,1721200935645
-1.14,2.53,14.42,0.03,0.13,-0.28,1721200936193
-2.92,-2.87,7.96,-0.02,-0.31,-0.14,1721200936198
-3.60,1.07,9.13,0.02,0.33,0.09,1721200936208
2.40,-0.96,10.68,0.06,0.17,0.11,1721200936218
-1.02,1.39,9.73,0.14,-0.07,0.19,1721200936228
-2.31,6.23,16.88,0.05,0.22,-0.19,1721200936238
0.04,-3.31,7.43,0.07,-0.15,0.19,1721200936248
-0.04,-2.32,8.44,-0.08,0.11,0.34,1721200936258
2.77,-1.92,8.47,0.12,-0.09,0.07,1721200936268
2.66,-0.99,10.44,0.08,0.04,-0.11,1721200936278
-0.04,7.36,13.08,0.35,0.08,0.01,1721200936288
-1.52,-1.32,-1.39,0.06,0.01,0.16,1721200936298
-3.32,-0.83,8.47,-0.04,0.00,0.37,1721200936308
3.72,-0.50,19.10,0.02,0.30,0.22,1721200936318
4.89,3.25,15.97,0.32,-0.06,0.27,1721200936328
2.62,3.03,10.03,-0.03,0.09,-0.03,1721200936338
0.01,-3.12,7.21,0.09,-0.15,-0.13,1721200936348
-2.52,0.96,10.79,0.09,0.16,0.04,1721200936358
-0.44,4.56,11.01,0.22,0.17,0.26,1721200936368
1.59,-0.60,3.68,-0.08,-0.10,0.21,1721200936378
1.23,-1.93,13.71,-0.05,0.08,-0.11,1721200936388
-0.24,-1.93,8.24,0.03,0.07,-0.10,1721200936398
-2.54,6.11,14.26,0.15,0.12,0.10,1721200936408
-0.47,7.50,6.05,0.13,0.11,0.10,1721200936418
-0.24,0.83,10.53,0.06,0.01,0.09,1721200936428
0.79,-4.41,6.63,-0.20,0.08,0.04,1721200936438
-0.63,4.96,17.12,-0.03,0.03,-0.02,1721200936448
-0.17,8.39,4.65,0.20,-0.07,0.04,1721200936458
0.61,-2.56,8.68,-0.36,0.07,-0.03,1721200936468
-1.95,-7.67,17.33,-0.24,-0.25,0.05,1721200936478
-2.77,4.68,9.46,0.15,-0.17,0.07,1721200936488
4.54,-2.12,9.68,-0.37,0.36,0.10,1721200936498
1.95,3.14,14.70,0.16,-0.31,-0.05,1721200936508
0.34,0.31,1.98,-0.11,0.06,-0.28,1721200936518
-2.42,-7.76,10.75,-0.24,-0.16,-0.17,1721200936528
-2.91,-1.01,16.62,-0.08,0.00,0.01,1721200936538
-1.28,13.32,10.74,0.21,-0.03,0.05,1721200936548
1.31,-5.10,-6.26,-0.41,-0.16,0.15,1721200936558
2.07,-13.26,19.24,-0.55,0.51,0.04,1721200936568
4.71,2.76,21.17,0.20,0.17,-0.32,1721200936578
-0.93,6.73,1.60,-0.04,-0.29,-0.20,1721200936588
-5.09,1.94,9.02,-0.20,0.13,-0.22,1721200936598
-1.34,-3.35,12.45,-0.05,0.09,0.15,1721200936608
-0.59,1.49,11.73,-0.06,-0.04,0.24,1721200936618
5.05,4.48,15.00,-0.08,0.31,-0.09,1721200936628
2.21,3.34,14.61,-0.07,-0.14,-0.31,1721200936638
-6.12,-2.11,6.39,0.01,-0.35,-0.20,1721200936648
-6.45,0.37,6.85,0.11,0.05,0.09,1721200936658
-1.05,1.57,11.20,0.05,0.07,0.17,1721200936668
0.80,2.26,6.72,0.02,-0.28,0.09,1721200936678
-0.42,-1.64,7.05,-0.14,0.06,-0.20,1721200936688
-1.57,-8.68,14.23,-0.17,0.01,-0.33,1721200936698
-3.16,1.22,17.72,0.22,0.12,-0.06,1721200936708
-0.74,3.39,6.05,0.13,0.03,0.12,1721200936718
0.59,4.91,13.46,0.11,-0.15,0.12,1721200936728
2.19,-1.61,3.25,0.16,-0.07,-0.06,1721200936738
2.43,-6.57,16.22,-0.17,0.16,-0.36,1721200936748
-2.89,-0.39,8.99,0.20,-0.38,-0.29,1721200936758
-5.97,0.24,8.73,-0.16,0.23,-0.14,1721200936768
-2.29,4.72,17.59,0.20,0.04,0.19,1721200936778
1.51,-5.45,5.56,-0.03,-0.15,0.23,1721200936788
-1.34,2.15,8.26,0.06,-0.16,-0.06,1721200936798
4.62,4.24,14.49,0.21,0.38,-0.19,1721200936808
0.86,-0.62,10.33,-0.05,-0.29,-0.22,1721200936818
-8.72,2.68,9.47,0.06,-0.38,-0.21,1721200936828
-3.60,-3.30,2.23,0.24,0.02,0.31,1721200936838
2.91,4.85,14.88,0.11,0.29,0.34,1721200936848
5.03,7.18,12.61,0.22,-0.23,-0.01,1721200936858
0.86,-2.71,4.61,0.01,-0.21,-0.23,1721200936868
-2.39,-1.55,13.80,0.07,0.16,-0.26,1721200936878
-1.81,3.26,13.23,0.25,-0.06,-0.05,1721200936888
-0.51,3.06,9.80,0.11,-0.12,0.30,1721200936898
1.60,3.86,7.26,0.18,-0.12,0.17,1721200936908
2.16,-1.36,9.11,-0.02,-0.03,-0.15,1721200936918
-1.31,3.90,13.78,0.10,-0.09,-0.24,1721200936928
-2.35,-0.64,7.35,-0.08,-0.15,-0.13,1721200936938
-5.35,-1.80,10.87,-0.15,-0.19,0.13,1721200936948
-1.83,-0.30,9.24,0.01,-0.04,0.29,1721200936958
1.54,2.49,10.48,0.03,-0.02,0.02,1721200936968
1.94,-0.62,10.48,-0.16,-0.03,-0.09,1721200936978
-3.22,-0.18,7.63,-0.15,-0.26,-0.06,1721200936988
-3.83,-2.80,12.87,-0.26,0.04,0.06,1721200936998
-2.26,-2.85,9.62,-0.00,-0.29,0.32,1721200937008
1.69,0.48,9.90,-0.06,0.04,0.33,1721200937018
4.54,1.41,11.87,-0.11,-0.11,0.06,1721200937028
-0.99,-0.77,8.74,-0.21,-0.35,-0.15,1721200937038
-3.07,2.76,10.81,-0.08,0.01,-0.05,1721200937048
-1.30,-4.04,8.00,-0.26,-0.15,0.05,1721200937058
-2.60,-1.60,15.78,-0.12,-0.25,0.30,1721200937068
3.50,7.06,14.13,0.02,-0.02,0.28,1721200937078
3.75,-1.50,2.89,-0.16,-0.42,0.12,1721200937088
0.51,-3.29,15.20,-0.38,0.13,-0.34,1721200937098
-2.30,0.58,16.27,0.03,-0.39,-0.36,1721200937108
-3.27,-1.25,2.55,-0.02,-0.15,0.20,1721200937118
1.69,-2.51,11.99,-0.03,0.05,0.39,1721200937128
4.07,3.48,10.89,0.16,-0.18,0.04,1721200937138
4.27,5.75,16.64,0.04,0.09,-0.29,1721200937148
-0.34,4.45,10.27,0.22,-0.30,-0.30,1721200937158
-0.75,-2.12,6.27,-0.01,0.09,-0.07,1721200937168
-0.26,-3.22,15.66,0.03,-0.04,0.02,1721200937178
0.10,1.21,7.13,0.26,-0.15,-0.03,1721200937188
1.25,1.60,4.71,0.13,0.03,-0.29,1721200937198
-0.13,-1.15,11.03,0.07,-0.09,-0.31,1721200937208
-3.39,-0.45,12.16,0.11,-0.11,-0.18,1721200937218
-1.08,5.64,9.30,0.19,0.09,0.07,1721200937228
4.13,-2.77,11.04,-0.03,0.14,-0.03,1721200937238
1.82,2.79,16.65,0.30,-0.03,-0.22,1721200937248
-0.66,-3.51,1.03,0.01,-0.09,-0.26,1721200937258
-3.37,4.11,15.91,0.10,0.02,-0.21,1721200937268
1.34,4.39,7.68,0.30,0.13,-0.09,1721200937278
1.07,-2.94,8.55,-0.08,0.07,-0.14,1721200937288
-2.48,-1.31,10.94,0.20,-0.10,-0.24,1721200937298
-1.22,-1.70,10.63,0.00,0.26,-0.24,1721200937308
-1.00,2.43,15.09,0.35,-0.04,-0.02,1721200937318
0.27,-2.36,2.07,0.08,0.01,0.04,1721200937328
-1.68,6.01,12.48,0.16,-0.07,-0.19,1721200937338
0.22,1.37,10.09,0.05,0.13,-0.42,1721200937348
-1.59,-2.30,5.82,0.05,-0.10,-0.08,1721200937358
-1.47,-0.19,14.59,-0.16,0.33,0.01,1721200937368
-0.38,5.39,14.88,0.21,-0.02,-0.15,1721200937378
-1.62,1.77,-3.20,-0.05,-0.23,-0.27,1721200937388
-2.49,-1.98,19.42,-0.26,0.16,-0.10,1721200937398
0.45,-0.27,11.29,0.18,-0.03,0.06,1721200937408
1.54,0.35,2.90,-0.11,-0.06,0.10,1721200937418
2.55,1.03,15.54,-0.06,0.21,-0.25,1721200937428
1.36,2.40,10.11,0.16,-0.19,-0.30,1721200937438
-1.85,2.43,2.15,-0.08,-0.09,-0.32,1721200937448
-0.20,1.93,13.80,-0.15,0.17,-0.22,1721200937458
1.31,-7.96,5.67,-0.38,-0.18,-0.07,1721200937468
-3.51,0.53,12.00,-0.07,-0.17,-0.17,1721200937478
1.44,-3.76,9.27,-0.18,0.38,-0.33,1721200937488
-1.44,1.92,13.56,-0.01,-0.18,-0.11,1721200937498
-1.16,6.06,7.16,-0.04,0.12,-0.06,1721200937508
1.12,-4.11,9.11,-0.32,-0.19,-0.08,1721200937518
-3.44,4.10,6.97,0.11,-0.36,-0.15,1721200937528
2.09,-6.11,3.01,-0.31,0.29,-0.28,1721200937538
0.23,2.02,18.28,-0.08,-0.29,-0.20,1721200937548
-3.91,-1.47,-0.13,0.05,-0.16,-0.04,1721200937558
-2.64,-2.75,7.63,-0.27,0.27,-0.07,1721200937568
1.07,1.20,18.62,-0.01,0.24,-0.06,1721200937578
2.34,6.42,17.42,-0.05,0.08,-0.16,1721200937588
-1.81,-1.01,10.23,-0.20,-0.38,-0.12,1721200937598
-5.91,4.50,10.38,0.13,-0.08,-0.12,1721200937608
-0.36,-3.36,5.98,-0.01,0.12,-0.01,1721200937618
-0.16,-4.37,12.22,0.05,-0.27,0.10,1721200937628
2.35,6.80,9.41,0.39,0.14,-0.08,1721200937638
2.11,0.03,6.33,0.05,-0.18,-0.26,1721200937648
-6.12,2.86,15.97,0.06,-0.32,-0.35,1721200937658
-4.08,-1.70,6.97,0.20,0.04,-0.09,1721200937668
-0.94,-3.75,15.00,0.00,0.11,0.09,1721200937678
-0.11,4.03,11.40,0.31,-0.19,0.22,1721200937688
2.31,1.08,8.00,0.08,-0.01,0.07,1721200937698
-0.73,-4.54,8.59,0.01,-0.36,-0.35,1721200937708
-1.25,2.87,12.05,0.14,0.12,-0.47,1721200937718
-0.72,4.11,4.75,0.19,-0.15,-0.27,1721200937728
-2.76,5.17,11.26,0.17,-0.15,0.06,1721200937738
-0.08,-2.98,6.73,0.10,-0.13,0.12,1721200937748
-0.53,-0.00,15.56,0.00,0.08,-0.33,1721200937758
1.22,5.22,19.15,0.29,0.16,-0.24,1721200937768
-1.52,4.74,-1.63,0.11,-0.30,-0.08,1721200937778
-1.77,-3.05,12.93,-0.16,0.09,-0.03,1721200937788
1.09,3.16,12.92,0.46,-0.22,-0.06,1721200937798
1.57,1.15,-0.88,-0.01,-0.00,-0.23,1721200937808
-1.68,4.30,17.89,-0.06,-0.06,-0.44,1721200937818
-0.81,2.02,14.09,0.24,-0.21,-0.24,1721200937828
-3.11,0.66,8.63,0.03,-0.04,-0.15,1721200937838
-0.49,-1.11,10.46,0.02,-0.10,0.04,1721200937848
-0.88,5.52,9.43,0.06,-0.13,-0.09,1721200937858
0.62,-1.00,2.92,-0.13,-0.16,-0.15,1721200937868
-1.30,-0.93,14.50,-0.15,-0.15,-0.18,1721200937878
-1.29,-2.09,11.54,0.08,-0.08,-0.14,1721200937888
-2.59,0.60,10.19,-0.15,-0.06,-0.12,1721200937898
-3.31,2.41,14.47,-0.22,-0.04,-0.04,1721200937908
0.04,1.39,13.37,-0.02,-0.15,0.03,1721200937918
2.53,0.05,0.27,-0.00,-0.11,-0.03,1721200937928
1.62,-3.06,6.43,-0.21,0.04,-0.13,1721200937938
-0.57,4.57,16.11,-0.01,-0.07,-0.29,1721200937948
-1.24,-0.80,5.61,-0.06,-0.31,-0.17,1721200937958
-2.70,-6.35,7.41,-0.37,0.06,-0.10,1721200937968
-0.86,-1.47,14.70,-0.20,-0.09,-0.21,1721200937978
-0.92,6.56,14.54,-0.00,-0.08,-0.04,1721200937988
2.16,1.58,9.28,-0.08,-0.03,0.07,1721200937998
0.85,-9.47,4.58,-0.33,-0.15,-0.01,1721200938008
-3.83,2.33,11.05,-0.03,-0.13,-0.39,1721200938018
2.45,-0.98,17.11,-0.21,0.31,-0.15,1721200938028
-1.68,3.25,8.55,0.11,-0.52,0.10,1721200938038
1.92,-0.04,2.73,-0.15,0.15,0.01,1721200938048
3.22,0.81,17.16,0.02,0.04,-0.50,1721200938058
0.85,-1.85,7.47,0.04,-0.22,-0.38,1721200938068
-3.01,3.79,15.26,-0.11,0.12,-0.26,1721200938078
-1.93,4.36,16.00,0.19,-0.02,-0.22,1721200938088
-0.64,-9.87,3.97,-0.07,-0.14,-0.20,1721200938098
-2.24,2.52,5.99,0.29,-0.12,-0.25,1721200938108
1.73,-0.11,8.22,0.03,0.22,-0.17,1721200938118
0.01,4.43,20.54,0.20,-0.03,-0.02,1721200938128
0.66,0.35,7.45,0.25,-0.03,-0.25,1721200938138
0.86,-3.06,11.40,0.02,0.08,-0.41,1721200938148
-1.43,6.77,9.24,0.21,-0.16,-0.40,1721200938158
-0.76,0.68,9.73,0.06,0.16,-0.16,1721200938168
-0.08,-2.15,9.00,0.27,0.05,-0.02,1721200938178
0.59,-7.52,9.16,-0.01,0.11,-0.33,1721200938188
-1.70,5.84,6.27,0.32,-0.17,-0.31,1721200938203
-0.32,6.45,5.75,0.29,0.12,-0.29,1721200938207
-0.89,-4.97,11.06,-0.12,0.05,-0.15,1721200938217
-1.25,-5.15,10.77,0.22,-0.12,-0.22,1721200938227
-0.06,1.29,11.83,0.09,0.29,-0.38,1721200938237
-0.74,5.99,8.15,0.28,-0.03,-0.35,1721200938247
-1.59,2.81,6.83,0.05,0.13,-0.19,1721200938257
0.65,3.22,17.29,0.22,0.35,-0.18,1721200938267
1.14,-5.19,3.32,-0.07,-0.08,-0.26,1721200938277
-3.77,5.98,22.03,0.13,0.04,-0.42,1721200938287
-0.37,3.97,1.49,0.34,0.05,-0.09,1721200938297
-0.72,-6.51,8.11,-0.49,0.13,-0.21,1721200938307
-2.88,-0.21,17.41,0.36,-0.06,-0.23,1721200938317
1.36,0.08,-0.22,-0.06,0.34,-0.15,1721200938327
-0.76,5.05,12.01,0.04,-0.01,-0.14,1721200938337
-0.73,1.34,3.82,-0.13,0.11,-0.14,1721200938347
-0.79,0.18,20.66,-0.10,0.20,-0.21,1721200938357
-0.20,1.82,7.21,0.29,0.08,-0.08,1721200938367
1.65,-0.87,12.31,-0.38,0.40,-0.16,1721200938377
-1.70,5.81,21.21,0.34,-0.12,-0.21,1721200938387
0.93,0.42,-0.02,0.13,0.21,-0.03,1721200938397
3.07,-2.84,9.35,-0.19,0.28,-0.11,1721200938407
0.89,-3.62,8.15,-0.10,-0.18,-0.26,1721200938417
-2.61,2.40,13.53,-0.07,0.22,-0.38,1721200938427
-1.27,0.74,3.40,-0.02,0.09,-0.31,1721200938437
-2.99,-1.57,19.38,-0.21,0.12,-0.19,1721200938447
0.21,-1.61,14.22,0.30,0.12,0.01,1721200938457
3.04,2.22,5.52,-0.05,0.34,-0.06,1721200938467
-0.41,3.07,7.09,-0.03,-0.03,-0.35,1721200938477
-1.78,-2.00,14.19,-0.18,0.21,-0.28,1721200938487
-1.61,2.91,11.42,0.41,-0.02,0.01,1721200938497
0.87,-3.74,-3.06,-0.37,0.11,0.09,1721200938507
-1.63,6.09,24.92,-0.03,-0.00,-0.06,1721200938517
1.27,4.21,4.11,0.32,0.15,-0.19,1721200938527
1.30,-1.11,4.74,-0.19,0.21,-0.13,1721200938537
-0.51,2.90,13.45,0.11,0.00,-0.01,1721200938547
2.19,3.87,12.33,0.09,0.22,-0.15,1721200938557
0.70,1.69,10.30,0.04,0.02,-0.31,1721200938567
-3.63,-2.08,10.19,-0.02,-0.02,-0.20,1721200938577
-3.59,-1.65,10.25,-0.05,0.27,-0.17,1721200938587
-1.63,1.74,13.95,0.23,0.06,0.07,1721200938597
1.56,8.92,12.26,0.23,0.24,0.01,1721200938607
3.98,-0.47,4.57,-0.03,0.01,-0.19,1721200938617
0.23,-3.55,10.80,-0.11,0.07,-0.30,1721200938627
-4.11,5.94,15.71,0.29,0.09,-0.30,1721200938637
-0.52,-1.15,-0.65,0.04,0.02,0.09,1721200938647
-2.03,2.32,12.14,-0.12,0.02,0.05,1721200938657
0.74,-1.09,3.39,0.04,0.03,-0.06,1721200938667
0.45,2.04,17.70,-0.21,0.19,-0.18,1721200938677
-1.25,5.37,8.55,0.28,-0.17,-0.13,1721200938687
-1.14,-2.06,7.68,-0.29,0.32,-0.16,1721200938697
-1.81,-1.80,14.58,0.11,-0.11,0.06,1721200938707
0.00,2.87,7.25,-0.02,0.21,0.02,1721200938717
0.66,5.72,5.94,0.15,0.01,-0.09,1721200938727
0.10,4.32,5.79,-0.08,0.20,-0.21,1721200938737
0.49,-2.95,22.89,-0.11,0.16,-0.23,1721200938747
-0.58,-3.22,14.03,0.24,-0.09,-0.06,1721200938757
-2.31,3.98,6.42,0.06,0.05,-0.08,1721200938767
-0.19,5.54,7.98,0.07,0.06,0.06,1721200938777
3.16,-0.57,3.93,-0.09,0.21,-0.15,1721200938787
1.25,2.27,17.86,0.05,0.11,-0.43,1721200938797
-2.71,-1.80,3.18,-0.07,-0.11,-0.22,1721200938807
-5.79,2.68,16.56,-0.02,0.04,-0.07,1721200938817
-0.32,2.44,12.40,0.10,0.27,0.05,1721200938827
2.01,-3.57,7.05,-0.01,-0.04,0.12,1721200938837
-0.56,0.80,4.20,-0.05,-0.07,-0.09,1721200938847
2.27,2.05,11.73,-0.05,0.32,-0.22,1721200938857
-0.05,4.58,13.05,0.12,0.05,-0.25,1721200938867
-3.51,5.47,7.65,0.03,-0.01,-0.19,1721200938877
0.31,-0.49,12.40,-0.06,0.18,0.11,1721200938887
3.23,-3.40,12.93,-0.08,0.13,-0.13,1721200938897
-1.63,4.48,12.16,0.21,-0.05,-0.20,1721200938907
-0.55,4.30,7.25,-0.01,0.23,-0.05,1721200938917
0.65,-1.13,6.08,0.02,0.01,-0.09,1721200938927
0.09,-3.69,12.89,-0.15,0.18,-0.16,1721200938937
-0.91,0.45,15.46,0.13,0.02,-0.19,1721200938947
-3.09,11.15,8.94,0.26,0.01,-0.07,1721200938957
1.24,0.65,-0.53,-0.16,0.10,0.09,1721200938967
1.73,-3.92,14.44,-0.26,0.16,-0.21,1721200938977
-0.04,-2.04,13.93,0.14,-0.08,-0.25,1721200938987
-2.04,4.72,10.58,0.05,0.23,-0.25,1721200938997
-2.96,4.27,9.12,0.16,0.12,-0.05,1721200939007
0.59,0.58,8.02,-0.09,0.22,0.25,1721200939017
3.26,0.02,16.18,-0.07,0.21,-0.09,1721200939027
0.47,4.61,10.21,0.19,-0.08,-0.44,1721200939037
-2.59,0.06,4.11,-0.20,0.06,-0.28,1721200939047
-3.33,-1.47,19.70,-0.07,0.10,-0.02,1721200939057
-0.25,-0.93,3.64,0.19,-0.04,0.19,1721200939067
3.84,3.90,14.24,-0.09,0.53,0.01,1721200939077
2.78,0.72,5.39,0.10,-0.10,-0.28,1721200939087
-2.58,0.78,14.61,-0.18,0.25,-0.39,1721200939097
-2.98,2.42,18.02,0.33,0.10,-0.21,1721200939107
-1.49,-0.87,8.10,0.07,0.05,0.18,1721200939117
0.30,1.29,9.12,0.04,0.01,0.22,1721200939127
2.85,1.86,7.53,0.01,0.28,-0.10,1721200939137
1.01,-0.21,7.36,0.10,0.05,-0.32,1721200939147
-1.24,-2.25,4.61,-0.05,0.08,-0.12,1721200939157
-1.20,3.71,13.86,0.11,0.17,0.06,1721200939167
1.72,4.41,11.12,0.03,0.24,-0.00,1721200939177
0.62,-0.66,17.45,-0.06,0.11,-0.17,1721200939187
-2.43,-4.32,6.02,0.03,-0.03,-0.12,1721200939197
-3.17,1.10,11.29,0.06,0.17,-0.01,1721200939207
3.17,1.19,13.08,0.10,0.34,0.07,1721200939217
0.37,5.87,8.79,0.25,-0.03,-0.14,1721200939227
-0.79,0.35,4.02,-0.09,0.20,-0.19,1721200939237
-1.40,-1.46,17.71,-0.17,0.17,-0.12,1721200939247
-2.31,0.45,1.60,0.11,-0.08,0.01,1721200939257
-2.04,2.85,15.00,-0.12,0.35,-0.10,1721200939267
1.47,-0.33,7.89,0.16,0.04,0.09,1721200939277
1.02,1.23,4.66,-0.09,0.08,-0.08,1721200939287
1.47,1.22,21.32,-0.04,0.29,-0.31,1721200939297
-1.24,2.74,8.23,0.24,0.05,-0.18,1721200939307
-4.19,3.51,8.93,-0.11,0.12,0.01,1721200939317
-0.09,-3.36,12.29,0.06,0.16,0.13,1721200939327
1.87,1.15,13.00,0.10,0.27,-0.01,1721200939337
1.82,3.35,8.43,0.03,0.00,-0.08,1721200939347
0.92,3.64,14.23,0.14,0.11,-0.10,1721200939357
2.05,-2.55,6.36,0.00,0.15,-0.03,1721200939367
-2.46,3.40,12.55,0.11,0.00,-0.17,1721200939377
-1.26,0.53,6.14,-0.05,0.20,0.04,1721200939387
-0.57,-0.80,13.16,-0.09,0.10,0.10,1721200939397
0.20,1.33,11.21,0.07,0.05,-0.08,1721200939407
0.47,1.07,7.43,-0.00,0.14,-0.09,1721200939417
-1.58,3.94,12.71,-0.04,0.15,-0.17,1721200939427
-0.57,-3.27,11.36,-0.04,-0.02,-0.01,1721200939437
-0.19,3.45,11.24,0.21,0.01,0.07,1721200939447
1.50,-1.21,8.69,-0.15,0.26,-0.03,1721200939457
-1.64,-2.38,6.32,0.06,-0.19,0.09,1721200939467
-1.86,2.52,11.86,-0.09,0.27,-0.06,1721200939477
0.28,2.69,8.71,0.10,-0.09,0.02,1721200939487
0.09,6.24,6.46,-0.01,0.09,0.05,1721200939497
1.50,-1.74,14.54,-0.26,0.24,-0.13,1721200939507
-2.05,-0.75,12.62,0.17,-0.14,-0.12,1721200939517
-0.73,0.97,7.84,-0.04,0.25,0.08,1721200939527
1.24,0.91,8.33,-0.01,0.05,0.12,1721200939537
-0.29,4.38,16.10,0.06,0.05,-0.05,1721200939547
0.91,-1.73,7.50,-0.10,0.05,-0.06,1721200939557
-2.53,-0.41,18.13,0.02,0.04,-0.09,1721200939567
-0.69,3.13,11.02,0.16,0.20,0.06,1721200939577
2.21,4.95,9.36,0.28,-0.02,0.19,1721200939587
3.84,0.48,-2.61,0.01,0.02,0.07,1721200939597
4.23,-2.93,12.23,-0.44,0.20,-0.36,1721200939607
-3.39,3.18,20.84,0.21,-0.03,-0.37,1721200939617
-4.98,4.77,4.13,0.11,0.01,0.09,1721200939627
-1.72,-1.52,-0.48,-0.18,-0.01,0.29,1721200939637
4.33,-1.89,18.51,-0.16,0.42,0.07,1721200939647
4.02,2.23,14.13,0.36,-0.11,-0.27,1721200939657
-0.53,4.80,6.78,0.02,0.14,-0.27,1721200939667
-3.25,-2.05,14.00,-0.12,0.03,-0.05,1721200939677
-3.86,2.29,13.07,0.13,0.03,0.03,1721200939687
1.35,4.03,11.48,0.06,0.30,0.14,1721200939697
3.62,2.01,5.34,-0.04,0.02,-0.09,1721200939707
1.40,-0.35,15.28,-0.02,-0.01,-0.37,1721200939717
-2.86,2.99,7.55,0.26,0.02,-0.15,1721200939727
-2.02,3.27,8.89,-0.15,0.35,0.15,1721200939737
-0.15,2.15,21.35,0.06,0.07,0.07,1721200939747
0.52,-0.42,-1.16,0.09,-0.18,-0.07,1721200939757
-0.34,-1.49,8.06,-0.34,0.30,-0.32,1721200939767
-1.14,1.63,16.41,0.32,0.03,-0.13,1721200939777
0.87,-1.21,8.57,-0.04,0.19,0.14,1721200939787
-0.30,9.03,15.08,0.36,-0.14,0.14,1721200939797
2.95,3.62,0.34,-0.12,0.19,-0.06,1721200939807
0.00,-2.75,15.19,-0.31,0.03,-0.32,1721200939817
-3.46,-4.65,11.28,0.10,-0.11,-0.25,1721200939827
-3.32,-0.53,12.56,0.03,0.25,-0.02,1721200939837
-1.74,5.09,8.99,0.18,0.05,0.23,1721200939847
0.69,7.46,5.55,0.01,0.13,0.08,1721200939857
3.06,-1.11,12.39,-0.28,0.19,-0.22,1721200939867
-0.23,-4.75,14.86,0.04,-0.07,-0.35,1721200939877
-4.78,0.81,8.33,0.10,0.09,-0.13,1721200939887
-2.59,1.46,11.10,0.03,0.16,0.24,1721200939897
2.04,7.68,8.12,0.29,0.07,0.16,1721200939907
5.05,-0.65,1.08,-0.20,0.11,-0.05,1721200939917
-1.06,2.21,19.42,-0.17,0.07,-0.37,1721200939927
-3.11,-2.28,12.35,0.02,0.05,-0.29,1721200939937
-4.90,-1.95,11.19,0.08,0.06,0.13,1721200939947
-1.15,1.24,5.29,0.05,0.12,0.39,1721200939957
3.87,3.46,11.07,-0.11,0.22,0.15,1721200939967
3.46,5.18,11.05,0.18,-0.05,-0.35,1721200939977
-0.11,-5.09,7.14,-0.21,0.15,-0.28,1721200939987
-4.35,-0.01,21.24,0.06,0.06,0.00,1721200939997
-3.06,2.38,5.55,0.19,0.02,0.15,1721200940007
0.60,3.76,10.34,-0.04,0.23,0.17,1721200940017
2.17,1.16,6.43,0.02,-0.01,0.07,1721200940027
1.08,0.88,16.35,-0.13,0.19,-0.22,1721200940037
-0.94,0.86,3.66,0.09,-0.06,-0.25,1721200940047
-3.67,4.67,13.82,-0.10,0.23,-0.16,1721200940057
-0.83,0.53,12.02,0.07,0.12,0.13,1721200940067
0.75,-5.23,7.46,-0.03,-0.09,0.25,1721200940077
1.79,0.92,9.68,-0.01,0.19,0.05,1721200940087
1.63,2.95,10.74,0.00,0.15,-0.13,1721200940097
-2.10,4.29,10.18,0.00,-0.00,-0.10,1721200940107
-2.28,0.59,10.32,0.01,0.04,0.12,1721200940117
-0.74,1.57,14.31,-0.09,0.27,0.13,1721200940127
1.05,-0.32,6.86,0.04,-0.04,-0.01,1721200940137
0.62,2.79,6.79,-0.02,0.02,0.01,1721200940147
2.73,-0.84,12.78,-0.19,0.24,0.10,1721200940157
-1.24,4.12,15.38,0.29,-0.11,-0.14,1721200940167
0.66,-2.02,-0.06,-0.15,0.17,0.01,1721200940177
-2.10,-0.06,17.04,-0.24,0.10,-0.01,1721200940187
-1.93,1.89,11.73,0.23,0.01,0.04,1721200940197
-2.24,2.71,13.43,-0.04,0.10,0.22,1721200940212
1.41,-1.68,13.97,0.05,-0.16,0.23,1721200940216
1.15,6.90,3.37,0.27,0.02,0.01,1721200940226
2.68,0.51,8.25,-0.34,0.39,-0.26,1721200940236
-4.76,-2.63,23.79,0.00,-0.19,-0.27,1721200940246
-8.68,-0.33,3.36,0.24,-0.16,0.06,1721200940256
-0.61,1.42,12.53,-0.13,0.37,0.49,1721200940266
5.02,-0.41,3.73,0.08,-0.14,0.38,1721200940276
4.44,3.21,12.92,-0.16,0.32,-0.24,1721200940286
1.41,5.38,18.72,0.20,0.12,-0.60,1721200940296
-6.20,-2.10,7.72,0.13,-0.16,-0.07,1721200940306
-6.36,0.79,9.79,-0.08,0.26,0.34,1721200940316
1.50,2.52,12.39,0.17,0.08,0.51,1721200940326
6.38,4.16,7.02,-0.01,-0.02,0.20,1721200940336
4.55,3.98,14.99,0.05,0.10,-0.41,1721200940346
-1.67,-4.86,6.77,0.07,-0.06,-0.42,1721200940356
-8.18,-0.01,8.44,-0.03,0.01,0.02,1721200940366
-4.20,4.02,16.29,0.05,0.14,0.43,1721200940376
4.83,3.02,7.63,0.20,0.02,0.46,1721200940386
6.62,-0.18,9.38,-0.21,0.10,-0.05,1721200940396
0.05,-0.16,10.62,0.12,-0.23,-0.39,1721200940406
-3.61,-3.86,8.17,-0.12,0.17,-0.28,1721200940416
-4.81,0.17,10.70,0.02,0.01,0.31,1721200940426
-0.69,2.57,18.49,0.06,0.13,0.42,1721200940436
3.35,2.25,6.82,0.15,-0.07,0.30,1721200940446
2.39,2.94,8.89,-0.09,0.12,-0.21,1721200940456
-0.42,3.90,20.95,-0.03,0.06,-0.41,1721200940466
-2.27,-7.82,2.72,0.05,-0.31,-0.02,1721200940476
-5.06,0.14,9.75,-0.10,-0.06,0.33,1721200940486
0.06,3.43,3.83,0.12,0.01,0.16,1721200940496
4.53,5.39,18.58,-0.01,0.35,-0.17,1721200940506
2.04,-1.18,4.36,0.06,-0.20,-0.22,1721200940516
-5.74,0.57,14.27,-0.14,-0.11,-0.05,1721200940526
-2.06,-2.27,8.28,0.19,0.07,0.25,1721200940536
2.72,0.70,12.36,0.04,0.12,0.24,1721200940546
3.28,0.99,4.79,0.05,-0.23,0.15,1721200940556
0.21,4.77,12.73,-0.08,0.01,-0.30,1721200940566
-1.40,1.00,14.38,0.16,0.02,-0.22,1721200940576
-4.99,3.05,7.36,0.16,-0.04,0.03,1721200940586
-0.42,-3.02,3.44,-0.14,0.07,0.36,1721200940596
2.14,3.17,15.29,-0.00,0.08,0.28,1721200940606
4.29,2.50,9.63,0.15,-0.07,-0.19,1721200940616
-0.06,-1.76,15.86,-0.06,-0.06,-0.31,1721200940626
-3.92,-1.03,10.75,0.16,-0.11,-0.03,1721200940636
-2.05,3.65,8.71,0.12,0.18,0.14,1721200940646
4.58,-0.02,7.33,-0.02,0.08,0.24,1721200940656
2.34,3.33,9.57,0.03,-0.05,-0.08,1721200940666
-2.05,3.92,10.24,0.02,0.04,-0.52,1721200940676
-4.03,-2.89,9.46,-0.10,-0.13,-0.04,1721200940686
-1.97,-0.41,20.64,0.03,0.12,0.27,1721200940696
1.24,1.28,5.05,0.15,-0.02,0.22,1721200940706
1.47,1.97,10.44,-0.14,0.01,-0.00,1721200940716
2.74,-3.54,7.95,0.03,-0.12,-0.15,1721200940726
-1.26,-5.32,2.24,-0.27,-0.11,-0.19,1721200940736
-5.04,1.00,10.23,-0.23,-0.08,0.04,1721200940746
-2.88,1.47,16.60,-0.06,0.01,0.12,1721200940756
1.29,4.67,13.28,0.19,0.05,0.17,1721200940766
2.08,-0.02,2.86,-0.16,-0.06,0.06,1721200940776
-0.78,-0.40,13.43,-0.27,-0.03,-0.29,1721200940786
-1.05,-2.33,14.67,-0.03,0.06,-0.13,1721200940796
-2.63,3.36,9.06,0.13,-0.14,0.17,1721200940806
-1.81,4.64,8.92,-0.06,-0.02,0.13,1721200940816
2.66,-2.40,7.02,-0.18,0.09,0.03,1721200940826
1.05,0.54,13.92,-0.11,-0.05,-0.02,1721200940836
-1.30,0.44,14.27,-0.20,0.00,-0.22,1721200940846
-3.35,4.53,8.36,0.18,-0.16,-0.05,1721200940856
0.61,3.23,12.87,-0.05,0.35,0.21,1721200940866
4.81,-4.71,11.30,-0.04,-0.11,0.16,1721200940876
-0.44,2.17,6.49,0.03,-0.39,-0.15,1721200940886
-0.89,5.25,13.39,-0.01,0.32,-0.33,1721200940896
-2.43,3.80,14.02,0.23,0.01,-0.05,1721200940906
-2.69,-1.52,3.40,0.03,-0.25,0.40,1721200940916
2.62,-0.30,8.86,-0.24,0.24,0.17,1721200940926
4.18,1.44,12.27,-0.06,-0.07,-0.29,1721200940936
-1.43,2.46,14.58,0.08,-0.10,-0.38,1721200940946
-3.97,-0.54,9.32,0.04,0.00,0.09,1721200940956
-2.09,2.94,8.64,0.04,-0.07,0.35,1721200940966
3.83,1.77,17.45,-0.14,0.31,-0.09,1721200940976
1.34,2.99,12.07,0.34,-0.31,-0.25,1721200940986
-1.87,-1.01,7.03,-0.10,0.07,-0.13,1721200940996
-2.34,-4.36,5.85,-0.05,-0.09,0.14,1721200941006
-1.54,-0.01,16.40,-0.03,0.05,0.18,1721200941016
2.12,8.61,18.21,0.30,0.13,-0.06,1721200941026
1.38,0.87,-0.45,-0.01,-0.21,-0.15,1721200941036
-5.35,2.91,7.55,-0.12,-0.16,-0.03,1721200941046
1.75,-1.25,2.17,-0.12,0.25,0.12,1721200941056
3.24,-2.13,19.45,-0.29,0.06,-0.04,1721200941066
0.00,0.74,18.21,0.27,-0.37,-0.12,1721200941076
-2.19,2.66,5.82,0.12,-0.09,0.00,1721200941086
-1.18,4.99,14.02,-0.01,0.19,0.02,1721200941096
0.84,-3.10,5.73,-0.19,-0.19,0.11,1721200941106
-1.62,2.06,12.78,0.01,-0.18,-0.04,1721200941116
1.51,-2.06,8.26,-0.02,0.05,-0.12,1721200941126
-0.63,5.66,13.38,0.24,-0.12,0.10,1721200941136
0.17,3.33,3.92,-0.09,0.03,-0.01,1721200941146
-1.24,2.44,11.46,-0.08,-0.05,-0.06,1721200941156
1.35,-3.13,7.63,-0.11,-0.01,-0.06,1721200941166
-0.10,-1.62,12.96,-0.15,-0.07,-0.04,1721200941176
-1.01,3.49,10.17,0.27,-0.15,0.13,1721200941186
1.66,4.83,8.05,-0.12,0.18,-0.05,1721200941196
-0.17,-0.82,9.90,-0.09,-0.22,-0.17,1721200941206
-3.27,1.73,20.59,0.01,0.08,-0.23,1721200941216
-0.97,-2.02,4.22,0.15,-0.08,-0.01,1721200941226
-1.53,2.62,7.44,-0.07,-0.17,0.36,1721200941236
2.71,6.35,4.68,0.12,0.10,0.03,1721200941246
6.54,-6.37,11.19,-0.31,0.18,-0.32,1721200941256
-2.54,-0.64,22.62,0.12,-0.44,-0.28,1721200941266
-6.32,2.01,4.64,0.06,-0.01,-0.11,1721200941276
-2.77,-0.83,5.14,-0.01,-0.04,0.21,1721200941286
3.43,-3.10,8.57,-0.12,0.16,0.19,1721200941296
4.12,4.67,15.01,0.20,0.03,-0.25,1721200941306
-0.19,3.78,7.93,0.06,-0.11,-0.43,1721200941316
-6.61,10.28,12.53,0.21,-0.08,-0.16,1721200941326
0.24,-9.85,4.92,-0.34,0.21,0.09,1721200941336
0.33,-2.52,12.52,0.11,-0.41,0.23,1721200941346
3.17,5.05,13.58,-0.01,0.23,-0.29,1721200941356
-0.55,4.83,5.66,0.25,-0.25,-0.33,1721200941366
-3.28,0.96,4.69,-0.20,0.18,-0.11,1721200941376
0.01,-2.26,15.83,-0.02,0.12,0.08,1721200941386
1.15,-0.66,8.24,0.05,-0.12,-0.16,1721200941396
-0.83,7.26,18.55,0.14,0.07,-0.05,1721200941406
0.88,3.39,6.95,0.16,0.07,-0.09,1721200941416
-0.98,-2.86,8.78,-0.11,-0.11,-0.12,1721200941426
-2.06,-2.70,9.79,0.04,-0.11,-0.04,1721200941436
0.11,7.20,10.26,0.18,0.14,-0.03,1721200941446
3.41,1.34,6.57,-0.15,0.09,-0.16,1721200941456
-2.12,2.47,-1.42,0.01,-0.48,0.02,1721200941466
0.74,-0.83,15.08,-0.46,0.65,-0.27,1721200941476
-1.09,-7.12,27.31,0.14,-0.12,-0.35,1721200941486
-4.96,-1.39,6.79,0.10,-0.31,0.02,1721200941496
-2.98,7.16,13.64,0.16,0.13,0.14,1721200941506
4.71,5.74,0.11,0.19,0.18,-0.13,1721200941516
3.12,-2.87,8.40,-0.31,0.04,-0.19,1721200941526
-0.36,-2.61,13.33,-0.02,-0.24,-0.23,1721200941536
-3.76,5.78,19.85,0.18,0.12,-0.25,1721200941546
-1.69,1.04,2.99,0.20,-0.01,0.09,1721200941556
-1.93,1.83,1.61,-0.13,-0.02,0.07,1721200941566
4.03,4.07,17.35,0.07,0.32,-0.22,1721200941576
5.73,1.53,9.60,0.15,0.03,-0.31,1721200941586
-2.58,-0.80,11.72,-0.03,-0.12,-0.43,1721200941596
-5.58,-5.37,8.49,0.00,-0.05,0.04,1721200941606
-2.01,3.68,8.36,0.06,0.08,0.24,1721200941616
3.69,2.00,14.08,-0.12,0.32,-0.27,1721200941626
0.68,-0.70,13.09,0.17,-0.12,-0.35,1721200941636
-3.83,6.99,8.76,0.04,0.08,-0.14,1721200941646
