AccX,AccY,AccZ,GyrX,GyrY,GyrZ,Time
-4.23,0.20,10.24,-0.00,-0.19,0.02,1721198938122
-3.61,-1.28,8.44,-0.05,-0.22,0.07,1721198938127
-3.58,0.18,11.84,0.00,-0.13,0.09,1721198938137
-2.35,-1.90,7.46,-0.06,-0.26,0.06,1721198938147
-3.03,0.58,11.08,0.03,-0.20,0.07,1721198938157
-2.18,-0.77,9.25,-0.05,-0.21,0.07,1721198938167
-2.79,0.74,11.43,0.04,-0.25,0.10,1721198938177
-0.35,-0.45,9.46,-0.07,-0.15,0.15,1721198938187
-0.23,-0.20,9.62,-0.03,-0.28,0.11,1721198938197
0.87,-0.22,12.14,-0.02,-0.08,0.04,1721198938207
0.52,-0.96,9.10,0.07,-0.29,-0.00,1721198938217
0.20,0.91,9.01,0.01,-0.07,-0.01,1721198938227
0.62,0.37,10.95,-0.02,-0.17,-0.03,1721198938237
-0.69,0.58,11.24,-0.01,-0.14,-0.08,1721198938247
-1.17,-0.19,12.94,0.00,-0.11,-0.08,1721198938257
-2.13,-1.05,8.59,0.02,-0.19,-0.03,1721198938267
-1.29,-0.01,9.68,0.01,-0.01,-0.01,1721198938277
-1.41,-0.39,7.09,-0.00,-0.20,-0.03,1721198938287
-2.66,-0.09,9.19,-0.04,-0.08,0.00,1721198938297
-2.55,-1.44,11.14,-0.01,-0.15,0.09,1721198938307
-2.62,-0.83,10.69,0.02,-0.16,0.10,1721198938317
-2.10,0.36,11.56,0.00,-0.16,0.05,1721198938327
-2.82,-0.40,8.38,-0.00,-0.24,0.13,1721198938337
-1.92,0.56,10.75,-0.03,-0.12,0.23,1721198938347
-0.75,-1.06,6.85,-0.03,-0.23,0.21,1721198938357
-1.69,-0.09,10.42,-0.00,-0.21,0.12,1721198938367
-2.08,-0.78,11.43,-0.02,-0.21,0.20,1721198938377
-2.00,-0.13,9.37,0.03,-0.24,0.35,1721198938387
0.06,1.47,12.71,-0.02,-0.14,0.32,1721198938397
1.29,-0.91,9.75,-0.03,-0.26,0.21,1721198938407
-0.04,1.07,10.81,0.01,-0.22,0.13,1721198938417
-0.84,-0.25,11.64,-0.06,-0.15,0.13,1721198938427
-1.17,-2.90,6.53,-0.06,-0.28,0.29,1721198938437
-0.07,1.79,12.32,0.05,-0.09,0.32,1721198938447
3.04,0.83,8.29,-0.07,-0.12,0.20,1721198938457
0.38,1.11,9.85,-0.06,-0.31,0.09,1721198938467
-0.48,0.08,12.60,-0.05,-0.01,0.07,1721198938477
-1.21,-0.67,8.99,-0.07,-0.28,0.23,1721198938487
0.10,-0.93,8.35,-0.09,-0.04,0.26,1721198938497
3.64,-3.07,11.27,-0.06,-0.02,0.10,1721198938507
0.52,-0.74,10.78,0.02,-0.25,-0.10,1721198938517
-1.60,0.17,11.98,0.00,0.02,-0.12,1721198938527
-1.64,0.40,13.01,-0.00,-0.10,0.08,1721198938537
-0.31,-1.57,8.05,-0.10,-0.06,0.16,1721198938547
1.88,-0.65,8.92,-0.03,0.00,0.02,1721198938557
1.57,-0.35,13.04,-0.04,-0.01,-0.20,1721198938567
-1.34,-3.20,8.16,0.01,-0.16,-0.19,1721198938577
-2.95,-1.16,9.55,0.04,0.02,-0.05,1721198938587
-0.19,0.33,13.68,0.07,0.11,0.03,1721198938597
1.58,-2.37,9.06,-0.03,-0.10,-0.02,1721198938607
1.23,-1.46,9.70,0.06,0.05,-0.20,1721198938617
0.04,-0.06,12.03,0.03,0.07,-0.37,1721198938627
-3.04,-2.05,10.01,0.00,-0.04,-0.34,1721198938637
-3.41,-2.50,9.64,0.04,-0.00,-0.19,1721198938647
-3.73,1.49,11.92,0.06,-0.03,-0.09,1721198938657
-2.55,0.88,8.78,0.00,-0.03,-0.08,1721198938667
-2.05,-1.22,8.58,-0.09,-0.05,-0.17,1721198938677
-2.76,-4.38,5.96,0.02,-0.15,-0.24,1721198938687
-3.48,-0.83,9.16,0.14,0.04,-0.15,1721198938697
-1.65,2.51,15.45,0.04,0.09,-0.05,1721198938707
0.03,-2.91,12.38,-0.01,-0.16,0.04,1721198938717
-0.22,1.92,10.97,0.09,0.17,-0.11,1721198938727
-0.10,3.33,13.36,-0.04,-0.12,-0.38,1721198938737
-4.96,-0.45,12.86,-0.03,-0.33,-0.13,1721198938747
-3.56,-1.49,4.95,-0.04,-0.10,0.19,1721198938757
0.23,-0.56,8.08,0.04,-0.07,0.15,1721198938767
0.55,1.36,12.17,0.02,-0.24,-0.14,1721198938777
-3.89,1.02,10.59,0.02,-0.28,-0.30,1721198938787
-6.20,0.69,12.97,-0.02,-0.17,-0.29,1721198938797
-6.50,0.02,11.89,-0.01,-0.33,-0.15,1721198938807
-5.07,-3.22,8.69,-0.08,-0.30,0.05,1721198938817
-5.48,-2.17,9.04,-0.00,-0.40,0.04,1721198938827
-7.73,-3.05,7.70,-0.13,-0.53,-0.08,1721198938837
-8.83,-4.09,10.82,-0.06,-0.64,0.11,1721198938847
-5.89,-2.51,10.58,0.04,-0.54,0.49,1721198938857
0.14,0.08,8.98,0.01,-0.47,0.45,1721198938867
3.70,0.73,6.09,0.04,-0.85,0.30,1721198938877
-3.15,-12.49,1.47,0.01,-1.16,0.39,1721198938887
2.02,-7.30,22.64,0.37,-0.06,0.70,1721198938897
7.35,2.23,13.14,0.21,-0.76,0.47,1721198938907
1.72,3.22,14.01,-0.16,-0.37,-0.19,1721198938917
2.62,-5.34,18.30,0.06,-0.56,-0.18,1721198938927
-0.40,3.13,9.71,0.05,-0.38,0.51,1721198938937
3.67,0.95,15.57,-0.19,-0.20,0.71,1721198938947
7.97,-9.08,7.07,-0.09,-0.67,0.21,1721198938957
6.90,-7.07,10.26,0.18,-0.34,0.07,1721198938967
6.01,4.38,10.07,0.10,-0.34,0.36,1721198938977
9.89,6.99,12.60,0.07,0.08,0.28,1721198938987
11.86,2.43,8.99,0.07,-0.27,-0.20,1721198938997
7.09,0.71,7.76,0.04,0.04,-0.48,1721198939007
3.08,4.47,11.82,0.11,0.11,-0.36,1721198939017
-0.49,3.77,6.11,-0.02,0.10,-0.34,1721198939027
-1.78,2.18,15.02,0.07,0.18,-0.41,1721198939037
-3.63,0.17,4.74,0.10,-0.21,-0.05,1721198939047
-0.36,3.94,8.25,-0.08,0.32,0.17,1721198939057
3.61,2.40,10.99,0.05,0.13,-0.06,1721198939067
3.30,4.19,17.31,0.13,-0.04,-0.34,1721198939077
-0.41,3.03,13.09,0.02,0.06,-0.29,1721198939087
-4.45,-0.74,9.87,0.01,-0.01,-0.09,1721198939097
-8.44,-1.07,8.00,-0.05,-0.09,0.02,1721198939107
-7.21,1.33,7.69,0.09,-0.13,-0.03,1721198939117
-8.72,2.10,4.76,0.25,-0.31,0.09,1721198939127
-7.98,3.17,5.29,0.07,-0.29,0.36,1721198939137
-5.22,4.25,14.33,-0.04,-0.21,0.52,1721198939147
-1.56,6.96,17.90,0.18,-0.35,0.49,1721198939157
2.65,4.80,2.19,0.00,-0.34,0.39,1721198939167
1.10,4.81,9.52,-0.11,-0.42,0.21,1721198939177
-1.20,0.94,9.11,-0.03,-0.50,0.24,1721198939187
-1.43,1.27,14.29,0.06,-0.43,0.55,1721198939197
3.35,2.63,7.42,-0.01,-0.46,0.78,1721198939207
7.30,7.03,10.54,-0.07,-0.34,0.54,1721198939217
8.19,6.51,12.14,0.06,-0.43,0.13,1721198939227
2.82,3.82,8.49,-0.08,-0.49,-0.04,1721198939237
-0.42,5.12,10.42,0.06,-0.37,0.17,1721198939247
0.57,4.25,8.16,0.02,-0.24,0.38,1721198939257
2.95,1.55,11.31,-0.01,-0.38,0.43,1721198939267
3.36,1.81,7.25,-0.05,-0.41,0.33,1721198939277
4.58,3.44,11.40,-0.04,-0.24,0.22,1721198939287
3.03,1.75,10.59,0.01,-0.40,0.30,1721198939297
2.60,1.44,8.06,-0.10,-0.22,0.48,1721198939307
7.43,1.94,11.25,-0.03,-0.13,0.55,1721198939317
11.34,-0.73,13.38,-0.08,-0.07,0.32,1721198939327
9.21,0.92,9.29,0.11,-0.15,0.10,1721198939337
9.07,0.26,8.91,0.00,0.22,-0.07,1721198939347
7.68,-2.77,9.21,-0.06,-0.03,-0.04,1721198939357
4.43,-2.55,10.57,-0.03,0.22,-0.11,1721198939367
2.74,-2.62,13.16,0.12,0.16,-0.10,1721198939377
2.32,-2.60,8.83,-0.01,0.21,0.16,1721198939387
3.91,0.31,10.49,0.04,0.38,0.26,1721198939397
4.27,-2.05,10.41,0.05,0.24,-0.00,1721198939407
3.28,-5.44,11.45,0.04,0.29,0.12,1721198939417
7.12,-2.06,10.39,0.12,0.62,0.49,1721198939427
11.04,-2.39,11.44,0.08,0.60,0.25,1721198939437
11.26,-3.69,7.96,0.05,0.47,-0.20,1721198939447
8.65,-1.10,12.38,0.09,0.70,-0.41,1721198939457
4.88,-0.99,10.43,0.13,0.58,-0.37,1721198939467
1.76,0.18,9.59,0.07,0.68,-0.42,1721198939477
0.96,-0.35,10.30,0.08,0.75,-0.55,1721198939487
-3.32,0.47,11.18,0.08,0.60,-0.64,1721198939497
-8.52,-0.14,8.92,0.02,0.47,-0.46,1721198939507
-11.12,-0.39,10.24,0.02,0.58,-0.18,1721198939517
-13.54,-4.41,8.85,-0.20,0.14,-0.18,1721198939527
-11.90,2.03,2.87,0.01,0.52,0.55,1721198939537
-0.98,1.22,17.51,-0.02,0.77,0.49,1721198939547
-2.30,1.67,10.98,-0.09,-0.08,0.24,1721198939557
8.66,1.29,9.12,-0.17,0.93,-0.05,1721198939567
0.97,-0.60,13.67,-0.04,-0.34,0.03,1721198939577
3.39,1.75,8.10,-0.04,0.90,0.02,1721198939587
6.00,3.73,15.53,-0.01,0.11,-0.08,1721198939597
-3.00,0.41,1.24,-0.02,0.04,-0.60,1721198939607
-2.65,0.51,13.29,0.05,0.77,-0.62,1721198939617
-7.35,1.21,10.00,-0.03,-0.13,-0.05,1721198939627
-9.38,3.24,8.54,-0.04,0.20,0.11,1721198939637
-4.07,0.61,10.08,0.10,0.05,0.05,1721198939647
-5.81,1.50,7.95,-0.04,-0.04,0.21,1721198939657
-3.12,2.29,9.37,0.02,0.11,0.50,1721198939667
2.11,0.67,8.82,0.02,0.14,0.45,1721198939677
3.28,1.05,11.35,0.02,0.11,0.26,1721198939687
5.57,2.41,10.18,0.02,0.03,0.25,1721198939697
6.28,3.35,9.24,0.01,0.18,0.14,1721198939707
5.30,2.80,12.65,0.01,0.16,-0.16,1721198939717
1.96,1.75,8.67,0.04,0.14,-0.23,1721198939727
2.34,3.72,12.80,-0.01,0.32,-0.26,1721198939737
-2.01,1.30,6.62,-0.02,0.08,-0.35,1721198939747
-5.04,1.12,9.06,-0.07,0.21,-0.30,1721198939757
-7.95,1.96,11.78,0.07,0.11,-0.05,1721198939767
-5.34,2.29,9.14,-0.01,0.21,0.20,1721198939777
-3.24,2.43,8.64,-0.03,-0.12,0.20,1721198939787
-3.04,3.79,11.03,0.00,0.16,0.00,1721198939797
0.08,0.92,11.22,-0.03,-0.02,0.10,1721198939807
-0.28,3.24,10.15,0.07,0.02,0.16,1721198939817
2.36,1.78,8.21,-0.07,0.09,0.02,1721198939827
2.03,2.48,11.46,0.07,-0.06,-0.04,1721198939837
5.46,2.01,9.40,-0.00,0.26,0.04,1721198939847
4.98,4.81,9.49,0.03,0.08,-0.17,1721198939857
5.39,1.57,9.93,-0.05,0.26,-0.49,1721198939867
2.03,1.55,11.58,-0.02,0.09,-0.49,1721198939877
-0.58,2.48,10.54,-0.03,0.30,-0.40,1721198939887
-0.69,2.68,10.42,-0.01,0.27,-0.27,1721198939897
0.04,-0.19,10.20,-0.05,0.22,-0.26,1721198939907
-1.85,2.60,11.68,0.10,0.25,-0.32,1721198939917
-2.42,2.30,8.46,-0.02,0.26,-0.25,1721198939927
-1.68,2.88,11.64,0.07,0.26,0.01,1721198939937
1.02,1.59,9.02,-0.01,0.39,0.02,1721198939947
0.85,5.45,10.96,0.15,0.15,-0.09,1721198939957
0.27,3.16,7.86,-0.02,0.33,-0.19,1721198939967
-1.36,3.66,12.39,0.11,0.17,-0.15,1721198939977
-2.30,2.38,9.76,0.06,0.20,-0.11,1721198939987
-4.62,3.85,10.24,0.12,0.14,-0.03,1721198939997
-4.68,3.89,6.30,0.08,0.21,0.03,1721198940007
-3.55,1.39,12.67,-0.05,0.20,0.08,1721198940017
-4.21,1.93,9.22,0.18,-0.14,0.17,1721198940027
-3.97,2.37,8.59,0.05,0.16,0.24,1721198940037
-1.45,1.80,9.89,0.08,0.07,0.36,1721198940047
0.51,1.50,10.96,-0.05,0.06,0.41,1721198940057
0.26,4.03,13.26,0.14,-0.04,0.26,1721198940067
1.13,2.12,8.10,-0.01,0.03,0.29,1721198940077
0.15,3.06,11.20,-0.00,-0.05,0.28,1721198940087
0.61,1.75,9.16,-0.04,0.07,0.24,1721198940097
-1.28,2.24,11.24,-0.02,-0.05,0.30,1721198940107
-1.68,0.38,9.56,-0.05,-0.01,0.34,1721198940117
-1.59,-0.37,10.19,-0.07,-0.06,0.51,1721198940132
-0.67,0.98,11.61,-0.04,-0.00,0.56,1721198940136
-0.11,0.96,9.08,-0.06,-0.14,0.64,1721198940146
-0.52,1.14,8.74,-0.08,-0.15,0.63,1721198940156
1.09,0.76,8.76,-0.11,0.05,0.55,1721198940166
1.79,-1.15,11.55,-0.10,-0.06,0.55,1721198940176
-0.28,0.62,10.93,-0.01,-0.15,0.54,1721198940186
0.08,1.42,7.58,-0.04,-0.04,0.54,1721198940196
1.76,-0.45,10.24,-0.12,-0.05,0.57,1721198940206
0.44,-0.58,10.80,-0.02,-0.17,0.44,1721198940216
-2.23,0.03,11.50,-0.01,-0.12,0.39,1721198940226
-1.92,-0.16,9.61,0.02,-0.13,0.67,1721198940236
0.63,-0.31,8.69,-0.06,-0.07,0.81,1721198940246
1.76,1.49,10.95,-0.03,-0.06,0.66,1721198940256
2.11,1.65,10.95,0.02,-0.13,0.49,1721198940266
2.25,0.45,11.75,0.01,-0.09,0.55,1721198940276
0.88,1.75,9.54,-0.01,-0.11,0.60,1721198940286
1.65,0.70,10.28,-0.08,-0.08,0.59,1721198940296
2.27,1.09,14.11,0.02,-0.04,0.60,1721198940306
0.92,-1.53,7.44,-0.03,-0.11,0.63,1721198940316
-2.62,-0.32,8.85,-0.04,-0.28,0.58,1721198940326
0.22,3.40,12.17,0.00,0.00,0.64,1721198940336
3.66,0.71,13.38,-0.03,0.02,0.69,1721198940346
2.52,2.22,10.06,0.02,-0.23,0.63,1721198940356
4.25,1.16,6.81,-0.15,0.01,0.63,1721198940366
5.09,3.01,12.52,-0.03,0.01,0.49,1721198940376
3.57,1.17,8.23,-0.08,0.00,0.20,1721198940386
-0.97,0.69,10.43,-0.07,-0.11,0.18,1721198940396
-2.32,0.03,8.53,-0.09,0.03,0.43,1721198940406
-1.63,-0.45,11.77,-0.14,0.08,0.60,1721198940416
0.20,-0.06,9.61,-0.11,-0.07,0.61,1721198940426
2.35,-0.64,9.63,-0.20,0.05,0.47,1721198940436
2.34,2.33,10.45,-0.10,-0.07,0.38,1721198940446
2.72,2.60,10.24,-0.19,0.08,0.30,1721198940456
2.16,3.45,12.06,-0.16,0.00,0.28,1721198940466
2.39,3.40,9.74,-0.17,0.00,0.25,1721198940476
2.18,4.91,11.38,-0.16,0.09,0.18,1721198940486
1.15,4.29,10.50,-0.15,0.10,0.08,1721198940496
-1.96,6.85,11.35,-0.15,0.08,0.11,1721198940506
0.16,-0.97,3.88,-0.10,0.07,0.33,1721198940516
-2.31,-19.61,4.78,-0.04,-0.05,-0.13,1721198940526
-8.10,-3.81,10.39,-0.27,0.23,0.72,1721198940536
6.20,-5.50,28.90,-0.49,0.29,1.50,1721198940546
12.57,5.08,16.58,-0.03,0.14,0.42,1721198940556
20.99,8.88,-5.01,-0.09,-0.31,-1.59,1721198940566
-1.15,3.58,10.79,-0.47,-0.35,-2.47,1721198940576
-23.90,-5.29,16.91,-0.11,-0.24,-1.24,1721198940586
-22.57,-6.79,3.51,0.02,0.26,1.05,1721198940596
7.00,-2.78,0.78,-0.19,0.90,1.81,1721198940606
15.64,4.38,20.45,-0.13,0.26,0.88,1721198940616
13.59,0.00,9.30,-0.08,-0.41,-0.40,1721198940626
5.48,1.50,4.07,-0.05,0.21,-1.29,1721198940636
-3.89,-2.26,13.27,-0.08,-0.07,-0.99,1721198940646
-9.85,-5.54,12.07,-0.07,0.02,-0.06,1721198940656
-5.48,-1.19,10.98,0.05,0.07,0.49,1721198940666
4.11,3.50,12.41,-0.01,0.26,0.33,1721198940676
5.80,1.96,9.24,0.08,0.01,-0.36,1721198940686
2.86,1.89,9.94,0.07,0.10,-0.83,1721198940696
-2.70,-6.94,7.14,0.06,0.03,-0.79,1721198940706
-6.84,2.40,14.37,0.27,0.37,-0.45,1721198940716
-2.46,4.78,11.09,0.23,0.31,0.03,1721198940726
0.67,2.87,10.71,0.24,0.17,0.05,1721198940736
5.89,0.54,6.60,0.31,0.12,-0.38,1721198940746
3.46,-1.97,10.33,0.08,0.12,-0.83,1721198940756
-2.77,-0.07,12.70,0.22,0.03,-0.89,1721198940766
-6.48,-4.87,7.41,0.13,0.13,-0.50,1721198940776
-6.42,-2.23,9.47,0.15,0.17,-0.04,1721198940786
-0.47,-1.44,9.18,0.06,0.27,0.07,1721198940796
2.38,-0.06,11.51,0.07,0.11,-0.31,1721198940806
0.60,0.07,11.70,0.06,0.08,-0.67,1721198940816
-4.84,-2.80,8.43,0.06,-0.06,-0.56,1721198940826
-4.77,-3.25,9.00,-0.02,0.14,-0.05,1721198940836
0.25,-1.59,11.37,0.08,0.12,0.12,1721198940846
3.76,0.64,10.10,0.07,0.10,-0.27,1721198940856
1.32,1.79,10.02,0.01,0.00,-0.68,1721198940866
-4.65,-3.28,6.52,-0.03,-0.12,-0.63,1721198940876
-6.38,1.19,16.12,0.08,0.21,-0.29,1721198940886
-0.22,-0.94,5.23,0.03,-0.06,0.10,1721198940896
-0.59,1.07,8.36,-0.03,0.09,-0.05,1721198940906
3.60,1.16,12.19,0.02,0.06,-0.38,1721198940916
-0.77,-0.03,10.63,0.04,-0.16,-0.49,1721198940926
-3.55,0.76,10.59,0.11,0.00,-0.34,1721198940936
-4.15,1.07,9.41,0.06,-0.02,-0.20,1721198940946
-4.90,1.50,9.12,0.11,-0.12,-0.14,1721198940956
-3.58,-0.52,9.46,0.03,-0.06,-0.02,1721198940966
-2.53,-0.57,9.70,0.11,-0.18,0.01,1721198940976
-0.19,0.08,8.52,0.06,-0.09,0.05,1721198940986
1.22,1.82,12.58,0.05,-0.12,0.03,1721198940996
0.45,1.55,9.43,0.10,-0.23,-0.13,1721198941006
-0.91,1.03,9.61,-0.00,-0.20,-0.11,1721198941016
-1.92,0.17,10.02,-0.00,-0.25,0.04,1721198941026
-1.64,-0.45,10.92,-0.02,-0.24,0.12,1721198941036
-0.69,0.66,10.74,0.04,-0.26,0.08,1721198941046
-0.85,-0.18,9.14,-0.04,-0.27,0.08,1721198941056
-2.33,1.20,9.73,-0.02,-0.33,0.17,1721198941066
0.11,0.02,10.95,-0.09,-0.16,0.23,1721198941076
1.61,2.24,13.71,0.00,-0.22,0.29,1721198941086
2.64,2.56,8.35,0.00,-0.24,0.15,1721198941096
2.39,1.25,9.98,-0.08,-0.24,0.11,1721198941106
2.23,0.24,9.45,-0.05,-0.24,0.13,1721198941116
2.76,2.13,10.59,-0.02,-0.11,0.04,1721198941126
3.82,0.24,9.32,-0.04,-0.16,-0.05,1721198941136
1.70,-0.84,8.38,-0.06,-0.14,-0.22,1721198941146
-0.58,-0.79,10.37,-0.01,-0.12,-0.24,1721198941156
-2.09,0.04,10.21,0.03,-0.19,-0.11,1721198941166
-0.68,-1.07,11.17,0.02,-0.08,-0.04,1721198941176
-0.87,0.63,10.37,0.02,-0.17,-0.08,1721198941186
-1.96,0.55,7.77,-0.03,-0.22,-0.26,1721198941196
-1.63,0.28,11.86,-0.08,-0.08,-0.29,1721198941206
-2.56,-1.87,10.28,-0.05,-0.23,-0.15,1721198941216
-3.15,-1.54,8.01,-0.00,-0.26,-0.00,1721198941226
1.29,-0.93,9.83,-0.07,-0.08,0.11,1721198941236
2.69,-0.46,11.02,-0.07,-0.24,-0.11,1721198941246
1.36,-1.28,9.68,-0.04,-0.30,-0.27,1721198941256
0.59,-2.35,10.00,-0.14,-0.16,-0.31,1721198941266
-1.55,0.11,12.33,-0.08,-0.18,-0.18,1721198941276
-2.38,-0.57,7.07,-0.08,-0.26,-0.12,1721198941286
-0.04,0.33,11.20,-0.05,-0.18,-0.13,1721198941296
1.30,1.46,12.66,-0.07,-0.09,-0.27,1721198941306
-0.64,-1.12,10.68,-0.01,-0.31,-0.26,1721198941316
-0.52,-0.73,7.85,0.02,-0.15,-0.20,1721198941326
1.05,1.12,11.26,0.01,-0.10,-0.32,1721198941336
0.30,-2.54,9.85,0.06,-0.32,-0.40,1721198941346
0.49,-0.91,10.48,0.07,-0.03,-0.37,1721198941356
1.06,2.03,11.04,0.10,-0.13,-0.45,1721198941366
1.70,-1.10,9.68,0.11,-0.19,-0.33,1721198941376
1.07,-2.32,10.83,0.10,-0.11,-0.23,1721198941386
1.89,-0.28,14.09,0.14,-0.05,-0.29,1721198941396
1.72,1.47,7.91,0.14,-0.08,-0.41,1721198941406
-0.46,-2.89,6.59,-0.01,-0.20,-0.57,1721198941416
-2.76,-2.23,10.98,0.03,-0.14,-0.66,1721198941426
1.52,-4.07,12.16,0.07,-0.05,-0.61,1721198941436
1.15,-0.69,10.15,0.20,-0.15,-0.51,1721198941446
0.62,-4.02,7.83,0.04,-0.08,-0.48,1721198941456
-1.11,-2.05,10.86,0.03,-0.06,-0.60,1721198941466
-0.15,1.43,13.57,0.06,0.04,-0.76,1721198941476
0.99,-1.96,9.41,0.05,-0.12,-0.61,1721198941486
0.10,-1.85,6.96,0.03,0.04,-0.71,1721198941496
0.45,-2.42,11.83,-0.06,0.12,-0.84,1721198941506
-1.47,-0.19,13.14,0.10,-0.07,-0.76,1721198941516
-0.37,-0.30,5.64,0.04,-0.01,-0.83,1721198941526
-0.09,-2.59,8.66,-0.08,-0.08,-0.75,1721198941536
-0.97,-1.58,14.64,-0.09,0.17,-0.87,1721198941546
-3.09,1.37,11.01,0.10,-0.10,-0.99,1721198941556
-1.77,-1.17,6.73,-0.04,0.01,-0.88,1721198941566
-1.12,-1.91,11.82,-0.07,0.03,-0.78,1721198941576
-1.70,-1.57,11.45,-0.01,-0.01,-0.86,1721198941586
-0.49,1.97,11.54,-0.01,0.13,-0.86,1721198941596
0.57,0.88,10.99,-0.04,0.09,-0.75,1721198941606
-0.00,1.16,11.43,-0.04,0.06,-0.85,1721198941616
0.45,0.50,10.15,0.06,-0.01,-0.84,1721198941626
-1.03,-0.24,9.12,0.09,-0.02,-0.84,1721198941636
-2.61,0.28,9.72,0.02,0.11,-0.86,1721198941646
-0.86,-0.85,11.75,0.11,0.04,-0.80,1721198941656
0.40,-1.14,8.36,0.09,0.13,-0.74,1721198941666
-0.60,0.76,11.81,0.05,0.18,-0.78,1721198941676
-1.52,1.95,10.31,0.11,0.11,-0.74,1721198941686
-0.21,-0.17,10.68,-0.01,0.19,-0.64,1721198941696
-0.21,1.01,11.66,0.13,0.02,-0.65,1721198941706
1.01,-2.62,6.74,0.03,0.11,-0.62,1721198941716
-0.88,0.62,11.10,0.06,0.15,-0.78,1721198941726
-1.50,0.55,9.25,0.02,0.24,-0.83,1721198941736
-2.09,2.07,12.33,0.06,0.28,-0.54,1721198941746
0.99,0.64,7.78,-0.02,0.26,-0.41,1721198941756
1.98,1.46,11.66,-0.03,0.18,-0.58,1721198941766
1.36,1.40,9.19,0.06,0.16,-0.74,1721198941776
0.53,-0.97,7.82,-0.09,0.25,-0.70,1721198941786
0.10,1.63,12.91,0.02,0.30,-0.68,1721198941796
2.77,0.74,10.12,-0.04,0.41,-0.76,1721198941806
1.50,1.37,12.22,-0.08,0.31,-0.81,1721198941816
0.08,0.56,10.15,-0.03,0.32,-0.85,1721198941826
-0.49,1.23,7.19,-0.07,0.30,-0.86,1721198941836
-0.98,-2.01,10.70,-0.16,0.29,-0.77,1721198941846
-2.38,-1.08,9.99,-0.01,0.29,-0.73,1721198941856
-1.38,-0.58,9.16,-0.09,0.43,-0.84,1721198941866
-1.23,0.91,10.48,-0.06,0.38,-0.79,1721198941876
-0.75,-2.04,8.47,-0.15,0.41,-0.74,1721198941886
-0.46,1.11,12.88,-0.10,0.40,-0.84,1721198941896
-0.00,-0.94,8.15,-0.07,0.30,-0.83,1721198941906
-1.64,-1.88,11.27,-0.14,0.34,-0.79,1721198941916
-2.05,-2.47,9.52,-0.03,0.31,-0.75,1721198941926
-1.54,-2.48,6.88,-0.14,0.41,-0.75,1721198941936
-2.21,-1.46,8.69,-0.11,0.40,-0.83,1721198941946
-1.63,-1.52,11.98,-0.17,0.50,-0.88,1721198941956
-2.93,-1.06,9.92,-0.07,0.31,-0.74,1721198941966
-3.61,-0.77,10.28,-0.14,0.42,-0.68,1721198941976
-2.93,0.48,11.84,-0.06,0.40,-0.55,1721198941986
-3.55,-0.54,10.82,-0.06,0.35,-0.53,1721198941996
-1.84,1.53,8.90,-0.06,0.28,-0.47,1721198942006
-2.78,-2.48,8.65,-0.22,0.32,-0.56,1721198942016
-3.51,1.09,12.24,-0.04,0.29,-0.49,1721198942026
-2.15,-3.04,7.44,-0.13,0.35,-0.36,1721198942036
-1.58,1.04,13.63,-0.04,0.34,-0.33,1721198942046
-1.11,0.29,8.56,0.03,0.26,-0.26,1721198942056
-0.56,0.87,12.81,-0.12,0.38,-0.21,1721198942066
-1.53,-0.12,10.03,0.07,0.18,-0.22,1721198942076
-2.64,3.61,11.15,0.08,0.36,-0.23,1721198942086
-1.95,2.68,9.42,0.18,0.18,-0.07,1721198942096
-2.57,-1.12,6.55,0.11,0.27,-0.02,1721198942106
-1.35,1.13,12.45,0.16,0.30,-0.06,1721198942116
0.03,-4.21,6.99,0.08,0.16,-0.06,1721198942126
-1.29,-4.07,5.63,0.16,0.04,-0.09,1721198942141
-0.61,-1.22,9.95,0.10,0.17,-0.05,1721198942145
-2.61,-0.32,9.87,0.13,0.17,0.05,1721198942155
-0.35,-0.62,7.79,0.11,0.30,0.08,1721198942165
-0.33,1.83,11.28,0.07,0.18,-0.02,1721198942175
-1.22,-3.78,6.38,0.13,0.11,-0.07,1721198942185
-0.54,-3.18,11.49,-0.01,0.33,-0.01,1721198942195
-1.58,-0.18,11.51,0.19,0.13,0.11,1721198942205
-1.85,-2.45,6.43,0.05,0.19,0.12,1721198942215
-0.90,3.28,16.51,0.09,0.28,0.10,1721198942225
-0.95,-0.96,6.53,0.18,-0.01,0.14,1721198942234
-0.78,-0.72,11.42,-0.07,0.34,0.06,1721198942244
-1.44,-0.03,12.16,0.08,0.04,0.06,1721198942254
-2.04,-1.43,6.88,-0.05,0.14,0.15,1721198942264
-0.60,-0.15,12.58,0.09,0.17,0.18,1721198942274
-1.02,2.40,8.52,0.15,0.03,0.17,1721198942284
-1.09,0.07,8.32,0.01,0.09,0.23,1721198942294
-0.05,-0.53,12.14,0.03,0.12,0.29,1721198942304
0.08,-0.01,9.03,0.06,0.04,0.22,1721198942314
0.15,1.20,10.61,0.04,0.09,0.15,1721198942324
0.31,-0.11,10.39,0.06,0.03,0.18,1721198942334
-0.49,0.22,9.57,0.04,0.07,0.19,1721198942344
-0.47,0.65,11.96,0.05,0.09,0.15,1721198942354
-1.47,1.46,10.12,0.08,0.03,0.20,1721198942364
-1.89,0.88,8.26,-0.05,0.03,0.27,1721198942374
-1.24,2.29,12.33,-0.01,0.04,0.28,1721198942384
-0.55,1.57,7.81,-0.02,0.02,0.30,1721198942394
-0.33,1.25,10.23,-0.12,0.03,0.30,1721198942404
0.74,-0.50,8.65,-0.06,-0.05,0.31,1721198942414
0.29,0.53,11.42,-0.11,0.04,0.22,1721198942424
-1.21,0.12,10.87,-0.01,-0.08,0.12,1721198942434
-2.21,0.90,11.30,-0.07,0.01,0.29,1721198942444
-1.41,-0.26,9.88,-0.10,0.00,0.32,1721198942454
-0.55,-0.74,11.06,-0.13,-0.11,0.33,1721198942464
-1.93,-1.54,6.94,-0.12,-0.05,0.32,1721198942474
-2.58,-1.52,9.82,-0.20,0.02,0.37,1721198942484
-1.29,-1.06,9.57,-0.10,-0.07,0.46,1721198942494
1.44,-0.68,10.40,-0.18,-0.06,0.46,1721198942504
2.69,-1.44,11.45,-0.18,-0.13,0.47,1721198942514
0.71,0.02,9.05,-0.16,-0.12,0.33,1721198942524
-1.06,-0.89,8.83,-0.23,-0.13,0.23,1721198942534
-2.50,-1.07,10.15,-0.16,-0.17,0.35,1721198942544
-0.22,0.06,8.02,-0.19,-0.02,0.54,1721198942554
0.86,-2.93,11.03,-0.28,-0.24,0.50,1721198942564
0.73,0.61,14.00,-0.15,-0.03,0.38,1721198942574
1.28,-3.54,9.21,-0.16,-0.30,0.45,1721198942584
-1.57,-0.13,10.82,-0.23,-0.04,0.39,1721198942594
1.03,-0.05,10.08,-0.15,-0.23,0.46,1721198942604
0.92,0.86,9.33,-0.12,-0.18,0.30,1721198942614
4.03,-1.48,11.68,-0.14,-0.04,0.35,1721198942624
0.56,2.02,12.84,-0.04,-0.17,0.27,1721198942634
1.45,-2.09,9.57,-0.07,-0.11,0.41,1721198942644
-0.20,0.29,14.38,0.03,-0.12,0.32,1721198942654
2.92,-0.09,9.19,0.04,-0.12,0.40,1721198942664
1.13,-0.45,12.69,0.04,-0.14,0.23,1721198942674
2.43,1.12,11.13,0.16,-0.11,0.15,1721198942684
-1.48,-2.15,7.62,0.10,-0.30,0.16,1721198942694
0.32,0.48,14.62,0.16,0.09,0.34,1721198942704
0.44,-1.07,6.93,0.24,-0.20,0.33,1721198942714
2.77,0.56,13.43,0.03,0.21,0.22,1721198942724
0.10,2.09,10.41,0.32,-0.32,0.05,1721198942734
1.69,-1.50,7.34,-0.03,0.20,-0.01,1721198942744
0.52,-1.37,14.94,0.11,-0.22,0.17,1721198942754
0.99,-1.77,8.88,0.06,-0.03,0.18,1721198942764
1.20,-1.62,11.67,0.07,-0.12,0.14,1721198942774
0.92,2.09,7.11,0.17,-0.04,0.00,1721198942784
1.24,-0.93,9.56,-0.06,-0.01,0.01,1721198942794
0.26,0.02,9.49,0.14,-0.18,0.09,1721198942804
1.57,-4.00,8.30,-0.09,0.10,0.03,1721198942814
-0.98,1.38,13.33,0.15,-0.14,-0.05,1721198942824
0.21,-0.40,9.79,0.03,0.05,-0.12,1721198942834
-2.07,3.61,12.96,0.20,-0.11,-0.01,1721198942844
-0.40,0.72,8.22,0.06,0.05,-0.00,1721198942854
-0.09,-0.18,10.58,0.04,-0.05,0.02,1721198942864
0.55,0.34,7.17,0.03,-0.01,-0.08,1721198942874
1.47,-0.19,9.67,-0.03,-0.00,-0.05,1721198942884
2.09,0.89,9.23,0.04,0.02,-0.05,1721198942894
2.36,2.14,7.86,-0.04,0.04,-0.17,1721198942904
2.22,1.65,11.48,-0.12,0.12,-0.31,1721198942914
0.06,0.57,11.13,-0.11,-0.04,-0.34,1721198942924
-1.94,-0.57,12.15,-0.18,0.01,-0.25,1721198942934
-1.95,-1.46,12.83,-0.09,-0.01,-0.08,1721198942944
-1.13,0.55,10.02,-0.15,-0.05,-0.07,1721198942954
0.31,1.61,11.77,-0.12,0.04,-0.15,1721198942964
0.06,-0.18,6.75,-0.16,-0.11,-0.22,1721198942974
1.04,0.17,10.61,-0.25,0.22,-0.26,1721198942984
1.04,-3.03,9.09,-0.14,-0.15,-0.17,1721198942994
-0.84,-0.56,10.42,-0.24,0.06,-0.16,1721198943004
2.73,-1.52,11.39,-0.15,0.17,-0.27,1721198943014
0.74,-0.76,13.49,-0.27,0.04,-0.35,1721198943024
-1.18,3.64,13.00,-0.10,0.06,-0.39,1721198943034
-1.51,0.25,6.86,-0.20,0.03,-0.29,1721198943044
-0.95,0.23,9.28,-0.10,0.12,-0.31,1721198943054
-0.66,-3.89,10.99,-0.05,0.15,-0.34,1721198943064
0.01,3.00,12.10,0.02,0.11,-0.29,1721198943074
-2.07,-2.23,7.40,-0.07,0.04,-0.29,1721198943084
-3.26,1.64,14.72,-0.01,0.13,-0.15,1721198943094
-1.78,-2.82,8.03,-0.02,0.04,-0.18,1721198943104
-1.05,-1.84,12.28,-0.00,0.12,-0.26,1721198943114
-0.02,-0.56,9.57,0.10,0.02,-0.25,1721198943124
-1.36,-2.01,10.16,0.07,0.08,-0.10,1721198943134
-2.09,2.82,14.37,0.14,0.12,-0.06,1721198943144
-2.27,0.69,8.86,0.12,-0.00,-0.19,1721198943154
-2.29,1.81,13.72,0.15,0.10,-0.16,1721198943164
-1.37,-3.11,7.69,0.03,-0.04,-0.14,1721198943174
-1.69,-1.78,10.01,0.08,0.09,-0.12,1721198943184
0.78,-2.97,6.93,0.13,0.02,-0.10,1721198943194
0.46,-1.98,12.05,0.13,0.04,-0.20,1721198943204
0.06,2.95,12.15,0.23,0.02,-0.25,1721198943214
-1.21,-0.90,8.31,0.12,-0.03,-0.16,1721198943224
-1.37,-0.29,13.04,0.11,0.09,-0.04,1721198943234
-0.97,-1.60,9.28,0.07,-0.02,-0.12,1721198943244
-2.14,-0.97,10.07,0.07,-0.02,-0.25,1721198943254
-1.12,3.34,11.65,0.24,0.08,-0.23,1721198943264
-1.62,-1.05,6.83,0.12,-0.15,-0.06,1721198943274
-0.53,0.21,10.90,0.02,0.16,0.02,1721198943284
-0.56,0.01,10.69,0.14,-0.13,-0.04,1721198943294
-0.85,2.36,8.85,0.16,0.02,-0.16,1721198943304
-0.09,1.25,11.16,0.18,-0.07,-0.09,1721198943314
-1.83,1.29,8.57,0.27,-0.14,-0.00,1721198943324
-0.66,0.39,10.06,0.09,0.04,-0.01,1721198943334
-0.13,2.01,12.84,0.14,-0.16,0.03,1721198943344
0.36,1.67,8.63,0.06,0.02,0.02,1721198943354
0.37,1.49,10.46,-0.02,-0.00,-0.06,1721198943364
-0.54,2.81,10.59,0.01,-0.10,-0.09,1721198943374
-1.49,-0.45,7.73,-0.06,-0.15,0.06,1721198943384
-1.64,0.78,11.51,-0.05,-0.03,0.05,1721198943394
-0.35,-0.08,9.40,0.01,-0.10,0.09,1721198943404
-0.16,0.49,8.00,0.01,-0.15,0.18,1721198943414
0.03,0.38,10.22,-0.13,-0.04,0.04,1721198943424
-1.34,-0.39,9.91,-0.07,-0.21,-0.02,1721198943434
-1.88,0.62,11.30,-0.16,-0.03,-0.03,1721198943444
-1.79,-0.46,8.75,-0.11,-0.20,0.06,1721198943454
0.24,-3.95,7.29,-0.22,-0.08,0.28,1721198943464
1.49,-2.48,8.66,-0.24,-0.08,0.16,1721198943474
-0.31,-2.63,9.86,-0.29,-0.16,-0.13,1721198943484
-1.63,-3.94,13.63,-0.24,-0.17,-0.19,1721198943494
-0.34,-3.88,12.90,-0.18,-0.08,0.03,1721198943504
-1.46,2.12,8.98,-0.11,-0.12,0.10,1721198943514
0.48,5.87,13.86,-0.25,0.15,-0.04,1721198943524
-1.89,-3.13,8.61,-0.27,-0.44,-0.17,1721198943534
-1.81,-8.76,9.68,-0.29,-0.11,-0.03,1721198943544
0.20,-8.90,8.68,-0.09,-0.23,0.34,1721198943554
-1.06,3.47,12.43,0.02,-0.09,0.24,1721198943564
3.38,5.15,16.02,-0.01,-0.02,0.01,1721198943574
2.14,0.34,10.03,0.01,-0.32,-0.14,1721198943584
1.55,-2.96,11.82,-0.08,0.08,-0.24,1721198943594
-0.87,-0.75,16.30,0.10,-0.18,-0.11,1721198943604
-2.09,-2.96,11.29,0.10,-0.22,0.05,1721198943614
0.15,1.36,12.69,0.16,-0.07,0.06,1721198943624
2.47,-3.85,6.44,0.17,-0.27,0.04,1721198943634
0.88,3.05,14.22,0.17,0.09,-0.17,1721198943644
1.51,-0.44,10.92,0.23,-0.15,-0.16,1721198943654
-0.85,1.02,10.82,0.23,0.02,-0.03,1721198943664
1.34,3.22,9.05,0.31,0.02,-0.01,1721198943674
3.16,-0.57,10.39,0.22,-0.01,-0.03,1721198943684
3.96,0.86,10.73,0.20,0.04,-0.13,1721198943694
2.22,-2.15,13.99,0.04,0.08,-0.24,1721198943704
-1.73,5.28,14.29,0.45,-0.11,-0.21,1721198943714
2.13,-3.60,5.04,0.05,0.23,-0.19,1721198943724
-1.05,2.51,13.36,0.36,-0.05,-0.21,1721198943734
1.67,-0.31,5.60,0.26,0.14,-0.32,1721198943744
-1.45,0.28,8.56,0.25,-0.05,-0.24,1721198943754
-0.77,1.04,5.75,0.18,0.19,-0.21,1721198943764
-0.10,0.87,13.47,0.13,0.09,-0.27,1721198943774
0.05,-1.82,13.85,0.17,0.12,-0.31,1721198943784
-0.21,5.30,12.74,0.38,0.19,-0.35,1721198943794
2.40,2.27,3.64,0.12,0.15,-0.23,1721198943804
0.40,5.76,10.13,0.06,0.22,-0.41,1721198943814
1.84,-2.60,3.22,-0.03,0.16,-0.58,1721198943824
-2.67,-0.62,12.45,-0.12,0.18,-0.56,1721198943834
-2.89,-1.63,7.90,0.09,0.14,-0.33,1721198943844
-1.44,0.17,10.12,-0.13,0.36,-0.27,1721198943854
0.45,2.03,13.50,0.01,0.10,-0.33,1721198943864
2.13,1.64,9.48,-0.01,0.25,-0.42,1721198943874
1.33,-1.16,7.57,-0.16,0.12,-0.48,1721198943884
-2.38,0.39,9.84,-0.12,0.15,-0.54,1721198943894
-0.42,-1.01,11.63,-0.19,0.30,-0.48,1721198943904
-0.54,-3.19,9.68,-0.09,0.02,-0.30,1721198943914
-0.61,-1.70,8.39,-0.25,0.34,-0.44,1721198943924
-1.12,0.37,12.06,-0.11,0.22,-0.44,1721198943934
-1.02,-4.08,9.18,-0.24,0.20,-0.46,1721198943944
-0.05,-0.69,13.75,-0.16,0.37,-0.43,1721198943954
-1.94,0.76,8.91,-0.15,0.28,-0.47,1721198943964
-3.56,-0.31,8.83,-0.16,0.14,-0.50,1721198943974
-1.44,-1.77,14.16,-0.20,0.33,-0.38,1721198943984
-0.12,-2.13,9.85,-0.01,0.11,-0.13,1721198943994
-1.04,3.03,10.14,-0.10,0.35,-0.36,1721198944004
-1.80,2.93,10.25,-0.04,0.11,-0.38,1721198944014
-1.34,-1.10,11.25,-0.03,0.28,-0.30,1721198944024
-1.40,-2.03,8.16,0.08,0.21,-0.18,1721198944034
-2.86,-0.14,9.51,-0.06,0.31,-0.27,1721198944044
-2.89,0.79,9.12,0.19,0.07,-0.28,1721198944054
-1.02,-1.84,10.55,0.07,0.33,-0.11,1721198944064
-1.85,-0.85,14.93,0.16,0.08,0.04,1721198944074
-1.72,-1.05,10.18,0.18,0.21,-0.11,1721198944084
0.39,-0.37,10.58,0.05,0.17,-0.16,1721198944094
-0.93,-1.09,10.47,0.18,0.13,-0.09,1721198944104
-3.19,-0.49,5.75,0.08,0.16,-0.16,1721198944114
-1.58,1.20,13.32,0.11,0.20,-0.11,1721198944124
0.54,-2.96,6.87,0.09,0.07,0.05,1721198944134
-1.36,2.25,12.53,0.22,0.04,-0.23,1721198944149
-2.21,-0.40,7.35,0.18,-0.14,-0.20,1721198944153
-3.50,2.81,12.82,0.00,0.36,-0.18,1721198944163
-1.88,-0.30,8.99,0.17,-0.09,0.06,1721198944173
-1.27,-0.08,8.23,0.07,0.11,0.18,1721198944183
1.93,3.18,12.67,0.25,0.15,-0.02,1721198944193
0.07,0.75,5.40,0.10,-0.07,-0.13,1721198944203
-0.33,2.51,13.77,0.06,0.23,-0.12,1721198944213
-0.68,3.08,9.40,0.13,0.05,-0.08,1721198944223
-1.79,1.96,8.19,-0.10,0.02,-0.03,1721198944233
-0.57,1.91,10.46,-0.01,0.05,-0.01,1721198944243
-1.02,-0.22,9.58,-0.11,0.13,-0.07,1721198944253
-2.93,1.50,9.00,0.05,-0.11,-0.03,1721198944263
-1.73,-0.80,9.48,-0.12,0.15,0.10,1721198944273
-1.95,3.18,11.51,0.06,-0.04,0.19,1721198944283
-0.87,2.77,7.45,-0.11,0.09,0.07,1721198944293
-1.09,1.68,11.16,-0.07,-0.10,0.06,1721198944303
-1.57,-2.73,9.78,-0.18,0.03,0.21,1721198944313
-3.54,-1.83,11.53,-0.05,-0.16,0.22,1721198944323
-0.68,-1.68,4.65,-0.08,-0.06,0.35,1721198944333
1.02,-0.49,10.01,-0.23,0.09,0.20,1721198944343
0.64,-3.26,12.16,-0.13,-0.12,0.08,1721198944353
-1.03,-1.04,10.35,-0.11,-0.08,0.12,1721198944363
-2.57,0.59,10.50,-0.12,0.03,0.15,1721198944373
-0.13,-2.72,8.55,-0.24,-0.02,0.24,1721198944383
-0.19,-2.51,10.86,-0.18,-0.04,0.28,1721198944393
-0.17,0.22,14.51,-0.11,0.14,0.09,1721198944403
1.35,-2.29,9.73,-0.02,-0.22,0.19,1721198944413
1.83,-0.95,10.72,-0.09,0.12,0.32,1721198944423
1.19,2.02,11.65,0.03,0.04,0.13,1721198944433
1.89,-3.64,7.90,-0.08,-0.13,-0.00,1721198944443
0.48,0.02,11.28,0.03,-0.03,0.03,1721198944453
1.50,-1.29,11.19,0.04,0.03,0.00,1721198944463
-0.63,-3.85,12.28,-0.02,-0.02,0.12,1721198944473
-1.81,2.81,10.50,0.13,0.04,0.14,1721198944483
-0.33,-0.62,8.76,0.02,-0.02,-0.07,1721198944493
0.43,2.37,13.03,0.20,0.06,-0.05,1721198944503
1.30,0.63,7.20,0.19,0.00,-0.03,1721198944513
0.10,0.20,11.52,0.20,0.09,0.03,1721198944523
0.07,-1.72,7.80,0.12,0.14,0.01,1721198944533
-0.33,2.33,12.22,0.21,0.00,0.04,1721198944543
2.93,1.36,10.92,0.25,0.15,0.06,1721198944553
1.37,2.02,8.98,0.20,0.07,-0.08,1721198944563
-0.41,-0.40,11.10,0.12,0.11,-0.19,1721198944573
-2.10,1.41,10.65,0.30,0.04,-0.06,1721198944583
-0.94,1.91,8.94,0.25,0.14,0.13,1721198944593
0.64,1.71,10.34,0.20,0.09,0.14,1721198944603
2.05,1.16,9.97,0.19,0.17,-0.05,1721198944613
0.27,2.46,10.95,0.15,0.06,-0.18,1721198944623
-0.73,3.41,11.28,0.17,0.13,-0.12,1721198944633
-0.40,2.68,10.00,0.16,0.11,-0.04,1721198944643
0.63,-0.68,6.25,0.06,0.13,0.04,1721198944653
0.55,1.21,11.26,-0.00,0.19,-0.17,1721198944663
-1.72,0.00,9.53,0.07,0.02,-0.24,1721198944673
-4.25,2.50,9.31,0.09,0.05,-0.04,1721198944683
-0.51,-0.93,8.24,-0.07,0.17,0.25,1721198944693
-0.18,0.80,10.75,-0.04,0.01,0.13,1721198944703
2.22,-2.62,8.05,-0.14,0.05,-0.06,1721198944713
1.31,1.13,12.96,-0.07,0.10,-0.17,1721198944723
-0.77,-3.37,5.72,-0.15,0.01,-0.05,1721198944733
-2.38,-2.17,9.00,-0.18,-0.02,0.05,1721198944743
0.35,-3.27,10.03,-0.19,0.21,0.02,1721198944753
0.01,3.17,15.32,-0.08,0.11,0.01,1721198944763
2.06,-2.93,4.23,-0.21,-0.10,0.01,1721198944773
-2.70,-1.34,11.54,-0.30,0.14,-0.03,1721198944783
1.38,-3.18,13.11,-0.12,0.26,-0.03,1721198944793
0.38,-0.33,8.13,-0.16,-0.17,0.09,1721198944803
-2.38,-0.27,7.20,-0.18,-0.00,0.07,1721198944813
-0.00,-2.16,14.72,-0.35,0.16,0.07,1721198944823
-0.58,-1.16,12.15,-0.09,-0.04,0.04,1721198944833
-1.19,0.84,11.83,-0.14,0.09,0.01,1721198944843
0.40,1.93,13.49,-0.08,0.03,0.16,1721198944853
-0.06,-1.09,13.05,-0.06,-0.01,0.25,1721198944863
1.68,-0.86,10.85,-0.06,0.08,0.06,1721198944873
0.29,-0.30,12.86,0.04,-0.07,-0.02,1721198944883
-0.46,3.29,10.56,0.11,0.03,0.02,1721198944893
0.30,3.24,11.98,0.14,0.07,0.09,1721198944903
-1.26,-0.22,8.31,0.13,-0.04,0.11,1721198944913
-0.07,5.16,12.47,0.25,0.09,0.02,1721198944923
0.09,1.64,7.75,0.21,-0.07,-0.01,1721198944933
-2.36,3.30,11.12,0.27,-0.06,-0.06,1721198944943
-0.53,0.79,8.52,0.31,0.06,-0.05,1721198944953
-1.89,-0.62,6.64,0.19,-0.07,0.10,1721198944963
-1.57,4.14,11.98,0.29,0.09,0.05,1721198944973
-0.19,2.25,7.57,0.17,-0.05,-0.03,1721198944983
-0.76,1.58,11.55,0.20,0.02,-0.04,1721198944993
0.28,-1.43,9.08,0.13,0.01,0.05,1721198945003
0.76,2.72,9.83,0.23,-0.08,0.06,1721198945013
1.47,2.45,10.08,0.10,0.10,-0.09,1721198945023
0.40,2.77,8.18,0.24,-0.11,-0.11,1721198945033
0.15,-2.04,6.95,-0.02,0.11,-0.13,1721198945043
-2.02,1.31,11.04,0.06,-0.00,-0.15,1721198945053
-1.35,-0.82,8.44,-0.05,0.02,-0.05,1721198945063
-1.70,0.18,10.38,-0.04,-0.09,0.05,1721198945073
-0.35,-1.46,9.33,-0.07,0.01,0.03,1721198945083
-1.20,1.58,9.91,0.01,-0.05,-0.10,1721198945093
-1.97,-0.27,8.79,-0.15,0.03,-0.04,1721198945103
-3.05,1.27,12.84,-0.12,-0.00,0.10,1721198945113
0.31,-2.79,7.86,-0.06,0.02,0.13,1721198945123
1.64,-0.63,12.46,-0.18,0.12,0.01,1721198945133
0.02,0.70,9.16,0.00,-0.16,-0.12,1721198945143
-1.19,-0.91,11.61,-0.22,-0.00,-0.06,1721198945153
-1.73,-0.81,10.91,-0.10,-0.10,0.06,1721198945163
-1.19,-5.27,9.60,-0.29,-0.03,0.01,1721198945173
-0.58,0.12,12.75,-0.15,-0.01,0.01,1721198945183
-0.44,-1.62,7.42,-0.16,-0.02,0.00,1721198945193
-1.57,-1.30,9.92,-0.24,-0.05,0.00,1721198945203
-1.15,-1.05,14.82,-0.10,0.03,-0.07,1721198945213
-0.48,-0.55,7.86,-0.08,-0.10,0.03,1721198945223
-0.68,1.44,12.55,-0.07,0.03,0.04,1721198945233
-0.28,1.31,11.12,-0.10,-0.05,-0.05,1721198945243
-0.40,2.52,11.45,0.03,-0.05,0.04,1721198945253
-0.85,-0.26,8.34,-0.05,0.03,0.08,1721198945263
0.02,-1.82,11.40,-0.12,-0.06,-0.00,1721198945273
-1.45,5.14,12.27,0.12,0.01,-0.02,1721198945283
0.75,2.83,9.16,0.08,-0.02,0.12,1721198945293
0.39,4.01,10.24,0.15,-0.01,0.16,1721198945303
1.69,-0.21,9.50,0.09,-0.03,0.03,1721198945313
0.37,0.76,11.54,0.13,-0.03,-0.06,1721198945323
-0.67,2.15,10.46,0.22,-0.05,-0.03,1721198945333
-1.16,2.05,7.61,0.21,-0.06,0.14,1721198945343
1.34,1.28,10.67,0.20,0.07,0.17,1721198945353
2.60,1.24,7.64,0.21,-0.03,0.13,1721198945363
1.44,1.84,10.30,0.13,-0.02,-0.03,1721198945373
0.79,1.04,11.07,0.16,-0.02,-0.11,1721198945383
-1.23,0.61,10.71,0.14,-0.09,-0.06,1721198945393
-0.73,-1.50,7.37,0.06,-0.01,0.14,1721198945403
0.79,2.25,13.20,0.02,0.05,0.11,1721198945413
2.35,1.59,11.16,0.08,-0.01,-0.09,1721198945423
-0.47,4.44,11.04,0.13,0.01,-0.10,1721198945433
0.71,1.66,5.20,-0.01,0.09,-0.05,1721198945443
-0.28,-1.46,10.85,-0.09,-0.00,-0.02,1721198945453
1.02,-0.47,10.14,0.01,0.10,0.02,1721198945463
2.47,0.04,10.30,-0.06,0.05,-0.10,1721198945473
-0.19,2.81,9.22,0.04,-0.09,-0.35,1721198945483
0.80,-2.96,9.80,-0.08,0.17,-0.28,1721198945493
-1.33,-0.26,10.19,-0.04,0.09,-0.23,1721198945503
-0.36,1.37,11.92,-0.02,0.19,-0.29,1721198945513
-1.04,-0.25,11.08,-0.08,0.11,-0.36,1721198945523
-2.73,-1.69,10.20,0.08,-0.09,-0.18,1721198945533
-1.40,-2.78,10.92,-0.12,0.24,-0.13,1721198945543
-3.51,2.64,11.34,0.11,-0.11,-0.09,1721198945553
0.38,-1.02,8.17,-0.12,0.12,-0.02,1721198945563
-0.44,0.62,9.51,-0.03,-0.07,-0.11,1721198945573
0.86,-3.00,6.92,-0.15,0.07,-0.13,1721198945583
-1.14,-1.03,16.20,-0.12,0.18,-0.13,1721198945593
-1.57,-2.19,7.27,-0.03,-0.16,0.01,1721198945603
-2.19,0.60,14.55,-0.17,0.18,0.06,1721198945613
0.10,0.30,10.32,-0.07,-0.02,0.06,1721198945623
1.00,-1.01,12.25,-0.14,-0.03,0.02,1721198945633
0.55,-3.03,9.09,0.00,-0.05,0.03,1721198945643
-0.68,0.90,9.64,-0.08,0.11,0.00,1721198945653
-0.67,3.51,13.41,0.02,0.01,-0.05,1721198945663
0.37,-2.59,7.07,0.01,-0.11,0.06,1721198945673
-0.94,3.60,13.92,0.02,0.12,0.06,1721198945683
1.21,2.98,12.35,0.05,0.02,-0.08,1721198945693
-2.25,2.37,8.70,0.12,-0.07,-0.05,1721198945703
-2.13,1.16,7.60,0.04,0.03,-0.04,1721198945713
-0.75,-1.79,11.98,-0.00,-0.03,0.04,1721198945723
-1.02,5.88,8.86,0.25,-0.08,0.07,1721198945733
1.16,2.80,8.34,-0.00,0.08,-0.02,1721198945743
-1.44,4.42,12.38,0.13,-0.20,-0.05,1721198945753
0.66,-4.86,6.21,-0.03,-0.05,-0.05,1721198945763
0.28,3.45,16.19,0.13,0.05,0.04,1721198945773
4.66,4.54,6.93,0.16,0.14,-0.11,1721198945783
1.38,-1.76,12.36,-0.07,-0.29,-0.13,1721198945793
-1.14,1.87,8.58,0.38,-0.09,0.16,1721198945803
2.18,-1.45,5.99,-0.12,0.53,-0.14,1721198945813
-3.38,1.64,15.87,0.08,-0.49,-0.52,1721198945823
-8.02,1.79,4.51,0.07,-0.02,-0.52,1721198945833
-6.66,-3.87,10.24,0.03,0.20,0.13,1721198945843
-2.91,-1.21,7.03,0.08,-0.09,0.66,1721198945853
4.26,1.88,11.20,-0.08,0.20,0.44,1721198945863
7.14,4.35,12.33,0.08,-0.15,-0.08,1721198945873
2.59,0.38,11.03,-0.12,-0.02,-0.63,1721198945883
-5.40,-2.07,9.78,0.04,-0.27,-0.36,1721198945893
-6.86,-3.77,12.07,-0.15,0.03,0.11,1721198945903
-2.99,-0.71,10.82,0.09,-0.13,0.55,1721198945913
3.20,1.69,8.78,-0.04,0.08,0.35,1721198945923
5.03,2.97,12.72,-0.00,-0.11,-0.06,1721198945933
0.31,1.11,10.78,-0.03,-0.12,-0.49,1721198945943
-2.83,-3.13,14.07,-0.06,-0.09,-0.25,1721198945953
-4.76,-2.28,7.19,0.04,-0.14,0.08,1721198945963
0.94,1.92,16.28,0.03,0.24,0.20,1721198945973
4.58,-1.60,6.56,0.07,-0.32,0.11,1721198945983
1.70,5.93,8.31,0.11,-0.02,-0.33,1721198945993
1.60,-2.62,7.33,-0.07,-0.03,-0.50,1721198946003
-4.82,-2.39,12.86,-0.02,-0.15,-0.29,1721198946013
-2.12,-0.90,5.80,0.01,0.08,0.06,1721198946023
-0.24,-1.27,10.67,-0.03,-0.12,0.21,1721198946033
1.04,1.47,7.76,0.10,-0.09,-0.02,1721198946043
3.23,0.15,11.90,-0.02,0.16,-0.22,1721198946053
-1.83,0.14,9.64,-0.00,-0.17,-0.21,1721198946063
-1.78,3.80,12.02,0.06,0.13,-0.04,1721198946073
1.94,-3.37,8.11,-0.16,-0.08,0.12,1721198946083
1.17,0.63,15.70,0.01,-0.02,-0.06,1721198946093
2.54,0.25,6.77,0.13,-0.06,-0.27,1721198946103
-0.72,-0.35,10.59,-0.02,0.06,-0.34,1721198946113
-2.39,1.09,12.20,0.17,-0.09,-0.15,1721198946123
-1.98,2.67,5.07,0.08,-0.07,0.07,1721198946133
1.76,5.22,12.55,0.00,0.23,-0.10,1721198946143
1.32,-3.96,12.43,-0.08,0.19,-0.34,1721198946158
-1.74,-2.81,13.29,-0.03,0.10,-0.28,1721198946162
-2.35,-1.30,5.53,0.20,-0.14,-0.16,1721198946172
-1.06,3.34,9.82,0.02,0.21,-0.02,1721198946182
1.66,4.84,9.99,0.16,-0.09,0.01,1721198946192
0.40,1.89,9.18,-0.11,0.07,-0.27,1721198946202
-0.45,-3.94,14.55,-0.04,-0.04,-0.31,1721198946212
-2.30,-0.97,9.76,0.08,-0.09,-0.05,1721198946222
2.11,6.01,10.44,0.18,0.17,0.09,1721198946232
4.90,3.60,6.06,0.07,0.03,-0.14,1721198946242
0.82,-0.58,8.31,-0.09,0.02,-0.48,1721198946252
-1.98,-1.05,13.42,-0.02,0.18,-0.49,1721198946262
-1.99,-1.25,13.99,0.06,0.10,-0.16,1721198946272
-1.58,-1.14,8.87,0.07,-0.04,0.06,1721198946282
1.53,2.66,12.78,0.04,0.23,-0.08,1721198946292
1.80,2.35,6.99,0.16,-0.09,-0.41,1721198946302
-1.90,-0.01,11.21,-0.11,0.21,-0.55,1721198946312
-3.88,2.78,11.59,0.14,0.06,-0.21,1721198946322
-0.73,-2.21,5.58,-0.08,0.21,0.09,1721198946332
0.96,0.28,14.94,-0.10,0.20,-0.10,1721198946342
1.15,1.47,10.83,0.09,-0.04,-0.31,1721198946352
-0.39,1.85,15.01,-0.03,0.24,-0.28,1721198946362
-3.17,0.25,6.41,0.11,-0.07,-0.07,1721198946372
-2.72,0.40,7.98,-0.10,0.26,0.04,1721198946382
0.30,0.27,8.96,-0.03,0.02,0.02,1721198946392
0.27,2.03,10.37,-0.13,0.12,-0.08,1721198946402
0.32,2.30,12.16,-0.03,0.09,-0.19,1721198946412
-0.40,0.42,7.43,-0.07,-0.00,-0.18,1721198946422
-1.09,0.16,11.30,-0.25,0.21,-0.20,1721198946432
-1.37,0.18,15.43,-0.10,0.04,-0.17,1721198946442
-1.53,-1.20,10.28,-0.14,0.06,-0.14,1721198946452
-1.71,0.40,10.31,-0.08,0.06,-0.09,1721198946462
0.62,-0.80,9.39,-0.19,0.17,-0.09,1721198946472
-0.50,3.09,13.81,-0.07,0.10,-0.20,1721198946482
-0.91,3.08,7.72,-0.04,0.00,-0.17,1721198946492
-0.90,-1.81,8.71,-0.24,0.04,-0.02,1721198946502
-0.62,-0.13,11.32,-0.10,-0.03,0.07,1721198946512
2.41,0.30,12.59,-0.13,0.22,-0.11,1721198946522
-0.12,-0.43,6.23,-0.08,-0.21,-0.18,1721198946532
-3.18,0.14,12.07,-0.22,0.14,-0.18,1721198946542
-2.04,2.82,13.30,0.04,-0.01,-0.07,1721198946552
-0.17,2.97,9.17,-0.13,0.12,0.11,1721198946562
1.80,-0.40,11.00,-0.14,0.07,0.09,1721198946572
1.61,-1.65,8.82,-0.18,-0.01,-0.19,1721198946582
0.21,1.62,10.41,-0.01,0.06,-0.18,1721198946592
-0.06,-2.94,4.67,-0.07,0.03,-0.11,1721198946602
-3.12,-0.58,11.57,-0.06,0.01,-0.02,1721198946612
0.10,1.10,13.21,0.01,0.17,0.02,1721198946622
1.45,1.38,14.33,-0.02,0.03,0.01,1721198946632
0.34,2.00,8.93,0.05,0.03,-0.13,1721198946642
-0.93,2.97,10.52,0.05,0.14,-0.18,1721198946652
-0.31,0.36,10.44,0.07,0.07,-0.06,1721198946662
-0.02,1.89,10.07,0.09,0.11,-0.07,1721198946672
0.41,-0.37,7.07,0.01,0.06,-0.17,1721198946682
-2.17,0.34,9.15,0.06,0.02,-0.21,1721198946692
-0.28,-1.60,10.91,0.01,0.17,-0.11,1721198946702
-0.94,-0.07,11.76,0.10,-0.07,0.05,1721198946712
0.48,1.30,11.92,0.09,0.18,-0.07,1721198946722
0.40,2.82,11.18,0.16,0.04,-0.14,1721198946732
-1.14,3.40,10.36,0.11,0.04,-0.15,1721198946742
-1.13,-2.07,11.85,0.03,0.07,-0.11,1721198946752
-1.93,-1.13,12.35,0.17,0.01,-0.04,1721198946762
0.90,-1.55,9.26,0.13,0.12,-0.03,1721198946772
0.44,3.35,12.46,0.19,0.02,-0.10,1721198946782
0.24,4.59,12.44,0.24,0.10,-0.21,1721198946792
-1.13,1.00,9.35,0.21,0.05,-0.21,1721198946802
-1.98,-4.29,6.71,0.11,0.03,-0.10,1721198946812
-1.30,2.44,8.46,0.17,0.04,0.04,1721198946822
1.07,1.53,6.35,0.15,0.12,-0.04,1721198946832
-0.38,-0.79,8.26,0.12,0.01,-0.17,1721198946842
-0.38,-2.55,6.88,0.01,0.07,-0.08,1721198946852
-0.53,0.97,14.98,-0.01,0.17,-0.10,1721198946862
-0.15,-0.58,15.00,0.05,0.06,-0.07,1721198946872
-1.08,-1.51,10.05,0.01,0.05,-0.11,1721198946882
-0.71,0.34,12.57,0.12,0.07,-0.05,1721198946892
-0.73,0.71,10.32,0.02,0.02,-0.00,1721198946902
-2.09,3.85,9.37,0.16,-0.06,-0.03,1721198946912
0.73,-1.49,7.98,-0.09,0.07,0.02,1721198946922
-1.00,-0.77,12.74,0.05,-0.02,-0.03,1721198946932
-1.60,1.04,6.00,0.01,0.09,-0.01,1721198946942
-1.06,1.01,14.21,-0.06,-0.00,-0.08,1721198946952
0.42,3.50,9.27,0.16,-0.05,0.11,1721198946962
1.44,2.09,10.07,-0.04,0.07,-0.05,1721198946972
0.62,1.48,8.41,0.22,-0.11,-0.12,1721198946982
-0.71,-1.67,9.34,-0.11,0.14,-0.09,1721198946992
-2.74,2.91,16.18,0.14,-0.03,-0.08,1721198947002
-0.63,3.83,9.25,0.20,0.09,0.03,1721198947012
0.17,-0.55,5.34,0.05,-0.02,0.04,1721198947022
-0.27,2.87,12.39,0.06,0.02,-0.07,1721198947032
1.21,1.05,12.49,0.07,0.07,-0.00,1721198947042
0.07,0.61,10.01,0.10,-0.04,0.05,1721198947052
0.38,0.60,8.63,0.03,0.08,-0.05,1721198947062
1.40,-0.22,7.46,-0.01,-0.03,-0.10,1721198947072
-0.32,4.14,13.85,0.06,0.08,-0.08,1721198947082
-0.22,-4.25,6.28,-0.05,0.04,0.02,1721198947092
-0.99,2.69,13.86,0.02,0.07,-0.01,1721198947102
0.76,0.21,8.09,-0.04,0.08,0.04,1721198947112
-1.63,2.85,12.33,0.03,-0.15,-0.02,1721198947122
-0.76,-0.53,10.27,-0.03,0.17,-0.05,1721198947132
-0.52,-2.05,11.00,-0.05,0.01,-0.07,1721198947142
-1.46,2.24,7.34,0.03,-0.09,-0.00,1721198947152
-0.53,2.06,10.81,-0.09,0.17,0.02,1721198947162
-0.11,1.43,10.90,0.01,-0.07,0.06,1721198947172
-0.24,-0.04,12.19,-0.07,0.05,-0.05,1721198947182
-1.96,-1.35,8.14,-0.04,-0.09,-0.06,1721198947192
-2.23,1.87,10.32,-0.03,0.00,0.07,1721198947202
0.53,0.86,8.15,-0.09,0.06,0.09,1721198947212
-0.39,-0.04,7.55,-0.07,-0.23,0.09,1721198947222
-0.25,1.64,15.28,-0.07,0.18,-0.14,1721198947232
-0.05,-5.23,11.76,-0.05,-0.10,-0.06,1721198947242
-2.79,1.28,13.03,-0.02,-0.10,0.05,1721198947252
-0.17,5.51,11.18,0.12,0.09,0.05,1721198947262
1.40,1.58,5.90,0.13,-0.18,0.11,1721198947272
2.03,-3.35,9.40,-0.14,0.11,-0.13,1721198947282
-2.24,0.87,11.48,0.11,-0.20,-0.27,1721198947292
-3.41,1.43,9.27,-0.08,0.03,-0.11,1721198947302
-1.16,2.99,11.55,0.14,-0.04,0.13,1721198947312
3.44,-2.56,7.96,-0.18,0.05,0.20,1721198947322
1.16,1.34,15.58,0.03,-0.15,-0.14,1721198947332
-0.17,-1.23,9.08,-0.14,-0.01,-0.34,1721198947342
-3.00,4.33,14.51,0.13,-0.10,-0.08,1721198947352
1.29,0.56,8.85,-0.07,0.14,0.12,1721198947362
1.47,2.21,12.74,0.15,-0.08,0.00,1721198947372
1.74,-1.61,5.46,-0.05,-0.03,-0.17,1721198947382
-2.17,1.10,14.53,-0.01,0.01,-0.18,1721198947392
-1.50,2.57,8.70,0.15,-0.07,0.03,1721198947402
1.77,3.51,9.92,0.10,0.14,0.01,1721198947412
2.35,-0.54,7.25,-0.01,-0.05,-0.13,1721198947422
-0.81,2.38,11.25,0.06,-0.01,-0.35,1721198947432
-0.66,-1.76,9.93,-0.00,0.11,-0.22,1721198947442
-2.77,0.78,7.80,0.06,-0.12,0.08,1721198947452
1.87,1.94,8.49,0.02,0.20,0.07,1721198947462
4.15,-0.86,13.89,-0.09,0.09,-0.26,1721198947472
-2.40,0.55,10.92,0.12,-0.23,-0.40,1721198947482
-3.99,0.70,6.27,-0.05,0.15,-0.24,1721198947492
-2.14,1.66,12.36,0.10,0.08,0.06,1721198947502
1.38,-2.16,5.18,-0.07,0.06,0.13,1721198947512
1.56,-2.15,14.63,-0.06,0.08,-0.14,1721198947522
0.46,2.09,13.61,0.11,-0.01,-0.42,1721198947532
-2.18,5.56,10.41,0.18,-0.02,-0.27,1721198947542
-1.51,-2.01,8.86,0.05,0.02,-0.01,1721198947552
-1.17,4.04,11.31,0.15,0.09,-0.02,1721198947562
1.29,1.92,11.60,0.06,0.08,-0.17,1721198947572
-1.48,-0.32,9.85,0.08,-0.10,-0.26,1721198947582
-2.32,-2.15,8.58,-0.01,0.06,-0.14,1721198947592
-0.38,2.42,13.05,0.08,0.09,-0.01,1721198947602
1.77,1.92,7.17,0.12,-0.03,-0.11,1721198947612
0.59,3.56,9.63,0.11,0.10,-0.26,1721198947622
-0.08,-0.16,8.90,0.02,0.06,-0.32,1721198947632
-3.11,1.21,13.44,0.09,-0.04,-0.18,1721198947642
-2.81,2.74,10.41,0.11,0.02,-0.03,1721198947652
0.17,-1.24,7.65,0.03,-0.01,0.05,1721198947662
1.55,0.79,12.18,0.08,0.09,-0.11,1721198947672
0.74,1.41,7.98,0.06,0.04,-0.23,1721198947682
-1.09,1.37,7.71,-0.00,-0.01,-0.18,1721198947692
0.09,2.03,11.48,0.05,0.14,-0.08,1721198947702
0.15,0.17,7.50,0.02,0.02,-0.17,1721198947712
-1.15,0.50,11.08,0.04,0.06,-0.14,1721198947722
-0.38,-0.35,10.41,-0.07,0.14,-0.09,1721198947732
-0.77,1.51,10.01,0.06,0.00,-0.06,1721198947742
0.93,-0.38,10.57,-0.07,0.22,-0.08,1721198947752
-0.23,-1.04,10.92,0.00,0.02,-0.18,1721198947762
-2.84,2.67,10.92,-0.01,0.03,-0.18,1721198947772
-0.79,-2.75,16.40,-0.17,0.16,-0.04,1721198947782
-0.67,4.49,17.63,0.32,-0.03,0.08,1721198947792
3.77,0.14,-0.04,-0.03,0.09,0.09,1721198947802
0.67,3.26,11.35,-0.04,0.08,-0.29,1721198947812
0.13,-3.63,2.18,-0.10,0.00,-0.36,1721198947822
-4.60,6.20,17.97,0.07,0.18,-0.16,1721198947832
-1.13,-2.32,1.87,-0.03,-0.02,0.03,1721198947842
-2.27,4.98,13.95,-0.01,0.18,-0.03,1721198947852
3.32,-0.42,9.03,0.01,0.13,-0.14,1721198947862
-0.94,0.39,8.19,-0.09,-0.06,-0.14,1721198947872
-0.54,2.01,14.33,0.01,0.27,-0.11,1721198947882
0.62,-0.59,7.50,-0.05,0.05,-0.05,1721198947892
-0.96,-3.98,7.72,-0.15,-0.02,-0.07,1721198947902
-0.66,1.10,12.14,0.04,0.08,-0.08,1721198947912
0.99,1.17,9.48,0.01,0.13,-0.06,1721198947922
-1.96,2.65,9.79,0.06,0.06,0.07,1721198947932
-1.04,0.95,8.86,0.01,0.02,0.06,1721198947942
0.45,1.23,12.83,0.00,0.06,0.05,1721198947952
1.70,4.79,10.13,0.05,0.12,0.05,1721198947962
2.30,-2.76,6.25,-0.20,0.00,-0.03,1721198947972
-1.98,-0.79,11.71,-0.02,-0.06,-0.19,1721198947982
-2.02,-0.25,7.28,0.04,0.10,-0.06,1721198947992
-2.76,2.04,10.30,-0.08,0.13,0.04,1721198948002
-2.72,1.88,17.16,0.01,0.02,0.04,1721198948012
-1.49,5.22,10.92,0.21,-0.10,0.25,1721198948022
4.16,-0.53,10.66,-0.09,0.19,0.24,1721198948032
1.78,0.87,5.87,0.12,-0.24,-0.02,1721198948042
1.53,0.81,10.06,-0.11,0.26,-0.25,1721198948052
-3.19,1.08,10.92,0.07,-0.19,-0.21,1721198948062
-5.11,2.95,14.23,0.05,0.12,-0.03,1721198948072
-1.39,0.13,12.66,0.03,0.04,0.23,1721198948082
-0.42,1.58,13.46,0.04,-0.03,0.22,1721198948092
1.44,1.88,9.04,0.14,0.00,0.06,1721198948102
-0.14,1.39,10.95,-0.00,0.06,-0.19,1721198948644
-1.08,1.32,10.08,0.04,-0.01,-0.14,1721198948648
0.72,-1.95,7.22,-0.08,-0.00,-0.06,1721198948657
-0.66,-0.26,10.94,-0.02,-0.03,-0.18,1721198948667
-0.28,-0.72,7.33,0.01,-0.04,-0.24,1721198948676
-0.96,2.31,11.87,0.04,0.02,-0.22,1721198948686
-0.96,2.62,10.01,0.11,-0.02,-0.16,1721198948695
-1.56,4.33,8.50,0.12,-0.03,-0.05,1721198948705
0.72,0.49,7.69,-0.07,0.05,-0.05,1721198948715
0.95,0.40,13.63,-0.03,-0.03,-0.20,1721198948725
0.56,0.19,13.12,0.06,0.01,-0.23,1721198948735
-1.54,3.17,9.86,0.14,-0.05,-0.25,1721198948745
-1.02,0.34,7.60,0.02,0.05,-0.06,1721198948754
-0.09,-0.04,10.21,0.02,0.03,-0.06,1721198948764
0.45,0.61,9.68,0.02,0.01,-0.20,1721198948773
-0.79,2.73,11.73,-0.01,0.00,-0.27,1721198948783
-1.01,0.59,7.17,0.05,-0.09,-0.16,1721198948793
-0.79,0.60,13.16,-0.06,0.14,-0.11,1721198948803
0.29,-0.27,11.80,0.07,-0.07,-0.11,1721198948813
-0.90,2.19,12.09,0.07,-0.00,-0.16,1721198948823
-0.18,1.23,10.77,0.11,0.02,-0.17,1721198948833
-1.17,1.68,9.80,0.11,-0.08,-0.14,1721198948843
-0.30,0.81,10.74,0.10,0.03,-0.10,1721198948853
0.28,0.50,10.33,0.09,-0.01,-0.11,1721198948863
-0.33,1.71,7.71,0.14,-0.05,-0.10,1721198948873
0.58,3.73,8.62,0.10,0.09,-0.10,1721198948883
1.31,2.34,3.29,0.04,-0.04,-0.08,1721198948893
1.03,1.13,6.88,-0.12,0.05,-0.18,1721198948903
1.27,-0.72,11.37,-0.14,0.07,-0.28,1721198948913
-1.22,-0.06,14.11,-0.05,-0.03,-0.30,1721198948923
-1.46,-1.02,12.21,-0.03,0.02,-0.12,1721198948933
0.28,-1.34,13.73,-0.05,0.06,-0.04,1721198948943
1.95,-2.04,13.14,-0.01,0.05,-0.17,1721198948953
1.09,-0.77,9.22,0.05,0.01,-0.28,1721198948963
0.06,-1.48,6.28,-0.09,0.13,-0.27,1721198948973
-1.02,0.12,9.77,-0.10,0.08,-0.24,1721198948983
-0.95,-0.39,9.13,-0.08,0.04,-0.13,1721198948993
0.50,1.10,16.59,-0.09,0.21,-0.18,1721198949003
0.11,-1.21,10.65,0.01,-0.04,-0.20,1721198949013
-1.62,1.03,11.69,-0.02,0.13,-0.18,1721198949023
-0.35,2.91,7.26,0.04,0.11,-0.14,1721198949033
0.42,1.50,5.71,-0.11,0.07,-0.09,1721198949043
0.32,2.25,12.15,-0.13,0.21,-0.24,1721198949053
-0.06,-1.50,10.83,-0.09,0.05,-0.28,1721198949063
-2.76,2.47,8.24,0.02,0.05,-0.21,1721198949073
0.14,0.27,5.15,-0.11,0.19,-0.02,1721198949083
0.55,3.26,10.39,-0.06,0.09,-0.14,1721198949093
1.53,0.71,6.50,-0.03,0.09,-0.29,1721198949103
-0.07,-1.20,13.24,-0.22,0.21,-0.37,1721198949113
-3.80,-0.72,16.43,0.05,-0.02,-0.36,1721198949123
-4.10,1.29,12.66,0.15,0.14,-0.11,1721198949133
0.30,1.75,12.43,0.06,0.18,0.09,1721198949143
0.60,10.34,16.12,0.28,0.08,-0.04,1721198949153
3.35,2.30,7.49,0.08,0.14,-0.28,1721198949163
-0.88,-1.34,15.78,0.11,0.13,-0.43,1721198949173
-2.35,2.73,6.78,0.35,0.11,-0.25,1721198949183
-2.65,5.95,7.82,0.19,0.17,-0.03,1721198949193
-0.23,2.15,4.66,0.21,0.09,0.05,1721198949203
1.43,2.32,13.83,0.13,0.30,-0.22,1721198949213
0.19,-0.13,6.52,0.18,-0.08,-0.21,1721198949223
-2.97,3.44,10.83,0.10,0.20,-0.19,1721198949233
-0.19,-0.94,9.25,0.08,0.20,-0.13,1721198949243
-1.39,4.04,11.26,0.20,0.08,-0.04,1721198949253
0.55,1.51,9.35,0.02,0.27,-0.12,1721198949263
-1.04,2.67,8.53,0.08,-0.02,-0.18,1721198949273
-0.77,1.45,5.45,-0.06,0.18,-0.14,1721198949283
0.29,-3.65,8.58,-0.19,0.12,-0.08,1721198949293
-1.96,-2.76,10.84,-0.07,-0.03,-0.11,1721198949303
-1.50,2.79,15.03,0.14,0.18,-0.21,1721198949313
-0.83,1.00,4.83,0.01,0.02,-0.10,1721198949323
-1.13,-4.07,3.20,-0.38,0.07,0.07,1721198949333
0.57,-0.58,19.27,0.02,0.25,-0.10,1721198949343
2.20,-1.75,-0.08,-0.01,-0.09,-0.17,1721198949353
-3.48,0.97,9.42,-0.32,0.14,-0.23,1721198949363
-0.31,-4.99,27.40,0.01,0.26,-0.22,1721198949373
-4.18,0.56,12.61,0.32,-0.24,0.05,1721198949383
-0.95,7.58,2.30,0.05,0.20,0.22,1721198949393
5.24,-3.41,5.12,-0.37,0.20,0.05,1721198949403
2.66,-6.87,16.58,-0.08,0.07,-0.37,1721198949413
-3.35,-1.51,7.57,0.09,-0.01,-0.29,1721198949423
-4.63,8.39,13.17,0.16,0.16,0.09,1721198949433
1.79,4.27,6.85,-0.05,0.16,0.28,1721198949443
1.57,2.76,12.34,-0.07,0.02,0.13,1721198949453
2.69,0.29,14.40,-0.00,0.20,-0.18,1721198949463
0.58,1.91,11.08,0.01,-0.03,-0.22,1721198949473
-2.71,5.08,11.04,0.02,0.11,-0.03,1721198949483
-0.34,2.46,10.08,0.05,0.17,0.10,1721198949493
2.10,-1.24,10.44,-0.08,0.07,-0.07,1721198949503
-0.38,2.27,10.19,0.08,0.04,-0.12,1721198949513
-0.60,1.43,12.71,-0.07,0.29,-0.10,1721198949523
-1.44,1.37,6.67,0.08,-0.08,0.09,1721198949533
1.11,5.07,11.79,0.03,0.33,0.03,1721198949543
3.33,0.05,9.84,-0.07,0.10,-0.10,1721198949553
-1.43,3.74,10.89,0.06,0.00,-0.18,1721198949563
0.30,0.52,8.81,-0.02,0.26,-0.13,1721198949573
-0.79,0.06,12.74,0.03,0.06,0.01,1721198949583
0.25,-0.99,2.99,0.03,0.09,0.06,1721198949593
1.75,-3.14,18.18,-0.14,0.29,-0.21,1721198949603
-1.85,-0.25,13.86,0.29,-0.18,-0.24,1721198949613
-4.01,8.00,4.35,0.24,0.17,-0.08,1721198949623
0.46,6.21,-2.74,0.04,0.12,0.23,1721198949633
2.39,-6.04,2.14,-0.57,0.25,0.07,1721198949643
-1.79,-4.41,15.82,-0.29,-0.07,-0.25,1721198949653
-2.06,-3.15,14.60,0.04,0.13,-0.31,1721198949663
-4.30,1.55,10.54,0.09,0.10,-0.01,1721198949673
-1.34,-0.38,14.72,-0.06,0.21,0.16,1721198949683
0.71,0.43,16.62,0.19,0.05,0.10,1721198949693
0.57,5.22,6.87,0.19,0.06,-0.09,1721198949703
0.17,0.64,10.97,-0.07,0.19,-0.10,1721198949713
-2.26,-0.18,9.92,0.16,-0.02,0.02,1721198949723
-1.42,6.89,11.45,0.11,0.17,0.12,1721198949733
2.60,6.11,5.56,0.01,0.06,0.18,1721198949743
3.72,-11.22,6.77,-0.42,0.15,-0.15,1721198949753
-2.34,-0.36,19.89,0.05,0.00,-0.39,1721198949763
-4.92,-2.46,-1.04,-0.14,-0.09,-0.03,1721198949773
-4.97,8.03,17.87,0.04,0.24,0.27,1721198949783
3.33,0.07,3.88,-0.01,-0.01,0.34,1721198949793
0.94,1.68,9.16,-0.17,0.04,0.08,1721198949803
2.86,0.79,11.65,-0.10,0.24,-0.23,1721198949813
-1.20,1.26,12.42,-0.03,-0.01,-0.15,1721198949823
-1.87,0.50,4.12,0.03,0.02,0.13,1721198949833
2.03,0.67,12.05,-0.13,0.30,0.08,1721198949843
1.88,-0.85,16.04,-0.06,-0.00,-0.20,1721198949853
-2.80,1.21,10.55,0.08,-0.08,-0.28,1721198949863
-3.50,1.97,10.84,0.03,0.19,-0.01,1721198949873
-1.98,-0.81,5.64,0.01,0.02,0.28,1721198949883
0.51,-0.27,8.02,-0.03,0.14,0.17,1721198949893
3.43,3.05,11.45,-0.02,0.19,-0.07,1721198949903
0.18,1.38,11.28,-0.02,-0.07,-0.20,1721198949913
-2.41,2.28,12.86,0.07,0.10,-0.06,1721198949923
-0.21,0.23,10.48,0.06,0.12,0.10,1721198949933
-0.19,-5.12,9.02,-0.22,0.02,0.15,1721198949943
-0.55,5.68,35.82,0.39,0.28,-0.05,1721198949953
0.24,-0.77,-5.95,0.46,-0.49,-0.01,1721198949963
-6.68,10.14,4.13,0.10,0.24,0.08,1721198949973
3.48,0.06,2.42,0.02,0.08,0.07,1721198949983
0.21,-0.09,12.93,-0.12,0.12,-0.07,1721198949993
0.54,2.91,8.77,0.25,-0.14,-0.08,1721198950003
-1.18,-0.88,11.20,-0.16,0.25,0.04,1721198950013
-2.36,-0.45,9.93,0.14,-0.16,0.17,1721198950023
1.80,-2.68,10.63,-0.11,0.34,0.03,1721198950033
-0.40,1.93,12.53,0.16,-0.15,0.02,1721198950043
-0.67,3.51,9.50,0.00,0.17,-0.02,1721198950053
-1.24,1.87,7.54,0.11,-0.03,0.10,1721198950063
-0.50,-2.99,6.96,-0.23,0.09,0.15,1721198950073
0.26,-1.06,14.16,-0.03,-0.00,0.12,1721198950083
1.53,0.43,8.64,0.05,0.06,-0.01,1721198950093
1.02,0.74,10.54,-0.07,0.05,-0.01,1721198950103
-0.85,-0.61,5.26,-0.00,-0.06,-0.03,1721198950113
-1.53,2.68,13.01,-0.17,0.27,-0.11,1721198950123
-1.79,-2.30,10.76,0.06,-0.19,-0.01,1721198950133
-2.49,0.06,11.48,-0.10,0.18,0.14,1721198950143
0.44,-1.43,9.57,0.09,-0.04,0.26,1721198950153
0.58,2.39,10.89,-0.03,0.06,0.06,1721198950163
2.40,2.33,12.27,0.06,0.03,-0.04,1721198950173
0.07,1.06,7.66,-0.01,-0.07,-0.03,1721198950183
-1.23,3.82,12.61,0.03,0.19,-0.08,1721198950193
-1.06,-2.23,6.27,-0.15,-0.06,0.06,1721198950203
-2.56,2.61,15.18,0.05,0.02,0.12,1721198950213
2.27,1.85,6.16,-0.01,0.09,0.10,1721198950223
0.71,3.31,15.02,0.06,-0.02,0.01,1721198950233
0.58,-0.53,5.52,-0.01,0.06,-0.05,1721198950243
-1.33,1.43,13.91,0.04,0.07,-0.00,1721198950253
-0.43,2.34,8.24,-0.03,0.10,0.11,1721198950263
0.05,0.18,11.34,-0.00,-0.04,0.08,1721198950273
0.30,3.26,8.05,0.08,0.03,-0.02,1721198950283
2.27,0.11,13.23,-0.02,0.11,-0.09,1721198950293
-1.09,2.81,9.47,0.20,-0.08,-0.02,1721198950303
0.24,-1.03,8.69,-0.07,0.22,0.05,1721198950313
-1.25,2.64,13.50,0.19,-0.06,-0.02,1721198950323
0.38,2.02,7.24,0.01,0.13,-0.01,1721198950333
-0.47,1.68,11.10,0.08,-0.02,0.02,1721198950343
-0.48,-0.44,11.12,0.07,0.07,-0.09,1721198950353
-1.13,0.19,9.43,0.12,0.00,-0.06,1721198950363
-1.10,-1.04,6.13,-0.01,0.06,0.11,1721198950373
-0.27,2.20,13.54,0.06,0.18,0.08,1721198950383
0.98,-0.25,5.77,0.06,-0.12,0.05,1721198950393
-0.24,3.39,11.72,0.13,0.10,-0.05,1721198950403
1.48,-2.19,10.94,-0.03,0.13,-0.09,1721198950413
-3.33,4.16,15.57,0.25,-0.12,0.01,1721198950423
-0.56,3.04,5.32,0.12,0.15,0.12,1721198950433
0.61,1.22,13.06,-0.00,0.06,0.12,1721198950443
0.99,-1.93,8.75,0.05,-0.00,-0.08,1721198950453
0.11,-2.18,12.10,-0.01,0.10,-0.15,1721198950463
-2.49,4.60,8.40,0.26,-0.05,-0.03,1721198950473
0.02,0.09,7.82,-0.07,0.24,0.09,1721198950483
-0.90,4.62,9.97,0.18,-0.11,0.15,1721198950493
2.50,-2.03,7.16,-0.21,0.23,-0.07,1721198950503
-1.22,2.41,15.36,0.12,-0.14,-0.12,1721198950513
-0.46,0.87,6.03,-0.04,0.13,0.02,1721198950523
-1.16,0.35,11.29,-0.02,-0.02,0.16,1721198950533
1.05,-0.86,10.53,-0.06,0.09,-0.02,1721198950543
0.43,-0.14,14.74,0.00,0.00,-0.12,1721198950553
-1.69,3.24,10.58,0.14,-0.01,-0.06,1721198950563
-0.84,2.10,8.83,0.00,0.14,0.05,1721198950573
-0.51,-0.81,3.63,0.00,-0.11,0.18,1721198950583
1.19,2.99,8.93,-0.09,0.24,0.01,1721198950593
1.81,-0.55,7.89,-0.13,-0.08,-0.14,1721198950603
-2.51,1.36,11.63,-0.06,-0.10,-0.10,1721198950613
-0.46,1.01,10.52,-0.02,0.20,0.01,1721198950623
-0.75,-1.01,8.34,-0.21,-0.04,0.05,1721198950633
-0.84,-1.26,12.04,-0.05,-0.14,-0.04,1721198950648
1.56,-2.85,13.89,-0.04,0.06,-0.09,1721198950652
-2.68,3.43,13.17,0.15,-0.05,-0.04,1721198950662
-0.22,1.51,6.88,0.03,0.12,0.09,1721198950672
0.42,2.89,6.44,0.05,-0.07,0.09,1721198950682
1.16,-0.14,8.51,-0.18,0.16,-0.02,1721198950692
-0.33,0.66,11.12,0.03,-0.07,-0.04,1721198950702
-0.97,2.93,8.83,-0.09,0.12,-0.05,1721198950712
-0.45,2.98,13.33,0.03,-0.01,0.05,1721198950722
0.86,-1.37,10.67,-0.14,0.09,0.07,1721198950732
-0.75,0.80,13.58,0.05,0.00,-0.02,1721198950742
-0.45,2.83,11.79,0.04,0.11,-0.09,1721198950752
-1.41,3.00,9.20,0.11,-0.08,0.02,1721198950762
-0.42,-0.18,7.65,-0.07,0.05,0.09,1721198950772
0.70,1.74,13.40,-0.02,0.08,-0.03,1721198950782
0.46,0.84,8.67,-0.03,-0.01,-0.09,1721198950792
-1.78,2.65,10.35,0.00,0.04,0.01,1721198950802
-0.47,0.72,5.97,-0.11,0.05,0.09,1721198950812
0.32,-0.46,13.76,-0.14,0.06,0.01,1721198950822
0.33,-0.87,8.09,-0.04,-0.05,-0.07,1721198950832
-0.57,0.75,11.72,-0.12,0.09,-0.09,1721198950842
-0.82,1.14,14.49,0.00,0.04,-0.06,1721198950852
-1.70,1.17,8.97,0.08,-0.05,0.06,1721198950862
-0.98,3.80,9.07,0.01,0.06,0.09,1721198950872
1.77,-2.11,6.10,-0.20,-0.01,0.03,1721198950882
0.08,0.67,14.34,-0.07,0.01,-0.05,1721198950892
-0.60,1.43,8.48,0.05,0.01,-0.08,1721198950902
-2.15,3.89,11.41,-0.01,0.01,0.03,1721198950912
-0.47,-0.87,5.25,-0.12,-0.03,0.14,1721198950922
-0.36,-1.82,12.47,-0.20,0.07,0.05,1721198950932
0.20,2.17,14.99,0.09,0.02,-0.05,1721198950942
-0.23,0.99,7.57,0.02,-0.08,0.07,1721198950952
-0.46,3.35,7.73,0.03,-0.04,0.08,1721198950962
2.23,-0.38,12.96,-0.11,0.13,0.03,1721198950972
-0.64,1.36,14.46,0.09,-0.11,-0.05,1721198950982
-1.54,1.47,9.77,0.04,0.02,-0.03,1721198950992
-1.70,2.34,9.69,0.14,-0.09,0.10,1721198951002
0.55,2.92,6.98,0.09,0.10,0.22,1721198951012
2.50,-0.32,13.67,-0.07,0.11,0.06,1721198951022
-0.27,2.03,9.45,0.15,-0.20,-0.07,1721198951032
-0.52,2.61,12.84,-0.00,0.20,-0.15,1721198951042
-1.91,3.31,10.22,0.23,-0.15,0.07,1721198951052
-0.47,-0.12,6.23,-0.05,0.08,0.19,1721198951062
1.52,1.55,14.52,0.08,0.09,0.06,1721198951072
1.12,-0.96,6.46,-0.04,-0.05,-0.19,1721198951082
-3.50,3.04,12.78,0.16,-0.12,-0.12,1721198951092
-1.02,1.91,5.54,0.02,0.07,0.06,1721198951102
-0.13,1.81,10.99,-0.03,-0.03,0.18,1721198951112
1.27,-1.03,10.42,-0.09,0.07,-0.01,1721198951122
-0.23,-1.49,16.81,0.04,-0.01,-0.11,1721198951132
-1.98,0.30,7.92,0.19,-0.11,-0.02,1721198951142
-0.64,2.87,6.21,0.05,0.08,0.16,1721198951152
1.34,2.60,6.79,0.01,0.02,0.12,1721198951162
1.38,-0.51,9.06,-0.12,-0.03,-0.10,1721198951172
-1.24,-2.17,12.75,-0.02,-0.06,-0.19,1721198951182
-3.20,-1.47,13.30,0.09,-0.01,-0.02,1721198951192
-2.12,2.23,7.29,0.13,-0.05,0.27,1721198951202
2.02,3.31,9.39,-0.02,0.07,0.25,1721198951212
2.23,4.10,10.58,0.04,-0.09,-0.12,1721198951222
0.12,-1.10,9.62,-0.11,-0.03,-0.23,1721198951232
-3.46,-1.69,12.78,-0.01,-0.08,0.05,1721198951242
-2.52,-2.30,8.72,-0.06,-0.00,0.21,1721198951252
0.49,0.61,12.78,0.04,-0.04,0.28,1721198951262
3.46,4.06,9.06,0.09,-0.02,0.03,1721198951272
1.81,0.29,8.74,-0.10,-0.09,-0.22,1721198951282
-2.89,3.11,16.93,0.12,-0.09,-0.24,1721198951292
-2.16,1.72,4.35,0.14,-0.06,0.13,1721198951302
0.05,1.65,12.12,-0.15,0.09,0.24,1721198951312
2.25,0.46,8.30,0.11,-0.18,0.08,1721198951322
1.86,0.56,13.15,-0.11,0.10,-0.23,1721198951332
-2.05,1.48,11.43,0.19,-0.23,-0.15,1721198951342
-2.05,0.13,7.54,-0.06,0.12,0.02,1721198951352
-0.81,3.00,7.25,0.06,-0.08,0.23,1721198951362
2.31,4.33,8.22,-0.07,0.12,0.02,1721198951372
2.07,1.73,13.41,-0.04,-0.06,-0.16,1721198951382
-1.71,-2.99,4.17,-0.09,-0.21,-0.17,1721198951392
-3.06,1.72,13.72,-0.03,0.11,0.00,1721198951402
1.32,-1.71,5.19,-0.08,-0.08,0.13,1721198951412
0.74,-1.13,9.64,-0.17,-0.05,-0.05,1721198951422
0.22,1.47,16.80,0.03,0.10,-0.24,1721198951432
-2.08,-1.58,13.86,0.07,-0.20,-0.19,1721198951442
-4.37,3.02,10.57,0.19,-0.08,0.09,1721198951452
0.88,1.12,7.09,-0.06,0.09,0.25,1721198951462
1.50,2.52,9.65,0.11,-0.18,0.12,1721198951472
3.00,-0.64,8.60,-0.13,0.15,-0.19,1721198951482
-1.36,2.22,11.82,0.08,-0.26,-0.22,1721198951492
-1.75,0.38,10.21,-0.02,0.07,-0.08,1721198951502
-1.78,1.02,12.53,0.04,-0.07,0.13,1721198951512
1.08,-1.62,7.82,0.01,-0.06,0.09,1721198951522
1.10,3.85,13.02,0.04,0.08,-0.08,1721198951532
0.01,0.68,6.12,0.02,-0.19,-0.15,1721198951542
-2.65,3.24,13.59,-0.02,0.00,-0.07,1721198951552
-0.08,0.13,6.33,0.03,-0.09,0.07,1721198951562
0.16,1.54,9.90,-0.06,-0.01,0.03,1721198951572
2.26,0.25,9.30,-0.07,-0.04,-0.06,1721198951582
0.21,0.81,11.09,-0.00,-0.10,-0.17,1721198951592
-1.24,1.88,10.17,-0.06,0.05,-0.17,1721198951602
-1.84,0.86,12.94,-0.03,-0.08,-0.08,1721198951612
-1.01,1.42,7.65,0.05,-0.04,0.07,1721198951622
1.29,-0.92,10.48,-0.18,0.09,-0.02,1721198951632
-0.20,2.29,6.56,0.05,-0.20,-0.06,1721198951642
2.07,0.43,11.77,-0.20,0.28,-0.24,1721198951652
-1.63,-1.32,11.97,0.01,-0.27,-0.13,1721198951662
-3.49,2.02,11.60,-0.06,0.09,-0.11,1721198951672
0.32,-0.16,9.71,-0.06,-0.06,0.07,1721198951682
-0.16,1.59,14.94,-0.07,-0.04,-0.02,1721198951692
1.12,-0.63,6.43,0.05,-0.07,-0.13,1721198951702
0.13,0.40,11.40,-0.12,0.05,-0.18,1721198951712
-1.62,0.89,7.75,0.09,-0.14,-0.09,1721198951722
-1.07,2.91,10.92,-0.10,0.10,-0.05,1721198951732
0.61,3.31,9.46,0.09,-0.14,0.13,1721198951742
2.51,-1.98,8.93,-0.24,0.10,-0.03,1721198951752
-0.49,1.60,14.54,0.09,-0.18,-0.26,1721198951762
-0.62,-0.96,9.78,-0.12,0.09,-0.24,1721198951772
-2.83,2.74,14.04,0.20,-0.20,0.05,1721198951782
1.83,0.75,5.92,-0.04,0.15,0.12,1721198951792
1.62,1.99,11.92,0.02,-0.07,-0.04,1721198951802
0.49,2.56,4.54,-0.01,-0.06,-0.31,1721198951812
-1.69,1.45,14.13,-0.08,-0.00,-0.27,1721198951822
-1.93,1.82,9.66,0.12,-0.09,-0.00,1721198951832
1.42,-0.37,11.28,-0.11,0.15,0.08,1721198951842
1.43,1.32,10.33,0.09,-0.17,-0.08,1721198951852
1.46,0.05,10.29,-0.08,0.11,-0.31,1721198951862
-1.89,1.28,9.94,0.09,-0.14,-0.29,1721198951872
-2.60,0.85,8.20,0.00,0.05,-0.10,1721198951882
-1.05,1.21,10.79,-0.02,0.07,0.06,1721198951892
0.99,-0.87,9.98,-0.01,-0.07,-0.01,1721198951902
1.23,-1.32,11.31,0.01,0.02,-0.21,1721198951912
-1.03,2.00,11.65,0.13,-0.05,-0.23,1721198951922
-1.10,4.20,10.67,0.10,0.09,-0.13,1721198951932
1.40,-0.36,8.08,-0.05,-0.02,-0.01,1721198951942
-1.50,-0.48,10.88,0.06,-0.08,-0.19,1721198951952
0.45,0.85,13.27,0.04,0.23,-0.22,1721198951962
0.09,1.88,7.07,0.17,-0.14,-0.00,1721198951972
1.11,2.06,10.09,-0.05,0.22,-0.08,1721198951982
0.53,2.98,9.98,0.13,-0.07,-0.20,1721198951992
-0.72,0.54,8.54,-0.07,0.06,-0.27,1721198952002
-1.48,1.99,13.14,0.14,0.02,-0.11,1721198952012
0.14,-0.35,5.64,-0.05,0.01,-0.03,1721198952022
-0.17,5.69,12.12,0.13,0.05,-0.05,1721198952032
2.81,-0.56,7.57,-0.14,0.08,-0.20,1721198952042
-2.48,1.03,15.33,0.06,-0.12,-0.27,1721198952052
-1.11,-1.21,10.70,-0.02,0.23,-0.21,1721198952062
-1.44,0.95,14.36,0.11,-0.02,-0.03,1721198952072
0.24,-0.27,10.34,0.02,0.13,-0.02,1721198952082
0.59,3.88,9.48,0.17,0.01,-0.03,1721198952092
1.60,1.03,10.85,-0.07,0.13,-0.26,1721198952102
-1.58,2.55,11.52,0.16,-0.11,-0.21,1721198952112
-1.69,0.39,6.16,-0.06,0.13,-0.07,1721198952122
-0.72,1.42,11.71,-0.03,0.06,0.02,1721198952132
0.80,-2.94,4.44,-0.05,-0.10,-0.03,1721198952142
-0.03,2.72,13.38,0.01,0.12,-0.14,1721198952152
1.80,-1.86,5.52,-0.09,-0.07,-0.16,1721198952162
-1.71,0.85,12.94,0.02,-0.04,-0.25,1721198952172
-0.18,1.92,8.22,0.10,0.10,-0.10,1721198952182
-1.66,7.98,12.78,0.05,0.01,-0.02,1721198952192
0.80,0.81,5.88,-0.09,0.00,0.01,1721198952202
0.92,-6.54,11.45,-0.29,0.07,-0.15,1721198952212
0.03,-1.86,13.83,0.07,-0.03,-0.31,1721198952222
-0.60,2.01,6.65,0.01,0.08,-0.19,1721198952232
-1.41,1.21,9.28,-0.08,0.03,-0.06,1721198952242
-1.58,0.31,8.39,-0.09,-0.03,-0.09,1721198952252
-0.85,1.19,20.79,-0.04,0.16,-0.17,1721198952262
-0.33,-0.22,9.89,0.14,-0.16,0.00,1721198952272
-0.78,2.22,12.15,-0.07,0.15,0.06,1721198952282
1.24,1.14,6.64,0.11,-0.10,-0.06,1721198952292
0.74,-0.78,6.68,-0.10,-0.03,-0.19,1721198952302
-0.22,3.26,14.69,0.13,0.06,-0.24,1721198952312
-1.39,1.22,7.81,-0.01,0.02,-0.13,1721198952322
-3.07,2.81,13.04,0.02,-0.02,0.08,1721198952332
0.46,1.42,6.44,0.03,-0.02,0.07,1721198952342
2.66,-0.91,11.26,-0.09,0.05,-0.07,1721198952352
0.91,0.47,11.12,0.05,-0.04,-0.27,1721198952362
-1.66,1.36,8.53,-0.03,-0.01,-0.23,1721198952372
-1.85,3.72,11.13,0.11,0.00,0.01,1721198952382
1.27,-0.09,1.16,-0.12,-0.01,0.05,1721198952392
1.55,-1.22,14.54,-0.27,0.15,-0.17,1721198952402
-0.63,-2.72,21.39,0.02,-0.06,-0.29,1721198952412
-3.93,3.55,17.16,0.32,-0.12,-0.17,1721198952422
-0.47,4.33,3.59,0.08,0.09,0.12,1721198952432
2.13,0.50,7.68,-0.09,0.07,0.01,1721198952442
1.98,-0.13,6.06,-0.02,-0.02,-0.29,1721198952452
-0.15,0.80,11.60,-0.07,0.08,-0.35,1721198952462
-3.41,1.67,9.34,0.03,-0.08,-0.16,1721198952472
-1.87,0.19,10.42,-0.13,0.14,0.09,1721198952482
0.17,0.09,10.58,-0.03,-0.09,0.11,1721198952492
1.92,0.41,12.22,-0.11,0.09,-0.13,1721198952502
0.46,1.91,12.94,0.07,-0.09,-0.29,1721198952512
-1.45,0.31,7.76,0.00,-0.02,-0.17,1721198952522
-1.83,1.07,10.09,-0.04,0.06,0.05,1721198952532
0.42,0.79,10.43,-0.05,0.00,0.01,1721198952542
0.79,0.58,11.36,-0.02,-0.01,-0.12,1721198952552
-1.01,3.14,9.30,0.06,-0.03,-0.20,1721198952562
-0.45,0.21,8.57,-0.06,0.04,-0.09,1721198952572
-0.19,-0.23,8.98,-0.02,-0.02,0.01,1721198952582
0.19,0.34,8.56,-0.01,0.01,-0.05,1721198952592
1.11,2.30,9.76,0.01,0.00,-0.11,1721198952602
0.28,-0.03,8.19,0.01,-0.03,-0.18,1721198952612
-1.29,-0.57,12.71,-0.00,0.03,-0.16,1721198952622
-1.24,0.89,8.66,0.08,-0.07,-0.02,1721198952632
0.22,7.24,18.68,0.03,0.22,-0.06,1721198952642
2.05,-0.85,11.23,0.01,0.19,-0.18,1721198952657
-1.31,-0.90,12.63,0.03,0.12,-0.24,1721198952661
0.13,-0.70,10.22,0.22,-0.01,-0.10,1721198952671
0.25,3.63,5.31,0.16,-0.02,0.05,1721198952681
1.14,4.54,11.99,0.10,0.07,-0.13,1721198952691
-0.10,1.75,9.16,0.18,-0.15,-0.14,1721198952701
-2.64,2.86,10.33,0.10,0.05,-0.11,1721198952711
-0.48,-0.26,8.83,0.00,0.04,0.03,1721198952721
1.31,1.55,13.61,0.10,0.01,0.03,1721198952731
2.48,1.99,7.06,0.10,0.02,-0.13,1721198952741
-0.16,-0.32,9.10,-0.04,-0.02,-0.21,1721198952751
-2.13,0.96,12.73,0.07,0.02,-0.24,1721198952761
-1.28,-0.88,8.08,0.01,-0.01,-0.09,1721198952771
-1.13,3.75,11.02,0.07,0.03,0.03,1721198952781
2.04,0.91,7.36,-0.04,0.06,-0.07,1721198952791
0.10,-0.06,8.71,-0.05,-0.05,-0.16,1721198952801
-0.28,-2.13,7.92,-0.14,0.05,-0.32,1721198952811
-1.31,0.07,13.36,0.01,-0.05,-0.19,1721198952821
-0.74,3.46,7.67,0.01,0.04,-0.00,1721198952831
1.49,-0.20,7.55,-0.15,0.03,-0.13,1721198952841
0.06,-2.66,8.94,-0.15,-0.04,-0.26,1721198952851
-1.06,-3.26,16.00,-0.18,0.14,-0.27,1721198952861
-2.87,-0.86,17.94,0.14,-0.09,-0.17,1721198952871
-1.94,3.22,9.24,0.16,0.04,0.06,1721198952881
1.16,3.17,5.80,0.06,-0.01,0.06,1721198952891
2.60,-0.89,5.51,-0.18,0.02,-0.12,1721198952901
0.38,1.05,13.51,-0.06,0.02,-0.29,1721198952911
-1.25,1.65,10.51,0.01,-0.00,-0.29,1721198952921
-1.88,2.22,9.83,0.01,-0.00,-0.01,1721198952931
0.49,0.83,11.48,-0.03,0.06,0.11,1721198952941
2.19,3.02,11.05,0.02,0.02,-0.09,1721198952951
1.45,1.35,11.91,-0.02,0.00,-0.33,1721198952961
-2.10,2.81,12.58,0.10,-0.01,-0.31,1721198952971
-1.09,1.41,9.15,0.12,0.08,-0.05,1721198952981
1.13,0.99,10.49,-0.01,0.10,0.03,1721198952991
1.57,4.03,10.62,0.14,0.03,-0.14,1721198953001
1.20,2.20,7.91,-0.05,0.10,-0.30,1721198953011
-1.26,2.44,10.89,0.08,-0.02,-0.30,1721198953021
-1.54,0.50,7.99,0.05,0.06,-0.17,1721198953031
-1.26,1.35,10.52,0.02,0.05,-0.04,1721198953041
1.27,0.80,9.56,0.03,0.09,-0.03,1721198953051
1.88,0.96,10.56,-0.04,0.07,-0.25,1721198953061
-0.36,1.80,10.19,0.11,-0.01,-0.41,1721198953071
-1.77,0.66,7.49,0.03,0.08,-0.22,1721198953081
-1.55,1.30,10.59,-0.03,0.11,-0.08,1721198953091
0.10,1.53,9.85,0.07,0.03,-0.11,1721198953101
1.16,1.36,11.02,-0.03,0.14,-0.20,1721198953111
-0.09,-0.38,11.10,0.06,0.01,-0.28,1721198953121
-1.48,1.05,10.24,0.00,0.19,-0.27,1721198953131
-1.47,0.73,7.13,0.02,0.05,-0.20,1721198953141
-1.02,1.12,9.07,-0.01,0.09,-0.18,1721198953151
0.68,3.22,12.35,0.06,0.20,-0.21,1721198953161
0.09,-0.58,7.27,-0.03,0.02,-0.23,1721198953171
-2.09,0.50,13.44,-0.06,0.14,-0.26,1721198953181
-0.84,1.69,10.20,0.05,0.09,-0.21,1721198953191
0.00,1.65,9.07,-0.02,0.09,-0.16,1721198953201
0.35,2.67,11.76,0.06,0.17,-0.21,1721198953211
1.05,0.66,8.89,0.03,0.11,-0.31,1721198953221
-1.77,4.15,11.21,0.11,0.09,-0.33,1721198953231
-0.91,1.97,7.30,0.02,0.17,-0.24,1721198953241
-1.17,1.47,12.19,-0.02,0.15,-0.15,1721198953251
-0.03,0.01,7.96,0.02,0.12,-0.15,1721198953261
-0.72,1.24,13.38,-0.01,0.16,-0.28,1721198953271
-0.32,3.99,11.14,0.15,0.10,-0.22,1721198953281
0.36,2.75,8.48,0.02,0.21,-0.14,1721198953291
-0.55,2.03,10.18,0.05,0.13,-0.20,1721198953301
-0.33,-0.99,8.84,-0.03,0.16,-0.28,1721198953311
-0.83,0.04,11.62,-0.00,0.14,-0.15,1721198953321
-1.12,1.51,9.12,0.02,0.14,-0.12,1721198953331
0.00,1.31,10.89,-0.05,0.22,-0.17,1721198953341
-0.67,1.13,9.78,0.04,0.12,-0.23,1721198953351
-1.46,-0.27,6.90,-0.08,0.12,-0.16,1721198953361
-0.52,0.36,12.97,-0.08,0.21,-0.08,1721198953371
-0.11,-0.72,11.43,-0.05,0.14,-0.11,1721198953381
-1.92,2.08,10.36,0.06,0.09,-0.10,1721198953391
-0.09,0.89,7.27,-0.06,0.21,-0.04,1721198953401
-0.46,0.66,10.53,-0.05,0.08,-0.02,1721198953411
0.09,2.04,12.22,-0.09,0.24,-0.09,1721198953421
-1.02,1.22,10.61,0.00,0.05,-0.07,1721198953431
-1.46,-0.70,7.69,-0.11,0.12,0.02,1721198953441
0.16,0.19,8.60,0.00,0.13,0.08,1721198953451
1.10,-1.27,9.74,-0.13,0.18,-0.06,1721198953461
-1.46,1.62,12.50,0.09,0.03,-0.10,1721198953471
-1.39,0.24,8.64,0.00,0.13,0.03,1721198953481
-1.34,2.40,12.03,0.04,0.14,0.16,1721198953491
1.24,1.51,8.73,-0.02,0.14,0.11,1721198953501
0.78,4.24,12.74,0.08,0.05,0.03,1721198953511
0.59,3.40,7.14,-0.01,0.10,0.04,1721198953521
0.58,-0.03,12.70,-0.18,0.16,-0.02,1721198953531
-1.11,0.08,12.82,0.06,-0.03,0.04,1721198953541
-0.51,-0.08,7.83,-0.08,0.10,0.10,1721198953551
0.50,0.97,12.54,-0.07,0.10,0.06,1721198953561
0.22,-0.79,10.11,-0.07,0.05,-0.00,1721198953571
-1.85,1.31,13.75,0.02,0.08,-0.01,1721198953581
-2.04,0.28,10.13,-0.01,0.04,0.12,1721198953591
-0.76,2.16,12.45,0.03,0.08,0.26,1721198953601
0.80,2.80,9.40,0.02,0.08,0.20,1721198953611
0.95,1.91,5.61,0.01,-0.06,0.09,1721198953621
1.26,-1.34,11.34,-0.16,0.17,0.02,1721198953631
-1.49,-0.50,7.03,-0.02,-0.14,0.06,1721198953641
-1.47,0.02,11.92,-0.17,0.14,0.07,1721198953651
-0.81,1.04,11.32,0.06,-0.11,0.15,1721198953661
-0.17,0.95,11.40,-0.10,0.08,0.15,1721198953671
0.49,-1.65,10.68,-0.04,-0.04,0.16,1721198953681
-0.76,-0.31,10.92,0.01,-0.05,0.03,1721198953691
0.04,0.61,6.94,0.06,-0.03,0.07,1721198953701
0.58,3.75,7.57,0.04,0.04,0.16,1721198953711
1.36,0.55,3.33,-0.07,-0.04,0.11,1721198953721
-0.18,1.14,10.20,-0.08,0.00,-0.01,1721198953731
-0.21,-1.95,9.40,-0.10,-0.01,-0.01,1721198953741
-2.41,2.88,15.11,-0.04,-0.04,0.16,1721198953751
-0.25,1.41,13.38,-0.11,-0.07,0.25,1721198953761
1.02,0.27,18.53,-0.10,-0.02,0.11,1721198953771
2.03,-5.24,22.56,-0.00,0.07,-0.16,1721198953781
-2.86,1.51,10.01,0.34,-0.35,0.16,1721198953791
-1.34,10.32,7.85,0.21,0.18,0.26,1721198953801
4.09,4.00,7.50,0.15,-0.05,0.21,1721198953811
1.64,1.43,4.19,0.11,-0.14,-0.08,1721198953821
-1.34,1.84,10.71,-0.07,0.18,-0.22,1721198953831
-1.79,2.31,13.31,0.08,-0.12,0.04,1721198953841
-0.03,0.80,8.34,0.02,-0.11,0.25,1721198953851
3.14,2.28,9.33,0.09,-0.05,0.22,1721198953861
4.42,1.64,6.75,0.04,-0.05,-0.10,1721198953871
0.52,1.93,12.74,-0.03,-0.08,-0.37,1721198953881
-3.47,0.62,10.11,0.03,-0.12,-0.25,1721198953891
-4.17,2.06,11.15,-0.00,0.02,0.06,1721198953901
0.48,-1.54,8.28,-0.04,0.00,0.23,1721198953911
2.55,-0.95,9.14,-0.07,-0.04,0.04,1721198953921
3.04,1.58,10.46,-0.00,0.04,-0.33,1721198953931
-0.56,0.29,7.58,0.02,-0.12,-0.31,1721198953941
-3.65,2.04,6.24,0.02,-0.02,-0.15,1721198953951
-1.00,-2.88,5.59,-0.25,0.08,0.09,1721198953961
-0.79,0.06,13.35,-0.15,0.01,0.01,1721198953971
1.62,0.51,13.64,-0.05,0.05,-0.20,1721198953981
-0.52,-1.49,7.33,-0.06,-0.16,-0.15,1721198953991
-1.95,-0.92,17.76,-0.13,0.15,-0.09,1721198954001
0.05,-3.85,13.41,0.09,-0.12,-0.04,1721198954011
-0.28,6.04,13.42,0.26,0.06,-0.04,1721198954021
2.06,1.30,0.57,-0.05,-0.00,-0.13,1721198954031
-1.82,5.04,14.74,0.05,0.02,-0.18,1721198954041
1.09,-1.39,5.61,-0.01,0.07,-0.13,1721198954051
-0.91,2.58,18.00,0.03,0.09,-0.16,1721198954061
0.03,1.45,6.80,0.13,-0.04,-0.07,1721198954071
-0.22,2.89,9.76,-0.05,0.10,-0.05,1721198954081
1.43,1.18,4.19,0.05,-0.03,-0.15,1721198954091
1.41,-0.06,7.85,-0.17,0.16,-0.24,1721198954101
-1.47,1.67,11.43,0.01,-0.00,-0.28,1721198954111
-1.70,-0.46,11.18,-0.15,0.09,-0.13,1721198954121
-0.93,1.58,15.11,0.06,0.02,0.06,1721198954131
1.29,0.90,8.29,-0.06,0.07,-0.01,1721198954141
1.42,1.14,12.66,-0.03,0.02,-0.16,1721198954151
0.62,-0.82,7.39,-0.03,0.03,-0.30,1721198954161
-2.49,1.84,12.21,-0.03,0.09,-0.29,1721198954171
-1.61,-0.75,7.04,-0.02,0.04,-0.03,1721198954181
-1.09,2.69,12.79,-0.06,0.14,0.03,1721198954191
1.18,-0.53,9.03,-0.07,0.01,-0.08,1721198954201
-0.89,0.30,12.21,-0.05,0.03,-0.17,1721198954211
-0.96,0.06,11.56,-0.02,0.10,-0.16,1721198954221
-1.37,1.23,9.98,0.02,-0.03,0.01,1721198954231
0.41,2.83,10.06,-0.02,0.16,0.09,1721198954241
1.35,0.39,8.98,-0.09,0.03,-0.10,1721198954251
-0.62,0.75,11.57,-0.03,-0.00,-0.21,1721198954261
-1.45,1.04,11.70,-0.03,0.10,-0.06,1721198954271
-1.11,0.10,9.28,-0.05,0.02,0.07,1721198954281
0.43,1.59,12.19,-0.00,0.08,0.09,1721198954291
1.39,1.34,9.64,-0.06,0.07,-0.08,1721198954301
-1.08,2.44,11.05,-0.01,-0.04,-0.14,1721198954311
-0.79,-0.16,8.11,-0.07,0.04,-0.00,1721198954321
-1.08,1.13,12.50,-0.02,0.05,0.04,1721198954331
0.47,-0.68,5.65,-0.08,-0.04,0.02,1721198954341
0.90,2.06,12.32,-0.05,0.08,0.00,1721198954351
0.70,0.11,8.14,-0.09,0.00,-0.11,1721198954361
-1.68,0.82,13.09,-0.09,0.00,-0.08,1721198954371
-1.07,-0.63,10.49,-0.01,0.01,0.02,1721198954381
-1.30,0.62,13.19,-0.04,0.03,0.04,1721198954391
0.58,-0.01,9.19,0.01,-0.06,0.07,1721198954401
1.28,1.62,13.78,-0.01,0.11,-0.05,1721198954411
-0.13,0.68,8.16,0.04,-0.07,-0.11,1721198954421
-1.91,3.01,11.27,0.02,0.01,-0.06,1721198954431
-0.22,-0.62,8.99,-0.05,0.04,0.05,1721198954441
-1.40,3.18,12.58,0.03,-0.02,0.02,1721198954451
0.96,0.10,8.15,-0.03,-0.01,0.02,1721198954461
-0.54,1.85,10.59,0.04,-0.02,0.02,1721198954471
1.46,-0.90,8.11,-0.12,0.06,-0.05,1721198954481
-0.31,1.82,13.39,0.08,-0.08,-0.04,1721198954491
-0.21,0.71,7.51,0.00,0.09,-0.05,1721198954501
-1.07,2.47,10.86,0.02,-0.06,-0.03,1721198954511
0.38,1.19,9.96,0.02,0.03,-0.01,1721198954521
0.11,1.68,11.55,0.04,0.01,-0.01,1721198954531
0.01,-0.84,10.46,-0.06,-0.03,-0.10,1721198954541
-0.28,1.41,13.05,0.13,-0.01,-0.04,1721198954551
0.19,0.38,5.51,0.02,0.01,-0.02,1721198954561
-0.83,2.98,10.20,0.08,-0.02,-0.09,1721198954571
1.77,-1.47,7.16,-0.03,0.03,-0.11,1721198954581
-1.10,2.19,14.38,0.10,-0.01,-0.13,1721198954591
-1.20,2.27,8.29,0.10,0.01,-0.07,1721198954601
-0.26,0.39,10.50,-0.01,-0.02,0.04,1721198954611
0.89,-0.12,9.88,0.08,0.00,-0.01,1721198954621
1.27,-0.94,11.35,-0.01,0.05,-0.16,1721198954631
-0.65,1.08,10.85,0.15,-0.08,-0.15,1721198954641
-1.20,1.81,9.80,0.09,0.09,-0.10,1721198954651
0.14,1.05,10.76,0.09,0.06,0.01,1721198954666
-0.14,1.29,10.40,0.09,0.03,-0.04,1721198954670
1.30,0.20,9.38,0.05,0.03,-0.11,1721198954680
-0.45,2.04,11.94,0.16,-0.02,-0.14,1721198954690
-0.70,1.46,8.87,0.09,0.04,-0.12,1721198954700
-0.29,-0.76,11.03,0.07,-0.01,-0.08,1721198954710
-0.06,1.64,10.35,0.20,0.02,-0.03,1721198954720
0.64,1.06,9.39,0.04,0.07,-0.14,1721198954730
-0.53,2.85,10.78,0.17,-0.05,-0.16,1721198954740
-0.10,0.78,7.04,0.11,0.06,-0.11,1721198954750
-0.71,0.56,13.25,0.08,0.05,-0.12,1721198954760
-0.10,-0.96,8.54,0.15,-0.05,-0.11,1721198954770
0.48,2.61,11.93,0.12,0.12,-0.13,1721198954780
0.16,2.73,7.81,0.24,-0.03,-0.14,1721198954790
-0.65,0.73,9.03,0.10,0.11,-0.15,1721198954800
-0.06,-0.26,10.16,0.13,0.04,-0.14,1721198954810
-0.40,1.31,10.71,0.17,0.05,-0.14,1721198954820
-0.56,1.01,8.07,0.21,0.02,-0.12,1721198954830
0.23,0.85,11.43,0.15,0.13,-0.11,1721198954840
0.25,-0.68,7.12,0.22,-0.04,-0.13,1721198954850
-0.47,1.14,12.00,0.15,0.16,-0.21,1721198954860
-1.20,1.16,10.27,0.27,-0.01,-0.19,1721198954870
-1.33,1.70,10.98,0.18,0.11,-0.12,1721198954880
0.44,2.31,7.71,0.29,0.05,-0.01,1721198954890
1.47,1.06,9.78,0.12,0.16,-0.13,1721198954900
-0.35,0.43,12.81,0.26,-0.00,-0.28,1721198954910
-0.78,0.86,10.56,0.23,0.15,-0.20,1721198954920
-1.41,1.90,7.96,0.31,0.04,-0.00,1721198954930
0.24,1.83,7.02,0.16,0.16,-0.02,1721198954940
1.48,0.52,12.25,0.17,0.10,-0.19,1721198954950
0.45,0.91,10.70,0.26,0.08,-0.24,1721198954960
-1.25,1.23,8.16,0.20,0.12,-0.11,1721198954970
-1.04,2.56,9.49,0.20,0.13,-0.02,1721198954980
1.11,-1.27,7.21,0.07,0.11,-0.11,1721198954990
0.29,1.57,12.83,0.23,0.10,-0.20,1721198955000
0.04,1.46,6.00,0.22,0.09,-0.19,1721198955010
-1.50,2.10,8.54,0.10,0.12,-0.13,1721198955020
-0.86,-0.38,8.19,0.08,0.11,-0.10,1721198955030
0.12,-1.13,10.91,0.04,0.14,-0.10,1721198955040
-0.25,-0.07,11.58,0.11,0.09,-0.17,1721198955050
-1.41,1.61,10.78,0.15,0.10,-0.13,1721198955060
-1.36,1.13,7.38,0.07,0.10,-0.08,1721198955070
-0.10,0.20,6.35,0.02,0.12,-0.05,1721198955080
0.29,-0.28,7.91,-0.03,0.13,-0.12,1721198955090
-1.22,0.39,8.82,-0.03,0.10,-0.19,1721198955100
-2.25,0.56,9.25,0.02,0.05,-0.10,1721198955110
-0.92,-0.43,8.63,-0.07,0.12,0.03,1721198955120
0.17,-1.20,10.71,-0.03,0.07,0.04,1721198955130
0.64,0.59,12.94,-0.02,0.15,-0.12,1721198955140
-0.71,4.79,12.44,0.08,-0.00,-0.09,1721198955150
-1.00,1.75,7.35,-0.08,0.09,-0.01,1721198955160
-0.14,-4.50,10.65,-0.22,0.15,-0.01,1721198955170
-0.45,-1.67,12.58,-0.03,0.04,-0.04,1721198955180
0.14,2.38,8.96,-0.00,0.06,-0.04,1721198955190
-0.41,3.77,8.37,0.02,0.05,-0.02,1721198955200
-0.85,2.36,10.60,-0.10,0.13,-0.08,1721198955210
-0.26,-1.01,12.74,-0.10,0.04,-0.02,1721198955220
-1.37,0.68,9.67,-0.04,0.06,0.06,1721198955230
-0.58,2.21,9.15,-0.10,0.10,0.05,1721198955240
1.08,-1.31,9.37,-0.09,0.02,0.01,1721198955250
0.17,-0.97,12.94,-0.05,0.14,-0.05,1721198955260
-1.14,1.27,11.60,0.08,0.01,-0.08,1721198955270
-0.89,3.85,11.45,0.02,0.09,0.06,1721198955280
0.82,3.11,9.01,0.04,0.09,0.14,1721198955290
1.50,1.26,8.33,-0.05,0.10,-0.02,1721198955300
1.63,0.94,9.70,-0.02,0.08,-0.15,1721198955310
-0.13,0.75,10.40,-0.04,0.11,-0.17,1721198955320
-2.19,1.88,10.62,0.03,0.06,-0.08,1721198955330
-0.05,1.33,9.48,-0.05,0.16,0.01,1721198955340
1.01,1.88,10.25,0.04,0.11,-0.02,1721198955350
0.28,0.57,8.52,-0.08,0.13,-0.18,1721198955360
-1.10,0.83,8.10,-0.03,0.04,-0.16,1721198955370
-1.22,-0.70,9.18,-0.15,0.18,-0.06,1721198955380
-1.74,-1.73,16.73,-0.12,0.10,-0.02,1721198955390
-0.08,0.89,19.29,0.14,0.11,-0.00,1721198955400
0.23,1.92,10.24,0.10,0.09,-0.03,1721198955410
-1.82,5.83,7.66,0.11,0.04,-0.08,1721198955420
0.92,-1.06,6.70,-0.10,0.18,-0.04,1721198955430
-0.36,-0.97,12.38,0.02,0.09,-0.02,1721198955440
-1.24,-0.53,9.22,-0.02,0.16,-0.11,1721198955450
-2.83,2.88,15.48,0.07,0.06,0.02,1721198955460
-1.69,2.81,7.30,0.03,0.08,0.21,1721198955470
0.89,1.58,10.11,-0.05,0.11,0.19,1721198955480
2.28,-1.17,7.28,-0.02,0.04,0.07,1721198955490
0.34,2.32,7.30,-0.02,0.08,-0.06,1721198955500
-0.34,-0.24,4.77,-0.17,0.04,-0.02,1721198955510
-2.12,0.20,11.42,-0.14,0.07,0.10,1721198955520
-1.03,-0.38,12.48,-0.12,0.11,0.14,1721198955530
-1.34,1.24,12.84,0.01,-0.09,0.14,1721198955540
0.03,-0.81,12.79,-0.09,0.15,0.15,1721198955550
-1.09,0.24,7.61,0.06,-0.14,0.21,1721198955560
1.39,-0.18,11.06,-0.12,0.24,0.14,1721198955570
0.25,1.70,9.90,0.17,-0.15,0.14,1721198955580
-0.55,0.97,8.77,-0.09,0.11,0.07,1721198955590
-1.44,3.59,14.28,0.15,-0.08,0.24,1721198955600
0.79,1.82,9.90,-0.13,0.11,0.31,1721198955610
1.24,2.48,13.43,0.00,-0.08,0.23,1721198955620
1.95,-1.73,9.94,-0.07,-0.01,0.10,1721198955630
-1.22,0.52,10.37,0.05,-0.10,0.06,1721198955640
-1.17,-0.02,8.98,-0.04,0.03,0.12,1721198955650
-1.45,2.70,14.14,0.12,-0.06,0.31,1721198955660
0.38,4.47,6.97,0.02,-0.03,0.30,1721198955670
1.64,3.55,12.50,-0.02,-0.07,0.22,1721198955680
1.66,-0.75,9.49,-0.06,-0.08,0.11,1721198955690
-0.32,-0.64,11.02,-0.10,-0.00,0.01,1721198955700
-1.20,-0.49,10.69,0.07,-0.13,0.16,1721198955710
-1.04,1.58,9.98,-0.05,0.01,0.27,1721198955720
0.82,4.07,10.50,0.08,-0.10,0.25,1721198955730
1.39,2.82,9.44,-0.10,-0.02,0.16,1721198955740
-0.25,1.31,8.76,-0.08,-0.20,0.12,1721198955750
0.07,-1.07,8.29,-0.19,-0.07,0.11,1721198955760
0.55,-1.80,9.73,-0.19,-0.11,0.17,1721198955770
-0.28,-1.37,7.08,-0.18,-0.18,0.12,1721198955780
0.25,0.84,9.71,-0.11,-0.09,0.08,1721198955790
0.49,-0.91,8.03,-0.22,-0.13,0.09,1721198955800
-2.04,0.46,10.35,-0.12,-0.20,0.05,1721198955810
-0.57,-1.71,9.06,-0.19,-0.10,0.12,1721198955820
-0.41,-0.70,13.56,-0.09,-0.19,0.20,1721198955830
0.26,-0.44,10.56,-0.09,-0.17,0.16,1721198955840
1.57,-0.59,16.24,-0.06,-0.13,0.07,1721198955850
-0.45,1.64,11.61,0.10,-0.24,0.04,1721198955860
-0.82,2.38,5.85,-0.03,-0.18,0.09,1721198955870
0.45,2.18,10.04,-0.08,-0.11,0.19,1721198955880
1.73,-0.65,10.56,-0.12,-0.18,0.06,1721198955890
0.07,0.41,13.52,-0.01,-0.22,-0.03,1721198955900
-0.93,0.76,13.81,0.02,-0.16,-0.01,1721198955910
-1.24,2.37,14.53,0.06,-0.18,0.10,1721198955920
0.86,4.33,10.56,0.20,-0.21,0.19,1721198955930
2.23,5.62,6.74,0.11,-0.13,0.11,1721198955940
2.34,3.22,7.48,0.03,-0.17,-0.08,1721198955950
1.83,0.33,11.69,0.01,-0.10,-0.24,1721198955960
-0.13,0.05,12.06,0.09,-0.16,-0.15,1721198955970
-1.43,1.15,8.85,0.07,-0.19,0.04,1721198955980
0.66,3.06,14.45,0.11,-0.05,0.01,1721198955990
2.64,2.69,9.94,0.18,-0.13,-0.12,1721198956000
0.69,3.21,9.65,0.13,-0.15,-0.27,1721198956010
-1.53,1.47,11.44,0.11,-0.03,-0.26,1721198956020
-1.31,0.58,6.46,0.08,-0.11,-0.07,1721198956030
0.78,3.98,8.97,0.09,-0.05,0.02,1721198956040
4.02,-0.39,3.87,-0.06,-0.09,-0.14,1721198956050
1.01,0.20,13.68,-0.10,-0.02,-0.42,1721198956060
-1.37,-0.62,8.37,0.06,-0.18,-0.46,1721198956070
-3.92,-0.06,11.85,-0.07,-0.03,-0.21,1721198956080
-1.35,0.46,8.21,0.08,-0.11,0.02,1721198956090
2.21,-1.22,9.00,-0.15,0.05,-0.08,1721198956100
1.19,-0.52,12.63,0.01,-0.14,-0.30,1721198956110
-0.65,-1.46,7.86,-0.04,-0.11,-0.41,1721198956120
-2.28,0.46,11.62,0.07,-0.09,-0.24,1721198956130
-0.58,-2.00,7.38,-0.05,0.01,-0.08,1721198956140
-0.64,1.54,11.41,0.06,-0.10,-0.14,1721198956150
1.30,1.78,7.47,0.05,-0.06,-0.25,1721198956160
-0.04,3.44,10.90,-0.04,-0.01,-0.28,1721198956170
-1.16,-1.32,10.53,-0.16,-0.06,-0.33,1721198956180
-2.19,-2.61,15.32,0.02,-0.11,-0.17,1721198956190
-0.86,0.31,8.37,-0.02,-0.02,-0.10,1721198956200
0.96,3.09,11.81,0.03,-0.02,-0.18,1721198956210
1.60,2.25,9.01,0.04,-0.05,-0.26,1721198956220
-0.06,1.22,11.12,-0.07,-0.01,-0.35,1721198956230
-1.07,2.28,13.19,-0.01,-0.04,-0.25,1721198956240
-0.36,2.68,10.89,-0.00,0.01,-0.17,1721198956250
0.77,-0.88,6.74,-0.14,-0.02,-0.19,1721198956260
0.82,0.86,11.93,-0.04,-0.05,-0.32,1721198956270
0.83,-0.89,10.05,-0.06,0.00,-0.39,1721198956280
-2.50,2.46,10.80,0.04,-0.10,-0.29,1721198956290
-1.48,-0.57,9.24,-0.13,0.06,-0.14,1721198956300
-0.80,2.08,12.92,0.02,-0.00,-0.14,1721198956310
1.44,2.60,6.18,-0.02,-0.01,-0.19,1721198956320
0.96,0.45,11.82,-0.16,0.07,-0.31,1721198956330
-0.65,0.11,8.03,-0.01,-0.08,-0.39,1721198956340
-0.83,1.24,11.83,-0.10,0.09,-0.28,1721198956350
-0.51,2.23,8.65,-0.03,-0.06,-0.21,1721198956360
0.45,1.23,9.90,-0.12,0.09,-0.27,1721198956370
0.06,-0.92,8.25,-0.16,0.00,-0.33,1721198956380
-1.66,-0.64,8.37,-0.16,-0.01,-0.37,1721198956390
-1.76,0.44,15.78,-0.13,0.13,-0.34,1721198956400
-2.12,1.24,12.68,0.02,-0.06,-0.19,1721198956410
0.08,2.75,11.78,0.01,0.11,-0.13,1721198956420
1.95,0.15,5.52,-0.08,-0.03,-0.22,1721198956430
0.37,2.66,11.47,-0.13,0.11,-0.44,1721198956440
-0.27,0.93,8.73,0.02,-0.02,-0.43,1721198956450
-2.64,0.89,6.56,-0.11,0.06,-0.31,1721198956460
-2.37,1.20,13.15,-0.12,0.12,-0.32,1721198956470
-1.11,-1.12,17.77,0.00,0.00,-0.28,1721198956480
-2.80,5.25,14.66,0.19,-0.01,-0.23,1721198956490
-0.36,4.14,6.36,0.06,0.08,-0.11,1721198956500
1.49,1.83,6.29,-0.04,0.05,-0.13,1721198956510
2.39,1.71,8.52,-0.01,0.09,-0.40,1721198956520
-0.42,1.25,7.74,0.01,-0.04,-0.48,1721198956530
-2.43,2.02,9.41,0.00,0.05,-0.32,1721198956540
-1.30,1.18,10.51,-0.04,0.13,-0.17,1721198956550
-0.65,1.45,14.15,0.00,0.04,-0.21,1721198956560
-0.90,2.85,11.98,0.07,0.04,-0.27,1721198956570
-0.11,0.49,7.78,-0.02,0.08,-0.28,1721198956580
-0.95,1.81,13.48,0.00,0.07,-0.22,1721198956590
-0.31,0.74,12.13,0.02,0.11,-0.22,1721198956600
-0.11,2.33,11.96,0.18,0.02,-0.22,1721198956610
1.36,2.51,7.58,0.06,0.14,-0.25,1721198956620
0.77,3.96,10.53,0.07,0.08,-0.25,1721198956630
0.72,1.71,8.83,0.03,0.13,-0.32,1721198956640
-0.76,0.89,10.68,0.04,0.08,-0.34,1721198956650
-0.49,0.69,8.30,0.05,0.12,-0.23,1721198956660
0.66,1.71,10.53,0.01,0.15,-0.23,1721198956675
0.73,2.88,11.51,0.05,0.17,-0.23,1721198956679
0.32,1.46,8.98,-0.01,0.15,-0.35,1721198956689
-0.30,0.81,10.28,0.02,0.15,-0.34,1721198956699
-0.61,-0.33,9.34,-0.00,0.17,-0.23,1721198956709
-1.25,1.71,10.97,-0.04,0.19,-0.17,1721198956719
0.63,0.79,8.71,-0.01,0.14,-0.17,1721198956729
1.16,0.87,8.67,0.01,0.19,-0.23,1721198956739
-0.05,0.07,7.99,-0.00,0.17,-0.24,1721198956749
-0.90,1.11,11.55,-0.06,0.23,-0.25,1721198956759
-0.84,2.05,11.21,0.05,0.12,-0.10,1721198956769
-0.45,1.68,10.00,-0.02,0.20,-0.02,1721198956779
0.38,0.05,7.87,-0.02,0.14,-0.07,1721198956789
0.95,1.64,9.80,-0.04,0.22,-0.18,1721198956799
0.78,0.69,10.56,-0.03,0.23,-0.16,1721198956809
-1.72,1.92,13.09,0.02,0.16,-0.11,1721198956819
-0.86,0.07,9.29,0.00,0.18,0.02,1721198956829
0.77,1.50,11.86,0.02,0.21,0.09,1721198956839
1.09,2.34,11.57,0.00,0.23,-0.04,1721198956849
0.12,1.07,10.24,0.06,0.10,-0.08,1721198956859
-0.57,1.89,8.79,0.07,0.19,-0.01,1721198956869
-0.35,1.79,9.88,0.04,0.23,0.08,1721198956879
-0.27,2.04,12.30,0.02,0.17,0.08,1721198956889
0.70,2.76,12.35,0.09,0.16,0.02,1721198956899
0.63,2.92,8.85,0.11,0.16,0.08,1721198956909
-0.55,2.87,9.00,0.04,0.16,0.03,1721198956919
-0.87,0.27,9.01,0.06,0.12,-0.07,1721198956929
-0.18,-0.11,10.85,0.15,0.07,0.13,1721198956939
0.54,1.18,9.22,0.14,0.25,0.21,1721198956949
-1.41,3.56,10.45,0.08,0.08,0.09,1721198956959
0.32,1.92,11.36,0.07,0.11,0.10,1721198956969
0.53,0.34,9.90,0.14,0.07,0.12,1721198956979
-0.99,2.31,11.55,0.12,0.15,0.05,1721198956989
-1.25,1.01,8.45,0.12,0.02,0.10,1721198956999
-0.76,0.57,7.94,0.04,0.08,0.20,1721198957009
0.14,0.32,8.59,0.07,0.04,0.15,1721198957019
-0.50,0.82,10.18,0.08,0.05,0.12,1721198957029
-0.93,1.36,9.98,0.05,0.03,0.14,1721198957039
-0.67,1.17,9.53,0.03,-0.00,0.21,1721198957049
-0.07,0.25,10.16,-0.01,-0.00,0.23,1721198957059
0.46,1.21,12.29,0.05,-0.00,0.22,1721198957069
0.89,-0.17,7.63,-0.01,-0.04,0.18,1721198957079
0.28,-0.30,10.73,-0.06,-0.01,0.16,1721198957089
0.15,0.17,10.03,0.04,-0.06,0.12,1721198957099
-0.11,1.58,10.20,0.01,-0.00,0.14,1721198957109
-0.29,-0.22,7.60,-0.08,-0.04,0.22,1721198957119
-0.39,0.82,12.39,-0.08,0.01,0.18,1721198957129
0.60,0.46,10.42,0.00,-0.11,0.15,1721198957139
0.45,1.00,10.86,-0.02,-0.05,0.19,1721198957149
0.41,1.92,10.87,-0.01,-0.02,0.16,1721198957159
0.61,0.27,8.28,-0.10,-0.10,0.11,1721198957169
0.44,0.38,10.30,-0.04,-0.07,0.13,1721198957179
0.96,0.55,9.46,-0.06,-0.02,0.10,1721198957189
-0.99,0.38,9.73,-0.10,-0.10,0.09,1721198957199
-0.87,0.81,10.46,-0.07,-0.08,0.12,1721198957209
0.67,1.11,9.00,-0.06,-0.10,0.17,1721198957219
1.10,0.96,10.37,-0.11,-0.07,0.14,1721198957229
0.52,0.01,11.03,-0.10,-0.09,0.05,1721198957239
0.44,0.67,9.81,-0.07,-0.11,0.02,1721198957249
1.25,0.84,8.44,-0.07,-0.09,0.10,1721198957259
1.68,1.66,9.34,-0.08,-0.02,0.07,1721198957269
1.06,1.98,9.25,-0.10,-0.07,-0.10,1721198957279
0.55,-0.31,9.04,-0.17,-0.08,-0.14,1721198957289
-0.97,-0.25,13.28,-0.10,-0.08,-0.05,1721198957299
-1.36,0.03,13.53,-0.04,-0.04,-0.03,1721198957309
-0.47,1.78,11.88,0.02,-0.11,0.06,1721198957319
2.06,1.89,8.76,-0.06,0.00,0.00,1721198957329
1.24,1.17,10.59,-0.03,-0.07,-0.13,1721198957339
-0.29,1.22,10.17,-0.06,0.00,-0.19,1721198957349
0.18,-0.33,10.80,-0.08,-0.05,-0.11,1721198957359
0.26,0.91,11.24,-0.00,-0.06,-0.06,1721198957369
-0.05,1.88,11.56,0.01,-0.02,-0.12,1721198957379
-0.04,1.41,10.03,-0.00,-0.07,-0.21,1721198957389
0.19,0.45,10.78,-0.05,0.01,-0.15,1721198957399
-0.72,1.82,11.95,0.08,-0.03,-0.13,1721198957409
-0.92,0.73,10.32,-0.02,-0.03,-0.11,1721198957419
0.97,2.00,10.74,0.02,-0.04,-0.06,1721198957429
2.33,0.11,8.70,-0.05,0.01,-0.18,1721198957439
-0.74,1.87,13.76,0.05,-0.05,-0.34,1721198957449
-1.59,0.24,7.48,0.04,-0.06,-0.24,1721198957459
-0.36,1.24,9.82,-0.02,0.07,-0.07,1721198957469
0.73,0.92,9.82,0.02,-0.01,-0.17,1721198957479
0.06,1.13,11.24,0.06,-0.04,-0.31,1721198957489
0.03,0.50,11.54,0.02,0.04,-0.30,1721198957499
-1.41,1.76,11.04,0.14,-0.06,-0.18,1721198957509
-0.79,1.85,8.42,0.06,0.07,-0.12,1721198957519
0.81,2.31,10.88,0.05,0.03,-0.16,1721198957529
1.62,-0.08,7.46,0.03,0.01,-0.25,1721198957539
-0.20,0.57,10.81,0.03,0.07,-0.31,1721198957549
-1.53,0.98,9.56,0.13,-0.02,-0.25,1721198957559
-0.68,0.17,11.03,-0.02,0.09,-0.14,1721198957569
-0.55,1.14,11.35,0.12,-0.04,-0.10,1721198957579
0.11,0.90,9.24,0.03,0.05,-0.21,1721198957589
-0.39,0.49,13.84,0.08,-0.00,-0.20,1721198957599
-0.35,-0.14,9.52,0.07,0.02,-0.15,1721198957609
-0.46,2.49,9.79,0.08,0.07,-0.13,1721198957619
0.69,0.83,7.48,0.05,-0.00,-0.17,1721198957629
-0.07,0.53,12.37,0.03,0.08,-0.23,1721198957639
-0.56,-0.14,9.11,0.08,0.01,-0.21,1721198957649
-1.14,1.88,11.36,0.06,0.05,-0.12,1721198957659
-0.08,1.73,10.52,0.10,0.02,-0.13,1721198957669
0.35,0.55,11.14,0.05,0.02,-0.17,1721198957679
0.51,0.69,8.97,0.07,0.04,-0.17,1721198957689
0.21,0.64,9.88,0.01,0.09,-0.19,1721198957699
-0.97,1.75,10.83,0.08,0.02,-0.22,1721198957709
-0.26,0.04,9.94,0.01,0.07,-0.18,1721198957719
0.13,1.89,11.13,0.08,0.04,-0.15,1721198957729
0.24,1.00,9.00,0.03,0.07,-0.20,1721198957739
-0.52,1.23,11.37,0.01,0.07,-0.24,1721198957749
-0.19,-0.45,9.16,0.01,0.06,-0.25,1721198957759
-0.86,0.47,7.76,0.01,0.04,-0.20,1721198957769
-0.48,0.53,10.12,-0.00,0.08,-0.16,1721198957779
0.06,1.37,10.84,0.04,0.05,-0.23,1721198957789
-0.33,1.00,10.71,-0.01,0.07,-0.24,1721198957799
-0.51,0.17,9.76,-0.02,0.07,-0.13,1721198957809
-0.45,-0.16,9.76,-0.04,0.06,-0.16,1721198957819
0.09,0.78,10.57,-0.00,0.07,-0.23,1721198957829
-0.04,0.67,11.26,-0.01,0.11,-0.24,1721198957839
-0.45,0.72,9.54,0.02,0.06,-0.17,1721198957849
-0.59,0.80,10.15,-0.03,0.11,-0.15,1721198957859
-0.13,1.71,10.85,0.01,0.05,-0.16,1721198957869
-0.06,-0.31,10.80,-0.06,0.10,-0.26,1721198957879
-1.02,0.91,10.13,0.03,0.05,-0.20,1721198957889
-0.76,0.90,7.74,-0.01,0.08,-0.13,1721198957899
-0.23,0.75,11.87,-0.05,0.13,-0.16,1721198957909
0.43,0.10,10.10,0.03,0.04,-0.16,1721198957919
-0.17,2.18,10.91,0.01,0.11,-0.18,1721198957929
-0.79,1.38,9.26,0.01,0.06,-0.17,1721198957939
-1.22,0.66,10.96,-0.07,0.09,-0.15,1721198957949
-0.24,-0.29,11.50,-0.02,0.10,-0.16,1721198957959
-0.41,0.72,10.59,0.05,0.07,-0.08,1721198957969
-0.26,1.02,8.04,0.02,0.07,-0.11,1721198957979
0.36,1.33,10.53,-0.03,0.11,-0.16,1721198957989
0.18,0.73,10.28,0.05,0.06,-0.15,1721198957999
-1.18,1.17,11.03,0.03,0.11,-0.14,1721198958009
-1.65,2.47,11.86,0.12,0.04,-0.10,1721198958019
-0.01,1.85,9.13,0.05,0.10,-0.05,1721198958029
0.98,1.43,9.38,0.05,0.09,-0.03,1721198958039
0.12,1.66,9.27,0.03,0.10,-0.16,1721198958049
-0.77,0.24,10.37,-0.00,0.04,-0.20,1721198958059
-1.28,0.12,11.00,0.07,0.06,-0.08,1721198958069
-0.56,0.07,8.44,0.01,0.11,-0.01,1721198958079
-0.48,2.40,13.22,0.06,0.07,-0.04,1721198958089
0.36,1.55,8.74,0.06,0.02,-0.07,1721198958099
-0.66,1.77,11.51,0.01,0.07,-0.06,1721198958109
-0.22,-0.21,9.85,0.05,0.05,0.02,1721198958119
-0.44,0.56,11.70,0.01,0.07,0.00,1721198958129
0.07,1.17,8.42,0.08,0.00,-0.02,1721198958139
0.61,0.89,9.66,-0.02,0.12,-0.04,1721198958149
-0.25,-0.34,10.43,0.04,0.00,-0.07,1721198958159
-1.29,0.74,10.91,0.03,0.03,-0.04,1721198958169
-0.28,1.40,10.45,0.03,0.05,0.04,1721198958179
0.51,1.72,10.72,0.03,0.04,0.02,1721198958189
0.22,0.44,9.25,0.01,0.02,-0.03,1721198958199
0.14,0.41,10.94,-0.02,0.05,-0.07,1721198958209
0.00,-0.13,9.39,0.02,0.05,-0.07,1721198958219
-0.76,1.74,10.12,0.02,0.02,-0.01,1721198958229
-0.12,2.41,9.91,0.03,0.04,0.00,1721198958239
1.07,1.00,8.05,-0.06,0.02,-0.09,1721198958249
0.09,-0.13,10.92,-0.07,0.04,-0.11,1721198958259
-0.90,-0.94,9.33,-0.06,0.04,-0.09,1721198958269
-1.50,0.22,11.38,-0.04,0.03,-0.06,1721198958279
0.13,-0.47,8.15,-0.04,-0.01,0.02,1721198958289
0.70,1.18,12.19,-0.05,0.08,-0.07,1721198958299
-0.14,0.85,9.91,0.01,-0.02,-0.13,1721198958309
-1.56,1.01,12.33,-0.04,0.05,-0.11,1721198958319
-0.53,-0.30,8.35,-0.02,-0.00,-0.02,1721198958329
0.15,0.50,10.78,-0.06,0.04,0.01,1721198958339
0.39,0.72,10.29,-0.03,0.04,-0.09,1721198958349
-0.03,0.59,11.57,-0.05,0.01,-0.22,1721198958359
-0.77,-0.04,10.17,-0.02,0.00,-0.09,1721198958369
-1.06,2.44,12.43,0.01,0.08,0.01,1721198958379
0.31,1.40,9.96,0.01,-0.00,-0.07,1721198958389
0.75,1.30,10.80,-0.01,0.04,-0.13,1721198958399
-0.12,0.88,7.63,0.00,0.02,-0.12,1721198958409
-1.14,1.37,11.94,-0.05,0.06,-0.11,1721198958419
-0.52,0.11,11.06,0.03,-0.02,-0.07,1721198958429
0.05,2.40,11.42,0.02,0.07,-0.03,1721198958439
0.22,2.10,9.16,0.04,-0.02,-0.05,1721198958449
-0.10,1.87,10.40,-0.04,0.04,-0.09,1721198958459
0.47,-0.12,10.66,-0.03,0.03,-0.15,1721198958469
-0.74,1.52,10.96,0.03,0.03,-0.08,1721198958479
-0.49,0.62,7.37,-0.01,0.03,-0.05,1721198958489
0.26,0.85,11.81,-0.07,0.05,-0.09,1721198958499
1.00,0.08,10.06,0.05,0.00,-0.12,1721198958509
0.09,0.38,10.97,-0.04,0.08,-0.16,1721198958519
-1.95,2.32,13.00,0.11,-0.01,-0.17,1721198958529
-0.88,1.03,7.46,0.03,0.02,-0.07,1721198958539
0.35,0.90,10.43,-0.01,0.07,0.05,1721198958549
0.85,1.06,9.46,0.00,0.07,-0.15,1721198958559
0.26,-0.50,9.72,-0.07,0.02,-0.21,1721198958569
-0.55,1.07,10.74,0.05,0.01,-0.17,1721198958579
-0.11,-0.46,8.04,-0.06,0.10,-0.11,1721198958589
-1.27,1.70,13.46,0.03,0.03,-0.11,1721198958599
0.20,0.32,10.01,0.01,0.06,-0.14,1721198958609
-0.28,1.81,10.72,0.02,0.02,-0.10,1721198958619
0.38,0.69,8.51,0.05,0.10,0.09,1721198959146
0.28,1.08,10.45,0.03,0.08,0.03,1721198959151
0.69,1.64,10.78,0.09,0.08,0.00,1721198959160
0.03,2.82,9.81,0.03,0.08,-0.01,1721198959170
-0.75,2.36,10.50,0.08,0.03,0.03,1721198959179
-0.03,-0.31,9.28,-0.04,0.09,0.06,1721198959189
0.22,-0.18,12.12,-0.01,0.06,0.04,1721198959198
0.56,0.45,9.87,0.02,0.06,-0.02,1721198959208
-0.03,1.51,10.37,0.07,0.04,-0.02,1721198959217
-0.59,1.79,8.58,0.05,0.09,0.01,1721198959227
-0.50,1.09,10.57,-0.01,0.08,-0.00,1721198959237
-0.24,-0.46,10.74,0.02,0.05,0.01,1721198959247
0.15,1.26,11.10,0.05,0.10,0.05,1721198959257
0.14,1.18,9.00,0.04,0.06,0.03,1721198959267
0.07,0.74,8.82,-0.02,0.04,-0.08,1721198959277
0.36,0.15,10.98,0.00,0.11,-0.08,1721198959287
-0.49,-0.85,9.52,0.00,0.07,-0.05,1721198959297
-1.70,0.39,7.41,0.01,0.01,0.00,1721198959307
0.21,0.34,8.67,-0.08,0.15,-0.00,1721198959317
0.44,0.11,9.79,-0.02,0.05,-0.05,1721198959327
-0.78,0.93,9.59,-0.04,0.06,-0.09,1721198959337
-1.50,2.17,11.26,-0.01,0.07,-0.01,1721198959347
-0.64,0.96,9.28,-0.03,0.04,0.07,1721198959357
0.61,-0.63,10.08,-0.09,0.10,0.02,1721198959367
0.89,-0.11,11.15,0.00,0.05,-0.06,1721198959377
-0.91,0.34,9.56,-0.01,0.04,-0.09,1721198959387
-0.98,-0.53,10.09,-0.09,0.07,-0.01,1721198959397
-0.80,1.45,13.88,0.00,0.09,0.02,1721198959407
0.33,1.12,9.87,-0.01,0.07,0.01,1721198959417
-0.27,2.45,14.55,0.01,0.09,-0.07,1721198959427
-0.40,1.08,8.27,0.10,0.01,-0.09,1721198959437
-0.89,0.99,12.46,-0.03,0.17,-0.02,1721198959447
-1.30,3.13,11.13,0.15,-0.03,0.05,1721198959457
0.30,1.70,8.15,-0.01,0.11,0.03,1721198959467
1.28,2.14,11.64,0.04,0.06,-0.02,1721198959477
0.40,-0.13,9.75,-0.06,0.09,-0.15,1721198959487
-2.49,1.99,13.07,0.05,0.03,-0.12,1721198959497
-1.25,1.52,7.23,0.04,0.06,0.07,1721198959507
0.67,1.87,11.00,-0.03,0.11,0.10,1721198959517
1.20,-0.17,7.49,-0.00,0.01,-0.02,1721198959527
0.62,0.22,12.08,-0.05,0.11,-0.13,1721198959537
-0.62,0.45,10.55,0.02,0.04,-0.17,1721198959547
-1.57,0.29,11.44,0.04,0.09,-0.07,1721198959557
-1.62,2.01,8.58,0.06,0.09,0.05,1721198959567
-0.04,1.24,6.61,-0.05,0.09,0.03,1721198959577
0.83,-0.85,9.03,-0.17,0.11,-0.08,1721198959587
-0.60,-1.18,10.68,0.02,-0.00,-0.11,1721198959597
-1.37,1.01,10.40,-0.06,0.13,-0.06,1721198959607
-1.40,-0.42,9.91,-0.01,-0.02,0.03,1721198959617
-0.67,-0.70,13.53,-0.08,0.18,0.01,1721198959627
-0.38,1.11,8.49,0.06,-0.04,0.03,1721198959637
-0.48,2.93,12.75,-0.06,0.14,-0.00,1721198959647
-0.21,2.46,7.61,0.10,-0.08,0.02,1721198959657
0.40,0.04,8.31,-0.15,0.16,-0.02,1721198959667
-0.68,1.35,12.18,0.05,0.02,0.00,1721198959677
-1.32,0.73,5.62,-0.08,0.07,0.05,1721198959687
-0.83,1.44,12.83,-0.07,0.07,0.06,1721198959697
1.12,1.18,8.50,0.02,0.05,0.08,1721198959707
0.62,3.25,14.68,-0.04,0.18,0.01,1721198959717
0.21,2.50,10.50,0.10,-0.07,-0.02,1721198959727
-1.28,3.61,12.21,0.05,0.09,-0.01,1721198959737
0.42,-0.65,7.48,0.02,0.05,0.07,1721198959747
-1.69,0.76,13.32,-0.00,0.09,0.03,1721198959757
-0.83,1.57,9.49,0.12,0.02,0.01,1721198959767
-0.56,0.70,8.40,0.01,-0.00,0.11,1721198959777
0.06,2.95,11.71,0.02,0.15,0.09,1721198959787
0.96,1.98,9.53,-0.01,0.05,-0.00,1721198959797
-1.05,2.44,10.27,0.06,-0.01,-0.06,1721198959807
-0.53,-0.25,10.77,-0.11,0.21,0.00,1721198959817
-2.09,0.51,9.78,0.06,-0.17,0.14,1721198959827
-0.39,1.85,10.97,-0.07,0.21,0.14,1721198959837
1.36,1.46,9.75,0.08,-0.04,0.07,1721198959847
0.03,-0.63,6.98,-0.10,-0.01,0.02,1721198959857
-1.57,1.60,16.04,0.03,0.13,-0.04,1721198959867
-1.38,-1.33,6.45,0.02,-0.09,0.10,1721198959877
-1.74,2.77,12.09,-0.00,0.08,0.23,1721198959887
1.83,3.51,8.85,0.11,0.05,0.21,1721198959897
2.48,1.67,10.24,-0.08,0.06,0.04,1721198959907
-0.65,1.39,12.96,0.06,-0.02,-0.06,1721198959917
-1.66,1.10,10.08,0.04,0.05,0.03,1721198959927
-1.07,-0.52,9.34,-0.09,-0.03,0.22,1721198959937
-0.48,4.13,11.95,0.21,-0.07,0.21,1721198959947
3.60,-0.05,5.50,-0.08,0.12,0.10,1721198959957
0.12,-0.98,14.81,-0.02,-0.05,0.00,1721198959967
-2.00,1.86,8.30,0.08,0.01,-0.01,1721198959977
-1.16,-0.17,12.65,-0.07,0.06,0.16,1721198959987
-1.34,3.93,6.92,0.15,-0.26,0.34,1721198959997
4.06,-0.38,11.76,-0.17,0.34,0.09,1721198960007
0.34,-2.45,9.81,0.03,-0.34,-0.07,1721198960017
-3.42,1.07,9.51,-0.10,0.10,-0.09,1721198960027
-1.53,0.99,9.88,0.06,-0.04,0.22,1721198960037
-0.24,-0.64,7.79,-0.15,-0.02,0.37,1721198960047
1.45,3.31,11.71,0.06,-0.02,0.19,1721198960057
2.55,-2.44,9.24,-0.18,-0.02,-0.13,1721198960067
-3.31,3.77,17.63,0.19,-0.17,-0.05,1721198960077
-0.62,-2.57,5.05,-0.04,0.06,0.22,1721198960087
-2.87,4.72,12.64,0.12,-0.20,0.34,1721198960097
3.39,0.50,3.55,-0.04,0.08,0.24,1721198960107
2.02,2.11,13.14,-0.02,-0.11,0.03,1721198960117
0.60,0.58,8.03,0.02,-0.08,-0.09,1721198960127
-2.42,1.33,9.12,0.01,-0.10,0.08,1721198960137
-0.97,0.01,9.65,-0.09,-0.01,0.24,1721198960147
-0.00,0.19,8.86,0.03,-0.20,0.21,1721198960157
1.03,1.42,11.22,-0.05,0.01,0.08,1721198960167
0.32,1.52,11.34,0.02,-0.14,0.07,1721198960177
-1.43,-1.57,13.24,-0.06,-0.07,0.07,1721198960187
-1.48,1.57,10.77,0.18,-0.13,0.27,1721198960197
2.44,1.33,8.09,-0.09,0.03,0.23,1721198960207
1.54,3.87,11.77,0.11,-0.19,0.07,1721198960217
1.67,-2.42,5.81,-0.13,-0.04,-0.06,1721198960227
-2.59,2.92,16.60,0.09,-0.12,-0.05,1721198960237
-1.15,-2.92,5.99,-0.03,-0.13,0.14,1721198960247
-2.18,3.72,14.55,0.08,-0.08,0.20,1721198960257
2.72,1.58,7.88,0.04,-0.02,0.13,1721198960267
0.34,2.95,10.16,0.03,-0.18,0.04,1721198960277
0.68,-0.05,8.42,-0.02,-0.01,-0.02,1721198960287
-0.52,-0.51,12.30,-0.02,-0.16,0.01,1721198960297
-0.99,1.17,12.23,0.08,-0.11,0.13,1721198960307
1.25,1.07,7.71,0.00,-0.06,0.15,1721198960317
0.24,2.40,10.08,-0.01,-0.16,0.03,1721198960327
0.84,0.62,8.88,-0.00,-0.10,-0.08,1721198960337
-0.34,-0.91,10.17,-0.07,-0.10,0.00,1721198960347
-1.33,1.33,10.75,-0.02,-0.09,0.07,1721198960357
0.03,0.03,7.78,-0.05,-0.13,0.10,1721198960367
1.16,0.36,9.70,-0.10,-0.10,0.02,1721198960377
1.04,0.51,11.21,-0.03,-0.13,-0.09,1721198960387
-1.23,1.42,10.64,-0.03,-0.13,-0.13,1721198960397
-1.43,0.45,11.41,-0.03,-0.11,0.02,1721198960407
0.21,-1.18,9.58,-0.07,-0.10,0.14,1721198960417
1.02,1.89,11.60,0.04,-0.12,-0.01,1721198960427
2.05,1.04,10.33,-0.03,-0.09,-0.14,1721198960437
-0.70,1.55,11.78,0.08,-0.22,-0.17,1721198960447
-0.03,1.22,11.20,-0.02,0.09,-0.10,1721198960457
-0.50,0.65,8.67,0.02,-0.20,0.01,1721198960467
-0.27,2.31,9.23,-0.03,-0.05,-0.10,1721198960477
1.49,0.68,11.00,0.00,-0.08,-0.16,1721198960487
0.56,-0.31,10.14,-0.02,-0.10,-0.18,1721198960497
-1.31,1.19,10.26,0.04,-0.09,-0.16,1721198960507
-0.62,1.87,9.79,-0.00,-0.05,-0.09,1721198960517
0.84,1.40,10.74,0.00,-0.12,-0.10,1721198960527
1.19,-0.05,10.95,-0.01,-0.05,-0.25,1721198960537
-1.29,0.32,11.05,0.01,-0.10,-0.26,1721198960547
-2.02,1.84,7.90,0.06,-0.10,-0.16,1721198960557
0.09,0.74,7.83,-0.05,-0.05,-0.14,1721198960567
1.57,0.93,12.22,0.05,-0.03,-0.15,1721198960577
1.53,0.33,8.34,-0.03,-0.02,-0.23,1721198960587
-0.59,1.36,14.30,0.02,-0.03,-0.39,1721198960597
-1.65,0.74,6.54,0.12,-0.14,-0.31,1721198960607
-1.06,1.62,13.17,0.00,0.08,-0.20,1721198960617
0.35,1.50,9.30,0.16,-0.10,-0.16,1721198960627
0.41,0.82,7.60,-0.06,0.05,-0.24,1721198960637
0.42,1.17,11.78,0.05,-0.06,-0.35,1721198960647
-0.31,0.39,8.78,0.00,-0.01,-0.36,1721198960657
-0.58,1.90,13.95,0.01,0.08,-0.26,1721198960667
-0.61,-0.21,8.31,0.05,-0.06,-0.23,1721198960677
-0.49,1.86,10.27,-0.02,0.06,-0.29,1721198960687
0.24,0.41,9.45,0.03,-0.03,-0.31,1721198960697
-0.09,0.47,13.08,0.02,0.03,-0.32,1721198960707
-0.82,0.35,10.99,0.06,0.05,-0.25,1721198960717
-1.35,1.07,7.75,-0.01,-0.01,-0.21,1721198960727
-0.45,1.69,9.73,-0.01,0.02,-0.27,1721198960737
0.89,0.03,11.61,0.01,0.06,-0.27,1721198960747
-0.05,1.31,10.35,0.06,0.02,-0.26,1721198960757
-0.74,2.53,10.03,-0.05,0.09,-0.30,1721198960767
-0.85,1.52,10.18,0.09,-0.10,-0.31,1721198960777
0.47,0.36,10.19,-0.02,0.15,-0.24,1721198960787
-0.37,-0.11,10.84,0.00,0.04,-0.23,1721198960797
-0.94,1.20,7.97,0.01,0.03,-0.32,1721198960807
0.16,0.07,9.43,-0.08,0.06,-0.28,1721198960817
-0.20,1.67,11.44,0.04,0.08,-0.25,1721198960827
0.87,-1.18,10.43,-0.09,0.14,-0.29,1721198960837
-1.20,1.75,10.64,0.06,-0.01,-0.28,1721198960847
-0.28,1.48,8.00,-0.04,0.12,-0.31,1721198960857
-0.35,1.57,12.27,0.02,0.06,-0.31,1721198960867
-0.32,-1.62,7.23,-0.04,0.07,-0.24,1721198960877
-0.85,0.51,14.26,-0.07,0.21,-0.27,1721198960887
-0.87,-0.54,7.24,0.07,-0.07,-0.28,1721198960897
-0.82,2.30,12.57,-0.06,0.22,-0.31,1721198960907
0.84,-0.06,10.60,0.09,0.01,-0.24,1721198960917
-1.14,1.27,12.95,-0.01,0.19,-0.27,1721198960927
-0.55,-0.00,9.17,0.07,0.06,-0.25,1721198960937
-0.09,1.07,13.31,0.06,0.12,-0.33,1721198960947
0.06,2.84,6.80,0.18,0.10,-0.29,1721198960957
0.09,3.05,11.67,0.03,0.27,-0.27,1721198960967
-0.79,1.70,8.15,0.10,0.04,-0.28,1721198960977
-1.13,2.51,11.15,0.05,0.18,-0.29,1721198960987
0.68,0.81,7.34,0.06,0.08,-0.28,1721198960997
-0.13,0.10,10.75,-0.02,0.20,-0.35,1721198961007
-1.81,0.72,7.78,0.10,0.12,-0.29,1721198961017
-1.41,-0.71,12.31,-0.08,0.26,-0.27,1721198961027
-1.84,1.35,11.27,0.15,-0.03,-0.15,1721198961037
0.60,2.10,10.93,-0.00,0.30,-0.17,1721198961047
1.18,1.73,11.02,0.09,0.09,-0.21,1721198961057
-0.49,2.35,11.07,0.03,0.20,-0.33,1721198961067
-1.63,-0.33,10.12,0.05,0.10,-0.27,1721198961077
-2.29,0.80,9.88,0.10,0.11,-0.17,1721198961087
0.53,1.27,9.27,0.02,0.25,-0.11,1721198961097
0.59,1.33,10.37,0.05,0.10,-0.15,1721198961107
-0.65,1.30,7.27,0.02,0.13,-0.28,1721198961117
-2.03,1.72,13.26,0.03,0.19,-0.30,1721198961127
-2.02,-0.40,8.39,0.09,0.06,-0.03,1721198961137
0.48,3.10,11.51,0.05,0.10,0.03,1721198961152
1.97,2.67,9.97,0.09,0.14,-0.05,1721198961156
1.47,0.60,6.37,-0.08,0.10,-0.22,1721198961166
-0.73,0.52,10.71,-0.03,0.15,-0.33,1721198961176
-1.76,0.02,8.79,0.00,0.12,-0.20,1721198961186
-2.47,1.20,9.70,-0.06,0.16,0.00,1721198961196
-0.97,2.20,9.38,0.02,0.12,0.05,1721198961206
1.43,1.59,8.60,-0.10,0.23,-0.12,1721198961216
-0.17,0.45,11.32,-0.03,0.05,-0.18,1721198961226
-0.76,-0.67,13.16,-0.07,0.20,-0.16,1721198961236
-2.02,0.56,13.01,0.08,0.02,-0.03,1721198961246
-0.27,1.48,8.79,0.03,0.17,0.05,1721198961256
0.87,2.27,10.10,0.03,0.10,-0.05,1721198961266
-0.33,1.43,5.65,0.03,0.05,-0.18,1721198961276
-1.72,2.44,13.28,-0.07,0.25,-0.13,1721198961286
-1.56,-0.97,6.59,0.03,-0.04,0.09,1721198961296
-0.55,2.40,14.88,-0.09,0.27,0.04,1721198961306
1.92,0.97,10.35,0.15,-0.02,0.06,1721198961316
0.36,3.56,10.27,-0.01,0.16,-0.12,1721198961326
-0.99,0.67,10.14,0.01,0.08,-0.16,1721198961336
-3.02,1.26,10.73,0.09,0.02,0.01,1721198961346
-0.02,-0.88,8.45,-0.11,0.23,0.13,1721198961356
-0.07,5.56,13.57,0.17,0.03,0.14,1721198961366
3.42,1.84,5.51,-0.07,0.21,-0.03,1721198961376
0.59,4.01,14.91,0.01,0.08,-0.14,1721198961386
-1.60,1.02,8.73,-0.02,0.08,-0.16,1721198961396
-2.61,1.52,13.51,-0.02,0.11,0.02,1721198961406
-0.42,-0.93,6.50,0.01,0.01,0.19,1721198961416
0.78,3.48,12.33,0.05,0.18,0.04,1721198961426
1.50,1.13,5.20,0.05,-0.08,-0.10,1721198961436
-1.75,3.22,13.32,-0.01,0.07,-0.11,1721198961446
-0.97,-1.28,5.03,0.05,-0.03,0.03,1721198961456
-1.93,2.49,14.91,-0.03,0.19,0.08,1721198961466
0.95,0.98,7.26,0.08,0.01,0.11,1721198961476
-0.14,2.03,14.59,-0.04,0.18,-0.03,1721198961486
-0.37,2.61,10.00,0.19,-0.03,0.00,1721198961496
0.59,1.33,9.63,-0.03,0.09,0.02,1721198961506
-0.19,4.48,11.83,0.17,0.02,0.01,1721198961516
0.01,-0.89,7.48,-0.12,0.08,-0.01,1721198961526
-2.95,2.73,11.19,0.13,-0.07,-0.00,1721198961536
-0.59,0.34,7.42,-0.09,0.20,0.05,1721198961546
-0.94,2.05,8.68,0.08,-0.11,0.16,1721198961556
1.56,0.16,9.23,-0.19,0.23,0.11,1721198961566
0.21,3.94,18.60,0.11,-0.01,-0.04,1721198961576
-0.71,1.82,2.81,0.11,-0.12,-0.01,1721198961586
-1.16,2.33,14.19,-0.10,0.14,0.14,1721198961596
0.59,0.90,7.53,0.10,-0.09,0.19,1721198961606
-0.04,-0.92,7.86,-0.18,0.04,0.03,1721198961616
-1.66,2.55,14.41,0.09,-0.06,-0.00,1721198961626
-0.09,0.67,8.79,-0.01,0.13,0.10,1721198961636
-0.85,3.39,9.55,-0.03,-0.02,0.22,1721198961646
1.41,1.60,12.36,-0.09,0.15,0.14,1721198961656
0.48,1.85,11.68,0.09,-0.14,0.06,1721198961666
0.15,1.42,9.60,-0.02,0.05,-0.03,1721198961676
-0.44,1.35,12.31,0.12,-0.05,0.06,1721198961686
-0.75,-0.03,7.85,0.03,0.00,0.14,1721198961696
-0.49,4.66,7.81,0.11,-0.00,0.13,1721198961706
1.70,1.13,6.89,-0.15,0.12,0.04,1721198961716
-1.35,1.64,10.81,0.02,-0.12,-0.01,1721198961726
-0.45,2.04,14.27,-0.02,0.21,-0.01,1721198961736
-1.83,-0.12,10.75,0.07,-0.22,0.23,1721198961746
-2.00,5.71,12.03,-0.01,0.11,0.23,1721198961756
2.57,3.66,8.34,0.08,-0.05,0.17,1721198961766
2.80,1.76,14.43,-0.10,0.08,-0.00,1721198961776
0.02,1.12,8.86,0.11,-0.18,0.01,1721198961786
-1.78,0.95,10.52,-0.14,0.08,0.08,1721198961796
-1.60,1.31,12.35,0.12,-0.18,0.20,1721198961806
0.24,1.24,8.92,-0.05,0.01,0.21,1721198961816
1.70,2.51,10.94,0.09,-0.08,0.22,1721198961826
1.98,0.58,8.18,-0.10,0.03,0.00,1721198961836
-0.97,3.06,11.10,0.05,-0.13,-0.04,1721198961846
-0.17,0.57,8.10,-0.10,0.02,0.01,1721198961856
-0.04,2.07,11.02,0.04,-0.08,0.14,1721198961866
1.26,1.04,9.43,-0.07,0.05,0.02,1721198961876
-0.09,2.09,11.00,0.03,-0.12,-0.09,1721198961886
-0.62,2.00,10.45,0.02,-0.04,-0.08,1721198961896
-1.75,2.94,10.25,0.11,-0.06,0.01,1721198961906
-0.44,2.58,7.97,-0.06,0.02,0.03,1721198961916
0.31,2.88,13.60,0.08,-0.07,0.11,1721198961926
1.51,1.17,5.02,0.03,-0.08,0.03,1721198961936
0.32,2.15,13.54,-0.09,0.04,-0.12,1721198961946
-1.52,1.30,7.29,0.17,-0.25,-0.11,1721198961956
-1.87,0.58,7.43,-0.16,0.02,0.01,1721198961966
-1.42,2.58,13.46,0.09,-0.13,0.16,1721198961976
1.45,2.23,9.80,-0.08,0.07,0.06,1721198961986
0.33,4.80,12.12,0.04,-0.17,-0.04,1721198961996
0.24,-0.34,7.09,-0.12,-0.09,-0.02,1721198962006
-0.80,3.70,12.67,0.06,-0.07,0.05,1721198962016
1.48,-0.73,7.36,-0.18,-0.01,0.05,1721198962026
-1.53,2.34,12.39,0.01,-0.23,-0.01,1721198962036
-0.04,-0.54,7.56,-0.09,-0.01,-0.01,1721198962046
-1.56,2.26,14.57,0.08,-0.17,0.10,1721198962056
-0.02,1.30,10.34,-0.05,0.00,0.16,1721198962066
0.75,3.07,15.96,0.05,-0.12,0.16,1721198962076
0.95,0.56,8.04,0.03,-0.21,0.03,1721198962086
-0.72,3.51,14.36,0.13,-0.09,-0.02,1721198962096
0.67,0.18,4.15,0.03,-0.21,0.05,1721198962106
-1.04,3.08,12.51,-0.02,-0.07,0.12,1721198962116
1.23,2.49,7.20,0.10,-0.10,0.02,1721198962126
0.23,3.59,12.01,-0.06,-0.05,-0.04,1721198962136
-0.16,3.13,10.43,0.09,-0.16,0.05,1721198962146
0.07,4.72,7.91,0.01,-0.12,0.08,1721198962156
1.78,0.98,7.18,-0.10,-0.12,0.07,1721198962166
1.32,1.95,12.17,-0.05,-0.12,-0.05,1721198962176
0.42,-0.57,5.36,-0.08,-0.18,-0.10,1721198962186
-2.25,2.05,11.72,-0.10,-0.12,-0.07,1721198962196
-0.95,1.48,7.32,-0.02,-0.15,0.03,1721198962206
0.64,2.05,12.42,-0.13,0.02,0.03,1721198962216
0.64,2.96,11.16,-0.01,-0.17,-0.05,1721198962226
-0.34,0.16,12.40,-0.10,-0.13,-0.15,1721198962236
-1.82,0.85,14.32,0.10,-0.23,-0.04,1721198962246
-1.16,2.95,8.44,0.05,-0.12,0.08,1721198962256
0.32,1.49,4.95,-0.11,-0.20,0.13,1721198962266
0.65,0.51,7.34,-0.11,-0.20,-0.03,1721198962276
1.09,-0.75,9.86,-0.14,-0.12,-0.24,1721198962286
-1.05,1.85,12.69,0.04,-0.26,-0.14,1721198962296
-0.88,1.58,11.50,-0.09,-0.05,0.01,1721198962306
-0.82,7.21,15.19,0.13,-0.18,0.06,1721198962316
2.83,0.50,5.64,-0.07,-0.20,0.01,1721198962326
1.00,2.97,14.85,0.03,-0.18,-0.17,1721198962336
1.79,1.40,6.71,0.12,-0.18,-0.22,1721198962346
-0.62,4.11,10.15,-0.01,-0.09,-0.19,1721198962356
-0.38,2.31,7.55,0.03,-0.17,-0.08,1721198962366
1.24,3.03,9.68,-0.04,-0.03,-0.13,1721198962376
1.59,2.36,7.99,-0.08,-0.17,-0.26,1721198962386
-0.01,1.66,13.05,-0.07,-0.11,-0.35,1721198962396
-0.78,1.32,8.50,-0.02,-0.17,-0.26,1721198962406
-0.17,0.32,10.05,-0.11,-0.09,-0.16,1721198962416
1.23,2.41,11.50,0.05,-0.07,-0.21,1721198962426
1.49,1.40,8.35,-0.12,-0.04,-0.38,1721198962436
-0.68,-0.03,10.50,-0.09,-0.18,-0.44,1721198962446
-1.09,-0.04,10.91,-0.07,-0.04,-0.41,1721198962456
-0.42,1.59,12.80,-0.01,-0.01,-0.29,1721198962466
0.88,-0.23,7.99,-0.07,-0.11,-0.28,1721198962476
0.21,0.04,12.16,-0.04,-0.06,-0.41,1721198962486
0.10,-0.32,9.33,-0.02,-0.06,-0.49,1721198962496
-1.21,1.00,17.64,-0.02,0.04,-0.51,1721198962506
-1.08,-0.76,7.72,0.12,-0.21,-0.34,1721198962516
-0.79,3.39,11.08,-0.05,0.06,-0.30,1721198962526
2.91,2.43,9.51,0.03,-0.01,-0.40,1721198962536
1.61,-0.23,10.45,-0.15,-0.00,-0.61,1721198962546
-1.06,0.65,9.11,0.05,-0.13,-0.55,1721198962556
-0.61,-0.84,8.63,-0.18,0.13,-0.44,1721198962566
0.49,0.49,15.90,-0.00,0.06,-0.45,1721198962576
0.07,1.06,6.65,0.01,-0.06,-0.54,1721198962586
-1.72,4.93,12.54,-0.05,0.10,-0.61,1721198962596
-0.60,0.84,9.19,-0.06,0.01,-0.56,1721198962606
-1.12,-0.98,11.44,-0.08,0.01,-0.48,1721198962616
-0.45,1.64,10.94,0.06,0.05,-0.47,1721198962626
1.17,0.33,9.36,-0.08,0.09,-0.56,1721198962636
-0.43,3.09,9.29,0.13,-0.03,-0.55,1721198962646
1.28,2.63,12.35,-0.04,0.31,-0.56,1721198962656
0.05,2.77,7.06,0.10,-0.04,-0.55,1721198962666
0.78,0.73,13.86,-0.15,0.37,-0.70,1721198962676
0.57,3.35,13.94,0.25,-0.00,-0.61,1721198962686
0.90,-0.74,6.35,-0.05,0.20,-0.62,1721198962696
-0.51,3.40,13.68,0.13,0.13,-0.62,1721198962706
2.21,-0.13,8.13,0.00,0.16,-0.70,1721198962716
-1.44,2.16,13.35,0.13,0.03,-0.68,1721198962726
-1.14,0.17,7.54,0.06,0.23,-0.66,1721198962736
-1.54,1.06,12.15,0.08,0.13,-0.65,1721198962746
0.47,-1.76,6.47,0.08,0.18,-0.61,1721198962756
-0.08,2.08,14.97,0.14,0.34,-0.66,1721198962766
0.95,-0.70,7.65,0.22,0.13,-0.70,1721198962776
-1.33,-2.52,8.96,0.14,0.26,-0.71,1721198962786
-1.68,0.37,12.13,0.32,0.25,-0.76,1721198962796
-2.92,13.55,16.46,0.53,0.25,-0.66,1721198962806
-0.75,12.03,3.81,0.20,0.19,-0.43,1721198962816
1.75,-6.23,8.06,-0.42,0.31,-0.39,1721198962826
3.01,-9.00,19.40,-0.01,0.36,-0.76,1721198962836
0.21,4.92,8.20,0.46,0.13,-0.89,1721198962846
-1.43,3.11,1.88,0.08,0.36,-0.78,1721198962856
-3.15,-1.35,15.45,-0.01,0.31,-0.65,1721198962866
-2.85,-2.63,13.38,0.20,0.26,-0.43,1721198962876
-2.03,-0.27,9.71,0.03,0.32,-0.36,1721198962886
0.81,3.18,14.86,0.18,0.31,-0.48,1721198962896
0.56,5.94,7.07,0.20,0.23,-0.57,1721198962906
-1.93,5.49,7.68,0.03,0.32,-0.54,1721198962916
-0.41,-1.85,8.87,-0.25,0.35,-0.48,1721198962926
0.23,-3.12,12.88,-0.12,0.24,-0.47,1721198962936
0.61,1.67,4.98,0.03,0.34,-0.62,1721198962946
-0.19,1.91,8.69,-0.22,0.52,-0.80,1721198962956
-5.51,-1.44,4.81,-0.09,0.13,-0.67,1721198962966
-6.44,-3.12,11.52,-0.35,0.56,-0.40,1721198962976
-3.77,-1.30,14.56,-0.04,0.24,-0.13,1721198962986
0.64,-1.14,10.53,-0.12,0.37,-0.09,1721198962996
2.39,6.17,14.93,0.12,0.34,-0.33,1721198963006
2.62,1.52,0.15,-0.09,0.18,-0.55,1721198963016
-2.31,-0.67,11.51,-0.29,0.35,-0.51,1721198963026
-2.21,-5.48,6.73,-0.10,0.20,-0.31,1721198963036
-2.02,2.12,9.65,-0.03,0.41,-0.25,1721198963046
0.51,-2.02,-0.30,-0.17,0.24,-0.28,1721198963056
-4.87,1.33,12.70,-0.24,0.34,-0.55,1721198963066
-6.07,4.43,10.84,0.12,0.13,-0.28,1721198963076
-4.33,-2.03,14.97,-0.70,0.39,0.19,1721198963086
-1.19,1.87,29.20,0.15,0.22,0.41,1721198963096
9.26,-12.26,-2.80,-0.20,0.23,0.14,1721198963106
0.11,1.82,14.30,0.08,0.60,-0.31,1721198963116
2.35,8.89,-7.21,0.33,0.18,-0.52,1721198963126
-4.05,4.28,1.11,-0.75,0.88,-0.50,1721198963136
-6.66,-1.03,24.60,-0.31,-0.12,0.06,1721198963146
1.51,-1.10,23.03,-0.10,0.50,0.45,1721198963161
-3.65,2.18,20.05,0.12,0.37,0.50,1721198963165
4.37,5.88,9.30,0.16,0.31,0.23,1721198963175
1.51,2.20,4.30,-0.04,0.16,0.05,1721198963185
-0.49,0.27,19.01,-0.10,0.43,0.02,1721198963195
-3.23,-1.86,6.99,0.13,-0.13,0.39,1721198963205
0.02,1.59,11.07,-0.13,0.59,0.41,1721198963215
3.24,3.31,14.23,0.24,0.04,0.25,1721198963225
-0.57,3.97,-0.65,0.14,-0.00,0.01,1721198963235
-1.30,5.26,13.62,-0.09,0.61,-0.01,1721198963245
-2.76,1.43,11.11,0.06,0.09,0.28,1721198963255
0.13,-4.05,13.57,-0.20,0.53,0.47,1721198963265
1.28,2.37,13.95,0.20,0.01,0.50,1721198963275
2.72,6.54,12.02,0.11,0.36,0.11,1721198963285
-0.50,5.54,10.20,0.21,0.03,0.00,1721198963295
-3.94,-4.42,5.71,-0.22,0.21,0.17,1721198963305
-5.34,-4.91,16.29,0.05,0.12,0.52,1721198963315
0.67,2.46,6.92,0.27,0.20,0.76,1721198963325
4.03,9.91,9.49,0.13,0.27,0.56,1721198963335
3.78,9.94,4.38,0.14,0.09,0.26,1721198963345
2.14,-10.25,1.58,-0.56,0.16,0.02,1721198963355
-6.41,-7.41,20.31,-0.12,-0.04,0.14,1721198963365
-3.79,-1.72,8.04,0.32,0.22,0.65,1721198963375
0.69,4.79,7.52,0.08,0.15,0.90,1721198963385
2.15,9.55,9.66,0.20,0.03,0.45,1721198963395
2.54,-0.03,5.06,-0.27,0.17,0.09,1721198963405
-2.58,-11.22,14.26,-0.36,0.15,0.12,1721198963415
-5.21,-5.93,12.84,0.18,0.07,0.55,1721198963425
-0.42,0.17,-0.56,0.25,0.10,0.93,1721198963435
5.16,7.76,12.37,0.08,0.37,0.59,1721198963445
3.00,12.95,11.48,0.19,-0.23,0.14,1721198963455
-1.41,-2.84,4.14,-0.48,0.08,0.10,1721198963465
-4.32,-14.92,20.31,-0.44,0.11,0.51,1721198963475
-2.17,-1.99,13.47,0.31,-0.04,0.85,1721198963485
4.62,13.28,5.00,0.17,0.16,0.82,1721198963495
6.31,11.30,7.52,-0.09,0.14,0.25,1721198963505
3.15,-17.72,8.80,-0.67,-0.01,-0.24,1721198963515
-13.02,-5.50,36.74,0.12,-0.28,-0.03,1721198963525
-8.85,0.68,-13.05,0.69,-0.35,1.35,1721198963535
13.15,-0.32,2.61,-0.61,1.14,1.36,1721198963545
9.87,34.14,28.92,0.85,-0.34,0.47,1721198963555
5.73,5.25,4.17,-0.06,0.11,-0.87,1721198963565
-11.64,-1.57,26.04,0.09,-0.70,0.05,1721198963575
-2.69,-4.98,-10.32,0.20,0.20,1.29,1721198963585
13.50,3.29,5.79,-0.42,0.66,1.18,1721198963595
11.81,7.38,31.22,0.24,-0.17,-0.18,1721198963605
1.54,-4.74,-9.04,0.29,-0.63,-0.53,1721198963615
-11.76,-3.87,13.90,-0.60,0.64,-0.73,1721198963625
-13.47,14.06,30.47,0.76,0.12,0.20,1721198963635
-5.44,6.13,-17.21,0.11,0.10,1.50,1721198963645
4.09,12.83,7.18,-0.24,0.19,1.51,1721198963655
18.26,-8.94,4.41,-0.35,-0.03,0.44,1721198963665
16.66,-7.31,17.76,-0.52,0.19,-0.69,1721198963675
-3.62,2.55,20.54,0.39,-0.55,-0.49,1721198963685
-14.72,2.97,0.47,0.03,-0.16,0.40,1721198963695
-7.28,6.39,10.90,0.21,0.11,1.10,1721198963705
4.28,-8.83,-2.74,-0.44,-0.08,1.02,1721198963715
3.06,-0.43,23.02,-0.12,0.26,0.10,1721198963725
2.97,-0.39,2.73,0.34,-0.12,-0.13,1721198963735
-5.32,-2.42,-2.88,-0.29,0.04,0.37,1721198963745
-2.64,-1.79,12.84,0.08,-0.22,0.71,1721198963755
2.72,1.84,14.38,0.05,-0.02,0.60,1721198963765
1.30,0.36,14.43,-0.25,-0.23,0.32,1721198963775
-1.57,-1.30,11.88,0.01,-0.22,0.26,1721198963785
-1.80,0.56,-9.79,-0.15,-0.12,0.44,1721198963795
-2.37,-5.39,5.12,-0.78,0.44,0.44,1721198963805
1.45,3.02,37.55,0.09,-0.15,0.40,1721198963815
2.63,-13.64,13.35,0.07,-0.38,0.33,1721198963825
-5.44,9.59,6.30,0.49,-0.58,0.56,1721198963835
8.30,8.46,-11.94,-0.14,0.44,0.54,1721198963845
-3.47,14.85,7.34,-0.25,-0.26,0.51,1721198963855
1.11,-1.26,17.98,-0.50,0.05,0.04,1721198963865
1.70,-13.85,32.68,-0.20,-0.18,-0.04,1721198963875
-3.06,2.37,13.93,0.33,-0.13,-0.03,1721198963885
-3.77,3.40,-5.70,-0.15,-0.14,0.74,1721198963895
-2.06,6.30,14.31,-0.12,0.30,0.67,1721198963905
7.22,2.07,5.88,0.09,-0.12,0.47,1721198963915
2.93,0.62,20.88,-0.24,0.05,-0.05,1721198963925
1.45,6.22,12.39,0.25,-0.15,-0.01,1721198963935
-2.66,0.32,3.33,-0.30,-0.02,0.14,1721198963945
-7.52,4.57,7.03,0.19,-0.25,0.40,1721198963955
1.35,-7.11,-3.42,-0.41,0.21,0.80,1721198963965
1.35,-5.77,31.78,-0.44,0.25,0.33,1721198963975
1.95,0.46,14.03,0.36,-0.53,-0.23,1721198963985
-1.23,-4.88,18.28,-0.38,0.24,-0.32,1721198963995
-8.83,9.14,17.12,0.71,-0.43,0.37,1721198964005
6.51,-1.19,-12.66,-0.22,0.05,0.80,1721198964015
-0.54,9.25,18.98,-0.11,0.30,0.57,1721198964025
7.46,-7.23,4.41,-0.08,-0.27,-0.02,1721198964035
-4.66,-1.72,16.90,0.00,-0.19,-0.29,1721198964045
-2.59,5.19,10.79,0.46,-0.02,0.05,1721198964055
-0.80,2.43,6.89,-0.09,-0.02,0.44,1721198964065
0.68,5.87,5.41,0.10,-0.19,0.56,1721198964075
7.30,-4.60,6.80,-0.55,0.23,0.15,1721198964085
1.40,1.97,16.22,0.08,-0.46,-0.13,1721198964095
-0.45,-5.89,-0.03,-0.05,-0.04,0.01,1721198964105
-4.78,1.44,23.67,-0.04,0.10,0.26,1721198964115
-1.59,1.15,0.84,0.35,-0.39,0.44,1721198964125
4.20,-2.16,12.38,-0.36,0.48,0.25,1721198964135
5.15,4.22,13.73,0.20,-0.16,0.15,1721198964145
2.65,3.34,9.59,0.07,0.20,-0.01,1721198964155
-0.45,2.85,18.77,-0.01,-0.09,0.15,1721198964165
-0.62,3.40,27.18,0.14,0.03,0.12,1721198964175
1.37,3.41,2.98,0.54,-0.28,0.23,1721198964185
4.46,2.53,8.07,-0.15,0.48,0.02,1721198964195
1.40,6.62,16.89,0.41,0.00,-0.20,1721198964205
-1.13,6.92,-6.33,0.31,-0.03,-0.18,1721198964215
1.24,-2.30,6.97,-0.34,0.43,0.12,1721198964225
-0.26,-0.48,19.92,0.11,-0.06,0.10,1721198964235
0.41,3.20,8.72,0.00,0.17,-0.21,1721198964245
-0.93,2.18,11.17,0.06,-0.06,-0.11,1721198964255
-2.48,2.98,8.97,0.05,0.14,-0.03,1721198964265
0.03,1.74,12.29,-0.06,0.13,0.08,1721198964275
-0.05,-0.69,8.44,-0.06,-0.09,0.08,1721198964285
0.97,1.99,11.09,0.05,0.19,-0.13,1721198964295
1.13,-1.23,5.18,-0.11,-0.00,-0.21,1721198964305
-2.09,3.42,15.15,-0.02,0.09,-0.11,1721198964315
0.89,0.90,7.55,0.05,0.08,0.02,1721198964325
0.97,-6.36,8.62,-0.27,0.08,-0.11,1721198964335
-2.81,2.08,16.21,-0.01,0.17,-0.62,1721198964345
-9.09,-1.83,0.62,-0.01,-0.45,-0.22,1721198964355
-4.63,-7.24,10.04,-0.43,0.32,0.79,1721198964365
9.13,1.83,12.79,0.24,0.14,0.68,1721198964375
14.26,-3.59,1.13,-0.23,0.01,-0.43,1721198964385
-4.65,7.48,18.49,-0.05,-0.13,-1.49,1721198964395
-9.91,-3.02,3.80,-0.16,0.04,-0.50,1721198964405
-5.46,-8.55,4.06,-0.59,0.17,0.78,1721198964415
4.55,-3.71,15.04,-0.30,0.21,0.40,1721198964425
5.58,-1.06,15.67,-0.15,0.02,-0.62,1721198964435
-6.28,-1.84,15.78,-0.14,-0.16,-0.79,1721198964445
-11.93,2.21,9.60,-0.09,-0.00,0.09,1721198964455
-2.50,1.30,8.49,-0.36,0.27,0.87,1721198964465
11.40,2.92,10.79,-0.31,0.15,0.47,1721198964475
6.52,0.01,7.98,-0.12,-0.18,-0.37,1721198964485
0.43,2.90,9.67,-0.17,-0.02,-0.60,1721198964495
-4.65,0.02,12.54,-0.18,0.04,-0.38,1721198964505
-7.63,-2.36,8.98,-0.13,-0.18,0.21,1721198964515
-0.71,2.27,11.91,-0.14,0.27,0.45,1721198964525
2.44,4.71,9.42,0.10,-0.06,0.31,1721198964535
3.93,1.98,9.38,-0.11,0.24,-0.05,1721198964545
1.13,0.69,14.07,-0.05,-0.06,-0.33,1721198964555
-3.56,0.27,8.50,0.12,-0.08,-0.21,1721198964565
-2.35,-1.27,14.20,-0.12,0.15,0.15,1721198964575
-0.63,8.16,17.97,0.29,-0.04,0.39,1721198964585
2.27,1.43,2.22,0.10,-0.06,0.17,1721198964595
4.08,-0.63,10.87,-0.08,0.13,-0.14,1721198964605
-1.12,-0.83,9.87,0.20,-0.14,-0.25,1721198964615
-3.75,-1.68,9.83,0.03,0.07,-0.11,1721198964625
-2.84,3.44,13.19,0.26,0.01,0.20,1721198964635
-0.92,0.92,5.29,0.16,0.01,0.33,1721198964645
2.48,-1.61,10.47,0.04,0.11,0.15,1721198964655
