AccX,AccY,AccZ,GyrX,GyrY,GyrZ,Time
-0.89,2.10,12.20,-0.03,-0.16,-1.06,1721199095128
-5.34,4.13,12.61,-0.01,0.06,-0.98,1721199095132
-9.96,2.37,8.78,-0.01,-0.23,-0.31,1721199095142
-10.32,3.17,5.24,-0.10,-0.14,0.06,1721199095152
-5.78,4.55,13.17,-0.08,-0.12,-0.02,1721199095162
-6.05,4.39,8.68,-0.04,-0.49,-0.06,1721199095172
-5.19,1.68,14.70,-0.06,-0.14,0.00,1721199095182
-3.89,2.79,9.29,0.17,-0.45,0.05,1721199095192
-1.38,3.18,7.68,-0.01,-0.25,0.05,1721199095202
1.92,1.64,10.69,0.05,-0.32,0.08,1721199095212
4.83,0.22,11.77,0.08,-0.20,-0.00,1721199095222
5.66,3.19,11.59,0.21,-0.20,-0.33,1721199095232
3.43,0.51,8.35,0.06,-0.28,-0.59,1721199095242
-0.46,-0.66,13.05,0.14,-0.12,-0.54,1721199095252
-1.47,-2.66,8.50,0.09,-0.30,-0.17,1721199095262
-0.17,0.31,9.79,0.05,-0.08,-0.07,1721199095272
3.63,-0.09,12.09,0.03,-0.13,-0.22,1721199095282
1.24,0.45,8.47,0.03,-0.22,-0.53,1721199095292
-0.41,-1.91,9.99,-0.05,-0.05,-0.52,1721199095302
-1.81,-2.51,11.42,0.02,-0.21,-0.20,1721199095312
0.92,-1.56,9.56,-0.00,0.03,-0.09,1721199095322
2.99,-0.73,13.06,-0.02,-0.07,-0.29,1721199095332
0.57,-0.81,9.76,0.05,-0.14,-0.51,1721199095342
-2.49,-1.61,6.67,-0.01,-0.08,-0.53,1721199095352
-3.84,-2.66,12.27,-0.05,-0.08,-0.36,1721199095362
-3.05,-1.75,10.98,0.10,-0.16,-0.15,1721199095372
-0.34,1.13,8.67,-0.01,-0.01,-0.20,1721199095382
-0.34,-0.22,10.35,-0.08,-0.10,-0.41,1721199095392
-3.46,-1.19,8.29,0.01,-0.19,-0.50,1721199095402
-3.92,-0.98,10.84,-0.05,-0.03,-0.33,1721199095412
-3.03,-1.26,8.97,-0.00,-0.28,-0.12,1721199095422
0.54,-0.80,9.79,-0.08,-0.02,-0.13,1721199095432
1.08,-0.87,10.35,-0.08,-0.24,-0.37,1721199095442
-1.10,-0.18,10.59,-0.10,-0.11,-0.52,1721199095452
-2.20,-1.27,11.62,-0.08,-0.14,-0.44,1721199095462
-3.91,-1.94,9.07,-0.15,-0.23,-0.32,1721199095472
-2.92,0.41,12.47,-0.11,-0.07,-0.21,1721199095482
-1.33,0.90,10.11,-0.11,-0.25,-0.16,1721199095492
-1.20,1.16,9.24,-0.14,-0.19,-0.19,1721199095502
-0.55,1.68,10.85,-0.09,-0.19,-0.22,1721199095512
-1.00,-0.10,7.63,-0.13,-0.30,-0.14,1721199095522
-0.35,1.02,11.35,-0.11,-0.14,-0.09,1721199095532
1.13,-0.02,11.18,-0.12,-0.27,-0.11,1721199095542
0.06,1.75,9.79,-0.07,-0.23,-0.20,1721199095552
0.68,1.44,11.40,-0.15,-0.14,-0.23,1721199095562
-1.70,-0.08,10.03,-0.12,-0.37,-0.15,1721199095572
-0.55,2.88,10.61,0.03,-0.09,-0.07,1721199095582
2.86,2.97,11.03,-0.11,-0.23,-0.12,1721199095592
0.07,2.39,10.05,0.04,-0.32,-0.27,1721199095602
1.43,0.04,10.18,0.05,-0.07,-0.22,1721199095612
-0.71,1.46,11.45,0.02,-0.34,-0.15,1721199095622
0.45,1.30,8.27,0.11,-0.13,-0.10,1721199095632
2.61,1.71,10.82,0.03,-0.14,-0.19,1721199095642
1.80,1.42,9.10,0.07,-0.22,-0.34,1721199095652
1.33,1.96,11.34,0.04,-0.04,-0.43,1721199095662
0.06,0.90,10.96,0.09,-0.25,-0.38,1721199095672
0.11,1.00,10.25,0.09,-0.07,-0.35,1721199095682
1.48,-0.48,8.99,0.11,-0.14,-0.37,1721199095692
1.53,-1.42,9.92,0.01,-0.02,-0.44,1721199095702
1.41,-0.11,11.64,0.11,-0.05,-0.51,1721199095712
0.66,0.58,9.72,0.02,-0.01,-0.56,1721199095722
-0.22,1.40,11.74,0.04,-0.04,-0.52,1721199095732
0.16,0.33,8.86,0.02,-0.01,-0.46,1721199095742
0.49,0.11,10.35,-0.00,-0.01,-0.48,1721199095752
0.32,-0.09,9.33,0.07,-0.02,-0.55,1721199095762
0.50,-2.04,10.05,0.01,0.05,-0.58,1721199095772
-0.21,-0.49,11.61,0.09,0.03,-0.56,1721199095782
0.28,-0.89,8.17,-0.04,0.08,-0.53,1721199095792
-0.37,0.74,11.69,-0.08,0.09,-0.59,1721199095802
0.17,1.35,12.18,-0.04,0.08,-0.62,1721199095812
-0.22,1.09,9.02,0.03,-0.05,-0.52,1721199095822
0.98,0.23,9.93,-0.06,0.18,-0.54,1721199095832
0.79,0.88,11.55,0.00,0.02,-0.63,1721199095842
-0.03,-1.62,7.45,-0.03,0.08,-0.68,1721199095852
0.16,-1.07,12.67,-0.12,0.24,-0.63,1721199095862
0.19,0.68,11.54,-0.05,0.07,-0.57,1721199095872
0.56,2.60,10.43,-0.09,0.23,-0.64,1721199095882
0.22,2.77,11.69,-0.10,0.15,-0.74,1721199095892
-2.34,0.83,8.74,-0.08,0.07,-0.72,1721199095902
-2.16,1.58,9.89,-0.04,0.20,-0.57,1721199095912
-1.03,0.79,10.00,-0.04,0.08,-0.45,1721199095922
-0.52,-0.04,8.24,-0.03,0.10,-0.47,1721199095932
0.57,0.11,9.88,-0.06,0.21,-0.59,1721199095942
-0.95,-0.09,11.41,-0.13,0.12,-0.67,1721199095952
-3.28,1.31,10.73,-0.02,0.09,-0.59,1721199095962
-1.93,0.93,10.64,-0.08,0.20,-0.39,1721199095972
-0.95,2.21,10.04,0.00,0.05,-0.31,1721199095982
0.84,0.76,8.38,-0.08,0.17,-0.45,1721199095992
-0.30,0.93,11.58,-0.03,0.10,-0.60,1721199096002
-2.19,0.27,9.19,0.02,0.10,-0.55,1721199096012
-3.08,0.43,10.68,-0.01,0.13,-0.35,1721199096022
-1.12,-0.09,10.92,0.03,0.09,-0.20,1721199096032
1.28,1.92,9.97,0.06,0.16,-0.28,1721199096042
1.50,1.04,9.02,-0.04,0.10,-0.48,1721199096052
-1.18,0.77,10.90,-0.02,0.10,-0.51,1721199096062
-2.18,-0.10,10.32,-0.00,0.12,-0.34,1721199096072
-1.81,0.53,9.50,0.02,0.05,-0.18,1721199096082
0.42,0.40,11.25,-0.00,0.15,-0.20,1721199096092
0.95,0.71,11.10,0.06,0.04,-0.30,1721199096102
0.35,0.27,9.84,0.00,0.16,-0.35,1721199096112
-0.95,1.78,12.06,0.04,0.11,-0.28,1721199096122
-1.30,0.54,7.29,0.00,0.07,-0.19,1721199096132
-0.10,1.75,10.82,0.02,0.15,-0.15,1721199096142
1.10,0.16,10.14,0.02,0.07,-0.17,1721199096152
-0.25,0.22,9.11,0.04,0.04,-0.20,1721199096162
0.64,-1.88,9.66,-0.05,0.16,-0.20,1721199096172
0.16,-1.07,11.89,0.01,0.02,-0.20,1721199096182
0.49,0.10,8.06,0.09,0.11,-0.20,1721199096192
1.08,-1.57,11.44,-0.14,0.20,-0.22,1721199096202
-0.97,0.25,10.58,0.05,-0.02,-0.20,1721199096212
-0.28,-1.43,8.19,-0.09,0.24,-0.18,1721199096222
-0.38,0.02,12.63,-0.05,0.06,-0.17,1721199096232
0.70,0.59,9.16,0.00,0.15,-0.17,1721199096242
0.88,0.08,11.15,-0.06,0.15,-0.22,1721199096252
-0.73,0.73,9.89,0.02,0.11,-0.29,1721199096262
-0.56,0.60,11.36,-0.05,0.20,-0.24,1721199096272
-0.97,0.90,10.13,0.03,0.06,-0.16,1721199096282
0.34,0.09,9.47,-0.05,0.22,-0.18,1721199096292
0.20,0.02,10.93,0.01,0.08,-0.27,1721199096302
-0.07,-0.18,9.42,0.01,0.20,-0.29,1721199096312
-0.25,0.54,12.13,-0.02,0.14,-0.27,1721199096322
-0.37,-0.01,9.21,0.02,0.13,-0.28,1721199096332
0.21,1.67,11.19,0.00,0.22,-0.30,1721199096342
-0.30,1.28,10.43,0.01,0.09,-0.32,1721199096352
-0.88,1.62,11.02,0.03,0.21,-0.33,1721199096362
-0.53,1.12,9.40,0.04,0.13,-0.31,1721199096372
-1.13,1.05,9.16,-0.00,0.16,-0.28,1721199096382
0.26,1.75,12.93,0.03,0.23,-0.26,1721199096392
0.15,0.51,8.71,0.08,0.06,-0.26,1721199096402
0.98,-1.57,9.47,-0.07,0.31,-0.33,1721199096412
1.19,-0.11,13.03,0.02,0.17,-0.42,1721199096422
-0.45,-0.67,7.46,0.07,0.15,-0.42,1721199096432
-1.07,1.48,11.77,0.03,0.31,-0.41,1721199096442
-1.37,1.86,9.56,0.12,0.12,-0.33,1721199096452
-0.76,0.24,9.79,0.03,0.29,-0.30,1721199096462
-0.17,0.23,11.91,0.11,0.20,-0.32,1721199096472
-1.39,0.55,8.28,0.17,0.19,-0.37,1721199096482
-0.90,-0.35,9.55,0.06,0.29,-0.29,1721199096492
-0.69,-0.78,12.18,0.08,0.18,-0.21,1721199096502
0.23,-0.09,9.54,0.14,0.25,-0.21,1721199096512
0.78,-0.24,10.01,0.02,0.28,-0.34,1721199096522
-1.01,0.67,9.87,0.13,0.18,-0.44,1721199096532
-1.89,-3.15,8.70,0.03,0.26,-0.37,1721199096542
-2.74,0.01,12.27,0.15,0.25,-0.27,1721199096552
-1.76,-1.18,6.91,0.06,0.19,-0.18,1721199096562
-1.64,0.39,13.47,0.06,0.27,-0.24,1721199096572
-0.71,-0.27,9.01,0.15,0.16,-0.26,1721199096582
-1.79,-1.65,9.46,-0.07,0.27,-0.31,1721199096592
-2.95,-0.16,11.46,0.09,0.13,-0.22,1721199096602
-2.10,0.09,9.56,-0.02,0.24,-0.10,1721199096612
-1.35,0.77,10.54,0.01,0.09,-0.10,1721199096622
-0.40,1.44,9.76,0.02,0.20,-0.22,1721199096632
-1.45,-0.14,9.26,-0.04,0.11,-0.27,1721199096642
-3.26,-0.16,10.60,-0.01,0.14,-0.17,1721199096652
-2.28,0.23,10.66,0.05,0.15,0.00,1721199096662
-1.42,1.80,8.42,0.07,0.08,0.05,1721199096672
-0.41,1.58,9.79,0.03,0.14,0.04,1721199096682
-0.77,-0.45,10.23,0.03,0.03,0.02,1721199096692
-1.32,0.16,11.60,0.07,0.09,0.05,1721199096702
-1.05,0.05,8.49,0.10,0.01,0.12,1721199096712
-0.14,0.85,10.62,-0.02,0.10,0.15,1721199096722
0.27,1.10,9.72,0.07,-0.03,0.08,1721199096732
-0.20,0.00,10.56,-0.08,0.13,-0.08,1721199096742
-2.39,0.76,14.92,0.04,-0.06,-0.04,1721199096752
-3.06,1.48,11.67,0.11,0.03,0.16,1721199096762
-1.99,3.26,8.36,0.12,-0.06,0.28,1721199096772
-0.59,2.97,9.28,-0.00,-0.00,0.24,1721199096782
0.29,2.48,9.45,0.04,-0.06,0.18,1721199096792
0.42,2.18,9.96,-0.05,0.01,0.13,1721199096802
-0.54,2.46,10.18,0.03,-0.11,0.15,1721199096812
-0.03,0.36,8.30,-0.08,0.01,0.19,1721199096822
-0.13,2.57,13.29,-0.02,-0.03,0.16,1721199096832
-0.35,1.03,8.12,-0.02,-0.11,0.12,1721199096842
-1.51,0.56,11.98,-0.07,-0.00,0.14,1721199096852
-1.36,0.96,10.00,0.09,-0.10,0.26,1721199096862
-0.60,-0.44,8.21,-0.03,-0.04,0.34,1721199096872
1.06,1.54,11.22,0.03,-0.03,0.29,1721199096882
1.84,0.46,9.77,-0.01,-0.09,0.20,1721199096892
0.14,0.19,9.04,-0.02,-0.06,0.08,1721199096902
-0.36,-0.88,10.19,-0.07,-0.08,0.11,1721199096912
-1.36,-1.51,8.37,-0.04,-0.17,0.23,1721199096922
0.62,0.04,12.11,-0.08,0.04,0.26,1721199096932
0.69,0.60,10.50,-0.05,-0.22,0.13,1721199096942
-1.27,-2.63,7.82,-0.10,-0.09,0.01,1721199096952
-1.89,-2.87,11.84,-0.11,-0.08,0.13,1721199096962
-2.15,-3.82,9.22,-0.12,-0.21,0.30,1721199096972
0.08,-0.31,12.42,-0.07,0.01,0.33,1721199096982
3.04,-1.25,10.07,-0.16,-0.20,0.22,1721199096992
1.21,-0.80,10.67,-0.20,-0.06,0.05,1721199097002
0.96,-0.57,9.94,-0.12,-0.10,0.02,1721199097012
-0.28,-0.14,10.12,-0.21,-0.11,0.11,1721199097022
1.26,-0.67,7.95,-0.11,-0.13,0.22,1721199097032
3.92,0.22,10.07,-0.18,0.04,0.11,1721199097042
4.00,1.88,10.78,-0.11,-0.10,-0.13,1721199097052
1.78,-0.78,9.34,-0.18,-0.01,-0.33,1721199097062
-1.39,-0.34,10.97,-0.16,-0.06,-0.29,1721199097072
-1.74,-0.99,9.78,-0.17,-0.01,-0.08,1721199097082
-0.44,-0.51,9.64,-0.14,0.02,-0.04,1721199097092
0.62,-1.31,9.71,-0.20,0.03,-0.16,1721199097102
-0.34,-0.28,10.75,-0.18,0.04,-0.30,1721199097112
-0.92,-1.96,9.74,-0.23,0.02,-0.33,1721199097122
-1.23,1.47,13.04,-0.17,0.02,-0.17,1721199097137
-0.61,0.66,11.43,-0.11,-0.02,-0.15,1721199097141
1.22,-0.60,10.75,-0.21,0.11,-0.20,1721199097151
0.89,1.24,11.73,-0.12,0.00,-0.32,1721199097161
0.85,0.94,10.92,-0.08,0.14,-0.47,1721199097171
-1.20,1.94,11.17,-0.01,0.03,-0.49,1721199097181
-1.90,0.94,10.09,0.01,0.13,-0.42,1721199097191
-1.95,1.13,11.62,0.02,0.07,-0.29,1721199097201
-0.19,1.20,10.19,0.07,0.14,-0.26,1721199097211
0.50,0.47,9.59,0.05,0.09,-0.36,1721199097221
0.05,0.20,10.03,0.13,0.12,-0.40,1721199097231
0.40,-0.66,9.70,0.10,0.16,-0.38,1721199097241
-1.47,1.10,11.65,0.17,0.12,-0.33,1721199097251
-0.40,0.16,9.45,0.16,0.17,-0.29,1721199097261
-0.32,-1.24,10.44,0.08,0.14,-0.31,1721199097271
0.25,1.85,11.83,0.20,0.18,-0.34,1721199097281
0.24,2.04,8.99,0.14,0.17,-0.36,1721199097291
-1.45,-2.05,8.45,0.06,0.15,-0.37,1721199097301
-1.80,-0.40,11.65,0.13,0.20,-0.36,1721199097311
-1.40,-1.10,9.32,0.08,0.15,-0.35,1721199097321
-1.91,-0.23,11.88,0.03,0.21,-0.33,1721199097331
-1.44,2.45,11.39,0.14,0.16,-0.24,1721199097341
-1.39,0.09,7.21,0.06,0.14,-0.19,1721199097351
-0.96,0.96,11.39,0.02,0.26,-0.23,1721199097361
-0.93,0.50,9.46,0.13,0.02,-0.18,1721199097371
-0.05,-0.28,8.72,0.05,0.26,-0.17,1721199097381
-0.26,0.57,11.35,0.08,0.10,-0.22,1721199097391
-1.44,0.05,8.61,0.10,0.10,-0.25,1721199097401
-1.67,0.65,10.92,0.04,0.21,-0.22,1721199097411
-2.52,-0.40,9.81,0.11,-0.00,-0.06,1721199097421
-0.93,-2.21,10.56,0.01,0.24,-0.05,1721199097431
-1.44,0.98,11.43,0.17,-0.02,-0.06,1721199097441
-0.58,-0.23,7.87,0.08,0.17,-0.04,1721199097451
-1.06,2.23,11.85,0.14,0.07,-0.06,1721199097461
-0.49,0.77,9.04,0.10,0.10,-0.05,1721199097471
-1.03,-0.24,12.35,0.02,0.08,-0.04,1721199097481
-1.03,1.43,10.48,0.20,0.04,0.03,1721199097491
-0.06,-1.47,8.45,0.06,0.08,0.01,1721199097501
-0.85,2.71,12.66,0.17,0.07,-0.01,1721199097511
-0.33,1.12,8.61,0.15,0.05,0.03,1721199097521
-1.70,1.12,10.11,0.11,0.06,0.02,1721199097531
-1.34,0.10,11.05,0.12,0.05,0.04,1721199097541
-2.09,0.75,9.70,0.17,-0.04,0.16,1721199097551
-0.44,-1.55,9.04,0.06,0.06,0.28,1721199097561
0.74,3.32,12.54,0.19,0.04,0.23,1721199097571
1.82,-0.00,6.97,0.10,0.02,0.09,1721199097581
-0.30,0.57,11.40,0.02,0.07,0.01,1721199097591
-0.76,1.11,11.19,0.18,-0.00,0.10,1721199097601
-0.68,1.02,8.62,0.11,0.01,0.20,1721199097611
0.40,1.04,9.07,0.10,0.03,0.19,1721199097621
1.24,1.03,13.07,0.02,0.10,0.08,1721199097631
-1.09,0.81,11.12,0.13,-0.09,0.01,1721199097641
-1.96,0.96,9.57,0.06,0.08,0.07,1721199097651
-1.03,2.73,10.10,0.12,-0.01,0.22,1721199097661
1.27,-1.27,7.58,-0.05,0.05,0.18,1721199097671
1.12,-0.02,12.09,0.01,0.03,0.01,1721199097681
0.24,-0.16,9.19,0.02,0.01,-0.03,1721199097691
-0.92,1.85,11.44,0.05,0.03,0.03,1721199097701
0.45,1.20,9.00,0.04,0.04,0.11,1721199097711
0.21,0.72,10.02,-0.05,0.02,0.09,1721199097721
0.09,-0.48,10.75,-0.04,0.05,0.01,1721199097731
0.69,-0.23,11.81,-0.03,0.03,0.08,1721199097741
1.71,1.45,8.24,0.06,-0.00,0.11,1721199097751
2.40,1.39,9.61,-0.11,0.14,-0.03,1721199097761
0.21,0.20,10.64,-0.05,-0.04,-0.16,1721199097771
-0.55,-1.30,11.29,-0.11,0.14,-0.07,1721199097781
-0.74,-0.32,10.15,0.01,-0.01,0.07,1721199097791
0.25,-1.70,7.18,-0.14,0.09,0.02,1721199097801
0.54,1.11,12.58,-0.02,0.10,-0.11,1721199097811
0.02,-0.82,8.38,-0.15,0.03,-0.17,1721199097821
-2.95,1.04,12.89,-0.07,0.04,-0.14,1721199097831
-1.25,-0.26,7.10,-0.08,0.08,-0.02,1721199097841
-0.98,0.36,11.26,-0.20,0.08,-0.01,1721199097851
-0.25,-1.33,10.51,-0.08,-0.03,-0.06,1721199097861
0.33,-1.86,10.00,-0.16,0.10,-0.09,1721199097871
0.01,0.68,12.01,-0.09,0.04,-0.12,1721199097881
-0.43,0.44,8.08,-0.11,0.02,-0.12,1721199097891
-1.20,-1.25,9.84,-0.19,0.08,-0.15,1721199097901
-1.18,0.04,11.83,-0.10,0.05,-0.04,1721199097911
0.22,-1.67,10.13,-0.17,0.06,0.03,1721199097921
0.31,2.33,11.45,-0.04,0.08,-0.06,1721199097931
1.34,1.21,8.81,-0.15,0.12,-0.17,1721199097941
-1.36,0.55,10.47,-0.17,-0.01,-0.18,1721199097951
-0.55,-0.31,10.72,-0.12,0.13,-0.12,1721199097961
-0.74,-0.17,10.97,-0.14,0.03,-0.10,1721199097971
-0.48,0.50,10.27,-0.08,0.08,-0.14,1721199097981
-1.05,0.43,10.34,-0.11,0.05,-0.17,1721199097991
-2.01,1.70,9.49,-0.02,0.02,-0.15,1721199098001
-1.04,-1.07,9.71,-0.16,0.13,-0.10,1721199098011
-1.61,0.32,11.50,-0.06,-0.01,-0.07,1721199098021
-0.65,-1.95,8.84,-0.09,0.07,-0.06,1721199098031
-0.51,-0.13,11.00,-0.06,0.04,-0.06,1721199098041
0.55,0.40,10.45,-0.02,0.08,-0.01,1721199098051
-0.07,1.67,8.81,0.05,0.02,-0.09,1721199098061
0.38,0.18,11.09,-0.10,0.13,-0.12,1721199098071
-0.72,-0.14,12.95,0.01,-0.01,-0.02,1721199098081
-0.47,-1.31,9.32,0.05,0.10,0.02,1721199098091
0.13,1.18,8.70,0.09,0.05,-0.02,1721199098101
0.56,-0.02,9.66,0.03,0.12,-0.11,1721199098111
-0.53,0.14,12.15,0.01,0.09,-0.16,1721199098121
-1.89,-0.93,10.56,-0.02,0.03,-0.15,1721199098131
-2.23,0.98,12.79,0.01,0.11,-0.08,1721199098141
-1.83,-0.25,8.61,0.12,0.00,-0.01,1721199098151
-0.53,-0.16,9.33,0.08,0.13,-0.00,1721199098161
0.48,1.39,12.23,0.13,0.09,-0.03,1721199098171
-0.31,0.45,8.37,0.15,0.04,-0.08,1721199098181
-0.26,-2.50,9.02,0.10,0.10,-0.12,1721199098191
-0.21,-0.11,9.78,0.24,0.00,-0.03,1721199098201
-0.93,1.94,10.28,0.19,0.18,-0.05,1721199098211
-0.25,1.41,11.85,0.13,0.02,-0.04,1721199098221
-0.52,-1.62,9.43,0.15,0.06,-0.04,1721199098231
0.19,0.13,12.62,0.07,0.20,-0.11,1721199098241
-1.31,2.38,9.87,0.21,-0.05,-0.14,1721199098251
-0.81,-1.12,7.03,0.08,0.16,-0.11,1721199098261
-0.76,0.06,13.11,0.12,0.09,-0.13,1721199098271
-0.77,-1.25,8.58,0.10,0.07,-0.12,1721199098281
-0.71,1.58,12.89,0.00,0.20,-0.15,1721199098291
-1.24,1.50,7.43,0.22,-0.05,-0.16,1721199098301
-0.50,-2.79,7.75,-0.14,0.29,-0.19,1721199098311
-1.95,0.01,15.62,0.03,0.01,-0.22,1721199098321
-1.72,-1.35,6.70,0.12,0.06,-0.18,1721199098331
-1.18,1.28,11.75,0.03,0.17,-0.16,1721199098341
-1.80,-0.38,7.82,0.13,-0.06,-0.14,1721199098351
-0.97,-0.10,11.21,-0.06,0.28,-0.18,1721199098361
-1.00,-1.82,10.26,0.06,-0.06,-0.17,1721199098371
-2.12,-0.95,10.12,0.00,0.20,-0.20,1721199098381
-2.15,1.87,11.35,0.17,0.01,-0.11,1721199098391
-2.43,-0.05,7.94,-0.02,0.05,-0.04,1721199098401
-1.42,2.59,13.24,0.11,0.07,-0.09,1721199098411
-0.53,-1.71,6.75,0.05,-0.05,-0.10,1721199098421
-1.40,0.61,12.50,0.02,0.14,-0.09,1721199098431
-1.21,0.66,9.57,0.18,-0.03,-0.07,1721199098441
-1.97,1.45,9.96,0.06,0.08,-0.07,1721199098451
-0.85,4.49,11.59,0.22,-0.01,0.05,1721199098461
-0.06,2.37,8.02,0.08,0.00,0.07,1721199098471
-0.33,0.66,11.94,0.05,0.02,-0.01,1721199098481
-1.10,0.20,10.10,0.13,-0.03,-0.03,1721199098491
-1.13,1.19,9.05,0.11,0.04,0.06,1721199098501
-0.43,1.81,10.52,0.11,0.00,0.12,1721199098511
-0.42,1.34,8.26,0.02,0.03,0.01,1721199098521
-1.00,0.49,12.24,-0.08,0.01,-0.00,1721199098531
-2.49,-0.44,10.34,0.08,-0.12,0.16,1721199098541
-1.70,0.63,9.76,0.03,0.06,0.26,1721199098551
-0.57,1.28,8.89,0.06,-0.15,0.33,1721199098561
1.53,1.15,10.86,-0.05,0.07,0.29,1721199098571
1.73,0.61,11.62,-0.01,-0.08,0.12,1721199098581
-0.58,-2.00,11.23,-0.10,-0.03,0.06,1721199098591
-2.04,1.97,13.14,0.10,-0.04,0.15,1721199098601
-1.52,1.81,7.23,0.05,-0.11,0.32,1721199098611
-0.47,-1.56,5.68,-0.10,-0.06,0.32,1721199098621
1.82,-1.98,14.77,-0.07,0.08,0.23,1721199098631
0.37,-0.94,11.22,0.07,-0.25,0.11,1721199098641
-0.91,0.69,9.63,0.01,0.04,0.08,1721199098651
-1.16,3.13,10.61,0.05,-0.15,0.23,1721199098661
-0.32,-2.17,5.66,-0.16,-0.11,0.31,1721199098671
1.17,-1.19,13.14,-0.07,0.03,0.15,1721199098681
0.62,-1.06,9.84,0.05,-0.19,-0.04,1721199098691
-2.72,-0.70,6.54,-0.00,-0.12,0.02,1721199098701
-2.56,-0.83,9.45,-0.08,-0.02,0.20,1721199098711
-2.27,-1.34,9.93,-0.10,-0.23,0.35,1721199098721
0.52,-0.67,12.87,-0.08,-0.01,0.37,1721199098731
1.75,-3.46,10.93,-0.21,-0.27,0.28,1721199098741
-1.41,1.12,13.31,-0.06,-0.08,0.14,1721199098751
0.06,-0.99,7.04,-0.11,-0.22,0.17,1721199098761
-1.41,-2.09,9.03,-0.28,-0.10,0.13,1721199098771
0.91,-0.99,10.55,-0.01,-0.14,0.12,1721199098781
1.13,-2.17,8.03,-0.14,-0.23,0.13,1721199098791
-0.67,2.83,14.00,0.00,-0.08,0.14,1721199098801
1.10,2.38,10.33,0.06,-0.18,0.17,1721199098811
0.24,0.24,10.69,-0.17,-0.13,0.13,1721199098821
-0.47,2.88,11.14,0.14,-0.17,0.06,1721199098831
0.33,-1.49,8.71,-0.14,-0.09,-0.02,1721199098841
-1.83,-0.29,12.50,0.10,-0.27,0.04,1721199098851
2.46,-5.14,9.12,-0.06,0.00,0.10,1721199098861
-0.46,1.67,14.37,0.05,-0.20,0.01,1721199098871
1.82,0.20,8.24,0.07,-0.09,-0.06,1721199098881
-0.47,1.09,12.61,-0.04,-0.11,-0.06,1721199098891
0.17,-1.07,8.49,0.07,-0.12,-0.04,1721199098901
0.30,0.77,12.79,0.02,-0.02,-0.02,1721199098911
0.77,-0.49,8.39,0.19,-0.25,-0.04,1721199098921
1.85,-0.34,12.60,0.00,0.11,-0.14,1721199098931
-0.00,-2.00,9.36,0.22,-0.30,-0.18,1721199098941
0.95,-2.64,8.46,-0.02,0.21,-0.19,1721199098951
-0.26,2.07,12.34,0.13,-0.17,-0.17,1721199098961
1.07,-1.23,7.83,-0.01,0.08,-0.20,1721199098971
0.14,0.40,12.48,0.02,-0.02,-0.23,1721199098981
-0.38,-0.93,7.20,0.07,-0.07,-0.24,1721199098991
0.30,1.55,12.75,0.05,0.15,-0.25,1721199099001
0.41,-0.56,8.60,0.16,-0.17,-0.20,1721199099011
0.13,-2.05,10.81,-0.00,0.21,-0.27,1721199099021
-1.14,0.24,10.88,0.25,-0.10,-0.34,1721199099031
-1.12,-3.33,5.44,0.01,0.05,-0.33,1721199099041
-0.91,1.18,15.73,0.13,0.12,-0.23,1721199099051
1.35,-1.05,7.65,0.10,0.02,-0.18,1721199099061
0.10,0.10,10.50,-0.03,0.18,-0.27,1721199099071
0.11,2.82,9.37,0.13,0.02,-0.37,1721199099081
-0.75,-0.10,9.74,-0.07,0.12,-0.37,1721199099091
-1.24,0.10,11.11,0.12,0.02,-0.27,1721199099101
-0.56,-2.09,8.94,0.01,0.14,-0.26,1721199099111
-1.09,-0.98,13.29,0.09,0.06,-0.32,1721199099121
-0.56,0.28,9.66,0.17,0.09,-0.22,1721199099131
0.26,2.66,14.96,0.02,0.24,-0.23,1721199099146
-0.56,3.21,13.54,0.16,0.15,-0.22,1721199099150
0.87,-2.20,7.05,0.02,0.08,-0.27,1721199099160
-1.65,1.24,13.64,0.04,0.16,-0.29,1721199099170
-0.45,3.94,8.66,0.24,0.10,-0.27,1721199099180
-1.31,0.60,6.49,0.03,0.08,-0.22,1721199099190
-1.07,-1.07,12.18,0.07,0.20,-0.21,1721199099200
-1.65,0.23,11.15,0.18,0.06,-0.24,1721199099210
-2.06,1.85,8.51,0.19,0.09,-0.20,1721199099220
-1.89,-0.75,8.13,0.00,0.08,-0.19,1721199099230
-2.77,-0.80,14.35,0.02,0.11,-0.13,1721199099240
-1.44,-0.90,8.45,0.14,0.02,0.00,1721199099250
0.67,-0.06,8.31,-0.03,0.15,0.03,1721199099260
1.38,2.90,10.94,-0.01,0.09,-0.10,1721199099270
2.22,1.66,11.15,-0.00,0.15,-0.16,1721199099280
-0.41,0.25,7.68,0.06,-0.03,-0.32,1721199099290
-0.53,0.96,13.36,-0.03,0.28,-0.29,1721199099300
-2.22,1.26,11.78,0.05,-0.07,-0.06,1721199099310
-0.39,1.55,9.74,0.00,0.17,0.13,1721199099320
3.05,0.37,9.80,-0.02,0.16,-0.11,1721199099330
1.27,-0.98,6.90,-0.09,0.02,-0.31,1721199099340
-0.12,3.02,11.72,-0.09,0.27,-0.31,1721199099350
1.01,-8.99,5.60,-0.06,-0.19,0.16,1721199099360
1.47,6.83,16.69,0.04,0.62,0.09,1721199099370
4.39,5.24,8.95,-0.00,-0.09,-0.28,1721199099380
-2.67,-0.05,8.10,-0.16,0.22,-0.57,1721199099390
-2.44,0.16,13.05,0.09,0.25,-0.31,1721199099400
-2.02,0.82,9.99,0.00,0.14,0.20,1721199099410
-0.01,-0.69,8.71,0.06,0.33,0.14,1721199099420
-1.85,2.02,9.48,-0.09,0.21,-0.45,1721199099430
-8.52,-2.21,9.83,-0.07,-0.19,-0.08,1721199099440
0.23,-6.43,15.15,-0.09,0.57,0.74,1721199099450
9.32,1.99,6.06,0.36,0.06,0.82,1721199099460
12.74,1.86,4.38,-0.15,0.54,-0.30,1721199099470
1.27,6.32,12.55,-0.03,-0.11,-1.42,1721199099480
-12.87,-2.52,13.62,-0.00,0.11,-0.83,1721199099490
-13.48,-2.43,10.77,0.07,0.14,0.44,1721199099500
-2.62,-0.15,4.94,-0.01,0.25,0.92,1721199099510
5.71,4.60,12.83,-0.08,0.19,0.19,1721199099520
5.64,-1.60,11.25,-0.04,-0.05,-0.47,1721199099530
-3.04,0.01,14.10,-0.03,0.24,-0.44,1721199099540
-6.68,-3.73,8.18,-0.02,0.05,0.02,1721199099550
-3.93,-3.59,4.60,-0.23,0.06,0.32,1721199099560
4.00,-3.26,14.84,-0.10,0.21,0.34,1721199099570
5.69,-3.41,13.22,-0.02,-0.03,0.10,1721199099580
1.87,1.61,12.01,-0.10,0.24,-0.40,1721199099590
-3.42,4.25,13.30,0.08,-0.01,-0.58,1721199099600
-7.05,-1.56,5.21,-0.09,-0.03,-0.23,1721199099610
-6.24,0.19,13.45,-0.06,0.20,0.32,1721199099620
-1.24,-1.10,7.95,0.01,-0.08,0.64,1721199099630
2.35,1.86,10.52,-0.10,0.22,0.28,1721199099640
3.48,0.78,9.79,0.10,-0.12,-0.17,1721199099650
0.21,0.57,8.65,-0.08,0.10,-0.29,1721199099660
-2.37,3.68,14.04,0.14,-0.00,-0.02,1721199099670
-2.66,1.72,7.43,-0.05,0.03,0.18,1721199099680
-0.74,3.79,14.11,0.03,0.07,0.16,1721199099690
1.75,1.22,5.89,0.07,-0.13,0.00,1721199099700
-0.17,3.73,8.92,-0.03,0.11,-0.24,1721199099710
-2.99,1.01,9.79,0.02,-0.13,-0.18,1721199099720
-5.67,0.99,11.95,0.01,-0.04,0.09,1721199099730
-2.44,1.13,8.32,0.08,-0.07,0.27,1721199099740
0.80,0.17,7.46,-0.03,-0.05,0.30,1721199099750
2.63,2.21,11.16,-0.01,0.05,0.02,1721199099760
-0.99,2.47,10.22,0.08,-0.17,-0.16,1721199099770
-2.75,1.55,11.23,-0.01,0.04,-0.05,1721199099780
-3.60,-1.28,6.93,0.02,-0.23,0.18,1721199099790
-2.38,-2.55,9.72,-0.22,0.05,0.18,1721199099800
-1.79,0.44,12.94,0.10,-0.24,0.06,1721199099810
0.84,-1.27,7.04,0.01,-0.00,0.06,1721199099820
-0.91,0.19,9.73,-0.02,-0.15,0.05,1721199099830
-1.53,-0.90,11.03,-0.11,-0.06,0.04,1721199099840
-3.26,2.75,14.33,-0.12,-0.19,-0.01,1721199099850
-0.80,0.25,9.65,-0.10,-0.14,0.09,1721199099860
0.68,-5.82,6.59,-0.20,-0.20,0.26,1721199099870
2.46,-2.58,11.12,-0.03,0.03,0.24,1721199099880
1.33,3.22,11.71,0.02,-0.19,0.05,1721199099890
-1.84,3.80,13.01,0.04,-0.18,-0.05,1721199099900
1.37,-0.66,10.39,-0.06,0.02,-0.03,1721199099910
1.06,-4.31,9.48,-0.04,-0.15,0.05,1721199099920
-0.23,-2.58,6.91,0.18,-0.12,0.06,1721199099930
0.97,1.29,17.82,-0.08,0.21,0.04,1721199099940
-1.98,-1.76,8.99,0.07,-0.54,0.03,1721199099950
1.68,0.07,11.66,-0.15,0.40,-0.15,1721199099960
0.10,-1.60,12.38,0.04,-0.51,0.01,1721199099970
-3.10,-0.73,7.95,0.03,0.18,-0.08,1721199099980
-1.78,3.98,16.67,0.09,-0.07,-0.00,1721199099990
1.49,-1.12,6.92,0.11,-0.29,0.18,1721199100000
3.09,-4.52,7.71,-0.02,0.15,0.12,1721199100010
0.45,2.45,12.19,-0.01,-0.07,-0.11,1721199100020
-3.33,-2.79,6.38,-0.00,-0.27,-0.20,1721199100030
0.49,-0.13,16.58,0.02,0.26,0.14,1721199100040
1.31,1.23,6.96,0.05,-0.32,0.27,1721199100050
0.77,2.73,10.53,-0.12,0.21,0.06,1721199100060
2.40,-0.72,8.82,-0.04,-0.24,-0.12,1721199100070
-0.38,-2.81,6.37,-0.12,0.02,-0.08,1721199100080
-1.14,1.33,9.48,0.13,0.00,0.03,1721199100090
0.09,-3.58,9.12,-0.16,-0.04,0.02,1721199100100
-1.57,2.83,17.80,0.13,-0.01,-0.13,1721199100110
0.16,4.28,10.92,0.19,-0.06,-0.01,1721199100120
-0.03,4.21,6.58,-0.02,-0.09,0.18,1721199100130
2.47,-2.24,6.44,-0.17,0.07,0.08,1721199100140
2.96,-7.07,13.53,-0.21,0.03,-0.20,1721199100150
-0.11,2.20,13.88,0.22,-0.04,-0.37,1721199100160
0.48,3.84,5.63,0.12,-0.01,-0.16,1721199100170
-0.22,5.78,8.62,-0.05,0.07,-0.08,1721199100180
1.09,-1.38,9.77,-0.27,0.04,-0.13,1721199100190
-1.20,-4.34,15.70,-0.30,-0.05,-0.25,1721199100200
0.69,-0.73,13.82,0.03,0.07,-0.06,1721199100210
1.38,0.11,5.76,-0.08,-0.04,-0.04,1721199100220
-0.22,1.56,8.87,-0.09,0.07,-0.27,1721199100230
1.55,-0.58,13.56,-0.19,0.11,-0.25,1721199100240
-1.27,-1.24,13.33,-0.12,-0.12,-0.01,1721199100250
0.84,2.19,8.97,-0.03,0.21,-0.12,1721199100260
2.85,2.34,12.76,-0.10,0.04,-0.24,1721199100270
0.02,-0.37,5.02,0.11,-0.11,-0.28,1721199100280
0.29,-1.92,10.39,-0.18,0.31,-0.35,1721199100290
-1.47,4.18,16.59,0.13,-0.15,-0.32,1721199100300
-0.20,-2.08,8.76,0.09,0.17,-0.12,1721199100310
-1.08,3.43,15.11,0.10,0.22,-0.26,1721199100320
-0.99,2.10,5.46,0.19,-0.05,-0.33,1721199100330
-0.06,-1.82,11.14,0.10,0.27,-0.24,1721199100340
-1.04,1.09,9.52,0.35,0.02,-0.23,1721199100350
-1.74,-4.12,5.41,-0.12,0.22,-0.33,1721199100360
-1.18,1.77,18.51,0.33,0.13,-0.31,1721199100370
-0.08,-5.33,3.92,0.28,-0.02,-0.23,1721199100380
-3.62,5.34,12.30,0.26,0.32,-0.21,1721199100390
-1.85,-5.77,-1.68,0.06,-0.21,-0.23,1721199100400
-1.61,0.83,12.89,-0.07,0.49,-0.25,1721199100410
1.17,-5.66,15.92,0.05,-0.07,-0.17,1721199100420
-5.58,-2.93,9.57,0.09,0.01,-0.32,1721199100430
-0.38,-0.92,11.10,0.02,0.36,-0.24,1721199100440
-3.48,1.39,10.09,0.01,-0.26,-0.02,1721199100450
-0.63,0.72,7.49,0.09,0.28,-0.09,1721199100460
0.84,1.10,9.58,-0.04,-0.06,-0.22,1721199100470
-1.44,-1.20,7.34,-0.03,0.01,-0.33,1721199100480
-1.39,1.93,14.36,-0.08,0.26,-0.35,1721199100490
-2.37,0.35,10.00,0.04,-0.16,-0.07,1721199100500
-1.50,-0.44,6.54,0.03,0.18,0.04,1721199100510
1.50,1.11,11.12,-0.01,0.06,-0.06,1721199100520
0.95,5.79,12.63,0.09,0.02,-0.25,1721199100530
1.04,-1.20,11.05,-0.08,0.05,-0.37,1721199100540
-5.01,1.79,13.19,0.09,-0.09,-0.36,1721199100550
-5.70,-0.60,8.55,-0.04,0.07,-0.12,1721199100560
-6.86,3.29,9.17,0.09,-0.22,0.27,1721199100570
0.69,-0.11,5.94,0.01,0.14,0.44,1721199100580
2.99,4.20,12.18,0.03,0.02,0.08,1721199100590
1.53,0.55,5.87,0.10,-0.19,-0.23,1721199100600
-0.49,3.19,11.42,-0.01,0.22,-0.20,1721199100610
-2.37,0.16,10.67,-0.07,-0.18,-0.03,1721199100620
-3.15,0.28,9.62,-0.06,-0.04,0.08,1721199100630
0.11,-0.38,14.31,-0.19,0.09,0.08,1721199100640
-3.54,0.62,10.96,-0.03,-0.33,-0.03,1721199100650
0.82,-2.86,10.31,-0.06,0.18,0.07,1721199100660
-1.54,-0.03,8.32,-0.02,-0.29,0.11,1721199100670
-1.50,2.37,11.51,-0.05,0.19,0.07,1721199100680
1.19,-3.18,6.20,-0.07,-0.31,0.14,1721199100690
-0.83,-5.09,12.26,-0.24,0.11,0.07,1721199100700
0.83,-3.61,14.49,-0.05,-0.21,0.02,1721199100710
0.72,1.66,8.88,-0.07,-0.06,0.19,1721199100720
-1.40,2.24,8.94,0.03,-0.10,0.03,1721199100730
2.75,-3.95,11.46,-0.15,0.07,-0.01,1721199100740
-0.51,3.06,14.71,0.08,-0.11,-0.07,1721199100750
-2.10,-2.34,5.48,0.01,-0.13,0.03,1721199100760
-0.13,-0.79,12.32,-0.14,0.17,0.04,1721199100770
1.04,-0.51,9.85,0.14,-0.24,0.07,1721199100780
1.81,-1.47,9.84,-0.03,0.15,-0.11,1721199100790
1.48,3.20,12.31,0.29,-0.19,0.01,1721199100800
1.15,0.62,9.93,0.03,0.18,-0.06,1721199100810
0.17,0.69,10.97,0.12,-0.12,-0.01,1721199100820
1.03,-1.65,6.72,0.09,0.11,-0.09,1721199100830
-0.06,1.13,11.42,0.06,0.01,-0.14,1721199100840
0.12,-1.51,9.67,0.01,-0.05,-0.00,1721199100850
0.06,2.55,13.26,0.20,0.10,0.06,1721199100860
1.68,0.90,8.42,0.10,0.04,-0.15,1721199100870
-0.85,0.12,9.16,0.12,0.00,-0.23,1721199100880
-0.94,1.03,11.17,0.18,0.18,-0.19,1721199100890
-2.12,-1.07,11.77,0.08,-0.06,-0.05,1721199100900
-1.38,1.20,9.99,0.21,0.11,0.07,1721199100910
2.20,2.83,12.34,0.15,0.13,0.04,1721199100920
2.71,-0.29,8.87,0.12,-0.04,-0.09,1721199100930
3.29,2.62,11.63,0.15,0.26,-0.25,1721199100940
1.83,1.71,9.83,0.05,0.02,-0.26,1721199100950
-0.51,1.27,8.35,0.02,0.14,-0.23,1721199100960
1.06,-0.65,10.86,-0.05,0.26,-0.31,1721199100970
-2.16,0.47,10.87,0.02,-0.05,-0.30,1721199100980
-2.00,2.45,11.60,0.05,0.30,-0.21,1721199100990
-0.47,0.30,8.13,-0.03,0.01,-0.09,1721199101000
-0.64,2.00,9.08,-0.00,0.15,-0.11,1721199101010
1.47,-1.31,9.90,-0.08,0.16,-0.16,1721199101020
1.95,-0.23,9.88,-0.04,0.12,-0.21,1721199101030
1.32,-0.44,7.14,-0.04,0.18,-0.26,1721199101040
-0.76,-2.12,8.20,-0.08,0.10,-0.43,1721199101050
-0.30,-0.91,14.28,-0.02,0.31,-0.32,1721199101060
-2.09,-0.96,9.43,-0.07,0.00,-0.28,1721199101070
-1.29,1.42,10.87,0.12,0.27,-0.30,1721199101080
0.79,-3.36,12.56,-0.10,0.25,-0.36,1721199101090
-3.05,0.07,9.84,0.09,-0.06,-0.24,1721199101100
-0.64,-2.71,8.03,-0.08,0.44,-0.17,1721199101110
-3.05,-2.07,12.11,0.04,-0.03,-0.21,1721199101120
-0.39,2.58,12.28,0.10,0.33,-0.17,1721199101130
-1.63,2.61,11.03,0.12,0.04,-0.15,1721199101140
-2.56,-3.29,10.24,-0.07,0.02,-0.11,1721199101155
-0.22,-4.48,11.18,0.01,0.21,-0.15,1721199101159
-3.15,0.23,11.62,0.12,0.00,-0.08,1721199101169
-0.19,-2.30,10.74,0.14,0.23,0.03,1721199101179
-3.42,-3.92,5.28,0.13,-0.16,-0.06,1721199101189
0.26,-4.11,16.11,-0.05,0.45,0.00,1721199101199
-2.45,0.79,9.12,0.25,-0.28,0.08,1721199101209
-1.48,0.20,4.64,-0.02,0.33,-0.08,1721199101219
-1.08,2.48,10.97,0.10,-0.04,-0.01,1721199101229
-1.96,-3.70,7.80,-0.17,0.12,0.01,1721199101239
-2.94,2.09,13.95,0.16,-0.06,0.06,1721199101249
-0.52,-0.99,5.75,0.01,0.04,0.08,1721199101259
-1.98,4.46,9.66,0.06,-0.07,0.15,1721199101269
0.34,-0.04,7.86,0.04,0.11,0.13,1721199101279
-0.52,0.92,9.39,0.03,-0.09,0.14,1721199101289
1.16,-0.06,7.88,0.02,0.04,0.23,1721199101299
1.33,1.41,12.98,-0.03,-0.02,0.17,1721199101309
0.22,2.23,10.65,0.06,-0.13,0.06,1721199101319
-0.92,1.78,9.72,-0.02,-0.09,0.04,1721199101329
-1.87,1.79,9.47,-0.01,-0.14,0.11,1721199101339
-1.63,1.84,11.54,-0.14,0.04,0.13,1721199101349
-1.81,1.74,12.83,0.04,-0.18,0.14,1721199101359
-1.65,0.70,6.09,-0.00,-0.07,0.15,1721199101369
-0.76,3.06,13.40,-0.04,0.00,0.20,1721199101379
0.35,2.79,12.58,-0.10,-0.21,0.18,1721199101389
-0.06,-0.44,12.07,-0.14,-0.16,0.11,1721199101399
0.31,2.70,10.90,0.05,-0.10,0.05,1721199101409
-0.36,0.52,9.84,-0.06,-0.15,0.05,1721199101419
-1.97,-0.19,10.64,0.05,-0.16,0.02,1721199101429
0.02,-1.64,12.21,-0.02,-0.01,0.11,1721199101439
-1.77,-1.63,11.19,0.01,-0.28,0.18,1721199101449
0.99,3.13,9.48,0.09,0.05,0.21,1721199101459
-0.61,-2.04,7.08,0.04,-0.32,0.13,1721199101469
1.29,-4.28,10.57,0.10,0.11,0.13,1721199101479
1.77,-0.05,12.64,0.13,-0.22,0.10,1721199101489
1.94,-0.06,9.36,-0.01,-0.07,0.11,1721199101499
1.27,-3.79,13.71,0.07,-0.14,0.03,1721199101509
0.66,-1.96,6.65,0.10,-0.09,-0.10,1721199101519
0.05,1.55,12.90,0.02,0.13,-0.17,1721199101529
-1.86,-3.98,6.32,0.01,-0.35,-0.06,1721199101539
-2.23,2.17,14.71,0.07,0.28,0.03,1721199101549
1.20,0.70,10.21,-0.02,-0.26,0.02,1721199101559
-0.87,3.80,7.90,0.10,-0.01,-0.07,1721199101569
1.06,-2.75,6.24,0.03,-0.15,0.01,1721199101579
-0.61,-0.07,10.45,0.08,-0.05,0.07,1721199101589
1.83,-1.29,12.98,0.03,-0.01,0.02,1721199101599
1.94,-0.78,9.77,0.08,-0.17,0.08,1721199101609
1.33,-2.09,8.55,0.02,0.00,-0.03,1721199101619
-0.21,-0.00,14.69,0.07,-0.04,-0.13,1721199101629
-0.66,-2.35,8.00,0.14,-0.23,0.14,1721199101639
0.44,4.65,10.62,0.32,0.23,-0.19,1721199101649
2.25,-8.59,1.63,-0.11,-0.31,0.13,1721199101659
-2.76,7.66,21.52,0.03,0.24,0.53,1721199101669
7.88,1.01,10.68,0.10,0.01,0.02,1721199101679
3.22,3.19,7.39,-0.01,-0.14,-0.44,1721199101689
4.36,4.94,10.92,0.05,0.24,-0.36,1721199101699
-1.48,-2.79,7.69,-0.18,-0.18,-0.46,1721199101709
-3.55,0.65,11.43,0.02,0.16,-0.24,1721199101719
0.32,-1.29,6.34,-0.13,0.08,0.01,1721199101729
-2.47,5.83,11.84,0.00,-0.04,-0.27,1721199101739
0.18,1.37,11.09,-0.08,0.15,-0.21,1721199101749
-0.45,0.55,13.33,-0.02,-0.13,-0.07,1721199101759
2.63,0.78,9.31,0.05,0.24,-0.22,1721199101769
2.02,1.11,10.96,-0.09,0.06,-0.40,1721199101779
-1.46,1.10,10.20,0.05,0.01,-0.42,1721199101789
-0.41,-0.99,9.26,-0.04,0.25,-0.36,1721199101799
-1.66,0.23,10.26,0.01,-0.02,-0.32,1721199101809
-0.50,1.10,11.00,-0.05,0.31,-0.26,1721199101819
-0.61,-1.50,10.41,-0.07,0.00,-0.23,1721199101829
-0.44,-0.03,8.41,-0.00,0.21,-0.31,1721199101839
0.72,-0.98,10.67,-0.15,0.21,-0.27,1721199101849
-1.92,1.22,11.52,-0.01,0.00,-0.30,1721199101859
-0.19,0.45,10.69,-0.10,0.33,-0.30,1721199101869
-2.35,-0.67,9.55,-0.08,-0.08,-0.24,1721199101879
-1.73,-0.11,7.92,-0.07,0.34,-0.15,1721199101889
1.09,-2.85,13.35,-0.18,0.19,-0.23,1721199101899
-1.36,1.16,9.30,0.02,0.07,-0.37,1721199101909
0.57,0.26,9.47,-0.04,0.32,-0.35,1721199101919
-2.31,1.81,8.24,0.02,-0.01,-0.33,1721199101929
-1.14,1.30,11.98,-0.09,0.41,-0.31,1721199101939
-2.18,2.64,13.72,-0.01,0.00,-0.29,1721199101949
-2.92,-1.18,7.44,-0.03,0.21,-0.25,1721199101959
-3.00,-1.50,10.08,-0.03,0.17,-0.16,1721199101969
-1.75,-0.05,10.51,0.01,0.13,-0.07,1721199101979
-0.16,2.14,9.84,0.07,0.19,-0.09,1721199101989
-0.10,1.04,9.81,0.03,0.09,-0.16,1721199101999
-1.16,0.79,12.19,0.00,0.20,-0.22,1721199102009
-0.52,0.69,10.10,0.05,0.10,-0.07,1721199102019
-0.74,-0.05,8.84,-0.04,0.17,-0.03,1721199102029
-1.03,1.09,10.86,0.07,0.11,-0.08,1721199102039
-0.94,-0.29,7.13,0.13,0.08,-0.01,1721199102049
0.07,-1.03,10.11,-0.11,0.28,-0.04,1721199102059
-1.19,-0.73,12.31,0.05,-0.06,-0.00,1721199102069
0.47,3.38,12.79,0.06,0.31,-0.06,1721199102079
-1.11,-0.48,9.23,0.02,-0.09,-0.12,1721199102089
-2.51,-0.13,8.20,0.07,0.24,-0.05,1721199102099
0.50,-0.37,9.86,-0.04,0.14,0.13,1721199102109
-1.64,0.47,8.92,-0.04,0.00,0.15,1721199102119
0.59,1.08,10.33,-0.02,0.27,-0.06,1721199102129
-0.02,-2.25,9.87,-0.05,-0.09,-0.02,1721199102139
0.18,-2.56,12.81,-0.05,0.26,0.10,1721199102149
0.28,0.99,10.32,0.10,-0.05,0.14,1721199102159
-0.11,3.10,9.90,0.01,0.22,0.02,1721199102169
0.06,1.39,9.57,0.05,-0.00,-0.14,1721199102179
-1.78,-1.38,7.68,-0.03,0.11,-0.07,1721199102189
-0.88,0.29,15.14,-0.01,0.19,0.05,1721199102199
-1.19,0.14,9.20,0.08,-0.12,0.17,1721199102209
0.17,0.68,11.20,0.01,0.24,0.17,1721199102219
1.20,0.67,8.39,0.13,-0.07,0.02,1721199102229
0.41,-0.53,10.62,-0.07,0.19,-0.09,1721199102239
0.08,-0.69,12.61,0.06,0.03,-0.11,1721199102249
-1.53,1.14,10.79,0.07,0.07,-0.08,1721199102259
-0.64,2.64,9.23,0.18,0.09,-0.04,1721199102269
0.40,-2.06,8.89,-0.02,0.06,0.03,1721199102279
-0.26,2.30,14.10,0.12,0.13,-0.05,1721199102289
-0.19,2.50,9.17,0.12,0.05,-0.13,1721199102299
-2.05,1.13,9.66,-0.01,0.03,-0.09,1721199102309
-0.49,0.87,10.78,0.07,0.15,0.03,1721199102319
-0.27,-1.37,7.49,-0.02,0.02,0.02,1721199102329
-0.87,3.09,10.87,0.12,0.15,-0.08,1721199102339
0.37,2.76,10.05,0.06,0.09,-0.02,1721199102349
-1.46,3.99,8.35,0.12,0.00,0.02,1721199102359
0.01,-0.01,9.27,-0.14,0.19,0.03,1721199102369
-2.82,0.10,11.13,-0.03,-0.16,0.05,1721199102379
-0.58,1.07,13.58,-0.02,0.32,0.04,1721199102389
-3.32,-3.03,6.07,0.13,-0.37,0.18,1721199102399
-0.46,1.56,12.57,0.04,0.48,0.34,1721199102409
1.27,6.29,13.40,0.22,-0.20,0.25,1721199102419
0.45,3.99,6.93,0.05,0.13,-0.01,1721199102429
-0.02,0.55,11.14,-0.03,-0.01,-0.06,1721199102439
-1.73,-3.28,9.51,-0.02,-0.07,0.12,1721199102449
0.31,-2.27,7.28,0.19,0.01,0.28,1721199102459
2.56,-0.51,5.42,0.10,0.07,0.18,1721199102469
1.45,-0.34,8.23,-0.08,-0.00,-0.08,1721199102479
-0.76,1.33,17.00,-0.05,0.11,-0.31,1721199102489
-4.99,-3.50,11.49,0.04,-0.23,-0.10,1721199102499
-6.20,-1.66,8.50,-0.08,0.10,0.19,1721199102509
-1.79,-0.29,5.91,-0.00,-0.17,0.55,1721199102519
2.10,-1.04,9.20,-0.22,0.17,0.34,1721199102529
1.47,-3.78,10.74,-0.11,-0.25,0.05,1721199102539
-1.63,-1.64,12.94,-0.22,0.11,-0.14,1721199102549
-4.19,2.57,14.23,-0.09,-0.31,0.10,1721199102559
-2.45,0.81,6.21,-0.11,-0.11,0.46,1721199102569
3.67,1.84,12.38,-0.15,0.04,0.45,1721199102579
4.12,1.00,7.78,-0.07,-0.28,0.16,1721199102589
1.86,-0.01,5.89,-0.14,0.02,-0.12,1721199102599
-2.03,-0.99,12.05,-0.13,-0.20,-0.04,1721199102609
-3.88,-0.07,11.25,0.00,-0.11,0.19,1721199102619
0.40,1.92,12.99,-0.08,-0.10,0.36,1721199102629
2.09,3.66,11.12,0.02,-0.21,0.27,1721199102639
3.07,0.78,10.81,-0.12,-0.03,-0.01,1721199102649
-0.92,0.39,12.15,0.03,-0.25,-0.03,1721199102659
-0.93,-0.63,10.03,0.08,-0.02,0.09,1721199102669
-0.08,1.91,7.89,0.06,-0.20,0.24,1721199102679
2.14,-0.45,7.56,0.00,-0.05,0.16,1721199102689
3.13,2.88,14.83,-0.01,-0.04,-0.07,1721199102699
0.95,0.02,9.31,0.09,-0.24,-0.12,1721199102709
-0.57,0.16,10.95,0.04,0.09,-0.13,1721199102719
-1.13,1.66,9.28,0.14,-0.26,-0.04,1721199102729
1.13,-2.35,5.49,0.02,0.03,0.03,1721199102739
2.73,-2.04,13.78,0.05,-0.04,-0.08,1721199102749
0.26,0.33,11.79,0.13,-0.07,-0.30,1721199102759
-1.08,0.66,13.40,-0.05,0.09,-0.28,1721199102769
-2.17,0.25,11.03,0.03,-0.10,-0.15,1721199102779
-0.51,-1.13,9.12,0.03,0.05,-0.02,1721199102789
-0.02,1.79,4.81,0.21,-0.17,0.03,1721199102799
3.16,0.69,7.85,0.00,0.25,-0.17,1721199102809
1.42,2.41,16.30,0.07,-0.08,-0.35,1721199102819
-1.12,-0.19,9.57,0.07,-0.02,-0.47,1721199102829
-3.12,-3.71,12.29,-0.10,0.04,-0.26,1721199102839
-3.28,-1.81,11.36,0.02,0.01,-0.03,1721199102849
0.37,0.47,10.12,0.09,0.11,-0.00,1721199102859
1.84,-1.89,6.97,0.03,-0.04,-0.11,1721199102869
0.85,1.41,16.57,-0.01,0.24,-0.39,1721199102879
-2.30,5.49,13.35,0.37,-0.17,-0.41,1721199102889
-3.14,-0.11,1.90,0.03,0.03,-0.03,1721199102899
-1.11,3.83,11.85,0.07,0.26,0.06,1721199102909
1.50,-1.21,6.55,-0.15,-0.05,-0.03,1721199102919
-1.34,4.61,13.04,0.01,0.08,-0.23,1721199102929
1.98,3.11,10.44,-0.10,0.13,-0.23,1721199102939
-1.70,0.29,12.49,-0.14,-0.16,-0.16,1721199102949
-0.51,-1.25,11.61,-0.05,0.24,-0.12,1721199102959
-1.72,2.90,11.50,-0.02,-0.12,-0.01,1721199102969
-1.49,2.27,2.93,-0.02,-0.07,0.03,1721199102979
1.74,2.01,11.22,-0.19,0.26,-0.10,1721199102989
0.35,-2.08,8.95,-0.09,-0.26,-0.07,1721199102999
-0.57,-0.86,10.64,-0.12,0.24,-0.09,1721199103009
0.20,-1.45,10.74,-0.06,-0.14,-0.04,1721199103019
1.01,1.91,12.21,0.04,0.12,-0.03,1721199103029
3.56,-0.67,9.20,-0.05,0.03,-0.15,1721199103039
-0.36,2.74,11.62,0.03,0.03,-0.32,1721199103049
-0.38,3.97,10.89,0.03,0.18,-0.29,1721199103059
-2.97,-0.88,8.15,-0.18,-0.09,-0.08,1721199103069
-1.28,-3.27,6.92,-0.08,0.11,-0.02,1721199103079
1.86,-3.37,8.61,-0.17,0.11,-0.05,1721199103089
0.11,-5.68,8.62,-0.18,-0.04,-0.17,1721199103099
0.13,1.89,14.46,0.00,0.28,-0.29,1721199103109
-1.08,-0.89,9.91,-0.15,-0.09,-0.24,1721199103119
-2.19,1.56,12.33,-0.11,0.16,-0.06,1721199103129
1.78,2.87,15.33,-0.05,0.21,-0.11,1721199103139
-1.32,1.19,10.07,0.04,-0.18,-0.15,1721199103149
-1.88,0.70,8.15,-0.04,0.13,-0.13,1721199103164
-0.49,3.33,12.71,-0.02,-0.01,-0.12,1721199103168
-1.15,4.03,9.01,0.18,0.11,-0.14,1721199103178
0.65,-0.89,7.53,-0.03,0.15,-0.14,1721199103188
-1.29,-4.63,6.85,0.07,0.01,-0.16,1721199103198
-0.01,1.31,10.29,0.10,0.29,-0.18,1721199103208
-1.19,12.79,9.86,0.39,-0.00,-0.16,1721199103218
0.09,1.43,5.40,0.14,0.18,-0.20,1721199103228
-2.14,-4.61,11.14,-0.04,0.09,-0.17,1721199103238
-1.87,-4.33,11.73,0.06,0.16,-0.01,1721199103248
-0.73,3.39,17.49,0.08,0.19,-0.06,1721199103258
0.12,2.11,10.78,0.18,-0.01,-0.24,1721199103268
-1.10,0.46,7.24,0.26,0.10,-0.20,1721199103278
-0.89,-3.04,3.33,0.12,0.09,-0.04,1721199103288
-1.54,1.01,11.19,0.04,0.22,-0.03,1721199103298
-1.14,2.30,9.81,0.22,0.04,-0.13,1721199103308
-2.23,-1.26,2.97,0.03,0.03,-0.20,1721199103318
-0.83,0.36,17.53,-0.08,0.28,-0.07,1721199103328
-0.31,0.39,12.96,0.14,-0.15,0.06,1721199103338
-0.12,-0.95,7.48,-0.01,0.26,-0.03,1721199103348
-0.28,-1.08,10.41,-0.08,-0.00,-0.17,1721199103358
-3.08,-1.47,8.94,0.06,-0.01,-0.21,1721199103368
-1.01,-1.30,12.33,0.03,0.26,-0.04,1721199103378
-1.76,5.85,12.59,0.16,-0.10,0.12,1721199103388
-0.88,0.57,-4.89,-0.04,-0.06,0.14,1721199103398
1.70,-0.07,19.20,-0.38,0.45,0.02,1721199103408
1.79,-5.51,18.56,-0.08,-0.24,-0.07,1721199103418
-2.10,-0.20,6.98,0.18,0.07,-0.24,1721199103428
-0.64,0.88,6.62,-0.03,0.10,-0.14,1721199103438
-3.08,5.18,17.02,-0.01,-0.01,0.04,1721199103448
-1.26,3.45,11.29,0.24,-0.04,0.13,1721199103458
0.29,-4.38,4.75,-0.09,0.02,0.02,1721199103468
-0.44,-3.07,11.42,-0.07,-0.00,-0.03,1721199103478
-0.73,7.48,12.66,0.18,0.04,0.04,1721199103488
-0.31,4.92,4.58,0.08,-0.11,0.11,1721199103498
0.11,0.85,11.28,-0.07,0.05,0.08,1721199103508
1.21,-6.34,10.58,-0.11,-0.11,0.06,1721199103518
0.66,-4.81,15.62,-0.15,0.15,-0.05,1721199103528
-0.72,5.54,11.93,0.29,-0.15,-0.02,1721199103538
-0.15,6.87,5.33,0.14,0.10,0.11,1721199103548
-0.34,6.91,8.16,0.21,-0.11,0.11,1721199103558
1.63,-0.66,7.90,-0.15,0.15,-0.03,1721199103568
-2.17,-4.47,14.40,-0.26,-0.14,-0.14,1721199103578
-4.18,1.22,17.40,0.04,0.04,-0.07,1721199103588
-3.37,3.40,7.82,0.26,-0.18,0.32,1721199103598
0.41,2.80,0.59,0.07,0.02,0.47,1721199103608
3.94,2.58,8.24,-0.12,0.09,0.04,1721199103618
1.26,0.92,9.20,-0.05,-0.23,-0.28,1721199103628
-2.29,-6.90,5.75,-0.23,-0.13,-0.20,1721199103638
-2.45,-2.43,22.74,-0.18,0.12,0.26,1721199103648
-0.23,0.93,10.73,0.17,-0.23,0.20,1721199103658
0.32,-1.45,5.87,-0.18,-0.02,-0.06,1721199103668
-0.59,5.65,13.52,-0.08,0.01,-0.09,1721199103678
-1.97,-2.69,9.69,-0.33,-0.11,0.05,1721199103688
-2.93,-2.18,22.21,-0.03,-0.06,0.19,1721199103698
0.42,2.35,7.17,0.19,-0.26,0.22,1721199103708
1.79,11.05,0.90,-0.04,0.06,0.12,1721199103718
3.22,-7.44,3.77,-0.60,-0.08,-0.14,1721199103728
-3.02,-4.90,17.34,0.06,-0.20,-0.20,1721199103738
1.34,0.68,8.89,0.20,0.04,-0.05,1721199103748
-2.76,-5.66,3.47,-0.37,-0.37,0.24,1721199103758
-0.30,5.87,21.93,-0.19,0.43,0.09,1721199103768
1.94,-1.98,9.25,-0.11,-0.61,-0.07,1721199103778
-2.57,0.79,6.75,-0.01,0.25,-0.14,1721199103788
1.55,-2.86,5.22,-0.09,-0.18,0.04,1721199103798
-2.50,0.42,15.20,-0.32,0.13,-0.05,1721199103808
1.57,5.72,16.93,0.14,-0.17,-0.08,1721199103818
0.59,-0.31,7.31,-0.12,-0.15,-0.14,1721199103828
-0.53,1.10,12.00,0.05,0.04,-0.04,1721199103838
2.48,2.03,14.06,-0.06,0.05,-0.12,1721199103848
-0.47,-1.60,6.90,0.16,-0.23,-0.27,1721199103858
0.60,2.40,11.38,0.03,0.31,-0.30,1721199103868
-2.38,6.38,7.94,0.39,-0.47,0.05,1721199103878
1.50,-2.47,2.27,0.11,0.30,-0.03,1721199103888
1.21,-0.89,21.29,-0.05,-0.02,-0.32,1721199103898
-0.52,-2.31,14.72,0.24,-0.08,-0.39,1721199103908
-2.86,-0.94,0.04,0.34,-0.14,-0.14,1721199103918
1.07,-1.96,9.63,-0.12,0.41,-0.13,1721199103928
-1.07,8.16,18.26,0.36,-0.27,-0.05,1721199103938
3.00,2.80,6.23,0.22,0.26,-0.13,1721199103948
-0.42,-3.04,2.93,0.07,-0.18,-0.38,1721199103958
-0.75,-6.95,14.36,-0.15,0.36,-0.44,1721199103968
-4.53,4.09,19.50,0.40,-0.30,-0.05,1721199103978
0.57,1.95,0.22,0.27,0.22,0.16,1721199103988
2.56,-1.96,6.72,-0.08,0.09,-0.14,1721199103998
1.24,1.16,12.78,0.16,0.17,-0.51,1721199104008
-2.59,-5.45,6.64,-0.10,-0.09,-0.39,1721199104018
-5.69,0.78,14.88,0.02,0.20,0.01,1721199104028
1.43,2.53,10.97,0.18,0.10,0.24,1721199104038
4.52,1.42,7.74,0.07,0.03,0.09,1721199104048
5.33,0.09,10.70,0.08,0.19,-0.45,1721199104058
-2.64,2.66,10.76,0.15,0.02,-0.71,1721199104068
-6.99,0.93,10.78,0.13,0.23,-0.23,1721199104078
-4.64,-6.83,6.11,-0.09,-0.03,0.33,1721199104088
0.47,5.25,14.80,0.19,0.35,0.28,1721199104098
8.04,2.96,8.24,-0.09,0.05,0.06,1721199104108
1.48,0.83,7.69,-0.07,-0.03,-0.35,1721199104118
1.95,2.15,16.96,0.08,0.47,-0.62,1721199104128
-5.30,-0.15,7.87,0.08,-0.31,-0.30,1721199104138
-5.41,3.12,11.00,0.05,0.39,0.05,1721199104148
0.86,2.00,13.10,-0.05,0.09,0.24,1721199104158
0.86,1.42,8.20,-0.03,0.01,0.05,1721199104168
4.41,-1.00,7.81,-0.12,0.33,-0.30,1721199104178
-0.91,-3.06,7.00,-0.17,-0.08,-0.40,1721199104188
-3.13,2.33,9.96,0.04,0.28,-0.25,1721199104198
-2.03,2.83,9.36,-0.04,0.05,-0.05,1721199104208
-1.58,2.92,8.77,-0.03,0.05,0.08,1721199104218
2.40,1.55,13.24,-0.15,0.30,-0.08,1721199104228
0.27,1.52,8.67,-0.07,-0.10,-0.25,1721199104238
1.01,0.05,8.02,-0.24,0.38,-0.30,1721199104248
-2.05,-3.40,10.79,-0.16,-0.11,-0.20,1721199104258
-3.44,-1.31,9.18,-0.09,0.24,-0.17,1721199104268
-1.76,-5.04,13.64,-0.28,-0.02,0.04,1721199104278
-0.82,4.84,17.54,0.07,0.11,0.08,1721199104288
2.72,4.42,4.13,0.04,0.04,-0.10,1721199104298
-1.38,1.17,5.81,-0.24,0.09,-0.26,1721199104308
-1.02,-1.68,14.27,-0.11,0.14,-0.16,1721199104318
-2.32,-1.00,8.90,-0.03,-0.11,0.05,1721199104328
0.39,-0.12,12.33,-0.21,0.28,0.08,1721199104338
0.30,1.58,16.11,-0.10,-0.05,-0.04,1721199104348
-0.82,1.25,10.49,-0.00,0.07,-0.15,1721199104358
-0.69,0.40,5.75,0.03,0.04,-0.05,1721199104368
-1.11,-3.22,2.94,0.02,0.01,0.12,1721199104378
0.32,2.47,10.11,0.04,0.21,0.06,1721199104388
0.25,1.48,10.64,0.05,-0.09,-0.04,1721199104398
0.03,0.39,16.01,0.02,0.14,-0.11,1721199104408
-1.78,1.50,16.36,0.04,0.00,-0.10,1721199104418
-2.96,2.29,8.07,0.12,-0.04,0.10,1721199104428
0.57,-1.23,5.37,0.06,0.11,0.23,1721199104438
2.37,-2.83,8.36,0.03,-0.00,0.14,1721199104448
1.03,-1.62,7.90,0.12,0.05,-0.07,1721199104458
-0.56,0.28,12.19,0.02,0.10,-0.17,1721199104468
-2.93,2.33,14.06,0.13,-0.03,-0.16,1721199104478
-2.13,-0.10,11.27,0.15,-0.01,0.09,1721199104488
-1.68,0.45,8.52,0.22,-0.02,0.22,1721199104498
1.02,0.59,7.35,0.10,0.09,0.16,1721199104508
2.40,-0.56,12.81,0.10,-0.03,-0.03,1721199104518
1.66,4.31,13.22,0.20,0.07,-0.22,1721199104528
-1.97,-0.52,9.76,0.08,-0.06,-0.26,1721199104538
-4.41,-3.46,9.64,0.03,-0.05,0.03,1721199104548
-0.09,1.16,7.31,0.17,0.09,0.26,1721199104558
1.72,-0.92,2.91,-0.01,-0.10,0.18,1721199104568
2.14,-0.19,13.27,-0.09,0.20,-0.20,1721199104578
-0.67,0.75,10.92,0.12,-0.20,-0.33,1721199104588
-3.18,-2.15,11.35,-0.10,0.14,-0.17,1721199104598
-3.17,1.59,15.80,0.10,-0.09,0.12,1721199104608
-2.04,1.83,10.38,0.08,-0.05,0.19,1721199104618
0.13,-0.42,9.78,0.04,-0.07,0.06,1721199104628
0.72,-1.08,10.80,0.04,-0.09,-0.00,1721199104638
-0.65,2.50,7.46,0.18,-0.12,-0.05,1721199104648
-0.76,2.53,7.41,0.08,-0.03,-0.03,1721199104658
-0.82,0.78,6.50,0.13,-0.13,0.10,1721199104668
1.02,-0.82,6.59,0.06,-0.05,0.16,1721199104678
2.62,3.12,13.37,0.04,0.02,0.06,1721199104688
2.38,0.50,8.89,0.04,-0.17,-0.12,1721199104698
0.10,-0.97,11.03,-0.04,0.04,-0.25,1721199104708
-0.84,0.36,15.90,-0.03,0.00,-0.17,1721199104718
-2.68,0.18,9.11,0.10,-0.21,-0.00,1721199104728
-0.26,1.59,9.93,-0.04,0.13,0.07,1721199104738
-0.31,4.08,12.59,0.01,-0.12,-0.06,1721199104748
-1.64,1.72,5.61,-0.01,-0.13,-0.12,1721199104758
-1.61,-0.95,7.31,-0.14,0.00,-0.02,1721199104768
-1.31,1.15,8.88,-0.03,-0.18,0.20,1721199104778
0.78,1.46,12.11,-0.19,0.10,0.09,1721199104788
0.04,1.68,14.25,-0.08,-0.24,-0.09,1721199104798
-0.51,2.47,10.04,0.00,0.01,-0.20,1721199104808
-1.39,1.05,7.51,-0.07,-0.15,-0.06,1721199104818
-2.45,-2.00,7.40,-0.17,-0.04,0.08,1721199104828
-0.89,0.25,14.18,-0.07,0.00,0.11,1721199104838
0.50,1.55,9.71,-0.00,-0.19,-0.04,1721199104848
1.62,-2.52,8.56,-0.21,-0.03,-0.04,1721199104858
0.11,-4.45,11.59,-0.19,-0.08,-0.16,1721199104868
-2.78,0.56,10.88,0.02,-0.10,-0.24,1721199104878
-2.38,-1.61,5.82,-0.02,-0.07,-0.08,1721199104888
-1.60,0.50,9.64,-0.05,-0.05,0.15,1721199104898
1.31,3.43,15.89,-0.13,0.09,0.02,1721199104908
-0.06,1.71,11.32,-0.11,-0.28,-0.14,1721199104918
0.30,-0.01,9.55,-0.22,0.15,-0.18,1721199104928
-1.73,-2.72,8.15,-0.17,-0.26,0.00,1721199104938
-1.01,-1.16,9.09,-0.02,0.02,0.03,1721199104948
2.64,1.18,12.93,-0.06,0.02,-0.05,1721199104958
0.54,2.32,13.71,-0.10,-0.13,-0.24,1721199104968
0.01,2.89,13.84,-0.03,0.04,-0.25,1721199104978
-0.45,0.00,10.12,-0.12,-0.06,-0.17,1721199104988
-0.92,-0.72,9.67,0.06,-0.03,-0.11,1721199104998
1.62,-2.27,7.52,0.07,0.06,-0.11,1721199105008
0.64,1.27,12.32,0.09,0.03,-0.21,1721199105018
0.87,3.35,12.32,0.24,0.05,-0.25,1721199105028
-0.19,1.58,7.75,0.28,-0.04,-0.13,1721199105038
-0.08,2.82,7.45,0.29,0.18,-0.19,1721199105048
-0.28,2.08,7.47,0.24,-0.07,-0.23,1721199105058
-0.90,4.59,10.00,0.24,0.19,-0.26,1721199105068
0.43,-3.75,9.58,-0.01,-0.06,-0.18,1721199105078
-2.48,-2.99,13.21,-0.05,0.11,-0.14,1721199105088
1.10,2.96,13.90,0.13,0.10,-0.03,1721199105098
1.25,-3.68,7.86,-0.06,-0.08,-0.08,1721199105108
1.02,4.75,17.01,0.44,0.40,-0.20,1721199105644
-1.82,1.07,7.39,0.39,0.12,-0.15,1721199105648
-0.07,6.56,6.27,0.17,0.29,-0.13,1721199105657
-3.24,6.49,7.77,0.15,-0.11,-0.05,1721199105667
-1.19,-2.06,1.10,0.35,0.21,0.01,1721199105677
2.15,-7.44,5.94,-0.16,0.22,0.02,1721199105687
0.07,-1.91,14.12,-0.09,0.17,-0.15,1721199105697
-0.85,-0.03,23.37,-0.09,0.25,-0.22,1721199105707
-4.04,6.73,21.72,0.17,0.06,-0.31,1721199105717
-4.58,2.17,2.48,0.24,-0.08,-0.09,1721199105727
-2.59,-4.71,5.22,-0.22,0.21,0.25,1721199105737
1.18,3.03,19.71,-0.01,0.22,0.22,1721199105747
1.22,9.34,7.35,0.32,-0.07,-0.13,1721199105757
-2.07,-9.70,-1.43,-0.06,0.02,-0.35,1721199105767
-5.28,-5.55,12.32,-0.11,0.19,-0.03,1721199105777
-1.42,9.21,20.77,0.22,0.16,0.44,1721199105787
2.73,10.92,9.54,0.38,-0.05,0.42,1721199105797
3.82,1.60,-1.57,0.30,0.01,-0.04,1721199105807
2.01,-5.30,3.19,-0.09,0.08,-0.24,1721199105817
-3.51,-0.12,11.94,-0.03,0.03,-0.12,1721199105827
-1.87,2.12,11.54,0.02,0.17,0.20,1721199105837
0.06,-0.55,10.07,0.07,-0.03,0.33,1721199105847
2.40,-1.28,9.54,-0.00,0.18,0.18,1721199105857
1.34,1.96,14.02,-0.07,-0.00,-0.04,1721199105867
-2.26,-0.42,10.49,-0.11,-0.04,-0.12,1721199105877
-4.57,-0.83,10.73,-0.01,0.02,0.08,1721199105887
-2.84,-4.49,8.84,-0.03,-0.02,0.39,1721199105897
-0.32,-2.06,14.78,-0.00,0.04,0.37,1721199105907
1.55,4.60,11.09,0.14,-0.12,0.26,1721199105917
0.59,7.51,19.36,-0.29,0.17,0.01,1721199105927
-3.30,5.41,19.04,0.05,-0.31,0.05,1721199105937
-0.94,-3.82,-2.16,0.04,-0.06,0.20,1721199105947
-0.94,-1.88,-0.48,-0.21,-0.04,0.33,1721199105957
0.45,-3.01,13.30,-0.21,0.08,0.27,1721199105967
1.18,2.94,16.06,0.18,-0.22,0.23,1721199105977
2.69,3.89,5.29,0.07,-0.10,0.15,1721199105987
1.20,0.23,7.35,-0.23,-0.06,0.04,1721199105997
-0.08,-1.89,16.54,-0.25,0.05,-0.15,1721199106007
-4.46,-4.17,9.56,-0.00,-0.37,0.07,1721199106017
-4.08,-2.06,3.16,0.08,-0.02,0.50,1721199106027
3.73,0.56,7.64,-0.10,0.01,0.58,1721199106037
4.29,-1.90,8.18,-0.25,-0.28,0.17,1721199106047
2.70,0.55,19.00,-0.26,0.12,-0.33,1721199106057
-3.38,-0.70,9.81,-0.08,-0.44,-0.20,1721199106067
-4.11,-0.79,2.26,-0.09,0.03,0.28,1721199106077
-0.42,0.68,5.00,-0.14,-0.17,0.45,1721199106087
3.15,-3.36,19.59,-0.53,0.13,0.00,1721199106097
1.02,2.69,29.66,-0.17,-0.29,-0.26,1721199106107
-2.77,1.50,1.93,0.14,-0.37,-0.11,1721199106117
-1.25,3.63,6.45,-0.18,0.21,0.21,1721199106127
4.08,1.54,12.94,0.14,-0.21,0.41,1721199106137
3.66,-0.15,3.84,0.28,-0.06,0.01,1721199106147
2.32,4.28,15.76,0.09,0.13,-0.43,1721199106157
-3.28,0.24,12.10,0.10,-0.46,-0.29,1721199106167
-3.14,0.81,12.07,0.15,0.14,0.01,1721199106177
-0.79,-2.93,8.64,0.10,-0.20,0.24,1721199106187
0.82,2.10,9.48,0.25,0.00,0.21,1721199106197
5.55,-0.45,10.26,0.15,0.02,-0.04,1721199106207
0.63,4.07,12.70,0.21,-0.10,-0.40,1721199106217
-1.02,2.51,13.72,0.24,0.01,-0.34,1721199106227
-4.47,-0.66,5.16,0.27,-0.27,0.00,1721199106237
-0.27,-1.57,6.47,0.18,0.21,0.15,1721199106247
2.12,-0.61,8.85,0.21,-0.14,0.09,1721199106257
2.15,-2.86,11.19,0.07,0.07,-0.22,1721199106267
-0.45,3.11,12.99,0.34,-0.10,-0.18,1721199106277
-0.09,0.75,10.38,0.07,0.13,-0.09,1721199106287
-1.63,0.39,12.17,0.23,-0.20,-0.02,1721199106297
0.15,-0.35,4.99,0.24,0.09,-0.04,1721199106307
0.44,-0.50,6.35,0.07,0.01,-0.10,1721199106317
-0.77,-1.98,10.78,-0.03,0.08,-0.22,1721199106327
-1.61,0.58,16.40,0.10,0.01,-0.16,1721199106337
-1.45,2.24,9.84,0.28,-0.14,0.05,1721199106347
1.13,1.54,7.44,0.05,0.16,0.03,1721199106357
1.18,-0.64,14.55,-0.14,-0.01,-0.20,1721199106367
-2.35,1.70,8.40,0.21,-0.15,-0.22,1721199106377
-1.33,-0.38,4.74,-0.09,0.10,-0.06,1721199106387
0.22,0.11,14.79,-0.10,0.02,0.07,1721199106397
1.74,0.36,6.29,0.05,-0.06,-0.01,1721199106407
0.69,3.15,9.49,-0.15,0.14,-0.23,1721199106417
-0.50,2.19,9.15,-0.14,-0.08,-0.28,1721199106427
-2.29,1.63,9.98,-0.09,0.02,-0.16,1721199106437
-1.04,0.66,8.52,-0.09,0.02,0.03,1721199106447
0.93,-0.84,14.38,-0.25,0.08,0.05,1721199106457
0.90,0.91,10.17,0.06,-0.16,-0.18,1721199106467
1.05,-1.03,6.24,-0.24,0.11,-0.23,1721199106477
-1.12,0.95,16.07,-0.10,0.01,-0.26,1721199106487
-0.88,1.89,8.17,0.11,-0.05,-0.17,1721199106497
-0.92,2.41,8.58,-0.14,0.08,-0.04,1721199106507
-0.50,-1.20,14.16,-0.11,-0.02,-0.10,1721199106517
-0.02,3.31,9.62,0.05,0.01,-0.22,1721199106527
-0.38,-0.82,10.19,-0.10,-0.00,-0.17,1721199106537
-1.08,1.28,8.50,0.06,0.00,-0.12,1721199106547
0.93,1.86,7.72,-0.11,0.06,-0.11,1721199106557
-0.10,1.42,15.12,-0.05,0.03,-0.17,1721199106567
0.07,0.01,8.59,-0.00,-0.02,-0.28,1721199106577
-1.92,-2.69,4.15,-0.19,-0.02,-0.16,1721199106587
-1.16,4.35,14.78,0.01,0.24,-0.14,1721199106597
0.53,3.11,8.92,0.03,-0.13,-0.06,1721199106607
-1.73,-1.38,7.64,-0.07,-0.02,-0.14,1721199106617
0.47,-1.02,15.24,-0.03,0.19,-0.19,1721199106627
-1.64,2.30,12.25,0.03,-0.18,-0.08,1721199106637
-1.16,-4.08,3.60,-0.08,-0.00,-0.09,1721199106647
-0.75,0.59,14.60,-0.02,0.17,-0.16,1721199106657
-1.25,-0.49,6.16,-0.01,-0.13,-0.12,1721199106667
-1.33,-2.43,7.71,-0.13,0.14,-0.04,1721199106677
1.48,4.36,13.86,-0.02,0.16,-0.07,1721199106687
0.11,4.73,11.68,-0.11,-0.12,-0.16,1721199106697
-1.18,0.61,10.41,0.09,0.06,-0.32,1721199106707
-2.11,-3.09,9.99,-0.04,-0.02,-0.16,1721199106717
-1.77,-1.13,11.41,0.02,-0.04,0.14,1721199106727
2.52,-0.35,10.66,0.04,0.14,0.08,1721199106737
0.88,1.35,12.25,0.02,-0.07,-0.26,1721199106747
0.22,0.33,8.05,0.09,0.02,-0.28,1721199106757
-0.97,0.63,12.47,-0.05,0.17,-0.14,1721199106767
-1.65,2.18,13.70,0.09,-0.09,-0.08,1721199106777
-0.21,2.00,11.84,0.04,0.16,-0.04,1721199106787
-0.92,2.40,10.72,0.12,-0.05,-0.10,1721199106797
-1.27,-0.73,8.74,0.08,0.08,-0.20,1721199106807
-0.42,-1.37,10.24,0.09,0.05,0.02,1721199106817
-0.39,4.31,13.73,0.19,0.14,0.01,1721199106827
-0.56,2.29,3.87,0.26,-0.18,-0.11,1721199106837
-0.07,1.19,8.41,0.14,0.19,-0.06,1721199106847
0.91,3.27,14.77,0.27,0.10,-0.09,1721199106857
-1.44,0.31,6.92,0.11,-0.17,-0.03,1721199106867
-0.34,1.28,12.45,0.14,0.22,-0.05,1721199106877
1.30,2.97,14.81,0.27,0.03,-0.02,1721199106887
-2.03,1.02,1.22,0.21,-0.25,-0.01,1721199106897
-0.16,3.01,7.58,0.09,0.28,-0.03,1721199106907
1.65,0.14,12.77,-0.01,-0.03,-0.14,1721199106917
-1.77,-1.37,10.07,0.14,-0.12,-0.13,1721199106927
-0.23,-2.04,9.62,-0.04,0.26,-0.14,1721199106937
-0.89,2.31,13.89,0.08,-0.11,-0.03,1721199106947
1.51,3.12,7.16,0.05,0.16,-0.01,1721199106957
1.70,0.55,11.60,-0.08,-0.02,-0.17,1721199106967
-1.73,-1.19,10.10,0.07,0.03,-0.35,1721199106977
-1.67,-1.74,13.75,-0.03,0.14,-0.25,1721199106987
-3.40,1.94,11.36,0.19,-0.14,0.03,1721199106997
-1.59,1.40,2.08,0.06,0.09,0.13,1721199107007
1.25,-0.52,10.48,-0.15,0.11,-0.00,1721199107017
1.60,-2.36,12.16,-0.10,-0.04,-0.05,1721199107027
-0.34,3.31,12.48,0.01,0.11,-0.19,1721199107037
-0.97,3.39,9.64,0.07,-0.04,-0.18,1721199107047
-1.93,-2.82,4.78,-0.13,-0.03,-0.02,1721199107057
-0.48,-1.55,15.15,-0.13,0.18,-0.05,1721199107067
-0.41,0.86,11.77,0.09,-0.12,-0.08,1721199107077
-0.75,0.59,6.84,-0.05,0.09,-0.18,1721199107087
-0.85,0.49,11.44,-0.06,0.02,-0.18,1721199107097
-1.37,2.07,11.49,-0.04,0.04,-0.11,1721199107107
-0.81,2.45,12.01,-0.05,0.08,-0.08,1721199107117
-0.05,-1.02,8.97,-0.07,-0.06,-0.02,1721199107127
0.08,-1.47,6.88,-0.06,0.04,-0.13,1721199107137
0.74,3.81,15.26,-0.01,0.24,-0.25,1721199107147
-1.27,6.66,9.06,0.21,-0.15,-0.26,1721199107157
-1.50,-1.94,3.58,-0.14,0.10,-0.06,1721199107167
-1.05,-2.78,15.30,-0.15,0.12,0.01,1721199107177
1.17,3.54,13.66,0.21,0.10,-0.08,1721199107187
1.42,3.94,7.63,0.08,0.02,-0.16,1721199107197
-1.51,4.01,9.91,0.16,0.00,-0.25,1721199107207
0.20,3.41,12.77,0.11,0.28,-0.18,1721199107217
-1.67,-0.97,8.82,-0.04,-0.15,-0.13,1721199107227
-2.88,1.56,6.91,0.11,0.10,-0.08,1721199107237
1.18,1.54,9.11,0.00,0.20,-0.02,1721199107247
0.02,1.28,12.62,0.03,-0.09,-0.03,1721199107257
1.80,0.86,10.03,0.13,0.21,-0.22,1721199107267
0.27,-1.57,7.69,-0.06,-0.01,-0.32,1721199107277
-3.20,-1.53,13.23,-0.05,0.19,-0.33,1721199107287
-2.33,3.30,14.19,0.16,0.12,-0.07,1721199107297
-1.60,2.39,0.02,0.16,-0.11,0.10,1721199107307
1.30,-3.48,4.65,-0.38,0.28,0.00,1721199107317
1.05,-1.89,23.48,-0.17,0.13,-0.20,1721199107327
-0.65,2.38,15.92,0.24,0.04,-0.28,1721199107337
-1.87,6.07,5.85,0.22,0.02,-0.19,1721199107347
-0.60,0.14,3.63,-0.18,0.12,-0.02,1721199107357
-0.80,-3.48,8.72,-0.22,0.05,-0.07,1721199107367
0.75,-3.01,15.81,-0.14,0.26,-0.16,1721199107377
-1.18,2.34,9.96,0.17,-0.10,-0.17,1721199107387
-1.12,1.22,6.37,-0.02,0.26,-0.12,1721199107397
0.02,-1.02,10.47,-0.10,0.06,-0.06,1721199107407
-0.05,0.96,13.83,-0.06,0.18,-0.10,1721199107417
0.14,1.28,14.54,-0.01,0.16,-0.19,1721199107427
-3.02,2.69,4.60,0.11,-0.12,-0.18,1721199107437
-1.12,1.29,6.77,-0.11,0.34,-0.08,1721199107447
-0.40,0.00,14.13,-0.07,0.01,0.03,1721199107457
-1.09,-2.79,9.91,-0.10,0.09,-0.09,1721199107467
0.82,2.49,16.58,0.05,0.24,-0.20,1721199107477
-0.08,0.88,7.43,0.03,-0.07,-0.08,1721199107487
-1.32,4.41,9.38,0.04,0.20,-0.07,1721199107497
-0.08,0.30,9.79,0.00,0.09,-0.18,1721199107507
-3.09,-4.25,11.30,-0.14,0.02,-0.20,1721199107517
-2.14,1.25,17.23,0.20,0.22,0.06,1721199107527
0.22,2.02,5.91,0.11,0.01,0.15,1721199107537
0.93,7.03,11.13,0.20,0.18,-0.02,1721199107547
1.92,6.21,5.49,0.17,0.08,-0.21,1721199107557
-2.09,3.49,13.28,-0.07,0.14,-0.17,1721199107567
-2.61,0.44,9.33,0.16,-0.00,-0.00,1721199107577
-1.82,-1.65,9.51,0.04,0.11,0.17,1721199107587
-0.35,0.99,4.95,0.27,-0.01,0.20,1721199107597
3.44,1.63,7.14,-0.11,0.30,-0.01,1721199107607
1.13,0.14,15.61,-0.12,-0.03,-0.28,1721199107617
-1.67,-1.34,13.92,0.00,0.22,-0.30,1721199107627
-3.43,3.73,12.31,0.11,0.10,-0.12,1721199107637
-1.57,2.21,6.89,0.04,0.13,0.19,1721199107652
-0.96,0.68,4.11,0.10,0.09,0.20,1721199107656
2.17,-1.71,7.99,-0.06,0.11,0.07,1721199107666
0.98,-2.97,11.41,-0.03,0.03,-0.08,1721199107676
0.47,-0.28,16.04,0.00,0.26,-0.11,1721199107686
-1.23,4.97,11.03,0.16,-0.07,-0.08,1721199107696
-1.70,5.11,3.28,0.08,0.12,0.03,1721199107706
0.68,-3.70,9.00,-0.31,0.11,0.01,1721199107716
-1.70,-1.52,14.93,0.04,-0.11,-0.03,1721199107726
0.86,-0.33,11.83,0.06,0.31,-0.06,1721199107736
-1.10,-0.29,7.55,-0.00,-0.13,-0.04,1721199107746
-1.83,2.54,11.85,-0.12,0.30,-0.06,1721199107756
-0.36,4.46,12.72,0.02,-0.04,0.00,1721199107766
-1.07,-2.40,7.58,-0.28,0.03,-0.02,1721199107776
-0.79,1.56,15.85,-0.01,0.14,0.02,1721199107786
-0.11,0.99,4.24,-0.00,-0.08,-0.01,1721199107796
-1.07,-2.17,9.32,-0.17,0.07,0.04,1721199107806
0.20,1.66,9.67,0.15,0.04,0.04,1721199107816
1.50,1.61,11.30,-0.15,0.10,0.00,1721199107826
-1.46,4.06,13.29,0.06,-0.10,0.02,1721199107836
0.20,4.35,10.07,0.01,0.23,-0.03,1721199107846
-2.11,-1.59,6.38,-0.17,-0.25,-0.03,1721199107856
-3.57,-4.76,10.03,-0.24,0.15,0.08,1721199107866
0.21,-1.19,21.35,-0.03,0.13,0.23,1721199107876
0.30,2.60,0.57,0.26,-0.37,0.22,1721199107886
2.04,2.11,2.78,-0.18,0.29,-0.03,1721199107896
2.39,-0.09,24.38,-0.18,0.03,-0.12,1721199107906
-1.92,3.28,9.15,0.31,-0.28,-0.07,1721199107916
-0.90,0.05,9.05,-0.27,0.30,-0.11,1721199107926
-4.58,-0.98,15.72,0.05,-0.35,0.05,1721199107936
-0.83,-0.95,6.09,-0.00,0.23,0.22,1721199107946
0.26,1.70,6.56,-0.00,-0.27,0.27,1721199107956
1.59,0.00,10.29,-0.12,0.17,-0.02,1721199107966
2.20,3.81,16.69,0.13,-0.09,-0.07,1721199107976
-0.35,1.67,1.31,0.05,-0.23,-0.04,1721199107986
-0.54,-0.19,10.14,-0.21,0.27,-0.04,1721199107996
-1.68,-1.98,12.63,-0.02,-0.20,0.01,1721199108006
-1.65,-0.82,11.47,0.00,0.03,0.11,1721199108016
0.72,2.66,13.56,0.16,-0.01,0.11,1721199108026
1.56,4.52,11.61,0.05,-0.04,0.05,1721199108036
-0.05,4.55,8.89,0.07,-0.10,-0.15,1721199108046
-1.48,2.76,9.06,0.06,-0.01,-0.21,1721199108056
-2.55,-2.73,9.26,-0.05,-0.14,0.01,1721199108066
-2.39,-3.07,12.54,0.08,-0.04,0.20,1721199108076
0.77,0.68,10.26,0.08,0.01,0.15,1721199108086
2.50,2.90,12.45,0.02,-0.03,-0.01,1721199108096
1.24,1.14,8.50,0.10,-0.16,-0.15,1721199108106
-2.05,3.55,13.49,0.07,0.14,-0.21,1721199108116
-3.15,1.79,7.79,0.12,-0.26,-0.01,1721199108126
-2.41,2.07,8.91,-0.01,0.08,0.14,1721199108136
0.72,-0.56,8.06,0.11,-0.17,0.16,1721199108146
1.18,2.05,9.09,0.03,0.05,0.01,1721199108156
1.57,0.06,11.43,-0.00,-0.09,-0.15,1721199108166
-1.56,1.13,10.53,0.09,-0.15,-0.10,1721199108176
-0.15,1.42,8.56,0.04,0.11,-0.02,1721199108186
-1.24,-0.59,7.68,-0.10,-0.21,0.07,1721199108196
-1.57,0.52,10.11,0.02,0.04,0.01,1721199108206
1.25,-0.38,10.49,-0.08,-0.04,0.02,1721199108216
-0.90,0.59,13.83,-0.05,-0.17,0.05,1721199108226
0.34,1.38,11.84,0.08,0.08,0.00,1721199108236
-0.19,-0.36,8.04,-0.06,-0.23,-0.06,1721199108246
-1.29,1.82,11.08,-0.02,0.05,-0.10,1721199108256
0.23,1.73,8.74,0.01,-0.12,0.02,1721199108266
-0.84,-0.69,7.30,-0.10,-0.17,0.08,1721199108276
1.03,-2.41,13.87,-0.13,0.08,-0.02,1721199108286
0.15,-0.45,10.23,0.09,-0.31,-0.03,1721199108296
-0.24,4.43,13.16,0.01,0.19,-0.10,1721199108306
0.07,2.01,8.66,0.06,-0.32,-0.06,1721199108316
-2.01,0.79,9.65,-0.10,0.06,-0.12,1721199108326
-0.47,0.93,9.51,0.10,-0.13,-0.04,1721199108336
-0.89,0.03,9.47,-0.17,-0.04,0.02,1721199108346
-0.28,2.36,14.18,0.07,-0.09,0.03,1721199108356
1.05,1.71,7.02,0.05,-0.15,-0.01,1721199108366
0.27,4.02,10.39,0.01,-0.04,-0.11,1721199108376
0.81,1.27,8.56,-0.06,-0.12,-0.18,1721199108386
-1.54,1.19,12.53,-0.03,-0.10,-0.15,1721199108396
-1.62,1.22,10.43,0.09,-0.07,-0.06,1721199108406
-1.19,1.96,11.35,-0.03,-0.04,-0.09,1721199108416
-0.80,1.90,10.99,0.07,-0.23,-0.03,1721199108426
0.54,-1.27,10.26,-0.08,0.01,-0.03,1721199108436
-0.31,0.73,11.76,0.13,-0.20,-0.15,1721199108446
-0.29,2.70,4.64,0.11,-0.04,-0.13,1721199108456
-0.63,1.12,7.30,-0.11,-0.10,-0.07,1721199108466
-0.93,-0.74,11.67,-0.05,-0.08,-0.08,1721199108476
0.73,1.36,13.68,-0.02,0.05,-0.07,1721199108486
0.51,1.72,11.29,0.00,-0.19,-0.17,1721199108496
-0.33,1.69,10.31,0.05,-0.06,-0.17,1721199108506
-0.17,1.36,7.23,0.09,-0.09,-0.17,1721199108516
-1.19,1.19,8.69,-0.00,-0.05,-0.18,1721199108526
-1.06,-2.55,11.39,-0.08,-0.05,-0.12,1721199108536
-0.90,2.06,13.75,0.12,-0.06,-0.09,1721199108546
0.48,2.04,8.83,0.04,-0.05,-0.10,1721199108556
-0.62,4.86,9.93,0.08,-0.10,-0.15,1721199108566
1.00,-1.71,10.16,-0.12,0.03,-0.22,1721199108576
-2.05,-1.28,12.06,0.09,-0.26,-0.16,1721199108586
0.27,0.77,7.01,0.11,0.12,-0.12,1721199108596
0.63,2.70,10.37,0.01,-0.07,-0.16,1721199108606
-0.48,1.90,8.70,0.09,-0.09,-0.21,1721199108616
-0.21,3.46,12.48,0.02,0.09,-0.28,1721199108626
-1.07,1.61,11.17,0.05,-0.15,-0.20,1721199108636
-1.01,0.02,9.73,-0.02,0.05,-0.17,1721199108646
-0.64,-0.03,5.69,0.08,-0.16,-0.14,1721199108656
0.53,2.30,11.49,-0.02,0.21,-0.26,1721199108666
0.15,3.14,12.69,0.10,-0.15,-0.29,1721199108676
-2.40,0.80,7.61,0.04,-0.06,-0.20,1721199108686
-0.48,0.26,12.25,-0.03,0.17,-0.20,1721199108696
-0.75,0.58,7.67,-0.01,-0.18,-0.18,1721199108706
-0.83,1.46,7.66,-0.03,0.10,-0.16,1721199108716
0.48,-1.53,8.19,-0.08,-0.08,-0.11,1721199108726
-0.10,0.46,11.94,-0.04,0.06,-0.21,1721199108736
1.95,2.00,14.51,0.04,0.10,-0.24,1721199108746
-0.65,0.34,8.18,-0.01,-0.16,-0.27,1721199108756
-1.65,0.83,8.94,0.05,0.11,-0.29,1721199108766
-1.05,0.76,11.01,-0.04,0.07,-0.27,1721199108776
-3.34,0.16,7.39,0.01,-0.21,-0.07,1721199108786
0.93,-2.55,12.48,-0.18,0.31,-0.02,1721199108796
1.02,-0.64,15.96,0.05,-0.18,-0.09,1721199108806
1.01,2.70,7.23,0.09,0.10,-0.31,1721199108816
-0.21,3.17,8.79,0.05,-0.02,-0.37,1721199108826
-2.56,3.92,9.30,-0.02,0.01,-0.24,1721199108836
-1.70,1.60,11.66,0.01,0.07,-0.14,1721199108846
-0.35,-2.29,11.79,-0.14,0.01,-0.12,1721199108856
-1.66,5.51,11.98,0.12,-0.05,-0.13,1721199108866
1.50,2.19,9.71,-0.11,0.18,-0.20,1721199108876
-0.93,-5.30,8.09,-0.23,-0.21,-0.22,1721199108886
-1.59,0.36,13.44,-0.07,0.28,-0.30,1721199108896
-0.43,2.61,9.93,0.04,-0.11,-0.18,1721199108906
-1.61,3.50,8.80,-0.07,0.07,-0.13,1721199108916
0.95,2.77,9.58,0.02,0.08,-0.14,1721199108926
-0.32,-2.44,7.44,-0.21,-0.06,-0.26,1721199108936
-1.78,-1.09,12.78,-0.06,0.13,-0.26,1721199108946
-0.55,-0.24,9.91,-0.05,0.06,-0.12,1721199108956
-0.73,-1.09,9.59,-0.10,-0.01,-0.05,1721199108966
1.38,1.89,8.86,0.13,0.13,-0.18,1721199108976
1.63,2.94,7.28,0.02,0.00,-0.27,1721199108986
-1.09,1.86,9.15,-0.08,0.06,-0.31,1721199108996
-1.27,0.84,11.40,0.02,0.12,-0.21,1721199109006
-2.01,4.01,12.92,-0.05,0.05,-0.26,1721199109016
-2.05,3.58,13.11,0.07,-0.03,-0.12,1721199109026
0.20,-9.76,8.64,-0.38,0.05,-0.15,1721199109036
-2.06,-2.60,28.81,-0.14,0.15,-0.25,1721199109046
-0.63,5.37,9.04,0.52,-0.15,-0.14,1721199109056
-0.92,4.49,-2.13,-0.03,0.11,-0.10,1721199109066
-3.09,0.03,17.04,-0.01,0.18,-0.19,1721199109076
-1.71,-2.39,9.84,0.06,-0.12,-0.15,1721199109086
-0.67,5.18,12.43,0.02,0.22,-0.08,1721199109096
1.44,2.56,9.84,0.02,-0.02,-0.02,1721199109106
0.69,2.91,11.36,0.02,0.08,-0.18,1721199109116
2.40,1.12,7.50,0.12,0.00,-0.25,1721199109126
-1.06,3.62,9.87,0.04,0.08,-0.31,1721199109136
-2.19,1.26,6.20,0.11,-0.01,-0.18,1721199109146
-1.60,-2.52,9.60,-0.16,0.21,-0.09,1721199109156
-0.57,2.36,12.05,0.19,0.03,-0.01,1721199109166
1.13,6.65,2.43,0.13,0.13,-0.12,1721199109176
-0.07,4.34,-1.23,-0.21,-0.03,-0.22,1721199109186
1.19,-11.47,17.39,-0.89,0.36,-0.27,1721199109196
-0.24,-3.20,43.28,0.20,0.09,-0.23,1721199109206
0.49,6.68,-1.71,0.87,-0.21,-0.20,1721199109216
-0.72,4.25,-9.62,-0.46,0.29,-0.45,1721199109226
-3.73,-0.02,17.05,-0.25,0.05,-0.35,1721199109236
-11.57,-13.24,20.85,0.01,-0.40,-0.14,1721199109246
-1.43,0.60,9.49,0.18,0.16,-0.17,1721199109256
-0.45,-1.09,8.78,-0.18,0.11,-0.02,1721199109266
1.51,3.10,16.12,-0.09,0.23,-0.04,1721199109276
3.65,3.69,9.11,0.05,0.03,-0.26,1721199109286
0.43,-2.49,5.37,-0.18,0.11,-0.56,1721199109296
-3.23,-2.26,12.95,-0.06,0.13,-0.41,1721199109306
-2.58,0.20,9.28,-0.04,0.20,-0.07,1721199109316
-0.87,2.99,9.04,-0.07,0.14,0.03,1721199109326
1.51,2.78,8.26,0.03,0.18,-0.14,1721199109336
1.70,-0.14,8.67,-0.14,0.18,-0.33,1721199109346
-1.28,0.86,17.40,-0.13,0.20,-0.39,1721199109356
-1.94,2.76,14.47,0.12,0.13,-0.24,1721199109366
-1.28,1.39,4.54,-0.05,0.16,-0.14,1721199109376
-0.50,1.00,12.80,-0.11,0.30,-0.20,1721199109386
-0.61,-0.02,10.76,0.08,0.06,-0.26,1721199109396
-1.64,3.14,10.15,0.05,0.28,-0.20,1721199109406
-1.24,3.50,9.44,0.03,0.17,-0.19,1721199109416
-1.58,-0.35,9.41,-0.09,0.14,-0.13,1721199109426
-0.40,0.23,14.09,0.04,0.30,-0.10,1721199109436
-0.12,-1.16,7.98,0.03,0.05,-0.11,1721199109446
-0.90,3.60,10.01,0.07,0.23,-0.21,1721199109456
0.78,1.06,12.73,-0.01,0.26,-0.20,1721199109466
-2.02,-1.04,10.14,0.06,-0.01,-0.18,1721199109476
-1.72,-0.90,9.37,0.06,0.35,-0.14,1721199109486
-2.33,2.00,9.77,0.10,0.05,-0.06,1721199109496
-1.39,2.86,10.12,0.02,0.27,0.03,1721199109506
0.63,-0.54,8.70,0.02,0.10,0.03,1721199109516
0.06,-1.85,7.83,0.02,0.14,-0.05,1721199109526
0.64,0.82,12.30,-0.04,0.26,-0.09,1721199109536
-1.65,4.17,12.62,0.09,0.04,-0.06,1721199109546
-1.30,2.16,8.56,0.04,0.24,-0.02,1721199109556
-0.52,-1.86,11.26,-0.07,0.11,0.04,1721199109566
-1.18,-0.75,6.86,0.04,0.06,0.01,1721199109576
-0.05,2.82,11.82,-0.06,0.27,0.04,1721199109586
-0.24,1.60,11.49,0.08,-0.01,0.07,1721199109596
-0.35,-4.08,5.68,0.02,0.12,0.01,1721199109606
0.14,-1.13,14.38,0.03,0.22,-0.01,1721199109616
-0.82,6.66,11.76,0.27,-0.03,0.07,1721199109626
0.12,6.40,11.83,0.10,0.26,0.07,1721199109636
-1.95,-0.53,6.51,0.21,-0.20,0.04,1721199109646
-2.62,-1.29,9.16,0.03,0.07,0.16,1721199109661
-1.22,-0.48,11.47,0.08,-0.15,0.25,1721199109665
-0.04,3.87,9.77,0.23,0.22,0.22,1721199109675
2.28,1.99,7.18,0.15,-0.01,0.12,1721199109685
0.37,-1.27,11.00,0.05,0.06,0.01,1721199109695
0.52,2.42,12.37,0.35,0.07,0.03,1721199109705
-0.37,-0.61,2.60,0.12,-0.08,0.08,1721199109715
-1.54,0.52,16.30,0.11,0.25,-0.01,1721199109725
-0.13,0.65,12.69,0.50,-0.10,0.04,1721199109735
-1.59,1.25,3.83,0.31,0.02,0.11,1721199109745
-0.68,6.27,14.71,0.27,0.17,0.14,1721199109755
-0.16,3.90,9.35,0.26,-0.15,0.14,1721199109765
-0.06,2.82,14.18,0.19,0.20,0.06,1721199109775
-0.21,-1.26,7.35,0.35,-0.21,0.09,1721199109785
-1.70,3.79,-1.06,0.32,0.01,0.13,1721199109795
1.48,3.85,-3.38,0.13,0.03,0.17,1721199109805
2.39,-2.80,6.76,-0.24,0.07,0.09,1721199109815
1.28,-2.66,21.52,0.22,-0.02,-0.08,1721199109825
1.01,-0.07,10.46,0.38,-0.02,-0.18,1721199109835
-1.30,4.78,12.40,0.19,0.06,-0.17,1721199109845
-1.71,4.89,12.28,0.25,0.01,-0.14,1721199109855
-3.29,-0.90,6.31,0.14,-0.12,-0.06,1721199109865
-3.92,-1.97,10.94,0.13,0.07,0.04,1721199109875
-1.12,-0.50,11.65,0.19,-0.02,0.25,1721199109885
0.83,3.64,9.11,0.26,-0.02,0.24,1721199109895
3.45,3.12,2.45,0.22,-0.02,0.04,1721199109905
2.18,0.32,-1.11,0.00,-0.05,-0.18,1721199109915
0.74,1.87,6.96,-0.03,0.12,-0.15,1721199109925
0.22,0.47,11.36,-0.10,0.01,-0.07,1721199109935
0.10,-1.76,20.49,-0.12,0.14,-0.14,1721199109945
0.67,-0.55,21.30,0.19,0.09,-0.30,1721199109955
-2.01,2.22,7.08,0.24,-0.09,-0.36,1721199109965
-4.35,2.89,4.11,-0.02,0.07,-0.21,1721199109975
-2.85,0.95,9.34,0.05,0.05,0.06,1721199109985
0.27,3.32,8.68,0.14,0.10,0.10,1721199109995
1.26,1.54,5.87,-0.02,-0.00,-0.07,1721199110005
0.89,-0.54,9.02,-0.19,0.11,-0.17,1721199110015
-0.07,2.17,15.33,-0.07,0.11,-0.19,1721199110025
-0.44,0.72,8.50,-0.06,-0.00,-0.11,1721199110035
-0.61,-0.18,9.90,-0.14,0.09,-0.12,1721199110045
1.17,-1.24,11.29,-0.09,0.15,-0.09,1721199110055
0.79,-2.03,11.89,-0.17,0.12,-0.14,1721199110065
-0.30,0.07,14.01,0.02,0.13,-0.26,1721199110075
-0.19,0.93,7.26,0.15,0.09,-0.16,1721199110085
-0.35,3.58,5.06,-0.04,0.21,-0.14,1721199110095
-0.30,1.58,9.63,-0.16,0.20,-0.23,1721199110105
-1.18,-2.64,11.96,-0.22,0.14,-0.24,1721199110115
-2.68,-3.35,14.49,-0.06,0.14,-0.14,1721199110125
-1.71,-0.66,13.65,0.10,0.19,-0.04,1721199110135
-0.45,1.12,10.40,0.16,0.09,-0.04,1721199110145
-0.19,1.58,9.04,0.04,0.18,-0.16,1721199110155
-2.42,4.45,10.59,0.14,0.15,-0.25,1721199110165
-3.06,-0.98,7.20,-0.18,0.11,-0.15,1721199110175
-4.24,-3.05,16.85,-0.08,0.12,0.03,1721199110185
-0.04,-3.70,9.22,0.09,0.09,0.16,1721199110195
1.27,0.54,10.67,0.00,0.12,0.01,1721199110205
1.28,3.00,12.36,0.10,0.12,-0.26,1721199110215
-1.41,3.39,11.94,0.12,0.06,-0.35,1721199110225
-3.81,1.93,9.22,0.13,0.09,-0.18,1721199110235
-3.42,3.22,9.32,0.05,0.12,0.01,1721199110245
-1.22,1.71,8.19,-0.01,0.05,0.11,1721199110255
0.69,1.40,12.59,-0.01,0.18,0.04,1721199110265
0.74,-1.65,6.24,0.01,-0.03,-0.04,1721199110275
-2.06,0.22,7.41,-0.07,0.11,-0.13,1721199110285
-1.35,3.52,13.44,0.02,0.14,-0.07,1721199110295
-2.26,3.10,7.38,0.06,-0.09,0.07,1721199110305
-1.30,2.27,8.57,-0.14,0.20,0.04,1721199110315
-1.25,-0.77,7.92,-0.15,-0.08,0.02,1721199110325
-1.93,-3.32,10.50,-0.28,0.10,0.05,1721199110335
-1.44,0.10,14.31,-0.04,0.01,0.09,1721199110345
-1.05,-0.56,11.48,-0.06,-0.04,0.13,1721199110355
-0.22,-2.89,12.28,-0.03,-0.02,0.12,1721199110365
0.02,-0.57,11.56,0.09,-0.07,0.12,1721199110375
0.61,8.23,7.59,0.15,-0.02,0.08,1721199110385
0.23,8.99,4.81,-0.19,-0.10,0.05,1721199110395
-0.74,-3.14,11.12,-0.42,-0.05,0.05,1721199110405
-0.19,-11.99,14.08,-0.45,-0.04,0.08,1721199110415
-2.57,2.70,13.47,-0.06,-0.16,0.09,1721199110425
-0.55,2.26,9.12,-0.30,-0.01,0.19,1721199110435
-1.02,4.99,8.51,-0.02,-0.28,0.31,1721199110445
1.98,5.22,4.38,-0.24,0.07,0.18,1721199110455
-2.10,2.52,14.92,-0.54,-0.21,-0.14,1721199110465
-6.40,2.18,14.39,-0.15,-0.24,-0.02,1721199110475
-5.54,2.17,10.16,-0.21,-0.13,0.37,1721199110485
-3.19,-16.56,9.59,-0.39,-0.81,1.07,1721199110495
16.70,3.33,25.83,0.42,0.72,1.37,1721199110505
15.58,2.96,-8.23,0.14,-0.59,-0.07,1721199110515
5.63,14.40,19.12,-0.43,0.40,-1.79,1721199110525
-10.66,-4.16,10.87,0.08,-0.71,-1.84,1721199110535
-27.05,-10.45,-3.29,0.28,0.12,-0.56,1721199110545
-21.48,-4.77,-0.21,-0.00,-0.34,1.74,1721199110555
2.06,-4.85,13.25,-0.31,0.28,2.70,1721199110565
18.29,2.64,33.14,-0.33,0.28,1.71,1721199110575
20.15,12.67,22.82,0.35,-0.34,0.16,1721199110585
18.68,0.85,-7.59,-0.08,-0.47,-1.44,1721199110595
-2.42,-2.59,7.28,-0.41,-0.32,-1.97,1721199110605
-15.25,-6.20,14.87,-0.02,0.35,-1.32,1721199110615
-22.66,-7.58,12.63,0.13,-0.51,0.31,1721199110625
-7.04,-0.17,11.32,0.06,0.23,1.44,1721199110635
5.26,3.96,12.83,-0.05,-0.15,1.07,1721199110645
11.25,6.44,14.15,0.07,0.06,0.11,1721199110655
6.93,5.06,5.43,0.23,-0.33,-0.62,1721199110665
1.11,-2.23,2.64,0.10,0.03,-0.85,1721199110675
-4.84,-0.92,11.28,0.11,-0.19,-0.43,1721199110685
-4.20,0.42,11.69,0.15,-0.04,0.09,1721199110695
0.29,3.63,12.50,0.14,-0.06,0.25,1721199110705
3.84,-1.32,5.37,0.18,-0.14,0.02,1721199110715
4.31,-2.20,8.77,0.11,0.09,-0.44,1721199110725
-0.65,-2.45,7.51,0.11,-0.18,-0.55,1721199110735
-6.06,1.13,13.38,0.08,0.11,-0.44,1721199110745
-2.38,-1.03,10.67,0.11,-0.13,0.14,1721199110755
2.77,1.65,12.96,-0.00,0.17,0.22,1721199110765
4.09,0.60,13.91,0.07,-0.09,-0.19,1721199110775
-0.37,-1.94,8.33,0.05,0.02,-0.72,1721199110785
-2.55,-3.22,10.85,-0.05,0.08,-0.56,1721199110795
-5.16,-0.01,6.96,0.18,-0.13,0.01,1721199110805
1.02,5.16,9.78,0.04,0.35,0.22,1721199110815
3.56,3.73,11.33,0.04,-0.14,-0.07,1721199110825
2.23,-3.11,8.50,-0.03,0.17,-0.50,1721199110835
-1.39,-4.68,10.41,-0.16,0.03,-0.53,1721199110845
-5.43,-1.29,8.96,-0.03,-0.06,-0.05,1721199110855
-0.93,1.69,18.07,-0.03,0.40,0.04,1721199110865
1.64,5.61,10.40,0.35,-0.22,0.07,1721199110875
3.36,6.06,4.88,0.05,0.37,-0.20,1721199110885
-0.22,4.52,13.41,-0.09,0.01,-0.50,1721199110895
-5.10,-1.49,9.29,-0.03,-0.00,-0.26,1721199110905
-2.50,-7.67,7.46,-0.23,0.15,0.19,1721199110915
0.57,-2.61,13.16,-0.11,0.08,0.22,1721199110925
4.82,1.75,11.59,-0.08,0.14,-0.00,1721199110935
2.92,6.66,15.91,0.04,0.16,-0.44,1721199110945
-1.83,0.70,7.55,0.00,-0.02,-0.56,1721199110955
-7.20,0.27,10.78,-0.09,0.13,-0.26,1721199110965
-4.69,0.91,6.30,-0.03,0.06,0.32,1721199110975
-0.35,1.26,10.85,-0.27,0.16,0.37,1721199110985
3.50,0.30,16.50,-0.07,0.04,0.09,1721199110995
3.33,2.69,9.15,0.11,0.02,-0.18,1721199111005
1.22,3.15,5.68,-0.09,0.13,-0.29,1721199111015
-0.32,2.11,9.86,-0.13,0.07,-0.13,1721199111025
0.25,1.30,8.81,-0.05,0.10,-0.12,1721199111035
-0.52,-1.56,5.40,-0.09,0.02,-0.17,1721199111045
-1.03,-1.77,9.40,-0.23,0.18,-0.18,1721199111055
-1.47,-0.68,16.89,-0.21,0.03,-0.15,1721199111065
-0.70,0.85,22.62,-0.14,0.18,-0.18,1721199111075
-1.53,4.04,15.25,0.20,-0.09,-0.19,1721199111085
-1.12,1.32,-0.10,0.00,0.07,-0.06,1721199111095
0.38,-1.54,11.47,-0.22,0.26,0.01,1721199111105
1.30,2.21,12.54,0.09,-0.03,-0.11,1721199111115
1.32,3.06,8.45,0.04,0.21,-0.33,1721199111125
-2.39,-0.38,7.06,-0.04,-0.04,-0.38,1721199111135
-3.06,-2.15,9.40,-0.13,0.19,-0.05,1721199111145
-0.19,1.67,12.23,0.05,0.10,0.15,1721199111155
2.07,0.31,5.61,0.03,0.05,-0.07,1721199111165
0.92,-0.00,11.21,-0.10,0.20,-0.41,1721199111175
-2.74,1.81,12.42,0.16,-0.04,-0.35,1721199111185
-3.78,-0.46,6.59,-0.07,0.17,-0.08,1721199111195
-2.29,-2.71,12.58,-0.13,0.10,0.12,1721199111205
0.12,-3.68,11.49,0.03,0.05,0.05,1721199111215
1.64,2.34,10.01,0.06,0.20,-0.09,1721199111225
0.75,3.51,7.97,0.01,0.06,-0.24,1721199111235
-0.71,-1.80,9.51,-0.09,0.14,-0.25,1721199111245
-2.18,0.72,14.12,0.04,0.12,-0.22,1721199111255
-1.92,-0.44,9.84,-0.00,0.10,-0.06,1721199111265
-1.70,-2.92,9.70,0.02,0.05,-0.01,1721199111275
-0.15,1.57,13.67,0.11,0.22,-0.07,1721199111285
0.41,1.84,11.98,0.10,0.04,-0.15,1721199111295
-1.34,1.32,7.76,0.21,0.08,-0.21,1721199111305
-1.31,-0.69,10.08,0.10,0.19,-0.13,1721199111315
-1.40,1.83,12.11,0.22,0.04,0.03,1721199111325
-0.09,2.32,9.98,0.27,0.15,-0.02,1721199111335
-0.13,1.20,8.56,0.18,0.06,-0.16,1721199111345
-0.43,0.34,9.83,0.16,0.13,-0.13,1721199111355
-1.77,0.47,9.73,0.22,0.08,-0.09,1721199111365
-2.21,-0.45,7.69,0.22,0.04,-0.05,1721199111375
-0.78,3.80,10.81,0.26,0.22,0.00,1721199111385
-1.12,5.43,10.36,0.27,-0.01,-0.02,1721199111395
-1.57,0.39,8.33,0.16,0.05,0.02,1721199111405
-0.38,-1.47,11.32,0.12,0.13,0.03,1721199111415
-0.84,1.56,9.02,0.20,-0.01,0.02,1721199111425
-1.30,2.79,9.36,0.12,0.08,-0.03,1721199111435
-1.42,0.46,10.66,0.14,0.01,-0.02,1721199111445
-2.10,-0.29,6.83,0.19,-0.06,0.06,1721199111455
-0.70,2.27,11.31,0.06,0.11,0.16,1721199111465
0.86,2.97,11.76,0.09,-0.04,0.10,1721199111475
1.02,0.47,5.72,0.04,-0.03,0.00,1721199111485
0.66,-2.31,7.70,-0.16,0.06,-0.05,1721199111495
-0.89,1.41,12.54,-0.06,-0.02,-0.08,1721199111505
-1.21,0.26,6.05,-0.08,-0.10,-0.01,1721199111515
-1.68,-0.31,11.29,-0.19,0.01,0.02,1721199111525
-2.18,4.75,11.98,0.04,-0.08,0.04,1721199111535
-2.49,1.71,3.22,-0.18,-0.14,0.10,1721199111545
-2.32,-1.42,8.43,-0.40,-0.02,0.19,1721199111555
-0.86,-4.28,17.49,-0.45,-0.03,0.16,1721199111565
-1.39,0.72,20.15,-0.05,-0.20,0.19,1721199111575
0.77,4.13,6.34,0.07,-0.14,0.24,1721199111585
2.19,2.61,8.15,-0.28,-0.04,0.23,1721199111595
1.37,-2.22,11.36,-0.25,-0.19,0.07,1721199111605
2.23,-3.54,14.71,-0.25,0.06,-0.05,1721199111615
-0.79,-0.93,10.38,-0.05,-0.29,-0.12,1721199111625
-1.66,-2.14,6.62,-0.23,-0.01,0.05,1721199111635
-1.16,0.55,14.59,-0.15,-0.03,0.18,1721199111645
0.34,-0.98,9.89,-0.15,-0.15,0.06,1721199111655
-1.51,-1.19,11.88,-0.13,-0.20,-0.05,1721199111670
-1.29,-1.35,11.52,-0.13,-0.15,-0.03,1721199111674
-1.37,0.91,9.52,-0.11,-0.09,0.08,1721199111684
0.95,-1.35,9.31,-0.09,-0.13,0.22,1721199111694
1.05,-1.95,10.96,-0.16,-0.04,0.05,1721199111704
0.78,1.94,13.54,-0.07,-0.12,-0.08,1721199111714
0.88,2.83,10.49,0.02,-0.09,-0.06,1721199111724
-0.13,4.75,9.08,0.14,-0.06,-0.15,1721199111734
0.80,-1.10,6.37,-0.08,-0.05,-0.10,1721199111744
-1.96,-0.92,12.38,-0.04,-0.03,-0.10,1721199111754
-0.18,0.20,10.31,0.19,-0.12,0.00,1721199111764
1.78,3.05,10.99,0.09,0.10,-0.02,1721199111774
0.82,2.78,10.73,0.13,-0.14,-0.18,1721199111784
-0.54,1.80,8.87,0.09,0.09,-0.36,1721199111794
-1.69,-2.11,11.20,0.13,-0.10,-0.16,1721199111804
-2.44,0.49,10.61,0.19,-0.06,-0.05,1721199111814
0.19,2.99,9.90,0.27,0.01,0.06,1721199111824
0.82,0.85,7.61,0.22,-0.05,-0.11,1721199111834
0.33,-2.41,12.24,0.08,0.07,-0.29,1721199111844
-3.05,-2.29,8.55,0.19,-0.25,-0.16,1721199111854
-0.26,-0.95,10.69,0.13,0.22,0.06,1721199111864
1.82,3.73,12.81,0.21,-0.11,0.05,1721199111874
2.74,1.51,3.36,0.13,-0.02,-0.17,1721199111884
1.81,-2.10,12.48,-0.13,0.18,-0.38,1721199111894
-2.18,-1.35,14.93,0.09,-0.11,-0.43,1721199111904
-4.13,-1.08,8.90,0.17,-0.00,-0.14,1721199111914
-2.00,2.12,6.55,0.11,0.08,0.13,1721199111924
0.62,2.62,6.80,0.01,0.02,0.08,1721199111934
2.12,-0.10,9.42,-0.03,0.10,-0.17,1721199111944
-0.30,-1.98,11.67,-0.08,-0.02,-0.22,1721199111954
-2.65,0.24,10.72,0.04,-0.02,-0.12,1721199111964
-0.11,-1.07,11.68,0.02,0.07,0.16,1721199111974
1.16,3.82,9.59,0.22,-0.03,0.13,1721199111984
2.87,3.59,6.90,0.03,0.16,-0.11,1721199111994
-0.73,1.78,13.37,-0.04,-0.02,-0.25,1721199112004
-2.81,-0.91,12.38,0.05,0.03,-0.06,1721199112014
-1.33,2.49,14.04,0.13,0.08,0.22,1721199112024
2.49,3.51,8.77,0.12,0.02,0.24,1721199112034
3.48,1.53,9.65,-0.01,0.10,-0.08,1721199112044
0.88,0.31,9.74,0.10,-0.00,-0.35,1721199112054
-2.39,2.31,10.32,0.08,0.08,-0.23,1721199112064
-3.45,3.45,9.92,0.17,-0.03,0.10,1721199112074
-0.44,1.97,7.39,0.05,0.07,0.30,1721199112084
2.71,0.41,11.65,-0.05,0.07,0.13,1721199112094
2.04,0.01,10.51,0.03,-0.04,-0.15,1721199112104
-0.31,1.47,10.04,0.06,0.05,-0.22,1721199112114
-1.83,1.67,9.76,0.05,-0.00,-0.08,1721199112124
-1.99,1.33,9.65,0.03,0.04,-0.01,1721199112134
-0.91,-2.48,8.83,-0.08,-0.05,0.06,1721199112144
-0.91,-0.54,11.25,-0.03,-0.01,0.07,1721199112154
0.48,2.06,10.49,0.07,0.01,0.04,1721199112164
-0.06,-1.22,6.06,-0.09,-0.12,-0.02,1721199112174
-1.07,-3.76,13.32,-0.17,0.06,-0.03,1721199112184
-0.57,-0.85,11.63,0.13,-0.14,0.09,1721199112194
1.25,0.72,7.82,-0.05,0.02,0.21,1721199112204
2.30,5.10,11.86,0.15,-0.01,0.09,1721199112214
3.80,2.33,3.45,-0.02,-0.05,-0.15,1721199112224
0.53,2.04,12.93,-0.18,0.09,-0.31,1721199112234
-0.59,0.37,15.27,0.02,-0.02,-0.28,1721199112244
-2.36,-0.54,11.68,0.04,-0.06,-0.14,1721199112254
-1.22,1.95,8.32,0.12,0.07,-0.08,1721199112264
0.44,2.66,6.62,-0.04,0.05,-0.09,1721199112274
-0.24,1.21,7.89,-0.07,0.03,-0.23,1721199112284
-0.84,-0.55,14.48,-0.13,0.13,-0.28,1721199112294
-3.33,-0.94,11.36,0.10,-0.22,-0.08,1721199112304
-0.81,-1.05,11.83,-0.06,0.23,0.09,1721199112314
0.87,2.79,13.26,0.12,-0.09,0.02,1721199112324
1.48,2.24,5.19,-0.01,0.03,-0.12,1721199112334
0.74,-0.14,8.65,-0.11,0.07,-0.24,1721199112344
-1.36,-1.02,11.52,-0.08,0.02,-0.24,1721199112354
-2.79,2.53,13.88,0.02,0.03,-0.10,1721199112364
-1.53,2.30,9.95,0.04,-0.02,0.05,1721199112374
-0.22,-1.91,8.90,-0.09,0.05,-0.02,1721199112384
0.15,1.18,12.35,0.08,0.06,-0.14,1721199112394
0.47,3.36,8.89,0.06,0.06,-0.12,1721199112404
-0.74,3.21,10.15,0.01,0.03,-0.16,1721199112414
-0.37,-0.70,9.69,-0.03,0.06,-0.13,1721199112424
-0.21,-1.19,12.11,-0.07,0.06,-0.09,1721199112434
-0.12,3.67,10.70,0.10,0.04,-0.12,1721199112444
0.95,4.24,4.73,-0.04,0.07,-0.16,1721199112454
-0.11,-2.30,9.06,-0.30,0.10,-0.25,1721199112464
-2.73,-3.29,18.36,-0.03,0.08,-0.35,1721199112474
-4.08,-0.46,12.22,0.13,-0.04,-0.03,1721199112484
-2.31,4.33,10.01,0.10,0.04,0.29,1721199112494
2.75,6.28,6.97,0.11,0.09,0.19,1721199112504
3.88,-0.16,4.46,-0.23,0.03,-0.13,1721199112514
0.56,-1.83,15.02,-0.12,0.09,-0.39,1721199112524
-1.47,-2.72,11.37,0.07,-0.02,-0.25,1721199112534
-2.37,2.30,9.09,0.08,0.04,0.07,1721199112544
0.90,5.69,6.16,0.13,0.08,0.13,1721199112554
2.23,2.29,4.71,-0.16,0.04,-0.12,1721199112564
-0.24,0.86,17.01,-0.14,0.12,-0.31,1721199112574
-2.49,-2.69,16.61,0.01,0.00,-0.24,1721199112584
-4.53,0.24,8.57,0.17,-0.09,0.10,1721199112594
0.56,0.89,5.02,0.00,0.16,0.30,1721199112604
3.83,3.26,13.19,-0.05,0.11,0.09,1721199112614
2.53,2.38,12.01,0.10,-0.00,-0.40,1721199112624
-2.75,1.03,8.61,0.07,-0.03,-0.41,1721199112634
-4.27,-1.01,6.96,-0.02,0.04,0.01,1721199112644
-1.06,-2.14,10.52,-0.06,0.04,0.32,1721199112654
2.70,1.37,12.01,0.13,0.07,0.11,1721199112664
3.79,3.21,9.23,0.04,0.04,-0.21,1721199112674
-1.04,0.37,12.42,-0.05,0.02,-0.40,1721199112684
-4.19,-1.40,11.60,0.07,0.01,-0.15,1721199112694
-2.91,1.67,12.21,0.09,0.04,0.30,1721199112704
2.14,4.66,8.57,0.16,0.02,0.35,1721199112714
5.30,0.13,8.30,-0.08,0.10,-0.11,1721199112724
0.76,-0.15,12.60,-0.00,-0.00,-0.55,1721199112734
-3.64,-1.47,10.91,0.09,0.01,-0.43,1721199112744
-5.76,-0.29,10.48,0.12,-0.02,0.08,1721199112754
-1.69,2.33,5.54,0.18,0.03,0.42,1721199112764
4.30,7.23,13.25,-0.00,0.26,0.21,1721199112774
3.95,4.65,8.92,0.10,-0.22,-0.17,1721199112784
1.48,-2.92,7.27,-0.16,0.20,-0.48,1721199112794
-3.45,-2.80,13.73,0.02,-0.09,-0.35,1721199112804
-3.57,0.40,10.20,0.13,0.12,-0.06,1721199112814
-0.55,5.19,8.61,0.15,0.00,0.16,1721199112824
1.82,1.12,9.65,-0.08,0.11,-0.04,1721199112834
-0.38,-0.08,13.45,0.09,-0.02,-0.30,1721199112844
-2.48,0.14,7.31,0.11,0.01,-0.19,1721199112854
-2.20,2.43,10.47,0.02,0.07,0.16,1721199112864
1.38,0.07,7.71,-0.01,0.03,0.15,1721199112874
2.52,-2.92,10.80,-0.12,0.05,-0.13,1721199112884
0.79,0.90,13.68,0.14,0.04,-0.34,1721199112894
-0.82,4.22,5.26,0.14,0.03,-0.27,1721199112904
-2.18,4.62,6.83,-0.11,0.10,-0.11,1721199112914
-0.81,1.54,8.61,-0.06,0.02,-0.00,1721199112924
0.21,-1.79,8.27,-0.19,0.08,-0.11,1721199112934
-0.68,-1.00,17.82,-0.10,0.12,-0.30,1721199112944
-2.50,-1.04,17.82,0.10,-0.05,-0.18,1721199112954
-3.72,5.24,8.49,0.30,-0.03,0.05,1721199112964
0.98,0.29,0.67,-0.12,0.10,0.18,1721199112974
1.98,-1.48,11.51,-0.19,0.12,-0.08,1721199112984
1.86,-0.55,13.84,0.06,0.01,-0.23,1721199112994
-1.06,6.53,11.53,0.16,0.04,-0.25,1721199113004
-1.42,1.70,4.09,-0.02,-0.03,-0.07,1721199113014
-2.31,-2.10,9.31,-0.24,0.13,-0.03,1721199113024
-0.36,-4.02,14.29,-0.08,0.02,0.00,1721199113034
0.39,-1.11,11.02,0.04,-0.05,0.02,1721199113044
1.44,7.65,10.60,0.11,0.18,-0.10,1721199113054
0.65,5.24,9.38,-0.10,0.03,-0.24,1721199113064
-3.20,-3.04,8.04,-0.17,-0.09,-0.21,1721199113074
-2.38,-5.22,9.65,-0.11,0.11,0.01,1721199113084
0.07,1.76,15.46,0.02,0.11,0.16,1721199113094
0.67,7.30,8.33,0.22,-0.13,0.05,1721199113104
3.11,0.68,6.24,-0.25,0.20,-0.08,1721199113114
-0.24,-1.67,16.86,-0.14,-0.05,-0.25,1721199113124
-1.92,-1.32,12.96,0.13,0.05,-0.16,1721199113134
-1.50,3.79,9.01,0.15,0.05,0.03,1721199113144
0.74,5.30,3.84,0.07,-0.01,0.14,1721199113154
3.31,0.97,10.90,-0.11,0.26,-0.11,1721199113164
0.08,-4.63,13.46,-0.10,-0.12,-0.40,1721199113174
-4.44,0.45,17.35,0.20,0.09,-0.33,1721199113184
-2.27,4.68,8.85,0.27,0.08,0.15,1721199113194
0.77,2.76,0.74,-0.13,0.04,0.29,1721199113204
4.23,0.31,8.94,-0.14,0.22,-0.12,1721199113214
3.25,-2.62,15.22,-0.17,0.14,-0.50,1721199113224
-4.41,-0.06,13.57,0.17,-0.13,-0.46,1721199113234
-4.14,8.84,12.80,0.35,0.29,0.03,1721199113244
0.29,2.85,0.76,-0.03,-0.13,0.36,1721199113254
2.54,-3.07,11.10,-0.33,0.38,0.04,1721199113264
3.46,-1.62,20.18,0.05,0.05,-0.52,1721199113274
-2.50,-4.56,3.89,0.08,-0.16,-0.49,1721199113284
-4.95,4.47,10.47,0.12,0.44,-0.22,1721199113294
-0.81,8.79,10.20,0.14,0.08,0.04,1721199113304
-1.06,2.20,0.85,-0.19,-0.07,0.08,1721199113314
1.63,0.30,18.62,-0.20,0.52,-0.20,1721199113324
0.41,-1.01,15.51,0.12,-0.21,-0.34,1721199113334
-3.07,-0.87,4.52,0.15,0.10,-0.16,1721199113344
-0.52,1.44,8.96,0.09,0.28,0.01,1721199113354
-0.04,1.34,8.90,-0.01,0.06,-0.17,1721199113364
-1.33,0.36,13.95,-0.06,0.21,-0.22,1721199113374
-1.58,-0.05,10.77,0.02,0.08,-0.06,1721199113384
-1.65,4.31,9.72,0.10,0.12,0.02,1721199113394
2.07,2.54,4.35,0.01,0.12,-0.01,1721199113404
1.57,-1.70,15.92,-0.22,0.25,-0.17,1721199113414
-1.57,-0.77,12.45,0.24,-0.06,-0.27,1721199113424
-1.84,0.28,10.15,0.01,0.32,-0.17,1721199113434
-2.86,4.32,10.31,0.23,-0.06,0.04,1721199113444
0.05,2.34,1.71,-0.02,0.23,0.22,1721199113454
2.04,4.21,9.84,-0.11,0.22,0.06,1721199113464
1.92,-0.24,12.42,-0.18,0.10,-0.23,1721199113474
-2.31,-0.25,15.97,0.07,0.06,-0.33,1721199113484
-2.80,-1.19,9.61,0.08,0.13,0.01,1721199113494
-3.09,2.00,10.65,0.02,0.09,0.16,1721199113504
0.96,2.35,7.07,0.05,0.15,0.23,1721199113514
2.04,0.90,11.84,-0.12,0.18,-0.02,1721199113524
-0.84,4.74,9.88,0.16,-0.00,-0.18,1721199113534
-0.82,1.24,9.17,-0.16,0.27,-0.07,1721199113544
-3.41,1.16,12.60,-0.03,-0.12,0.15,1721199113554
-0.98,-0.36,8.07,0.04,0.16,0.23,1721199113564
2.37,-1.06,10.69,-0.05,0.06,0.18,1721199113574
0.73,1.82,9.91,0.19,-0.04,0.01,1721199113584
1.50,1.77,6.11,-0.04,0.20,-0.05,1721199113594
-2.74,2.33,10.52,-0.07,-0.11,0.08,1721199113604
-1.52,-1.25,12.14,-0.09,0.21,0.15,1721199113614
-0.24,0.45,12.87,0.05,-0.09,0.18,1721199113624
0.84,1.31,8.20,0.02,0.05,0.14,1721199113634
1.32,4.83,11.85,0.03,0.10,0.03,1721199113644
-0.48,3.56,10.65,-0.03,-0.02,-0.09,1721199113654
-3.55,1.02,8.21,-0.00,-0.08,-0.00,1721199113664
-2.65,-2.79,10.50,-0.08,0.02,0.32,1721199113679
-1.38,-3.24,10.49,-0.03,-0.15,0.37,1721199113683
2.31,2.45,14.14,0.10,0.16,0.27,1721199113693
1.53,2.76,6.27,0.12,-0.30,0.07,1721199113703
-0.71,2.90,11.64,-0.08,0.18,-0.03,1721199113713
-0.65,0.37,12.30,0.01,-0.17,0.18,1721199113723
-1.92,-2.47,7.86,-0.09,-0.15,0.37,1721199113733
2.06,3.90,9.73,0.10,0.05,0.35,1721199113743
4.56,2.16,6.72,-0.15,-0.10,0.09,1721199113753
0.66,-0.60,11.16,-0.10,-0.11,-0.21,1721199113763
-1.96,-1.68,13.44,0.01,-0.04,-0.20,1721199113773
-4.72,0.23,10.47,0.01,-0.15,0.13,1721199113783
-2.99,2.90,6.99,0.05,-0.15,0.45,1721199113793
3.87,3.71,12.49,-0.14,0.11,0.41,1721199113803
4.52,-0.67,13.91,-0.06,-0.27,-0.03,1721199113813
1.48,-2.64,10.82,-0.06,-0.03,-0.38,1721199113823
-2.76,1.97,15.66,0.08,-0.13,-0.14,1721199113833
-2.89,1.98,6.86,0.15,-0.18,0.27,1721199113843
0.27,3.36,5.22,0.01,-0.02,0.28,1721199113853
3.17,2.14,9.88,-0.09,-0.03,0.09,1721199113863
1.57,-2.79,10.32,-0.12,-0.18,-0.16,1721199113873
-2.34,1.18,10.97,0.11,-0.12,-0.17,1721199113883
-1.69,-0.03,9.67,-0.10,-0.06,0.08,1721199113893
-0.17,-0.17,12.23,0.08,-0.17,0.23,1721199113903
4.13,-1.74,7.25,-0.05,0.03,0.09,1721199113913
1.36,0.19,10.08,-0.08,-0.17,-0.19,1721199113923
-0.36,2.14,11.23,0.12,0.07,-0.29,1721199113933
-1.61,3.39,5.97,0.11,-0.19,-0.12,1721199113943
-0.88,2.50,7.93,-0.07,0.05,0.07,1721199113953
1.72,-4.05,14.60,-0.14,-0.04,-0.05,1721199113963
-0.52,-3.81,17.25,0.11,-0.10,-0.27,1721199113973
-1.79,1.69,13.02,0.41,-0.01,-0.28,1721199113983
-1.42,4.97,4.53,0.25,-0.09,-0.00,1721199113993
-0.50,8.08,6.07,0.17,0.07,0.09,1721199114003
3.68,2.35,8.10,-0.09,0.07,-0.08,1721199114013
0.70,-4.06,14.43,-0.11,-0.11,-0.34,1721199114023
-0.99,-0.74,14.32,0.22,0.06,-0.37,1721199114033
-2.16,4.85,9.29,0.31,-0.06,-0.16,1721199114043
-0.53,1.58,3.69,0.02,0.04,0.01,1721199114053
0.18,0.85,10.19,-0.00,0.05,-0.10,1721199114063
0.40,0.07,13.93,0.05,0.07,-0.24,1721199114073
-1.65,2.88,10.07,0.18,-0.10,-0.17,1721199114083
-0.46,1.69,6.30,0.02,0.08,-0.04,1721199114093
0.34,1.15,8.58,-0.02,-0.01,-0.07,1721199114103
1.04,-1.27,10.69,-0.12,0.11,-0.20,1721199114113
-1.05,-1.01,13.47,0.02,-0.04,-0.23,1721199114123
-2.49,-0.36,6.43,0.06,-0.02,-0.10,1721199114133
-1.34,4.11,4.49,0.04,0.06,0.03,1721199114143
2.24,2.65,1.96,-0.26,0.04,0.08,1721199114153
1.62,-2.27,10.55,-0.39,0.09,-0.23,1721199114163
-0.51,-4.09,22.82,-0.16,0.09,-0.42,1721199114173
-5.21,-1.01,15.18,0.18,-0.22,-0.17,1721199114183
-4.31,3.35,9.45,0.08,0.14,0.19,1721199114193
0.92,2.38,6.84,-0.05,-0.05,0.34,1721199114203
3.59,-1.48,10.03,-0.22,0.13,0.03,1721199114213
1.69,-0.07,14.57,0.11,-0.08,-0.40,1721199114223
-2.85,1.46,6.60,0.06,-0.09,-0.27,1721199114233
-3.64,4.42,11.43,-0.09,0.10,0.10,1721199114243
-0.42,2.40,13.45,0.01,-0.03,0.25,1721199114253
1.68,-1.08,8.31,-0.03,-0.07,0.16,1721199114263
2.40,-2.32,12.83,-0.12,0.10,-0.09,1721199114273
-0.81,1.69,8.84,0.23,-0.28,-0.06,1721199114283
0.54,3.48,7.54,0.01,0.26,-0.01,1721199114293
-0.38,4.41,12.56,0.03,-0.19,0.11,1721199114303
-1.05,0.55,9.58,-0.05,0.01,-0.02,1721199114313
-0.25,2.19,14.21,0.06,0.02,-0.06,1721199114323
0.35,-1.19,5.12,-0.07,-0.15,0.06,1721199114333
1.28,2.83,10.54,-0.04,0.16,0.09,1721199114343
1.76,1.33,9.19,0.06,-0.16,-0.10,1721199114353
-0.97,2.36,13.43,0.07,0.01,-0.15,1721199114363
-0.85,0.18,9.53,0.06,-0.02,-0.05,1721199114373
-1.72,1.12,7.52,-0.10,-0.05,0.09,1721199114383
1.13,-0.77,10.90,-0.04,0.05,0.06,1721199114393
1.84,-0.03,7.52,0.08,-0.14,-0.06,1721199114403
0.98,3.32,11.95,0.07,0.12,-0.20,1721199114413
-0.50,-2.91,10.41,-0.11,-0.15,-0.19,1721199114423
-3.91,-2.15,17.93,0.17,-0.07,-0.13,1721199114433
-0.43,1.47,6.22,0.37,-0.04,0.12,1721199114443
0.65,4.63,2.00,-0.04,0.00,0.21,1721199114453
2.65,4.41,8.65,-0.06,0.08,-0.11,1721199114463
2.01,-2.70,13.06,-0.25,0.01,-0.35,1721199114473
-2.99,-1.82,16.88,-0.02,-0.09,-0.32,1721199114483
-4.10,2.37,14.02,0.22,-0.05,-0.05,1721199114493
-1.69,5.38,7.17,0.13,-0.09,0.30,1721199114503
3.65,3.54,3.75,-0.05,0.04,0.18,1721199114513
5.02,-5.21,8.59,-0.39,0.06,-0.30,1721199114523
-2.35,-3.26,14.83,-0.12,-0.14,-0.61,1721199114533
-4.79,2.07,13.77,0.03,0.07,-0.30,1721199114543
-3.79,3.55,8.51,0.07,-0.26,0.31,1721199114553
2.33,-2.08,2.30,-0.26,0.07,0.36,1721199114563
5.21,-1.51,16.57,-0.30,0.12,-0.10,1721199114573
1.04,1.19,12.08,0.08,-0.19,-0.58,1721199114583
-3.73,1.70,5.92,-0.05,0.02,-0.39,1721199114593
-5.00,1.79,8.37,-0.02,-0.03,0.08,1721199114603
-0.01,1.03,0.23,-0.13,-0.02,0.39,1721199114613
5.54,-2.27,16.01,-0.47,0.29,0.03,1721199114623
2.65,-2.03,20.38,0.13,-0.31,-0.50,1721199114633
-2.15,-0.90,8.30,0.17,0.04,-0.62,1721199114643
-5.33,2.25,12.93,0.16,-0.06,-0.14,1721199114653
-3.13,1.13,10.02,0.19,-0.01,0.21,1721199114663
2.11,-0.13,11.71,0.05,0.09,0.14,1721199114673
2.20,2.30,18.13,0.17,0.01,-0.18,1721199114683
1.10,6.33,12.82,0.44,0.03,-0.32,1721199114693
-1.12,4.09,1.86,0.26,-0.14,-0.14,1721199114703
0.08,5.90,12.89,0.16,0.31,-0.02,1721199114713
2.57,0.92,9.11,0.19,-0.15,-0.08,1721199114723
0.34,1.24,12.52,0.10,0.20,-0.31,1721199114733
-0.18,3.40,10.90,0.34,0.00,-0.33,1721199114743
-2.34,2.60,2.63,0.13,-0.01,-0.18,1721199114753
-1.57,3.38,6.96,0.13,0.12,-0.02,1721199114763
1.53,2.26,8.08,0.03,0.09,-0.06,1721199114773
0.19,-2.26,9.67,-0.05,-0.06,-0.16,1721199114783
-0.63,-0.19,12.61,0.08,0.14,-0.16,1721199114793
-0.12,1.54,5.75,0.10,-0.07,-0.05,1721199114803
1.03,1.43,8.33,-0.21,0.20,-0.06,1721199114813
1.72,-0.12,10.76,-0.08,0.01,-0.22,1721199114823
0.79,0.37,6.88,-0.13,0.13,-0.39,1721199114833
-1.92,1.92,7.27,-0.15,0.05,-0.34,1721199114843
-2.35,-0.03,5.62,-0.21,0.08,-0.16,1721199114853
-1.13,-1.15,13.64,-0.24,0.20,-0.13,1721199114863
-1.49,-2.51,16.40,-0.11,-0.03,-0.22,1721199114873
-3.60,-3.26,15.01,0.03,-0.05,-0.23,1721199114883
-2.27,-0.83,14.91,0.12,0.10,-0.01,1721199114893
-0.70,0.68,9.02,0.08,-0.03,0.06,1721199114903
0.48,2.40,10.48,0.06,0.10,0.01,1721199114913
1.66,-1.63,8.40,-0.07,0.05,-0.14,1721199114923
-0.98,-1.39,11.28,0.01,-0.02,-0.27,1721199114933
-0.78,-1.64,9.77,-0.01,0.13,-0.18,1721199114943
-2.40,2.33,10.67,0.00,-0.06,-0.02,1721199114953
-0.94,5.19,6.35,0.04,0.07,0.08,1721199114963
2.05,0.60,10.27,-0.25,0.10,0.03,1721199114973
-0.51,0.19,14.89,0.00,-0.13,-0.14,1721199114983
-1.50,-2.27,2.83,-0.08,-0.08,-0.12,1721199114993
-1.32,6.04,18.19,-0.02,0.24,0.04,1721199115003
2.06,-0.83,8.76,-0.00,-0.17,0.10,1721199115013
-0.67,-0.05,10.44,0.05,-0.02,-0.02,1721199115023
2.66,5.69,14.13,0.19,0.25,-0.19,1721199115033
-0.62,5.55,7.04,0.04,-0.25,-0.09,1721199115043
0.41,2.62,7.69,-0.01,0.26,-0.04,1721199115053
2.28,1.31,11.98,0.00,0.04,-0.07,1721199115063
-0.39,-1.85,7.89,-0.06,-0.08,-0.27,1721199115073
-0.35,2.46,18.16,0.15,0.23,-0.29,1721199115083
-0.60,1.85,12.28,0.18,-0.03,-0.17,1721199115093
-2.48,-0.42,4.45,0.13,-0.08,0.01,1721199115103
1.11,2.94,7.52,0.20,0.29,-0.01,1721199115113
2.26,3.92,6.51,0.03,0.03,-0.18,1721199115123
-0.60,-0.04,7.95,0.02,-0.02,-0.27,1721199115133
0.41,-1.53,12.50,0.10,0.23,-0.22,1721199115143
-1.61,0.42,10.11,0.13,-0.08,-0.11,1721199115153
-1.29,2.28,13.85,0.17,0.22,-0.12,1721199115163
0.34,3.14,7.39,0.22,-0.05,-0.08,1721199115173
-0.09,-0.44,5.58,-0.03,0.16,-0.13,1721199115183
-0.08,-1.93,9.35,0.04,0.11,-0.25,1721199115193
-1.62,1.46,2.55,0.10,-0.01,-0.14,1721199115203
-0.23,-1.49,12.49,-0.27,0.31,-0.08,1721199115213
-2.21,-1.72,21.73,0.18,-0.14,-0.13,1721199115223
-0.77,-1.02,11.26,0.26,0.13,-0.09,1721199115233
0.53,4.03,11.68,0.20,0.05,0.05,1721199115243
1.39,2.23,5.99,0.09,0.11,-0.08,1721199115253
0.74,1.68,8.08,0.10,0.09,-0.21,1721199115263
0.51,-0.46,10.47,0.06,0.16,-0.29,1721199115273
-1.83,-1.26,11.23,0.03,0.04,-0.20,1721199115283
-2.69,0.25,8.17,0.04,0.07,-0.02,1721199115293
-0.27,1.72,11.24,-0.01,0.18,-0.02,1721199115303
0.74,1.75,9.04,0.08,-0.02,-0.07,1721199115313
0.65,0.17,4.44,-0.12,0.16,-0.10,1721199115323
-0.09,-0.06,15.04,-0.21,0.18,-0.19,1721199115333
-1.23,1.44,10.12,0.08,-0.05,-0.13,1721199115343
0.52,2.91,10.76,-0.10,0.30,-0.06,1721199115353
0.98,3.37,12.23,-0.01,-0.01,-0.04,1721199115363
0.24,0.28,9.27,-0.05,0.16,-0.22,1721199115373
-0.10,2.80,13.52,0.05,0.20,-0.28,1721199115383
-1.19,-1.36,3.42,-0.08,-0.05,-0.19,1721199115393
-1.64,0.46,8.44,-0.14,0.32,-0.07,1721199115403
1.58,1.01,12.68,-0.02,0.19,-0.13,1721199115413
-0.59,1.14,10.16,-0.08,0.01,-0.20,1721199115423
-1.33,0.75,12.76,-0.03,0.25,-0.29,1721199115433
-0.81,-1.48,13.63,-0.03,0.13,-0.17,1721199115443
-1.67,0.85,10.42,0.07,0.12,-0.10,1721199115453
0.76,1.46,5.82,-0.00,0.24,-0.09,1721199115463
0.38,1.15,8.42,-0.06,0.15,-0.22,1721199115473
-0.02,0.34,10.83,-0.07,0.27,-0.28,1721199115483
-2.19,-0.49,10.23,-0.05,0.13,-0.28,1721199115493
-3.05,-0.01,9.51,-0.01,0.17,-0.12,1721199115503
-1.35,0.87,11.46,-0.02,0.19,0.01,1721199115513
-0.11,4.63,12.35,0.06,0.17,-0.01,1721199115523
1.13,0.75,11.35,-0.08,0.25,-0.15,1721199115533
-1.30,-0.02,15.16,-0.02,0.17,-0.25,1721199115543
-2.62,-1.28,6.95,0.09,0.06,-0.09,1721199115553
-1.17,2.98,6.39,0.03,0.21,0.17,1721199115563
2.50,5.65,11.25,0.07,0.27,0.06,1721199115573
1.80,-1.26,6.29,-0.14,0.04,-0.18,1721199115583
-2.31,-0.04,14.81,-0.01,0.22,-0.28,1721199115593
-1.92,0.68,13.54,0.03,0.27,-0.09,1721199115603
-3.82,0.22,8.14,0.04,-0.10,0.17,1721199115613
1.22,1.68,10.35,-0.03,0.42,0.25,1721199115623
