AccX,AccY,AccZ,GyrX,GyrY,GyrZ,Time
-3.51,0.93,10.15,-0.04,0.08,0.06,1721201318155
-4.32,0.59,10.25,-0.05,0.07,0.11,1721201318160
-4.35,0.91,11.15,0.02,0.06,0.21,1721201318170
-2.91,1.32,9.14,0.01,0.08,0.23,1721201318180
-2.70,1.86,9.06,-0.03,0.00,0.07,1721201318190
-4.16,0.79,9.48,-0.06,0.00,-0.04,1721201318200
-6.18,0.80,11.18,-0.01,-0.06,0.06,1721201318210
-5.88,1.15,8.97,-0.02,-0.05,0.31,1721201318220
-2.87,0.96,10.56,-0.07,0.02,0.41,1721201318230
-1.05,0.42,10.35,-0.04,-0.09,0.23,1721201318240
-2.21,0.17,9.73,-0.06,-0.09,0.06,1721201318250
-3.68,-0.29,10.36,-0.04,-0.14,0.16,1721201318260
-2.83,-0.36,9.83,-0.03,-0.07,0.39,1721201318270
0.17,0.41,9.35,-0.02,-0.05,0.41,1721201318280
1.52,-0.41,8.56,-0.09,-0.08,0.17,1721201318290
-0.63,-0.81,11.70,-0.09,-0.08,-0.09,1721201318300
-3.51,-0.23,12.31,0.03,-0.13,-0.02,1721201318310
-4.14,0.48,9.35,-0.03,-0.08,0.27,1721201318320
-1.54,0.55,8.96,-0.06,-0.08,0.42,1721201318330
0.12,-1.95,8.76,-0.11,-0.06,0.29,1721201318340
0.31,-2.58,9.62,0.02,-0.06,0.03,1721201318350
-2.45,0.22,10.85,-0.03,-0.25,0.10,1721201318360
-6.09,2.25,10.18,-0.09,-0.02,0.24,1721201318370
-1.70,-0.44,13.23,-0.01,0.03,0.26,1721201318380
-1.22,-0.69,7.97,-0.12,-0.28,0.17,1721201318390
-3.46,-0.80,10.86,-0.11,-0.03,0.21,1721201318400
-1.91,-2.23,10.81,-0.01,-0.14,0.41,1721201318410
-0.27,-0.15,9.08,-0.01,0.01,0.31,1721201318420
1.08,0.27,8.99,-0.07,-0.13,0.04,1721201318430
-2.59,-0.88,11.19,-0.15,-0.17,-0.05,1721201318440
-3.42,-1.56,13.62,-0.02,-0.01,0.21,1721201318450
-1.19,-0.64,10.03,-0.01,-0.07,0.39,1721201318460
0.76,0.27,7.59,-0.05,-0.04,0.29,1721201318470
0.88,-0.87,8.45,-0.15,-0.09,0.07,1721201318480
-2.12,-0.54,12.47,-0.08,-0.12,-0.01,1721201318490
-2.52,-0.49,13.69,0.04,-0.02,0.21,1721201318500
-1.48,0.72,10.00,0.01,-0.08,0.36,1721201318510
-0.04,0.82,7.23,-0.07,-0.03,0.25,1721201318520
1.05,-0.16,10.54,-0.10,0.04,0.06,1721201318530
-0.27,-0.90,11.61,-0.05,-0.08,0.04,1721201318540
-2.35,-0.16,9.50,0.01,-0.04,0.09,1721201318550
-1.25,0.06,8.65,-0.03,0.04,0.11,1721201318560
-2.26,1.58,7.97,-0.08,-0.06,0.04,1721201318570
-2.94,1.30,10.77,-0.07,-0.06,0.04,1721201318580
-3.69,-2.99,8.24,-0.10,-0.03,-0.01,1721201318590
-7.98,6.90,10.44,0.03,-0.56,0.01,1721201318600
-16.69,-15.64,8.18,-0.41,-0.54,0.49,1721201318610
-8.38,-6.92,24.39,0.20,-0.20,0.78,1721201318620
4.31,3.02,17.43,0.12,0.05,0.46,1721201318630
2.97,2.73,5.76,-0.28,-0.62,0.19,1721201318640
-0.20,-0.84,3.57,0.01,-0.13,0.14,1721201318650
6.84,-0.97,13.04,-0.03,0.36,0.13,1721201318660
2.79,2.17,8.24,-0.02,-0.60,0.01,1721201318670
-2.08,-2.43,4.90,-0.09,-0.04,-0.38,1721201318680
-5.26,-2.08,16.88,0.00,-0.23,-0.39,1721201318690
-9.47,-0.76,9.99,0.01,-0.39,0.19,1721201318700
-6.57,-0.35,10.59,-0.02,-0.11,0.61,1721201318710
-0.47,-3.06,8.17,0.03,-0.17,0.56,1721201318720
2.61,0.11,9.58,0.06,-0.14,0.42,1721201318730
5.03,-1.79,8.72,-0.03,-0.21,0.40,1721201318740
4.65,-2.32,8.44,-0.07,-0.08,0.38,1721201318750
6.30,-3.61,14.94,0.04,0.06,0.18,1721201318760
6.63,-2.22,12.72,0.13,-0.07,0.13,1721201318770
6.31,-0.40,8.38,0.01,0.08,0.13,1721201318780
6.65,-0.86,12.20,-0.06,0.31,0.03,1721201318790
5.18,-4.80,8.53,-0.05,0.06,-0.15,1721201318800
2.45,-2.57,14.87,0.10,0.45,-0.34,1721201318810
0.28,-1.94,10.80,0.23,0.31,-0.32,1721201318820
-2.34,-2.09,6.03,-0.04,0.29,-0.16,1721201318830
-3.16,-0.83,11.92,0.05,0.44,-0.10,1721201318840
-3.87,-3.23,9.01,0.01,0.26,-0.12,1721201318850
-6.85,0.12,12.02,0.06,0.24,-0.16,1721201318860
-7.15,-3.25,10.03,0.06,0.18,-0.09,1721201318870
-10.16,-0.87,7.91,-0.07,-0.06,0.09,1721201318880
-8.20,-1.94,11.00,0.03,0.27,0.32,1721201318890
-2.62,-5.17,10.87,0.04,0.14,0.35,1721201318900
-4.32,-0.83,9.11,0.08,-0.07,0.17,1721201318910
-3.61,-0.44,8.44,0.06,0.21,0.13,1721201318920
-1.23,-2.19,15.52,-0.06,0.07,0.29,1721201318930
-1.60,-4.25,8.71,0.03,-0.23,0.36,1721201318940
0.34,-0.66,9.39,0.11,0.14,0.24,1721201318950
2.42,-4.19,10.58,-0.13,0.00,0.29,1721201318960
0.69,-1.81,14.53,0.09,0.06,0.19,1721201318970
0.87,-0.88,8.10,0.09,0.05,-0.04,1721201318980
-2.44,-0.35,9.91,-0.10,-0.04,0.00,1721201318990
-3.25,-7.13,8.37,-0.10,-0.01,0.22,1721201319000
-0.70,-0.87,14.43,0.14,0.38,0.28,1721201319010
2.04,-0.19,8.44,0.04,-0.05,0.26,1721201319020
-1.88,-3.50,11.36,-0.18,0.11,0.12,1721201319030
-4.45,-2.90,12.44,0.18,-0.09,0.10,1721201319040
-5.16,-0.30,6.20,0.01,0.14,0.29,1721201319050
-3.39,-0.31,13.61,-0.10,0.23,0.60,1721201319060
-0.39,-6.56,10.92,-0.09,-0.20,0.72,1721201319070
-1.21,0.57,9.47,0.11,-0.07,0.47,1721201319080
2.47,0.24,3.07,-0.10,0.09,0.41,1721201319090
1.56,-4.24,16.30,-0.20,0.22,0.45,1721201319100
2.03,-2.86,14.27,0.15,0.01,0.41,1721201319110
0.43,-2.13,7.24,-0.10,-0.10,0.38,1721201319120
-2.60,-3.20,7.61,-0.09,-0.05,0.28,1721201319130
-1.73,-1.18,13.35,-0.11,0.33,0.23,1721201319140
-3.23,-3.44,10.44,-0.13,-0.17,0.34,1721201319150
-5.66,-1.29,12.81,-0.13,0.09,0.52,1721201319160
-3.02,0.84,12.20,0.12,-0.00,0.50,1721201319170
-2.20,-3.80,6.51,-0.38,-0.09,0.62,1721201319180
-3.61,-3.39,9.29,-0.06,-0.33,0.81,1721201319190
2.68,-1.56,14.26,0.09,0.27,0.68,1721201319200
2.43,4.40,12.09,-0.05,-0.34,0.46,1721201319210
0.34,2.55,8.32,-0.14,-0.19,0.39,1721201319220
-0.51,0.65,6.83,-0.26,-0.16,0.55,1721201319230
-0.48,4.59,15.86,0.07,-0.04,0.44,1721201319240
3.04,2.56,6.61,0.03,-0.21,0.36,1721201319250
-0.04,6.77,5.60,-0.30,-0.30,0.44,1721201319260
2.86,1.99,14.23,-0.10,0.14,0.30,1721201319270
2.49,5.70,13.29,0.18,-0.20,-0.01,1721201319280
-1.96,7.96,2.60,-0.06,-0.17,-0.09,1721201319290
-5.45,1.64,6.52,-0.36,-0.09,0.19,1721201319300
-6.90,-1.67,13.09,-0.03,-0.12,0.37,1721201319310
-3.62,1.68,12.47,0.14,-0.07,0.38,1721201319320
-3.74,3.85,8.51,-0.11,-0.29,0.46,1721201319330
-3.25,-0.86,15.43,-0.14,-0.12,0.53,1721201319340
-1.38,-4.46,13.77,-0.06,-0.24,0.73,1721201319350
1.00,1.10,14.06,0.06,-0.19,0.78,1721201319360
6.34,0.01,5.68,0.07,-0.16,0.67,1721201319370
7.58,-3.32,4.83,-0.16,-0.06,0.41,1721201319380
7.19,-4.38,12.49,0.00,-0.09,0.03,1721201319390
3.56,-3.83,13.66,0.06,-0.09,-0.11,1721201319400
-0.78,4.27,14.72,0.24,-0.12,-0.05,1721201319410
-2.25,5.67,3.21,-0.16,-0.08,0.21,1721201319420
-2.66,-0.91,8.10,-0.49,-0.01,0.24,1721201319430
-0.69,-7.21,19.12,-0.09,-0.02,0.18,1721201319440
-6.41,-5.64,2.55,-0.04,-0.53,0.25,1721201319450
-9.58,0.44,6.45,0.05,-0.09,0.48,1721201319460
-0.09,-4.75,14.06,-0.06,-0.03,0.80,1721201319470
3.53,0.72,14.31,0.09,-0.23,0.82,1721201319480
7.50,3.28,7.00,0.16,-0.05,0.49,1721201319490
9.06,-1.27,6.54,-0.23,0.08,-0.01,1721201319500
3.62,-0.76,15.51,-0.07,-0.12,-0.58,1721201319510
-3.25,-1.00,13.74,0.00,-0.22,-0.52,1721201319520
-9.56,2.97,6.05,-0.04,-0.28,0.02,1721201319530
-4.80,-2.24,8.95,-0.19,0.13,0.50,1721201319540
0.59,-0.41,17.88,0.08,-0.05,0.42,1721201319550
1.46,1.92,0.60,0.14,-0.25,0.05,1721201319560
-3.53,3.56,8.20,-0.39,0.00,-0.33,1721201319570
-4.63,-9.88,16.13,0.07,-0.33,-0.10,1721201319580
-2.45,-3.00,5.95,0.26,-0.02,0.73,1721201319590
6.74,5.49,11.11,-0.12,0.14,0.91,1721201319600
13.14,5.60,20.10,-0.05,0.19,0.01,1721201319610
8.40,2.59,11.36,0.10,-0.33,-1.01,1721201319620
-4.49,2.87,0.50,-0.18,-0.28,-1.26,1721201319630
-11.66,-0.85,7.17,-0.20,-0.06,-0.67,1721201319640
-10.95,-3.45,13.93,-0.09,-0.02,0.17,1721201319650
-5.55,-0.31,13.34,0.08,-0.13,0.52,1721201319660
0.47,4.39,9.10,0.03,-0.07,0.28,1721201319670
2.86,1.20,10.96,-0.26,-0.16,-0.22,1721201319680
-1.87,-3.80,7.56,-0.19,-0.43,-0.46,1721201319690
-2.43,-2.06,18.29,0.09,0.14,-0.28,1721201319700
1.04,1.18,0.92,0.04,-0.40,0.07,1721201319710
3.18,-0.37,6.84,-0.41,0.26,-0.00,1721201319720
7.26,-0.93,21.51,0.01,-0.01,-0.46,1721201319730
2.88,-0.70,3.26,0.02,-0.30,-0.73,1721201319740
-1.52,2.54,12.18,-0.07,0.24,-0.74,1721201319750
-3.87,0.02,6.49,-0.06,-0.23,-0.53,1721201319760
-7.13,-2.64,7.58,-0.30,-0.02,-0.26,1721201319770
-5.73,-1.66,18.66,0.14,-0.12,-0.04,1721201319780
-3.66,2.09,-4.85,0.16,-0.33,0.22,1721201319790
-2.42,3.63,2.99,-0.35,0.12,0.20,1721201319800
-1.22,-11.03,30.88,-0.56,-0.04,-0.06,1721201319810
-6.28,2.85,21.33,0.75,-0.84,-0.25,1721201319820
-3.02,-10.77,-4.96,-0.49,0.05,-0.06,1721201319830
-13.59,4.99,38.55,0.23,-0.25,0.29,1721201319840
5.28,-1.39,3.96,0.50,-0.43,0.43,1721201319850
7.51,0.42,-2.86,-0.63,0.12,0.20,1721201319860
7.30,4.66,14.90,-0.20,-0.18,-0.95,1721201319870
-0.22,-3.36,5.36,0.12,-0.54,-1.11,1721201319880
-9.21,2.06,10.26,-0.18,0.29,-0.19,1721201319890
-3.24,5.12,16.31,-0.10,-0.17,0.35,1721201319900
-3.30,3.21,-0.91,-0.03,-0.55,0.25,1721201319910
0.69,2.21,7.98,-0.25,0.17,0.03,1721201319920
-1.28,3.99,13.93,-0.13,-0.37,-0.02,1721201319930
-4.70,6.05,12.98,-0.18,-0.30,0.30,1721201319940
1.29,6.38,17.41,-0.00,-0.14,0.65,1721201319950
7.20,3.78,5.34,0.05,-0.33,0.62,1721201319960
9.72,-1.97,3.85,-0.41,-0.08,0.10,1721201319970
6.92,2.60,12.47,-0.23,-0.29,-0.63,1721201319980
-1.51,-0.88,8.85,-0.12,-0.32,-0.89,1721201319990
-10.71,1.58,10.33,-0.15,-0.33,-0.38,1721201320000
-10.62,-2.97,9.70,-0.11,-0.22,0.39,1721201320010
-3.32,-1.06,9.36,-0.12,-0.06,0.83,1721201320020
2.68,-1.84,9.16,-0.12,-0.12,0.63,1721201320030
5.11,-1.55,9.30,-0.19,-0.14,0.15,1721201320040
3.83,-1.25,10.71,-0.17,-0.31,-0.20,1721201320050
1.87,-2.11,10.03,-0.11,-0.16,-0.31,1721201320060
-0.30,-2.77,11.07,-0.19,-0.22,-0.21,1721201320070
-0.97,1.06,12.66,-0.14,-0.16,-0.19,1721201320080
0.98,1.22,13.71,-0.01,-0.18,-0.19,1721201320090
2.23,0.19,8.69,0.02,-0.16,-0.16,1721201320100
-0.51,-0.31,9.20,0.06,-0.23,-0.30,1721201320110
0.98,1.52,12.87,0.18,0.01,-0.25,1721201320120
-0.91,-0.48,7.74,0.12,-0.26,-0.25,1721201320130
0.63,2.80,18.14,0.09,0.11,-0.16,1721201320140
3.00,2.10,9.45,0.42,-0.26,-0.13,1721201320150
4.37,0.74,8.99,0.17,0.15,-0.39,1721201320165
2.45,0.47,11.88,0.18,0.03,-0.55,1721201320169
1.19,3.84,23.32,0.17,0.06,-0.72,1721201320179
-2.26,8.56,9.01,0.77,-0.35,-0.40,1721201320189
-0.39,-5.41,-5.70,0.19,0.17,-0.22,1721201320199
14.18,1.14,16.31,-0.01,0.43,-0.19,1721201320209
1.21,2.60,13.86,0.41,-0.04,-0.46,1721201320219
-1.28,0.96,3.63,0.38,-0.14,-0.27,1721201320229
1.92,0.54,1.96,0.19,0.08,0.11,1721201320239
5.52,-5.62,10.75,-0.32,0.14,0.02,1721201320249
5.40,7.54,27.29,0.32,0.14,-0.59,1721201320259
4.53,-2.75,0.13,0.46,-0.35,-0.72,1721201320269
-3.75,-1.41,10.25,-0.24,0.28,-0.73,1721201320279
-7.35,8.82,15.39,0.29,-0.05,-0.56,1721201320289
-1.52,-2.92,-0.92,0.04,0.26,-0.32,1721201320299
-2.92,-1.94,11.68,-0.16,0.05,-0.23,1721201320309
0.29,-0.87,8.42,0.16,-0.07,-0.22,1721201320319
2.65,-2.57,8.78,-0.20,0.29,-0.42,1721201320329
1.68,3.51,12.36,0.05,-0.05,-0.65,1721201320339
0.39,-5.33,4.16,-0.32,0.07,-0.72,1721201320349
-2.98,-1.10,15.75,-0.17,0.13,-0.62,1721201320359
0.97,-1.61,9.99,-0.13,0.28,-0.53,1721201320369
-0.85,-1.84,10.23,-0.31,-0.10,-0.50,1721201320379
-0.69,2.57,10.47,-0.11,0.18,-0.62,1721201320389
-0.62,-5.07,6.28,-0.32,0.03,-0.60,1721201320399
-2.59,-3.02,12.08,-0.40,0.26,-0.56,1721201320409
0.50,-1.13,13.75,-0.20,0.21,-0.47,1721201320419
-0.40,0.30,8.34,-0.25,0.11,-0.50,1721201320429
0.20,-0.20,10.37,-0.30,0.30,-0.56,1721201320439
-0.65,-1.16,12.21,-0.28,0.10,-0.56,1721201320449
-1.16,2.23,12.76,-0.16,0.20,-0.54,1721201320459
0.06,1.07,11.79,-0.12,0.19,-0.55,1721201320469
-0.47,0.35,9.88,-0.10,0.19,-0.53,1721201320479
0.02,1.10,11.85,-0.02,0.30,-0.54,1721201320489
0.40,3.53,10.89,0.13,0.21,-0.63,1721201320499
0.08,-0.73,10.59,0.01,0.25,-0.58,1721201320509
-1.36,1.80,13.50,0.14,0.24,-0.64,1721201320519
-1.19,2.01,9.72,0.28,0.05,-0.60,1721201320529
-1.73,-1.61,6.07,0.19,0.19,-0.53,1721201320539
-0.74,-3.38,11.44,0.02,0.36,-0.47,1721201320549
-1.77,0.43,13.28,0.20,0.20,-0.51,1721201320559
-1.48,-1.86,8.77,0.20,0.16,-0.39,1721201320569
-1.49,-1.88,8.79,0.19,0.22,-0.35,1721201320579
0.33,-1.61,10.23,0.11,0.26,-0.37,1721201320589
-0.57,-1.63,13.50,0.10,0.16,-0.40,1721201320599
-2.51,0.05,6.21,0.20,-0.01,-0.45,1721201320609
-2.19,-3.09,7.65,0.01,0.29,-0.37,1721201320619
-1.30,-3.76,13.17,0.03,0.17,-0.25,1721201320629
-2.08,0.42,9.71,0.20,0.12,-0.22,1721201320639
0.16,-0.24,8.43,0.06,0.23,-0.17,1721201320649
-0.94,-1.99,9.95,0.02,0.08,-0.18,1721201320659
-1.66,1.11,12.74,0.06,0.24,-0.26,1721201320669
-0.96,0.16,9.65,0.11,0.05,-0.21,1721201320679
-1.89,0.44,9.18,0.05,0.14,-0.19,1721201320689
-0.55,0.61,12.47,0.06,0.20,-0.20,1721201320699
-2.15,0.65,10.27,0.18,-0.05,-0.18,1721201320709
-1.65,1.05,8.04,0.05,0.12,-0.21,1721201320719
-1.64,2.84,13.35,0.19,0.00,-0.20,1721201320729
-2.25,-1.55,5.07,0.16,-0.02,-0.14,1721201320739
-2.00,0.11,12.85,-0.01,0.20,-0.15,1721201320749
-1.55,3.64,12.75,0.33,-0.09,-0.12,1721201320759
-0.66,0.26,3.82,0.11,0.06,-0.15,1721201320769
-0.53,-0.37,17.04,-0.17,0.09,-0.20,1721201320779
-2.55,5.30,9.56,0.51,-0.24,-0.13,1721201320789
-1.19,-6.44,0.80,-0.20,0.17,-0.14,1721201320799
-2.38,2.65,21.24,-0.04,-0.08,-0.12,1721201320809
-0.41,-0.43,7.89,0.32,-0.28,0.06,1721201320819
-1.31,2.24,2.97,0.01,0.09,0.24,1721201320829
1.63,-0.99,14.89,-0.26,0.04,0.10,1721201320839
-1.18,3.95,14.59,0.09,-0.40,0.05,1721201320849
-1.13,-3.24,2.10,-0.13,-0.08,0.06,1721201320859
-1.80,-0.22,13.23,-0.23,0.03,0.10,1721201320869
-0.73,-1.22,9.71,-0.05,-0.23,0.24,1721201320879
0.62,-3.20,6.82,-0.26,0.01,0.22,1721201320889
1.80,0.81,12.78,-0.16,-0.02,0.08,1721201320899
1.25,-2.24,7.71,-0.24,-0.14,-0.08,1721201320909
-1.97,-4.55,12.61,-0.35,-0.13,-0.10,1721201320919
-2.26,0.44,12.90,-0.11,-0.06,-0.03,1721201320929
-1.81,-2.35,5.17,-0.21,-0.28,0.20,1721201320939
-0.67,-6.22,8.07,-0.40,-0.03,0.25,1721201320949
0.52,1.56,15.03,-0.23,-0.06,0.10,1721201320959
-1.08,3.24,8.41,-0.09,-0.27,-0.06,1721201320969
0.75,1.50,5.54,-0.38,0.04,-0.15,1721201320979
0.95,-1.03,14.38,-0.40,-0.23,-0.06,1721201320989
0.73,2.03,14.11,-0.04,-0.10,0.03,1721201320999
0.98,-1.06,6.40,-0.06,-0.11,0.14,1721201321009
-0.57,3.21,11.10,-0.19,0.10,0.00,1721201321019
2.12,2.87,14.55,-0.08,-0.07,-0.16,1721201321029
-1.43,-0.43,9.14,0.07,-0.37,-0.25,1721201321039
1.94,-0.91,7.29,0.08,0.14,-0.28,1721201321049
1.33,-2.58,13.22,-0.06,-0.13,-0.24,1721201321059
0.23,1.68,12.75,0.23,-0.02,-0.24,1721201321069
-0.05,-3.92,8.63,0.12,-0.12,-0.12,1721201321079
-0.02,-0.48,12.36,0.04,0.11,-0.13,1721201321089
1.53,1.37,13.50,0.19,-0.07,-0.17,1721201321099
-0.34,-0.81,6.93,0.20,-0.15,-0.23,1721201321109
1.48,-0.49,9.63,0.10,0.17,-0.27,1721201321119
-0.09,-0.74,12.57,0.18,-0.19,-0.21,1721201321129
-0.24,-0.81,8.05,0.27,0.06,-0.15,1721201321139
0.45,-2.54,10.50,0.06,0.10,-0.14,1721201321149
-1.90,1.50,12.50,0.22,-0.09,-0.16,1721201321159
1.63,-1.94,9.28,0.13,0.20,-0.18,1721201321169
0.96,1.39,12.85,0.15,-0.03,-0.24,1721201321179
2.10,0.83,8.78,0.24,0.12,-0.20,1721201321189
1.81,-3.01,10.72,0.06,0.10,-0.21,1721201321199
0.49,3.31,13.14,0.37,0.04,-0.24,1721201321209
2.53,0.03,6.61,0.25,0.20,-0.35,1721201321219
-0.79,-1.53,11.89,0.01,0.03,-0.39,1721201321229
-0.98,3.30,12.71,0.35,0.16,-0.31,1721201321239
1.02,-1.77,7.45,0.11,0.16,-0.23,1721201321249
-1.06,2.95,9.66,0.12,0.09,-0.24,1721201321259
1.74,1.36,9.51,0.15,0.31,-0.38,1721201321269
-0.21,0.06,8.46,-0.04,0.05,-0.44,1721201321279
-1.40,1.30,12.45,0.00,0.24,-0.42,1721201321289
-1.33,1.07,8.69,0.05,0.09,-0.38,1721201321299
-1.33,-1.01,8.50,-0.16,0.21,-0.37,1721201321309
-1.17,2.07,13.74,-0.03,0.15,-0.37,1721201321319
-1.63,0.27,6.06,-0.03,0.06,-0.30,1721201321329
-0.35,-2.87,11.96,-0.31,0.33,-0.36,1721201321339
-0.48,0.53,12.65,-0.00,-0.08,-0.32,1721201321349
1.79,-1.38,3.38,-0.14,0.25,-0.30,1721201321359
1.15,-0.56,13.13,-0.34,0.18,-0.38,1721201321369
-1.61,-2.30,7.66,-0.05,0.03,-0.54,1721201321379
0.06,-3.20,9.79,-0.31,0.41,-0.50,1721201321389
0.18,-0.81,12.81,-0.20,-0.03,-0.38,1721201321399
-2.46,-1.81,7.42,-0.20,0.22,-0.34,1721201321409
-3.04,-0.47,12.20,-0.22,0.19,-0.34,1721201321419
-0.66,-2.30,10.28,-0.24,0.07,-0.20,1721201321429
1.44,-0.08,10.77,-0.24,0.29,-0.10,1721201321439
1.73,0.76,10.41,-0.12,0.22,-0.18,1721201321449
-0.32,-3.59,10.02,-0.30,0.20,-0.38,1721201321459
-1.08,0.09,11.88,-0.21,0.12,-0.36,1721201321469
-2.15,-0.93,8.95,-0.05,0.08,-0.23,1721201321479
-4.21,-0.89,10.34,-0.15,0.23,-0.21,1721201321489
-1.90,2.77,12.87,0.03,0.07,-0.12,1721201321499
-0.16,-4.34,8.61,-0.00,0.21,-0.03,1721201321509
-0.39,0.79,15.62,-0.08,0.30,-0.19,1721201321519
-2.31,1.17,10.14,0.17,-0.03,-0.26,1721201321529
-1.41,-2.29,8.88,-0.03,0.21,-0.07,1721201321539
-0.43,1.35,15.30,0.12,0.17,-0.01,1721201321549
-0.71,2.41,7.71,0.32,-0.06,0.04,1721201321559
-0.11,-2.06,8.62,0.06,0.20,-0.12,1721201321569
0.80,2.87,12.31,0.27,-0.01,-0.13,1721201321579
-0.37,-0.76,8.50,0.20,0.14,-0.19,1721201321589
-2.95,1.77,10.29,0.17,0.10,-0.14,1721201321599
-2.23,-0.32,11.21,0.24,0.07,0.00,1721201321609
-1.09,1.93,8.71,0.26,0.07,0.07,1721201321619
0.16,1.02,11.04,0.20,0.06,-0.03,1721201321629
-1.56,0.10,9.52,0.23,-0.07,-0.15,1721201321639
-3.17,-0.34,9.72,0.22,0.01,-0.11,1721201321649
-1.14,-0.47,9.45,0.24,0.01,0.06,1721201321659
-0.17,1.38,11.44,0.23,-0.00,0.13,1721201321669
0.77,2.20,11.63,0.21,0.13,-0.00,1721201321679
-0.20,2.15,8.10,0.14,-0.09,-0.14,1721201321689
-1.20,-1.75,11.33,-0.00,0.02,-0.11,1721201321699
-2.81,1.68,13.00,0.21,-0.10,-0.01,1721201321709
-2.59,2.17,5.49,0.19,-0.13,0.15,1721201321719
-1.35,-0.02,8.16,-0.03,-0.05,0.17,1721201321729
0.50,0.55,13.65,0.07,-0.08,0.17,1721201321739
0.20,2.87,8.07,0.04,-0.17,0.08,1721201321749
-0.60,-0.09,9.37,-0.13,-0.06,0.01,1721201321759
-1.79,0.01,10.88,-0.05,-0.11,-0.03,1721201321769
-2.59,-5.03,7.85,-0.25,-0.19,0.05,1721201321779
-3.62,0.88,11.47,-0.03,-0.10,0.14,1721201321789
0.97,-4.07,6.60,-0.20,-0.03,0.34,1721201321799
-0.14,-1.90,12.76,-0.31,-0.13,0.23,1721201321809
-0.48,-1.89,10.15,-0.09,-0.21,0.07,1721201321819
-1.38,-2.94,8.99,-0.37,-0.06,-0.01,1721201321829
-0.73,-3.00,11.48,-0.22,-0.28,0.35,1721201321839
0.71,0.72,8.33,-0.20,-0.01,0.31,1721201321849
1.67,-2.91,10.64,-0.27,-0.26,0.15,1721201321859
3.17,-2.34,10.98,-0.22,-0.05,0.12,1721201321869
1.60,2.72,9.75,-0.18,-0.18,-0.16,1721201321879
-0.09,-1.04,10.58,-0.17,-0.20,-0.18,1721201321889
0.11,-1.09,11.14,-0.15,-0.12,-0.04,1721201321899
-0.11,0.29,10.53,-0.09,-0.05,0.01,1721201321909
-0.83,-2.93,8.57,-0.02,-0.26,0.07,1721201321919
2.27,0.03,11.00,-0.00,0.16,0.05,1721201321929
2.08,3.75,11.38,0.03,-0.14,-0.12,1721201321939
1.62,-0.80,8.43,-0.01,-0.15,-0.20,1721201321949
0.86,-0.71,11.56,0.08,-0.08,-0.20,1721201321959
1.94,-0.50,9.90,0.06,0.09,-0.09,1721201321969
-0.48,0.43,12.12,0.04,-0.09,-0.11,1721201321979
0.00,1.11,11.19,0.19,-0.00,-0.05,1721201321989
1.55,2.12,11.35,0.14,0.08,-0.13,1721201321999
1.81,0.93,11.22,0.16,-0.03,-0.17,1721201322009
1.34,2.43,11.08,0.17,0.07,-0.27,1721201322019
1.77,1.82,9.25,0.27,0.05,-0.26,1721201322029
0.85,-2.28,7.52,0.12,0.12,-0.37,1721201322039
-0.23,1.86,12.21,0.26,0.08,-0.38,1721201322049
0.48,-0.23,9.41,0.25,0.07,-0.37,1721201322059
-0.04,0.65,12.21,0.21,0.15,-0.35,1721201322069
-0.55,2.43,11.09,0.32,0.09,-0.32,1721201322079
-0.62,0.06,7.67,0.20,0.09,-0.34,1721201322089
-0.97,0.99,10.12,0.13,0.22,-0.39,1721201322099
0.03,2.95,10.33,0.17,0.17,-0.42,1721201322109
0.09,-1.21,8.91,0.04,0.11,-0.37,1721201322119
-1.02,1.45,9.56,0.04,0.18,-0.44,1721201322129
-0.13,-1.02,9.44,-0.02,0.21,-0.52,1721201322139
-0.73,1.77,12.31,-0.03,0.16,-0.52,1721201322149
-1.05,2.11,9.93,0.01,0.13,-0.42,1721201322159
0.11,0.22,9.14,-0.11,0.12,-0.32,1721201322174
0.88,-0.58,10.22,-0.09,0.30,-0.34,1721201322178
1.67,-1.49,10.80,-0.14,0.09,-0.31,1721201322188
-0.24,-1.51,8.21,-0.05,0.14,-0.55,1721201322198
1.67,-1.80,11.26,-0.11,0.39,-0.59,1721201322208
-2.44,-0.94,7.73,-0.04,-0.03,-0.57,1721201322218
-2.83,-4.86,8.14,-0.19,0.26,-0.40,1721201322228
-0.54,-0.80,14.83,-0.02,0.30,-0.34,1721201322238
-1.64,0.62,10.26,0.00,0.17,-0.41,1721201322248
-1.41,-2.32,11.13,-0.21,0.22,-0.45,1721201322258
-3.16,0.91,12.09,0.03,0.12,-0.38,1721201322268
-2.13,-4.41,5.23,-0.09,0.16,-0.25,1721201322278
-0.23,-1.11,13.52,-0.12,0.28,-0.18,1721201322288
-1.00,-0.96,6.72,0.21,-0.08,-0.25,1721201322298
0.79,-5.73,5.67,-0.18,0.42,-0.21,1721201322308
-1.52,4.47,16.91,0.07,0.18,-0.29,1721201322318
-2.32,-2.17,10.44,0.06,-0.02,-0.21,1721201322328
-3.21,0.18,11.86,-0.13,0.34,-0.21,1721201322338
-2.33,-4.34,13.05,-0.04,-0.09,-0.12,1721201322348
-1.36,0.50,9.48,0.02,0.24,-0.06,1721201322358
-1.44,-0.96,9.25,0.09,-0.04,-0.25,1721201322368
-0.35,2.48,9.92,0.10,0.32,-0.21,1721201322378
-2.24,1.44,9.96,0.11,-0.01,-0.08,1721201322388
-3.35,1.77,10.92,0.16,0.06,-0.05,1721201322398
-1.64,2.48,9.94,0.25,0.06,-0.07,1721201322408
0.65,2.64,11.29,0.08,0.17,-0.14,1721201322418
-1.89,1.92,9.33,0.28,-0.11,-0.16,1721201322428
-2.43,0.58,8.88,0.17,0.15,-0.10,1721201322438
0.03,2.05,14.39,0.25,0.09,0.09,1721201322448
0.28,2.76,10.19,0.30,0.05,-0.00,1721201322458
-0.17,3.54,9.49,0.26,0.04,-0.22,1721201322468
-1.60,0.63,8.38,0.14,-0.11,-0.23,1721201322478
-3.02,1.82,10.31,0.19,0.08,-0.13,1721201322488
-2.56,0.11,7.92,0.17,-0.06,0.05,1721201322498
-2.75,0.72,11.57,0.01,0.07,0.09,1721201322508
-2.11,4.15,9.30,0.25,-0.20,0.22,1721201322518
-1.32,-1.09,3.12,-0.15,0.04,0.16,1721201322528
-0.43,1.08,10.25,-0.12,-0.06,0.08,1721201322538
0.25,-3.96,11.42,-0.29,-0.01,0.07,1721201322548
-2.44,-0.39,11.85,-0.05,-0.27,0.23,1721201322558
0.41,-4.01,7.05,-0.26,0.05,0.36,1721201322568
-1.05,2.42,12.79,-0.22,-0.13,0.15,1721201322578
2.16,-2.87,6.78,-0.19,-0.15,0.08,1721201322588
-2.06,-5.97,6.98,-0.34,-0.19,0.14,1721201322598
-2.26,-1.88,10.68,-0.28,-0.06,0.15,1721201322608
0.86,-5.66,13.11,-0.26,-0.16,0.26,1721201322618
1.52,-4.75,12.48,-0.33,-0.09,0.36,1721201322628
0.45,-3.40,13.30,-0.28,-0.12,0.23,1721201322638
1.18,-0.02,12.88,-0.18,-0.09,0.15,1721201322648
0.78,-3.00,10.32,-0.18,-0.20,0.10,1721201322658
1.48,-2.77,10.57,-0.15,-0.02,0.07,1721201322668
0.97,-1.54,10.96,-0.11,-0.23,0.11,1721201322678
0.71,2.08,11.13,0.02,-0.01,0.08,1721201322688
2.04,0.21,9.39,-0.05,-0.13,0.07,1721201322698
0.53,0.38,12.02,-0.08,0.01,-0.08,1721201322708
2.56,-2.57,10.76,-0.07,-0.13,-0.00,1721201322718
-1.07,-3.95,8.48,0.00,-0.09,0.03,1721201322728
1.00,0.05,11.77,0.08,0.12,0.05,1721201322738
1.25,6.66,10.89,0.24,-0.04,0.01,1721201322748
4.58,4.51,11.86,0.14,0.08,0.00,1721201322758
1.55,3.58,12.53,0.24,-0.12,-0.11,1721201322768
3.66,-1.45,9.44,0.18,0.24,-0.29,1721201322778
0.07,0.57,12.33,0.22,-0.01,-0.45,1721201322788
-0.93,3.17,9.47,0.43,0.07,-0.34,1721201322798
-1.30,4.28,10.36,0.41,0.13,-0.23,1721201322808
0.40,2.17,9.65,0.33,0.12,-0.13,1721201322818
1.58,0.82,9.34,0.19,0.21,-0.20,1721201322828
3.21,-1.46,10.46,0.13,0.28,-0.39,1721201322838
0.91,1.05,10.47,0.24,0.12,-0.60,1721201322848
-0.73,1.79,6.66,0.25,0.27,-0.65,1721201322858
-2.52,2.18,9.59,0.09,0.20,-0.52,1721201322868
-3.14,1.19,9.38,0.06,0.17,-0.32,1721201322878
0.20,-4.55,11.36,-0.12,0.32,-0.25,1721201322888
0.28,1.36,12.01,0.12,0.11,-0.30,1721201322898
1.09,1.15,6.83,-0.02,0.33,-0.53,1721201322908
-2.11,1.63,10.65,-0.07,0.07,-0.56,1721201322918
-2.15,-2.53,7.92,-0.03,0.28,-0.41,1721201322928
-1.11,-2.85,13.62,-0.13,0.30,-0.23,1721201322938
0.21,-1.77,7.52,-0.01,0.19,-0.28,1721201322948
-0.87,-3.34,9.17,-0.12,0.25,-0.34,1721201322958
-3.07,-1.73,9.70,-0.06,0.10,-0.48,1721201322968
-4.55,-5.07,11.12,-0.17,0.22,-0.49,1721201322978
-4.75,-0.60,15.73,-0.03,0.14,-0.18,1721201322988
-2.35,-3.28,7.15,-0.03,0.05,0.10,1721201322998
-1.76,-1.91,9.65,-0.11,0.30,0.04,1721201323008
0.87,-2.03,7.06,-0.02,0.08,-0.20,1721201323018
-1.97,-3.31,12.43,-0.20,0.21,-0.32,1721201323028
-3.93,-1.33,15.01,-0.07,0.09,-0.04,1721201323038
-2.82,-1.96,9.20,-0.07,0.08,0.36,1721201323048
-0.33,-3.92,9.83,0.02,0.12,0.40,1721201323058
2.32,-0.12,9.79,0.12,0.02,0.11,1721201323068
2.78,2.37,9.77,0.03,0.06,-0.03,1721201323078
-0.19,3.41,12.78,-0.05,0.11,-0.13,1721201323088
-5.55,0.11,12.53,0.01,-0.17,-0.10,1721201323098
-5.51,2.06,8.37,0.13,0.01,0.27,1721201323108
1.14,-2.21,8.48,0.04,0.23,0.56,1721201323118
4.37,3.37,11.13,0.21,0.03,0.43,1721201323128
5.57,-0.19,7.52,0.17,0.12,0.00,1721201323138
3.07,8.15,11.66,0.18,0.12,-0.42,1721201323148
3.70,2.79,6.53,0.21,0.04,-0.39,1721201323158
-5.09,2.05,7.37,-0.12,0.15,-0.27,1721201323168
-5.38,4.15,16.97,0.21,-0.14,0.36,1721201323178
0.93,-4.29,-1.80,0.28,0.12,0.52,1721201323188
8.87,2.40,6.70,-0.07,0.37,-0.06,1721201323198
4.66,2.09,13.00,-0.04,-0.00,-0.72,1721201323208
-6.33,0.31,8.82,-0.03,-0.07,-0.88,1721201323218
-12.28,-0.92,11.05,-0.07,0.02,-0.15,1721201323228
-9.67,0.22,8.12,0.06,0.02,0.73,1721201323238
0.66,-0.83,9.12,-0.16,0.26,0.96,1721201323248
5.74,1.34,12.56,-0.07,-0.04,0.57,1721201323258
7.67,-0.36,9.70,-0.09,0.06,0.06,1721201323268
3.79,-0.31,11.72,-0.13,-0.06,-0.38,1721201323278
-0.65,0.76,13.41,-0.14,0.03,-0.43,1721201323288
-3.33,1.77,12.97,-0.03,-0.05,-0.02,1721201323298
-2.76,0.11,9.39,-0.13,0.03,0.24,1721201323308
-0.57,-1.35,12.33,-0.17,0.04,0.22,1721201323318
0.95,-1.71,8.62,-0.04,-0.05,0.15,1721201323328
-0.12,-1.97,9.31,-0.22,0.08,0.05,1721201323338
-2.10,2.27,13.42,-0.08,-0.09,0.07,1721201323348
-2.10,-0.94,8.78,-0.07,-0.11,0.27,1721201323358
0.99,-2.47,12.25,-0.22,0.17,0.30,1721201323368
1.15,-0.05,11.49,-0.08,-0.12,0.26,1721201323378
1.81,-0.02,9.41,-0.07,0.10,0.12,1721201323388
0.14,1.03,9.29,0.02,-0.11,-0.05,1721201323398
-1.17,-0.74,6.81,-0.02,-0.00,-0.04,1721201323408
-1.92,-1.01,10.32,-0.06,0.00,0.15,1721201323418
-0.99,-0.69,9.71,0.03,-0.02,0.28,1721201323428
0.87,0.44,10.71,0.06,-0.06,0.20,1721201323438
2.45,0.97,9.36,0.12,-0.05,0.22,1721201323448
2.54,1.81,9.55,0.04,0.12,0.09,1721201323458
0.53,0.55,10.77,0.02,-0.09,-0.10,1721201323468
-1.05,-1.24,10.51,0.00,0.00,-0.09,1721201323478
-0.61,-2.21,10.81,0.04,-0.03,0.09,1721201323488
1.49,0.21,10.68,0.11,0.08,0.27,1721201323498
2.47,0.11,9.35,0.06,0.07,0.11,1721201323508
0.59,1.84,12.67,0.03,0.00,-0.22,1721201323518
-0.17,-2.47,12.07,0.07,-0.02,-0.21,1721201323528
-3.71,-2.87,10.32,0.10,-0.08,0.04,1721201323538
-2.15,5.33,12.55,0.20,0.15,0.18,1721201323548
0.36,8.07,10.94,0.29,-0.13,0.27,1721201323558
3.39,-6.64,4.64,-0.05,0.12,0.06,1721201323568
2.38,-6.75,16.77,-0.04,0.09,-0.34,1721201323578
-1.76,1.23,10.83,0.38,-0.23,-0.23,1721201323588
-2.19,5.86,7.79,0.36,0.16,0.08,1721201323598
0.63,4.28,9.64,0.31,-0.03,0.21,1721201323608
1.12,-2.95,8.29,0.08,0.05,0.03,1721201323618
-0.92,-2.48,15.12,0.10,0.01,-0.20,1721201323628
-3.23,0.40,8.63,0.31,-0.18,0.07,1721201323638
0.10,-0.18,4.43,0.23,0.19,0.33,1721201323648
4.25,2.58,11.15,0.19,0.16,0.20,1721201323658
4.19,0.73,10.69,0.16,-0.01,-0.22,1721201323668
-0.40,1.26,10.88,0.13,-0.00,-0.39,1721201323678
-3.90,1.43,8.26,0.24,-0.01,-0.16,1721201323688
-2.70,-0.89,5.00,0.13,0.08,0.22,1721201323698
0.08,-1.32,8.08,0.10,0.08,0.29,1721201323708
3.60,-1.34,11.69,0.03,0.22,-0.01,1721201323718
1.39,3.53,14.36,0.07,0.00,-0.27,1721201323728
-1.67,2.48,9.73,0.08,0.01,-0.12,1721201323738
-1.97,-3.43,5.74,-0.05,0.09,0.04,1721201323748
-0.59,-4.68,10.31,-0.18,0.16,0.13,1721201323758
0.90,1.30,12.57,-0.03,0.07,0.09,1721201323768
1.57,4.34,9.33,-0.00,0.07,-0.03,1721201323778
1.42,3.40,2.28,-0.07,0.04,-0.07,1721201323788
0.00,-9.28,6.77,-0.66,0.14,-0.18,1721201323798
-2.61,-1.30,25.96,-0.13,0.06,-0.31,1721201323808
-4.00,-1.34,13.44,0.12,-0.05,-0.06,1721201323818
-3.64,6.23,3.09,-0.11,-0.05,0.31,1721201323828
2.48,3.64,5.32,-0.23,0.31,0.22,1721201323838
6.13,-2.46,12.02,-0.34,0.11,-0.10,1721201323848
2.58,-0.59,11.67,-0.19,0.03,-0.47,1721201323858
-1.58,1.40,11.99,-0.28,0.13,-0.48,1721201323868
-4.05,-1.41,10.78,-0.25,-0.05,-0.16,1721201323878
-1.84,0.23,12.78,-0.18,0.28,0.11,1721201323888
1.61,-1.14,6.87,-0.07,-0.01,0.14,1721201323898
2.92,-0.50,9.66,-0.28,0.35,-0.25,1721201323908
0.52,1.86,12.97,-0.15,0.01,-0.52,1721201323918
-3.74,-0.03,7.21,-0.09,0.03,-0.39,1721201323928
-3.76,-3.85,9.67,-0.21,0.23,-0.09,1721201323938
-2.18,-3.68,12.66,-0.16,0.12,0.09,1721201323948
-0.09,5.14,15.65,-0.05,0.28,0.02,1721201323958
1.87,0.59,13.42,-0.14,0.03,-0.19,1721201323968
-1.07,3.64,8.60,-0.01,0.10,-0.27,1721201323978
-0.41,1.61,10.54,-0.05,0.17,-0.19,1721201323988
-2.26,-0.47,8.97,0.04,-0.08,-0.05,1721201323998
-0.86,0.62,7.97,0.05,0.27,0.01,1721201324008
1.23,-0.47,11.60,0.02,0.03,-0.03,1721201324018
-1.35,2.65,10.45,0.17,0.07,-0.11,1721201324028
0.69,-0.62,10.17,0.00,0.23,-0.11,1721201324038
-1.33,3.37,14.89,0.10,0.07,-0.15,1721201324048
-1.73,-1.27,5.37,0.22,0.02,-0.08,1721201324058
-2.06,-3.49,7.68,-0.02,0.20,-0.02,1721201324068
-0.41,1.70,13.72,0.20,0.16,-0.03,1721201324078
-1.23,-3.42,8.86,0.09,-0.03,-0.07,1721201324088
-3.11,2.15,11.47,0.12,0.12,-0.10,1721201324098
-1.58,1.60,11.24,0.09,0.12,-0.03,1721201324108
-1.67,0.01,11.92,0.08,0.01,0.14,1721201324118
0.51,1.31,10.35,0.10,0.16,0.13,1721201324128
-0.13,-1.18,5.96,0.15,-0.08,0.08,1721201324138
-0.52,-1.31,9.62,0.03,0.14,0.05,1721201324148
-0.85,2.42,11.76,0.11,0.04,-0.07,1721201324158
-1.43,-0.11,10.42,0.12,-0.04,-0.01,1721201324168
-1.41,-1.93,7.15,-0.04,-0.00,0.14,1721201324183
-0.48,-0.56,9.65,-0.02,0.15,0.13,1721201324187
-0.75,1.72,11.14,0.08,-0.14,0.19,1721201324197
-0.35,-2.13,6.91,-0.05,0.07,0.12,1721201324207
-0.04,0.38,14.03,0.04,0.11,0.03,1721201324217
-1.23,-2.00,9.50,-0.07,-0.13,0.05,1721201324227
-3.26,2.30,13.87,0.08,-0.07,0.13,1721201324237
-0.14,2.91,8.31,0.14,-0.02,0.19,1721201324247
-0.18,0.18,11.69,-0.05,-0.09,0.17,1721201324257
-1.87,-0.37,7.88,0.23,-0.24,0.18,1721201324267
-0.11,-4.82,7.45,-0.16,0.14,0.19,1721201324277
-0.17,6.63,18.97,0.18,-0.13,0.09,1721201324287
1.35,-0.54,2.41,0.23,-0.27,0.19,1721201324297
1.10,-1.48,9.82,-0.20,0.19,0.12,1721201324307
1.41,4.47,17.10,0.12,-0.20,-0.09,1721201324317
-0.06,0.13,4.36,0.04,-0.17,-0.06,1721201324327
-0.27,-1.30,12.92,-0.15,0.21,0.02,1721201324337
-0.96,1.85,12.55,0.15,-0.21,0.16,1721201324347
0.70,1.48,8.11,-0.01,0.07,0.16,1721201324357
0.40,0.80,9.98,-0.07,-0.09,-0.07,1721201324367
-1.56,0.54,10.73,-0.09,-0.08,-0.18,1721201324377
-2.51,0.88,12.02,-0.00,-0.06,0.00,1721201324387
-3.04,-2.79,5.46,-0.04,-0.10,0.18,1721201324397
-0.91,0.90,10.96,-0.11,0.08,0.22,1721201324407
2.00,-1.06,12.56,-0.04,-0.08,0.15,1721201324417
0.35,-0.77,10.35,-0.16,-0.02,-0.11,1721201324427
0.13,0.86,12.16,-0.08,0.00,-0.09,1721201324437
-1.64,-1.33,7.63,-0.09,-0.15,0.06,1721201324447
-0.43,0.13,11.15,-0.15,0.17,0.03,1721201324457
0.16,-1.20,9.40,-0.11,-0.14,-0.03,1721201324467
-0.39,-2.44,9.55,-0.23,0.05,-0.08,1721201324477
-1.49,-0.70,11.65,-0.21,-0.05,-0.20,1721201324487
-2.38,-3.31,7.55,-0.14,-0.11,-0.06,1721201324497
-1.33,-3.54,10.41,-0.31,0.11,0.09,1721201324507
-1.40,1.86,9.37,-0.04,-0.13,0.21,1721201324517
0.60,-0.43,9.21,-0.33,0.08,0.06,1721201324527
0.32,4.88,15.74,-0.20,-0.08,0.01,1721201324537
-0.17,-1.18,7.60,-0.10,-0.17,0.00,1721201324547
-1.52,0.86,7.96,-0.25,-0.00,0.03,1721201324557
-0.79,1.29,10.67,-0.07,-0.11,0.09,1721201324567
0.68,-0.32,10.70,-0.15,-0.06,0.14,1721201324577
0.34,2.74,12.67,-0.09,-0.07,0.09,1721201324587
1.32,0.60,13.23,-0.12,-0.06,0.02,1721201324597
-1.34,0.97,12.93,-0.13,-0.15,-0.11,1721201324607
-1.01,0.68,9.96,0.04,-0.15,-0.02,1721201324617
0.29,0.25,9.46,0.05,-0.02,0.17,1721201324627
1.21,1.32,11.47,0.11,-0.06,0.19,1721201324637
2.01,1.47,11.80,0.15,-0.07,0.07,1721201324647
1.75,2.67,10.24,0.19,-0.11,0.02,1721201324657
0.23,0.46,9.31,0.15,-0.16,0.01,1721201324667
0.13,-1.47,10.31,0.13,-0.05,0.01,1721201324677
0.80,-1.07,11.74,0.17,-0.05,0.08,1721201324687
0.70,-1.71,10.45,0.16,-0.08,0.09,1721201324697
-0.46,0.18,9.68,0.15,-0.06,-0.05,1721201324707
1.07,-0.19,11.98,0.16,0.02,-0.04,1721201324717
-0.40,0.33,9.83,0.20,-0.16,0.05,1721201324727
0.75,-0.03,9.78,0.16,0.07,-0.02,1721201324737
1.03,0.97,9.59,0.21,-0.09,0.03,1721201324747
1.46,-2.23,8.37,0.02,0.04,0.01,1721201324757
0.93,1.66,13.03,0.12,0.01,-0.20,1721201324767
0.86,-4.40,8.20,0.06,-0.08,-0.19,1721201324777
-0.78,0.75,13.01,0.07,0.15,-0.17,1721201324787
-1.62,-0.45,8.97,0.19,-0.14,-0.07,1721201324797
-0.97,2.49,10.61,0.15,0.23,0.03,1721201324807
0.47,-0.35,8.71,0.11,-0.10,0.07,1721201324817
0.62,-1.75,7.50,0.00,0.12,-0.12,1721201324827
0.45,0.00,13.04,0.04,0.05,-0.17,1721201324837
-0.04,-0.90,10.81,-0.04,0.04,-0.05,1721201324847
-1.06,0.28,11.28,0.05,-0.01,-0.05,1721201324857
1.10,1.29,8.07,-0.01,0.19,-0.09,1721201324867
0.54,2.32,9.67,-0.13,-0.01,-0.16,1721201324877
-0.22,-0.36,10.34,-0.13,0.07,-0.25,1721201324887
-1.03,0.62,10.76,-0.08,0.02,-0.21,1721201324897
-1.30,-0.17,8.55,-0.15,0.00,-0.08,1721201324907
-1.52,1.22,11.13,-0.08,-0.01,0.01,1721201324917
1.49,-0.74,8.87,-0.14,0.09,-0.03,1721201324927
0.48,3.03,11.43,-0.09,-0.01,-0.18,1721201324937
1.40,-2.12,9.89,-0.25,0.10,-0.20,1721201324947
-1.36,-1.53,10.81,-0.14,-0.12,-0.14,1721201324957
0.73,-0.56,10.58,-0.16,0.27,-0.18,1721201324967
0.04,-0.52,11.53,-0.16,-0.05,-0.19,1721201324977
-1.04,0.11,9.28,-0.12,0.07,-0.22,1721201324987
-0.06,-0.66,10.96,-0.15,0.16,-0.18,1721201324997
-0.84,1.30,9.98,-0.12,0.03,-0.16,1721201325007
-0.25,-2.14,9.48,-0.15,0.16,-0.18,1721201325017
-0.06,-2.29,10.59,-0.14,0.10,-0.19,1721201325027
-0.82,0.62,10.85,-0.08,0.08,-0.17,1721201325037
-0.26,4.19,12.33,-0.04,0.15,-0.19,1721201325047
-0.91,1.58,8.53,0.01,-0.00,-0.17,1721201325057
0.10,-1.26,10.32,-0.14,0.29,-0.24,1721201325067
-1.42,-0.28,11.79,-0.06,0.00,-0.25,1721201325077
-1.47,0.93,9.83,0.03,0.16,-0.17,1721201325087
0.15,1.26,9.84,0.13,0.09,-0.07,1721201325097
-0.26,0.73,10.31,0.06,0.16,-0.18,1721201325107
-0.01,1.06,13.11,0.11,0.18,-0.28,1721201325117
-1.34,2.83,9.08,0.23,0.08,-0.26,1721201325127
-1.99,-0.67,9.13,0.06,0.18,-0.23,1721201325137
-2.92,0.60,11.81,0.13,0.11,-0.15,1721201325147
-1.27,-1.06,11.02,0.16,0.07,-0.03,1721201325157
-0.86,2.14,12.00,0.26,0.09,-0.04,1721201325167
-0.46,-1.59,7.41,0.18,0.08,-0.10,1721201325177
-0.99,0.44,9.02,0.16,0.13,-0.16,1721201325187
-2.16,-2.89,7.06,0.26,-0.10,-0.13,1721201325197
-2.09,3.09,12.01,0.09,0.26,-0.14,1721201325207
-3.34,0.22,10.09,0.24,-0.23,0.00,1721201325217
-1.33,-3.03,9.72,-0.01,0.29,0.12,1721201325227
-1.36,0.32,10.86,0.16,-0.07,0.11,1721201325237
-0.67,-3.56,6.20,0.01,0.03,0.03,1721201325247
0.66,-0.96,14.46,0.05,0.16,0.02,1721201325257
0.29,1.14,9.03,0.21,-0.10,-0.04,1721201325267
-2.61,1.97,8.46,0.05,-0.01,-0.04,1721201325277
-2.12,-2.06,11.95,-0.02,0.04,0.08,1721201325287
-1.90,0.52,12.32,0.02,-0.08,0.20,1721201325297
0.19,0.78,9.59,0.08,-0.04,0.20,1721201325307
-0.73,-2.38,6.84,-0.03,-0.12,0.11,1721201325317
-0.30,0.64,12.59,0.03,0.07,-0.00,1721201325327
0.09,-1.51,9.06,0.10,-0.17,0.03,1721201325337
-0.50,3.71,11.17,0.10,0.06,0.09,1721201325347
0.87,0.17,9.47,0.08,-0.12,0.06,1721201325357
-0.03,0.72,11.94,0.02,-0.06,0.03,1721201325367
-0.04,0.86,9.67,0.19,-0.16,0.03,1721201325377
0.81,1.09,8.64,0.05,-0.00,0.02,1721201325387
0.39,1.76,9.63,0.11,-0.13,-0.07,1721201325397
-0.04,0.31,8.88,0.01,0.04,-0.11,1721201325407
-0.55,0.20,12.09,-0.04,-0.03,-0.12,1721201325417
-0.94,0.15,9.30,0.04,-0.12,0.04,1721201325427
0.58,0.89,9.43,-0.03,0.09,0.10,1721201325437
1.90,0.48,11.69,-0.01,-0.05,0.03,1721201325447
0.55,-1.07,8.74,-0.04,-0.12,-0.06,1721201325457
0.46,2.38,13.17,-0.04,0.15,-0.16,1721201325467
-1.70,0.62,11.75,-0.12,-0.17,-0.20,1721201325477
-5.73,0.58,7.78,-0.08,-0.20,-0.05,1721201325487
-1.39,-2.51,10.70,-0.19,0.15,0.18,1721201325497
-0.68,0.07,12.88,-0.05,-0.06,0.23,1721201325507
0.66,-0.76,6.56,-0.13,-0.01,0.05,1721201325517
0.68,-0.46,11.34,-0.19,0.01,-0.07,1721201325527
0.26,1.22,12.15,-0.09,-0.06,-0.11,1721201325537
-0.49,-0.07,11.47,-0.13,-0.04,-0.06,1721201325547
-2.02,-0.23,8.29,-0.07,-0.14,-0.02,1721201325557
-0.25,-1.93,9.00,-0.16,-0.00,0.04,1721201325567
-0.71,-1.27,10.90,-0.13,-0.09,-0.05,1721201325577
-1.05,0.93,10.73,-0.03,-0.08,-0.07,1721201325587
-0.31,-0.46,6.62,-0.00,-0.10,0.03,1721201325597
0.90,0.05,11.31,-0.21,0.12,-0.03,1721201325607
-0.59,0.92,12.99,-0.13,-0.16,-0.07,1721201325617
-0.85,-0.01,12.52,-0.13,0.02,-0.08,1721201325627
-1.34,-0.02,10.79,-0.06,-0.13,-0.01,1721201325637
-0.09,0.47,8.15,-0.01,-0.02,0.06,1721201325647
1.69,1.35,9.73,0.09,0.01,-0.00,1721201325657
1.81,0.76,9.94,0.05,-0.05,-0.11,1721201325667
0.23,2.43,10.31,0.07,-0.03,-0.22,1721201325677
0.02,0.46,11.39,0.00,0.02,-0.23,1721201325687
-2.03,-0.00,12.10,0.02,-0.15,-0.15,1721201325697
-0.87,0.13,11.33,0.08,0.02,-0.11,1721201325707
0.44,-1.04,8.69,0.10,-0.07,-0.03,1721201325717
0.46,-1.24,9.36,0.08,0.04,-0.14,1721201325727
0.43,1.77,11.95,0.17,-0.04,-0.18,1721201325737
0.12,3.17,9.54,0.16,0.03,-0.13,1721201325747
0.28,-1.30,9.92,0.06,-0.04,-0.14,1721201325757
-0.51,-5.77,9.09,0.05,-0.05,-0.18,1721201325767
-0.66,-1.84,11.77,0.10,0.08,-0.17,1721201325777
-0.48,4.79,11.66,0.23,-0.01,-0.03,1721201325787
0.95,0.94,8.80,0.15,-0.01,-0.01,1721201325797
1.52,2.78,11.74,0.15,0.16,-0.17,1721201325807
2.39,-0.78,11.44,-0.02,-0.00,-0.22,1721201325817
-2.19,3.94,11.57,0.02,0.02,-0.27,1721201325827
0.17,-6.93,7.75,-0.05,0.05,-0.13,1721201325837
-0.98,-4.77,7.60,-0.02,0.10,-0.08,1721201325847
1.21,-4.51,8.88,0.01,0.14,-0.07,1721201325857
-0.36,2.27,12.38,0.10,0.10,-0.21,1721201325867
-1.01,6.01,11.21,0.26,0.05,-0.25,1721201325877
-1.95,4.42,7.15,0.19,0.05,-0.10,1721201325887
0.22,-5.16,8.52,-0.19,0.17,0.05,1721201325897
-0.59,0.54,14.97,-0.05,0.05,-0.12,1721201325907
1.59,0.97,9.54,0.06,0.07,-0.16,1721201325917
0.71,0.70,6.99,-0.07,0.14,-0.21,1721201325927
0.18,-1.22,9.37,-0.16,0.16,-0.40,1721201325937
-2.03,0.57,14.22,-0.11,0.03,-0.32,1721201325947
-2.35,-1.74,8.35,-0.16,0.08,-0.15,1721201325957
-0.44,3.95,16.89,-0.03,0.26,-0.11,1721201325967
1.19,-2.45,7.77,0.06,-0.13,-0.03,1721201325977
-0.05,-1.16,7.12,-0.02,0.22,-0.10,1721201325987
3.47,3.83,13.63,0.08,0.35,-0.31,1721201325997
-0.65,1.16,7.31,-0.05,-0.17,-0.41,1721201326007
-2.45,2.92,11.09,-0.00,0.31,-0.37,1721201326017
1.86,-5.68,11.85,-0.15,0.14,-0.30,1721201326027
-2.70,-4.35,16.05,-0.30,0.14,-0.19,1721201326037
-0.53,5.22,19.51,0.00,0.14,-0.12,1721201326047
1.78,4.15,13.16,0.14,0.13,-0.09,1721201326057
-1.13,3.30,5.08,0.16,-0.02,-0.16,1721201326067
-0.89,4.76,7.07,0.15,0.25,-0.20,1721201326077
-0.56,-6.30,1.70,0.19,-0.11,-0.08,1721201326087
0.35,-0.97,7.83,0.05,0.38,-0.07,1721201326097
-0.96,2.40,8.74,0.35,0.11,-0.10,1721201326107
1.31,6.82,11.53,0.02,0.41,-0.25,1721201326117
-0.53,8.66,14.28,0.04,-0.12,-0.23,1721201326127
-0.16,-6.70,7.89,-0.33,0.24,-0.18,1721201326137
-1.15,-5.83,15.93,-0.24,0.23,-0.17,1721201326147
-2.31,0.93,7.32,0.25,-0.01,-0.18,1721201326157
-1.32,-4.85,1.79,-0.05,0.20,-0.13,1721201326167
-3.57,-0.93,14.19,0.09,0.19,-0.15,1721201326177
-3.95,-0.16,8.24,0.12,0.16,-0.17,1721201326192
-2.43,-0.46,8.60,0.04,0.05,-0.08,1721201326196
-2.80,4.32,11.01,0.21,0.18,-0.02,1721201326206
0.00,1.33,4.21,0.19,0.08,0.13,1721201326216
-1.31,-8.09,5.75,-0.15,0.05,0.06,1721201326226
1.22,0.26,19.35,0.09,0.34,-0.15,1721201326236
-0.13,-1.96,15.05,0.09,-0.04,-0.18,1721201326246
-5.54,2.13,6.99,0.18,-0.17,-0.03,1721201326256
-1.35,-0.75,8.66,0.01,0.42,0.02,1721201326266
0.67,1.22,13.02,0.08,-0.03,0.08,1721201326276
0.37,-1.26,7.41,0.14,-0.01,0.03,1721201326286
-0.87,2.81,10.31,0.02,0.10,-0.13,1721201326296
-1.64,-0.11,10.84,0.10,-0.04,-0.11,1721201326306
-3.78,-1.08,6.69,0.03,-0.00,-0.01,1721201326316
-1.21,0.20,9.20,0.11,0.13,0.12,1721201326326
0.40,-2.90,13.54,-0.29,0.12,0.02,1721201326336
-0.23,0.13,29.19,-0.10,-0.06,-0.18,1721201326346
-3.31,5.21,14.39,0.41,-0.27,-0.12,1721201326356
-2.70,-0.15,2.35,0.12,0.02,0.11,1721201326366
-2.59,-0.61,9.23,0.18,-0.05,0.22,1721201326376
0.62,4.83,11.00,0.47,-0.05,0.24,1721201326386
1.84,4.22,2.24,0.43,-0.18,0.25,1721201326396
2.58,2.65,8.37,0.11,0.11,-0.03,1721201326406
0.83,-1.75,9.93,0.06,-0.29,-0.21,1721201326416
-2.31,-1.20,5.20,0.03,-0.00,-0.23,1721201326426
-2.19,4.75,9.77,0.08,-0.04,-0.05,1721201326436
0.84,-1.12,9.76,-0.08,-0.00,0.28,1721201326446
1.68,-1.85,9.14,-0.03,-0.01,0.23,1721201326456
3.23,-1.82,6.64,-0.20,0.07,-0.11,1721201326466
0.49,1.48,14.25,-0.29,-0.06,-0.27,1721201326476
-2.74,-3.91,12.71,-0.15,-0.16,-0.11,1721201326486
-3.75,-2.66,8.19,0.01,-0.08,0.09,1721201326496
-1.32,-0.97,6.58,-0.24,0.04,0.21,1721201326506
-1.09,-0.97,10.32,-0.33,-0.12,0.22,1721201326516
0.89,0.75,16.78,-0.29,0.20,-0.07,1721201326526
0.27,0.05,19.26,-0.20,-0.32,-0.11,1721201326536
-6.23,-8.73,-0.28,-0.30,-0.40,0.19,1721201326546
-0.92,3.81,14.18,-0.35,0.57,0.27,1721201326556
4.97,-0.36,14.43,-0.44,-0.53,0.29,1721201326566
0.36,2.82,7.29,-0.36,0.04,0.12,1721201326576
4.44,0.01,8.40,-0.33,0.09,-0.18,1721201326586
-0.18,-1.10,13.03,-0.48,-0.22,-0.27,1721201326596
-2.84,0.57,9.89,-0.36,-0.11,-0.15,1721201326606
-2.26,-1.13,16.36,-0.46,-0.07,-0.02,1721201326616
-2.35,-3.46,12.71,-0.26,-0.19,0.22,1721201326626
0.69,0.15,5.73,-0.15,0.09,0.11,1721201326636
0.77,0.69,13.82,-0.31,0.01,-0.12,1721201326646
1.11,8.33,16.50,-0.10,-0.08,0.04,1721201326656
2.77,2.48,12.18,0.10,0.01,0.09,1721201326666
-0.65,-1.06,8.56,0.04,-0.24,0.05,1721201326676
1.63,-1.97,11.32,0.02,0.12,-0.13,1721201326686
2.74,4.62,10.27,0.30,-0.17,-0.16,1721201326696
-0.17,4.30,6.15,0.35,-0.11,-0.12,1721201326706
0.41,2.15,10.52,0.34,0.16,-0.10,1721201326716
0.91,1.57,9.83,0.27,-0.00,0.01,1721201326726
0.03,-0.82,7.99,0.05,0.01,-0.13,1721201326736
-0.46,-1.29,12.66,0.05,0.00,-0.28,1721201326746
1.01,-3.42,8.70,0.18,-0.02,-0.09,1721201326756
-0.29,-3.56,8.99,0.09,0.00,-0.09,1721201326766
-1.52,1.16,9.96,0.16,-0.03,-0.14,1721201326776
1.70,0.72,14.92,-0.05,0.28,-0.33,1721201326786
-0.73,1.25,17.09,0.03,-0.21,-0.35,1721201326796
-1.96,-3.64,9.02,0.15,-0.11,-0.23,1721201326806
-0.48,-0.50,7.59,0.19,0.16,0.03,1721201326816
1.73,-5.37,8.75,-0.07,0.18,0.06,1721201326826
1.39,5.04,19.83,0.20,0.19,-0.27,1721201326836
0.02,0.86,5.63,0.32,-0.31,-0.28,1721201326846
-0.76,-2.09,1.85,-0.02,0.33,-0.31,1721201326856
1.68,3.55,17.97,0.21,0.31,-0.27,1721201326866
-1.20,-5.16,6.81,0.04,-0.15,-0.21,1721201326876
-5.83,-1.09,9.39,0.18,0.09,-0.18,1721201326886
1.70,3.69,11.09,0.33,0.48,0.01,1721201326896
1.52,2.70,4.75,0.09,-0.08,0.13,1721201326906
1.64,1.86,8.15,0.06,0.25,-0.20,1721201326916
2.17,-4.20,10.00,-0.07,0.10,-0.35,1721201326926
-2.40,1.84,15.11,0.08,0.15,-0.36,1721201326936
-2.05,-0.09,10.92,0.02,0.14,-0.15,1721201326946
-2.90,5.08,17.20,-0.07,0.13,-0.05,1721201326956
0.04,2.62,10.69,0.19,0.07,-0.03,1721201326966
0.90,-2.24,3.05,-0.07,0.21,-0.18,1721201326976
-0.79,0.70,6.55,-0.08,0.14,-0.29,1721201326986
-1.56,1.18,8.83,-0.04,0.12,-0.21,1721201326996
-1.26,-1.04,10.57,-0.02,0.11,-0.04,1721201327006
0.07,0.03,8.47,0.01,0.07,0.01,1721201327016
2.38,2.05,13.98,-0.15,0.26,-0.07,1721201327026
3.13,4.24,13.56,-0.05,0.05,-0.24,1721201327036
1.32,-1.47,7.07,-0.19,0.12,-0.40,1721201327046
-1.73,-5.32,8.76,-0.26,0.20,-0.50,1721201327056
-4.04,-0.69,11.54,-0.10,0.14,-0.36,1721201327066
-3.32,-2.16,7.75,-0.17,0.10,-0.08,1721201327076
-3.09,-1.03,11.98,-0.13,0.12,0.08,1721201327086
-0.13,-1.27,9.31,-0.07,0.12,0.10,1721201327096
0.71,0.57,10.30,-0.12,0.18,-0.00,1721201327106
1.66,-1.02,10.14,-0.14,0.09,-0.14,1721201327116
1.03,0.58,12.35,-0.22,0.15,-0.21,1721201327126
-2.24,0.40,10.57,-0.06,0.01,-0.25,1721201327136
-3.70,-0.53,7.36,-0.09,0.13,-0.12,1721201327146
-1.74,1.49,10.95,-0.08,0.17,0.07,1721201327156
0.14,-0.67,12.34,-0.17,0.12,-0.02,1721201327166
-0.52,3.95,15.76,-0.06,0.12,-0.16,1721201327176
-1.25,-0.37,8.24,0.00,-0.02,-0.15,1721201327186
-3.41,-1.24,7.07,0.05,0.09,0.05,1721201327196
-0.08,1.81,11.79,0.11,0.17,0.12,1721201327206
-0.35,2.87,10.39,0.19,-0.07,0.01,1721201327216
-0.86,1.12,8.28,0.06,0.14,-0.12,1721201327226
-0.96,-3.50,14.28,-0.07,0.03,-0.11,1721201327236
-2.92,-2.21,13.75,0.04,-0.02,-0.03,1721201327246
-3.42,0.77,9.67,0.22,-0.03,0.03,1721201327256
-0.88,-1.30,7.41,0.12,0.06,0.17,1721201327266
-0.14,-1.38,13.29,0.14,0.09,0.14,1721201327276
-0.64,1.46,10.85,0.29,-0.14,0.05,1721201327286
0.46,4.54,7.58,0.24,0.09,-0.07,1721201327296
-0.90,1.03,7.12,0.15,-0.19,-0.09,1721201327306
-1.84,-2.79,9.92,0.08,0.06,-0.06,1721201327316
-1.77,0.13,10.25,0.29,-0.07,0.03,1721201327326
-0.64,-3.39,7.21,0.03,-0.04,0.10,1721201327336
-2.13,2.54,15.27,0.11,0.01,-0.01,1721201327346
-1.20,2.17,10.56,0.21,-0.13,0.00,1721201327356
-2.18,-1.99,2.86,0.11,-0.17,0.15,1721201327366
-1.10,-2.03,10.18,-0.02,0.07,0.10,1721201327376
-0.51,2.36,18.09,0.06,-0.22,0.06,1721201327386
-1.08,1.64,11.80,0.20,-0.17,0.12,1721201327396
-1.09,0.96,8.62,0.14,-0.14,0.08,1721201327406
-0.75,2.22,8.77,0.22,-0.20,0.19,1721201327416
0.61,-0.43,5.96,0.10,-0.18,0.27,1721201327426
2.59,2.17,14.40,0.08,0.00,0.14,1721201327436
1.19,2.71,6.80,0.29,-0.38,0.01,1721201327446
0.66,-1.11,7.41,-0.03,0.03,-0.12,1721201327456
-0.51,3.40,15.58,0.18,-0.23,-0.02,1721201327466
-0.79,4.74,9.67,0.21,-0.11,0.03,1721201327476
-0.07,-1.24,4.36,0.02,-0.23,0.19,1721201327486
1.54,0.95,11.74,-0.01,0.09,0.06,1721201327496
0.77,-2.46,7.14,-0.08,-0.44,-0.07,1721201327506
-0.49,0.21,11.05,-0.08,0.15,-0.12,1721201327516
0.52,-0.96,15.53,-0.04,-0.13,-0.11,1721201327526
-4.05,1.13,7.11,-0.02,-0.44,0.04,1721201327536
-0.43,-1.55,5.83,-0.21,0.11,0.11,1721201327546
2.56,-1.75,13.96,-0.25,-0.01,-0.04,1721201327556
-1.82,-3.79,8.70,-0.20,-0.39,-0.23,1721201327566
-3.79,-2.38,12.70,-0.13,0.00,-0.21,1721201327576
-2.49,-2.05,10.62,-0.11,-0.17,0.11,1721201327586
-1.25,0.06,5.69,-0.20,-0.16,0.25,1721201327596
2.90,-0.10,9.70,-0.29,0.06,-0.04,1721201327606
1.70,-0.14,11.60,-0.19,-0.24,-0.20,1721201327616
-1.85,0.03,6.44,-0.13,-0.15,-0.23,1721201327626
-1.23,-2.58,9.25,-0.41,0.03,-0.08,1721201327636
-1.82,1.30,14.35,-0.22,-0.22,0.05,1721201327646
0.23,1.10,9.33,-0.15,-0.16,0.13,1721201327656
1.66,0.95,9.45,-0.24,-0.01,0.03,1721201327666
2.30,0.81,13.92,-0.20,-0.02,-0.26,1721201327676
-0.67,-1.40,9.53,-0.07,-0.28,-0.31,1721201327686
-0.13,1.74,10.68,-0.07,0.02,-0.13,1721201327696
0.28,0.08,11.77,-0.02,-0.16,0.06,1721201327706
0.64,1.26,13.75,0.00,0.09,-0.01,1721201327716
0.71,3.86,12.47,0.16,-0.11,-0.21,1721201327726
0.25,-2.25,7.24,0.07,-0.17,-0.21,1721201327736
0.88,1.77,14.30,0.11,0.11,-0.17,1721201327746
-0.61,2.99,11.26,0.33,-0.28,-0.10,1721201327756
2.42,-2.57,5.57,0.23,0.10,-0.04,1721201327766
1.77,-4.06,10.03,0.10,0.01,-0.18,1721201327776
0.34,1.80,14.30,0.29,0.04,-0.41,1721201327786
0.62,1.21,10.06,0.33,-0.06,-0.23,1721201327796
-0.28,1.06,7.93,0.21,0.09,-0.15,1721201327806
1.81,-2.45,10.39,0.18,0.10,-0.18,1721201327816
0.52,-0.28,11.36,0.15,0.05,-0.29,1721201327826
0.37,3.11,12.80,0.23,0.10,-0.33,1721201327836
0.57,-0.15,7.52,0.23,0.01,-0.20,1721201327846
0.99,-2.09,7.35,0.10,0.23,-0.20,1721201327856
0.85,-3.68,11.09,0.05,0.13,-0.39,1721201327866
-0.94,1.18,10.45,0.23,0.10,-0.47,1721201327876
-0.84,-0.05,7.72,0.13,0.19,-0.31,1721201327886
-0.99,0.43,9.37,0.07,0.13,-0.23,1721201327896
-0.12,-0.76,10.50,0.00,0.25,-0.29,1721201327906
0.15,1.09,11.97,0.02,0.19,-0.38,1721201327916
-0.12,-1.07,9.22,-0.07,0.19,-0.40,1721201327926
-0.94,0.24,9.24,-0.03,0.15,-0.32,1721201327936
-0.67,-0.26,8.67,-0.11,0.23,-0.33,1721201327946
-1.17,0.99,12.43,-0.04,0.15,-0.33,1721201327956
-1.08,-0.26,11.01,-0.14,0.21,-0.38,1721201327966
-1.69,4.61,16.48,0.06,0.15,-0.27,1721201327976
-0.39,-0.92,-1.28,-0.03,0.05,-0.13,1721201327986
1.15,4.62,13.03,-0.18,0.59,-0.32,1721201327996
2.38,-4.19,9.87,-0.13,-0.11,-0.36,1721201328006
-2.66,0.63,11.21,-0.12,0.32,-0.54,1721201328016
-2.00,1.89,11.39,0.03,0.21,-0.47,1721201328026
-3.14,-3.17,7.67,-0.33,0.21,-0.30,1721201328036
-3.06,1.59,12.54,-0.03,0.15,-0.16,1721201328046
2.32,-2.67,9.11,-0.13,0.46,-0.23,1721201328056
-0.21,2.00,11.10,-0.04,0.04,-0.32,1721201328066
-0.57,0.35,9.88,-0.04,0.38,-0.36,1721201328076
-0.87,-0.13,10.37,-0.13,0.15,-0.31,1721201328086
-1.21,2.72,11.53,-0.03,0.30,-0.22,1721201328096
0.32,-3.34,9.56,-0.08,0.30,-0.26,1721201328106
-2.17,1.02,11.29,0.02,0.13,-0.23,1721201328116
-0.47,1.25,9.30,0.09,0.28,-0.18,1721201328126
-0.70,2.43,10.58,0.06,0.26,-0.22,1721201328136
0.31,3.01,10.64,0.09,0.02,0.02,1721201328684
0.32,1.43,8.99,0.08,0.03,0.07,1721201328689
0.90,-0.42,8.92,0.07,0.01,0.03,1721201328698
0.12,0.81,9.98,0.12,0.00,-0.10,1721201328708
0.26,-1.73,8.19,0.08,-0.05,-0.05,1721201328718
-0.71,0.42,11.50,0.11,0.02,-0.08,1721201328728
0.87,1.42,11.74,0.19,0.07,-0.03,1721201328738
0.85,-0.99,10.17,0.08,-0.03,-0.04,1721201328748
0.28,4.01,13.37,0.17,0.14,-0.12,1721201328757
0.24,-0.64,8.64,0.12,-0.09,-0.11,1721201328767
-1.37,-1.65,8.88,0.06,0.13,-0.09,1721201328776
-1.16,-1.39,11.39,0.11,-0.04,0.04,1721201328786
-0.40,0.40,12.05,0.13,0.08,0.10,1721201328796
2.16,0.15,13.37,0.13,0.09,0.08,1721201328806
0.96,2.66,10.49,0.17,-0.06,-0.02,1721201328816
1.33,0.60,8.63,0.13,0.14,-0.20,1721201328826
-0.20,-3.85,10.09,0.02,0.04,-0.20,1721201328836
-2.04,0.53,13.43,0.17,0.10,-0.08,1721201328846
-1.86,-0.36,8.33,0.19,-0.03,0.07,1721201328855
0.29,1.94,9.80,0.12,0.24,0.12,1721201328865
0.91,2.86,10.34,0.16,0.00,-0.01,1721201328874
0.96,1.66,7.15,0.06,0.11,-0.13,1721201328884
0.68,-0.70,11.34,-0.02,0.14,-0.20,1721201328894
-1.85,-0.01,9.01,0.03,-0.04,-0.14,1721201328904
-1.56,0.77,9.76,-0.03,0.21,-0.00,1721201328914
0.81,1.05,10.67,-0.04,0.05,0.00,1721201328924
0.35,1.19,10.42,-0.05,0.07,-0.10,1721201328934
0.71,0.66,10.75,-0.10,0.16,-0.22,1721201328944
-1.11,-2.67,8.97,-0.14,-0.06,-0.13,1721201328954
-0.72,0.76,11.26,-0.11,0.25,-0.04,1721201328964
0.51,-0.12,10.60,-0.06,-0.01,0.00,1721201328974
0.56,1.81,6.98,-0.03,0.15,-0.09,1721201328984
1.98,-0.90,8.99,-0.14,0.17,-0.17,1721201328994
-0.57,-1.27,12.32,-0.18,0.10,-0.31,1721201329004
-2.05,-1.28,12.13,-0.13,0.10,-0.25,1721201329014
-1.90,1.38,11.04,-0.03,0.13,-0.09,1721201329024
-1.14,-1.07,9.10,-0.14,0.08,0.01,1721201329034
-1.19,1.30,10.45,-0.03,0.05,0.12,1721201329044
1.22,0.52,6.33,0.04,0.19,-0.02,1721201329054
1.28,-0.75,11.90,-0.21,0.17,-0.22,1721201329064
-1.79,0.31,10.86,-0.11,-0.00,-0.28,1721201329074
-1.67,0.44,12.08,-0.04,0.17,-0.15,1721201329084
-1.74,3.11,11.64,0.02,0.03,0.06,1721201329094
-1.33,0.68,6.51,0.04,0.08,0.13,1721201329104
0.95,0.17,11.03,-0.01,0.18,0.07,1721201329114
0.55,0.85,9.11,0.03,0.04,-0.10,1721201329124
-0.64,0.50,9.50,0.00,0.09,-0.20,1721201329134
-1.72,-0.08,12.14,0.07,0.05,-0.11,1721201329144
-0.91,-1.32,10.28,0.09,0.12,0.03,1721201329154
-0.95,1.44,12.39,0.14,0.09,0.13,1721201329164
0.06,1.66,9.91,0.16,0.08,0.05,1721201329174
0.01,0.17,8.89,0.14,0.03,-0.06,1721201329184
-1.64,-1.03,9.27,0.09,0.05,-0.10,1721201329194
-2.77,-0.33,8.76,0.11,-0.02,-0.05,1721201329204
-2.08,-0.98,10.81,0.04,0.13,0.04,1721201329214
-1.28,-1.46,11.94,0.13,-0.09,0.12,1721201329224
0.27,1.62,9.52,0.13,0.10,0.10,1721201329234
0.19,-0.51,10.90,0.01,-0.05,0.03,1721201329244
-0.43,0.51,10.98,0.13,0.01,-0.06,1721201329254
-0.42,-0.48,10.66,0.08,-0.03,0.00,1721201329264
-2.79,1.88,9.15,0.17,-0.12,0.03,1721201329274
-0.42,-4.79,6.85,0.11,0.05,0.07,1721201329284
-0.31,1.46,11.78,0.14,0.01,0.07,1721201329294
-0.38,11.42,14.74,0.32,-0.12,0.10,1721201329304
-0.03,4.60,6.64,0.20,-0.11,0.04,1721201329314
1.76,-8.86,5.33,-0.24,-0.02,-0.01,1721201329324
0.38,0.64,16.19,0.02,0.03,0.02,1721201329334
-0.01,5.46,11.75,0.16,-0.23,0.11,1721201329344
-1.00,4.08,7.26,0.14,-0.11,0.08,1721201329354
1.28,-2.62,6.75,0.06,-0.01,0.04,1721201329364
0.51,2.17,11.86,-0.09,0.02,-0.07,1721201329374
-0.57,2.34,13.90,-0.04,-0.13,-0.09,1721201329384
-2.56,-0.75,8.27,-0.00,-0.17,0.05,1721201329394
-2.26,1.62,7.35,0.01,-0.08,0.15,1721201329404
1.38,-2.05,9.24,-0.10,-0.04,0.33,1721201329414
1.73,2.70,12.60,-0.07,-0.05,0.15,1721201329424
0.97,2.60,7.78,-0.05,-0.23,-0.08,1721201329434
-1.91,-1.10,8.47,-0.21,-0.09,-0.12,1721201329444
-3.10,-5.36,9.46,-0.12,-0.18,0.08,1721201329454
-1.78,-5.33,6.76,-0.04,-0.14,0.38,1721201329464
1.66,1.70,10.01,-0.08,0.11,0.24,1721201329474
2.48,4.30,11.69,-0.01,-0.23,0.05,1721201329484
0.81,1.94,0.77,-0.07,-0.17,-0.07,1721201329494
2.70,-5.57,14.02,-0.71,0.34,-0.31,1721201329504
-4.01,-2.59,25.68,-0.36,-0.56,-0.37,1721201329514
-7.37,2.83,9.45,0.19,-0.18,-0.07,1721201329524
-2.82,1.06,1.56,-0.33,0.13,0.51,1721201329534
1.80,3.90,15.34,-0.26,-0.10,0.58,1721201329544
5.91,-3.43,14.22,-0.11,-0.05,0.18,1721201329554
6.77,-4.99,5.55,-0.15,-0.13,-0.21,1721201329564
1.01,0.47,11.93,-0.25,-0.03,-0.38,1721201329574
-1.84,6.48,17.26,-0.14,-0.14,-0.41,1721201329584
-2.89,0.95,13.56,0.06,-0.20,-0.25,1721201329594
-1.09,-2.37,7.91,0.16,-0.04,-0.09,1721201329604
0.48,-0.65,10.97,0.02,0.02,0.03,1721201329614
0.56,7.59,13.95,0.32,0.04,0.10,1721201329624
1.41,-1.61,6.93,0.46,-0.12,0.04,1721201329634
2.44,-0.25,6.05,0.39,0.13,-0.12,1721201329644
2.48,3.19,9.70,0.38,-0.02,-0.30,1721201329654
0.11,2.18,6.79,0.41,-0.10,-0.37,1721201329664
-0.12,1.39,7.78,0.31,0.16,-0.28,1721201329674
-1.05,-3.41,9.30,0.20,-0.10,-0.13,1721201329684
0.11,-5.71,10.03,0.16,0.22,-0.24,1721201329694
0.85,2.09,16.38,0.21,0.11,-0.24,1721201329704
-1.61,4.59,8.65,0.27,-0.12,-0.13,1721201329714
1.12,-2.36,6.89,0.09,0.24,-0.13,1721201329724
1.36,-2.15,9.59,0.02,0.14,-0.25,1721201329734
0.61,-0.03,12.64,0.02,0.20,-0.50,1721201329744
-1.96,0.92,16.01,0.03,0.05,-0.38,1721201329754
-2.73,-0.68,10.62,0.06,0.12,-0.15,1721201329764
-0.34,-2.97,6.81,0.09,0.21,-0.05,1721201329774
0.81,-2.43,9.96,-0.14,0.29,-0.21,1721201329784
-0.65,-1.62,10.38,0.03,0.00,-0.28,1721201329794
-2.30,-0.10,2.38,0.09,0.18,-0.25,1721201329804
-0.75,-0.10,8.86,-0.22,0.34,-0.12,1721201329814
-1.50,0.39,13.58,-0.13,-0.03,-0.06,1721201329824
-0.08,4.30,7.31,0.08,0.25,-0.09,1721201329834
2.83,1.33,4.51,-0.23,0.22,-0.15,1721201329844
0.11,-2.43,10.29,-0.32,0.14,-0.33,1721201329854
-0.83,0.96,10.70,-0.10,0.21,-0.35,1721201329864
-2.51,-0.96,6.82,-0.24,0.07,-0.23,1721201329874
-2.77,-0.04,11.31,-0.19,0.23,-0.00,1721201329884
0.78,-0.27,10.49,-0.22,0.27,0.02,1721201329894
1.72,2.70,16.12,-0.30,0.26,-0.12,1721201329904
1.58,0.96,13.61,-0.22,0.10,-0.26,1721201329914
-0.65,0.77,6.56,-0.26,0.09,-0.28,1721201329924
-0.91,-3.36,13.60,-0.39,0.37,-0.20,1721201329934
-1.97,-1.02,16.84,-0.29,0.13,-0.14,1721201329944
-3.61,1.63,14.69,-0.18,0.11,-0.17,1721201329954
-2.28,2.21,12.82,-0.04,0.07,0.03,1721201329964
0.30,-2.41,8.76,-0.05,0.21,0.23,1721201329974
0.93,6.96,13.16,0.12,0.29,0.09,1721201329984
0.40,6.29,8.20,0.33,-0.01,-0.12,1721201329994
-0.56,0.86,4.35,0.13,0.21,-0.24,1721201330004
-0.61,2.52,10.80,0.21,0.17,-0.13,1721201330014
-0.07,-6.88,3.72,0.11,0.03,0.08,1721201330024
-0.84,-3.03,12.29,-0.01,0.32,-0.04,1721201330034
-2.08,4.41,10.76,0.45,-0.06,-0.08,1721201330044
-1.12,3.57,11.08,0.11,0.45,-0.05,1721201330054
-4.30,-2.51,7.38,0.05,-0.35,0.08,1721201330064
-3.59,-0.79,8.39,0.29,0.21,0.19,1721201330074
2.40,-4.02,10.11,0.21,0.31,0.21,1721201330084
0.79,-1.93,11.60,0.16,-0.10,0.03,1721201330094
-1.64,-3.74,6.05,0.34,-0.03,0.01,1721201330104
-1.08,0.83,12.62,0.01,0.32,-0.01,1721201330114
-2.09,14.18,21.30,0.16,-0.08,0.00,1721201330124
-2.95,-1.71,6.99,-0.08,-0.06,0.02,1721201330134
0.16,-9.24,6.30,-0.37,0.15,0.11,1721201330144
-0.51,1.67,8.94,0.14,-0.07,0.09,1721201330154
1.03,6.11,8.88,0.16,0.13,0.17,1721201330164
3.10,1.24,10.71,0.02,0.03,0.12,1721201330174
-1.79,-1.37,9.44,-0.05,-0.13,-0.05,1721201330184
-1.89,-0.77,13.25,-0.06,0.08,-0.06,1721201330194
0.82,6.14,13.55,0.14,0.04,-0.05,1721201330204
-1.26,0.93,9.29,0.05,-0.23,0.01,1721201330214
-5.42,0.72,5.07,0.29,-0.14,0.10,1721201330224
-0.73,0.22,4.14,0.18,0.10,0.22,1721201330234
2.65,5.40,10.26,0.11,0.00,0.18,1721201330244
1.85,1.96,7.36,0.14,-0.19,0.07,1721201330254
-0.34,3.10,6.21,0.17,0.01,-0.11,1721201330264
0.04,-3.07,4.84,0.08,-0.15,0.01,1721201330274
-1.56,-0.34,4.82,-0.00,-0.04,0.12,1721201330284
1.67,0.85,11.43,-0.08,0.09,0.03,1721201330294
1.13,1.79,10.25,0.01,-0.23,-0.04,1721201330304
-1.53,-10.15,4.82,-0.49,-0.15,0.01,1721201330314
-2.03,-3.63,34.57,-0.44,0.32,-0.15,1721201330324
-2.54,8.89,23.61,0.57,-0.49,-0.15,1721201330334
-5.17,-0.14,-8.72,-0.20,-0.24,0.18,1721201330344
-2.51,0.28,12.88,-0.50,0.26,0.63,1721201330354
3.13,-4.57,12.35,-0.19,-0.13,0.49,1721201330364
5.04,-3.43,4.98,-0.13,-0.08,0.12,1721201330374
3.61,3.85,10.70,-0.16,-0.05,-0.32,1721201330384
-0.75,3.95,12.13,-0.26,-0.18,-0.31,1721201330394
-4.04,3.37,12.24,-0.23,-0.08,-0.21,1721201330404
-3.87,-4.80,9.46,-0.31,-0.13,0.01,1721201330414
-2.55,-3.63,12.03,-0.25,0.03,0.19,1721201330424
-0.36,1.03,10.44,-0.09,-0.13,0.26,1721201330434
0.65,3.27,8.63,-0.10,-0.04,0.25,1721201330444
1.50,3.00,12.40,-0.20,-0.01,0.06,1721201330454
1.10,0.55,12.70,-0.15,-0.19,-0.05,1721201330464
0.76,-3.97,9.39,-0.15,-0.08,-0.10,1721201330474
-2.43,-0.32,11.08,-0.05,-0.17,-0.08,1721201330484
-1.89,4.08,10.58,0.13,-0.05,0.09,1721201330494
-1.68,-0.30,6.59,0.04,-0.22,0.14,1721201330504
1.53,1.17,11.41,0.14,0.05,0.02,1721201330514
2.73,0.70,9.95,0.14,-0.19,-0.09,1721201330524
-1.28,-1.62,10.75,-0.02,-0.12,-0.13,1721201330534
-1.68,0.18,12.87,0.20,-0.09,-0.05,1721201330544
-0.82,0.71,9.93,0.27,-0.18,0.07,1721201330554
2.05,1.42,10.01,0.26,0.04,0.09,1721201330564
2.27,0.08,9.60,0.19,-0.14,0.00,1721201330574
2.51,-1.81,10.77,0.10,0.05,-0.18,1721201330584
1.49,0.12,12.69,0.26,-0.08,-0.17,1721201330594
0.42,-0.47,5.93,0.30,-0.14,-0.02,1721201330604
1.90,2.33,9.19,0.12,0.23,0.00,1721201330614
1.09,0.90,14.60,0.07,-0.08,-0.22,1721201330624
-0.08,-3.94,10.74,0.16,-0.06,-0.25,1721201330634
0.99,-1.14,11.74,0.15,0.22,-0.12,1721201330644
0.06,1.11,13.91,0.21,-0.01,-0.05,1721201330654
1.07,1.18,10.88,0.31,0.09,-0.08,1721201330664
1.64,4.03,6.80,0.37,0.05,-0.18,1721201330674
0.95,-2.19,9.88,-0.10,0.30,-0.44,1721201330689
-0.37,-2.25,13.44,-0.10,0.14,-0.50,1721201330693
-3.63,-1.58,12.33,0.27,-0.00,-0.44,1721201330703
-3.42,-1.37,5.26,0.10,0.23,-0.10,1721201330713
-3.12,2.20,8.54,0.04,0.08,0.07,1721201330723
1.55,1.81,7.86,0.04,0.26,-0.00,1721201330733
2.01,0.86,8.71,-0.11,0.12,-0.14,1721201330743
0.44,-1.56,9.86,-0.21,0.09,-0.33,1721201330753
-0.43,-4.05,12.52,-0.15,0.17,-0.32,1721201330763
-1.76,-0.14,10.50,-0.08,0.11,-0.23,1721201330773
-0.09,2.26,10.85,-0.05,0.25,-0.13,1721201330783
0.10,-0.13,6.59,-0.07,0.04,-0.14,1721201330793
0.95,0.49,9.75,-0.27,0.34,-0.28,1721201330803
0.80,-1.68,18.49,-0.24,0.16,-0.27,1721201330813
-2.46,1.44,11.60,0.00,0.02,-0.23,1721201330823
-0.62,1.61,3.68,-0.13,0.26,-0.13,1721201330833
0.66,-0.55,10.29,-0.32,0.20,-0.08,1721201330843
0.55,0.84,13.72,-0.11,0.21,-0.21,1721201330853
-0.31,0.40,11.30,-0.13,0.23,-0.39,1721201330863
-2.88,-2.82,12.23,-0.35,0.08,-0.39,1721201330873
-2.95,5.08,16.18,-0.16,0.19,-0.19,1721201330883
-1.13,1.91,8.11,0.11,0.06,0.08,1721201330893
0.39,-3.85,5.58,-0.22,0.32,0.09,1721201330903
1.35,3.25,13.63,0.06,0.21,-0.13,1721201330913
0.90,-0.51,6.77,0.07,0.02,-0.27,1721201330923
-2.22,2.61,12.82,-0.17,0.33,-0.37,1721201330933
-2.07,-1.98,11.53,0.03,0.11,-0.33,1721201330943
-4.06,0.08,7.63,0.09,0.20,-0.03,1721201330953
-1.69,-6.07,6.81,0.04,0.26,0.18,1721201330963
-0.99,0.48,11.19,0.21,0.15,0.19,1721201330973
1.82,2.65,9.23,0.20,0.13,-0.01,1721201330983
-0.48,1.60,9.20,0.13,0.06,-0.15,1721201330993
-1.09,-0.79,9.90,0.05,0.26,-0.16,1721201331003
-1.07,-2.90,13.38,0.01,0.12,-0.08,1721201331013
-4.83,0.05,7.00,0.17,-0.12,0.03,1721201331023
-1.58,-2.04,4.95,-0.03,0.28,0.06,1721201331033
-0.09,-1.84,13.70,-0.06,0.04,0.08,1721201331043
0.01,1.52,8.72,0.22,0.07,0.05,1721201331053
0.74,1.34,9.51,-0.04,0.24,-0.06,1721201331063
-3.17,0.24,11.90,-0.08,-0.13,-0.16,1721201331073
-3.51,0.91,12.75,0.02,0.15,-0.14,1721201331083
-2.25,-3.97,10.44,0.06,0.00,0.12,1721201331093
-1.81,0.40,9.64,0.01,0.17,0.15,1721201331103
-0.11,4.83,15.94,-0.00,0.04,0.12,1721201331113
-1.38,2.76,9.21,0.15,-0.23,-0.02,1721201331123
-0.37,1.12,10.30,0.06,0.06,0.06,1721201331133
-1.08,1.82,11.52,0.21,-0.18,0.20,1721201331143
-1.49,3.39,4.49,0.30,-0.11,0.34,1721201331153
0.67,1.33,4.12,0.15,0.01,0.27,1721201331163
2.63,-0.28,7.98,0.12,-0.06,0.13,1721201331173
2.79,-1.08,14.97,0.05,0.07,-0.06,1721201331183
-1.52,4.40,14.00,0.18,-0.25,-0.16,1721201331193
-3.49,3.56,10.82,0.07,0.00,0.01,1721201331203
-3.63,-2.52,11.89,0.00,-0.21,0.34,1721201331213
-1.45,-0.11,7.95,0.17,-0.14,0.53,1721201331223
3.40,0.16,6.94,-0.02,0.02,0.45,1721201331233
2.36,2.99,9.59,-0.07,-0.27,0.09,1721201331243
0.07,3.72,9.78,0.00,-0.08,-0.17,1721201331253
-2.90,-1.30,9.23,-0.22,-0.20,-0.01,1721201331263
-5.85,-2.77,11.91,-0.20,-0.28,0.30,1721201331273
-2.10,-3.46,9.33,-0.15,-0.13,0.61,1721201331283
1.89,-0.08,9.48,-0.12,-0.12,0.51,1721201331293
4.33,0.12,10.51,-0.20,-0.11,0.26,1721201331303
3.23,-1.02,9.91,-0.19,-0.21,-0.07,1721201331313
0.58,-0.32,11.41,-0.14,-0.15,-0.26,1721201331323
-1.71,-2.22,10.64,-0.23,-0.21,-0.01,1721201331333
-4.18,0.10,11.57,-0.13,-0.18,0.14,1721201331343
-1.62,1.99,9.41,-0.02,-0.14,0.31,1721201331353
1.25,-1.39,8.09,-0.23,-0.13,0.21,1721201331363
2.76,1.87,12.03,-0.14,-0.03,-0.01,1721201331373
2.27,-2.04,6.72,-0.09,-0.27,-0.06,1721201331383
-0.68,-0.45,9.84,-0.16,-0.02,-0.13,1721201331393
-0.18,2.43,14.63,-0.01,-0.13,-0.11,1721201331403
0.23,2.65,9.19,0.11,-0.23,0.02,1721201331413
2.11,-1.41,8.84,-0.09,0.03,-0.06,1721201331423
0.90,1.99,14.24,0.03,-0.11,-0.18,1721201331433
-0.26,-0.51,7.02,0.18,-0.21,-0.23,1721201331443
0.60,-2.01,9.76,0.08,0.04,-0.07,1721201331453
1.40,0.60,13.65,0.17,-0.08,-0.04,1721201331463
0.54,0.26,10.08,0.17,-0.09,-0.21,1721201331473
0.06,2.71,10.66,0.22,0.06,-0.24,1721201331483
0.15,-1.46,9.42,0.17,-0.08,-0.21,1721201331493
-1.58,2.59,10.59,0.28,0.01,-0.11,1721201331503
0.52,0.54,9.07,0.24,0.04,-0.09,1721201331513
0.51,-0.93,9.65,0.09,-0.02,-0.14,1721201331523
0.30,-0.02,12.24,0.13,0.05,-0.18,1721201331533
0.15,-1.20,10.97,0.16,-0.05,-0.17,1721201331543
-0.50,0.34,10.47,0.21,0.03,-0.14,1721201331553
0.20,0.40,8.26,0.25,0.02,-0.12,1721201331563
-0.25,-0.62,8.91,0.12,0.09,-0.23,1721201331573
-0.78,1.85,12.36,0.21,0.06,-0.29,1721201331583
-1.50,-2.09,9.73,0.10,-0.04,-0.20,1721201331593
-2.03,0.94,11.32,0.15,0.09,-0.05,1721201331603
0.69,-0.81,7.71,0.17,0.07,0.00,1721201331613
0.45,-4.99,5.08,-0.05,0.01,-0.10,1721201331623
0.53,-2.74,10.80,0.11,0.19,-0.27,1721201331633
0.84,1.72,12.39,0.14,0.07,-0.26,1721201331643
-2.53,21.00,15.61,0.40,-0.00,-0.17,1721201331653
-0.21,9.19,3.88,0.04,-0.03,-0.01,1721201331663
0.49,-20.11,5.55,-0.81,0.13,-0.12,1721201331673
-2.33,0.52,22.77,-0.16,0.35,-0.34,1721201331683
0.30,-2.06,1.01,-0.13,-0.36,-0.17,1721201331693
-0.83,-0.53,9.27,-0.43,0.36,-0.28,1721201331703
-1.41,3.61,12.42,0.01,-0.19,-0.28,1721201331713
-2.74,0.69,8.66,-0.59,0.20,-0.13,1721201331723
-1.33,-0.56,20.22,-0.46,0.00,0.01,1721201331733
2.38,-0.65,8.80,-0.20,0.05,0.09,1721201331743
2.02,-1.51,6.88,-0.39,0.08,-0.23,1721201331753
-1.27,-2.31,8.42,-0.27,-0.08,-0.45,1721201331763
-1.88,-1.32,8.70,-0.33,0.14,-0.22,1721201331773
-1.53,1.41,14.14,-0.32,0.10,-0.02,1721201331783
-2.01,3.11,10.95,-0.19,0.01,0.03,1721201331793
-0.13,-3.02,3.40,-0.21,0.02,-0.02,1721201331803
2.93,-3.40,5.09,-0.16,0.08,0.04,1721201331813
3.66,2.41,-3.41,0.16,0.02,-0.05,1721201331823
1.01,-4.68,-1.52,-0.56,0.14,-0.35,1721201331833
-1.07,-13.18,37.89,-1.07,0.72,-0.86,1721201331843
-1.89,18.73,55.02,-0.16,-0.54,-0.71,1721201331853
-9.85,3.74,4.13,0.43,-0.09,-0.07,1721201331863
-2.52,-6.52,-6.34,-0.50,0.66,0.54,1721201331873
0.22,-10.42,21.42,-0.06,-0.44,0.55,1721201331883
3.58,-0.89,3.84,0.54,-0.03,-0.05,1721201331893
8.71,0.52,4.61,0.05,0.46,-0.27,1721201331903
-2.01,6.39,18.88,-0.12,-0.24,-0.37,1721201331913
-1.33,10.30,22.29,0.23,0.16,-0.36,1721201331923
-0.54,1.06,6.63,0.46,-0.16,-0.08,1721201331933
-4.43,-5.76,1.96,0.42,0.02,0.23,1721201331943
0.21,2.13,10.84,0.68,0.14,0.24,1721201331953
2.85,5.72,9.27,0.59,-0.02,0.03,1721201331963
1.33,9.71,11.84,0.59,0.14,-0.40,1721201331973
-1.19,2.49,9.42,0.47,-0.18,-0.51,1721201331983
-6.00,-2.48,6.51,0.43,-0.14,-0.14,1721201331993
-3.62,-1.31,7.14,0.57,0.09,0.25,1721201332003
0.11,1.49,3.30,0.65,-0.03,0.35,1721201332013
3.82,0.48,5.30,0.45,0.11,0.12,1721201332023
3.35,8.38,13.84,0.42,-0.01,-0.31,1721201332033
0.15,5.29,9.24,0.29,-0.16,-0.45,1721201332043
-2.56,-7.65,9.70,-0.35,0.02,-0.25,1721201332053
-2.60,3.67,30.20,0.02,0.17,-0.15,1721201332063
-2.24,10.80,0.50,0.76,-0.47,0.09,1721201332073
-0.72,-13.07,-14.74,-0.21,0.14,0.21,1721201332083
0.52,-5.63,20.72,-0.36,0.58,-0.02,1721201332093
4.52,6.03,18.08,0.35,0.09,-0.49,1721201332103
-1.84,5.57,8.45,-0.11,-0.46,-0.41,1721201332113
-8.56,1.28,7.48,-0.11,-0.05,0.03,1721201332123
-1.31,-2.70,8.79,-0.23,0.22,0.33,1721201332133
0.86,0.41,12.55,-0.35,-0.12,0.17,1721201332143
-0.29,-3.50,3.69,-0.11,-0.25,-0.09,1721201332153
-0.91,-0.06,7.82,-0.23,0.17,-0.10,1721201332163
0.68,-4.88,10.59,-0.29,-0.17,0.17,1721201332173
0.02,0.86,9.90,-0.26,0.08,0.10,1721201332183
2.56,1.22,10.76,-0.31,-0.05,-0.18,1721201332193
-0.75,-3.62,6.87,-0.39,-0.28,-0.17,1721201332203
-1.84,-5.24,3.74,-0.30,0.06,-0.09,1721201332213
1.93,-9.89,11.25,-0.59,0.12,-0.02,1721201332223
-1.47,-2.51,23.69,-0.44,-0.12,-0.30,1721201332233
-3.26,5.06,20.86,-0.03,-0.16,-0.37,1721201332243
-1.75,-4.40,16.39,-0.73,0.06,-0.12,1721201332253
-5.78,3.34,19.80,-0.41,-0.38,0.10,1721201332263
0.31,7.87,3.23,0.22,0.21,0.21,1721201332273
2.38,-1.50,-1.71,-0.29,-0.06,0.29,1721201332283
11.86,0.06,15.53,-0.43,0.75,-0.22,1721201332293
4.11,5.22,18.84,-0.01,-0.26,-0.35,1721201332303
1.49,-0.33,7.37,0.11,0.01,-0.40,1721201332313
0.97,2.86,14.75,0.04,0.27,-0.53,1721201332323
-1.42,3.51,11.46,0.34,-0.16,-0.44,1721201332333
-1.96,0.46,7.72,0.34,0.22,-0.36,1721201332343
0.09,0.72,13.36,0.34,0.30,-0.24,1721201332353
-1.50,2.03,11.27,0.34,0.01,-0.18,1721201332363
0.28,1.71,9.74,0.32,0.27,-0.23,1721201332373
2.86,-1.49,10.64,0.32,0.13,-0.25,1721201332383
0.96,-0.75,8.42,0.38,0.18,-0.32,1721201332393
1.02,2.38,9.29,0.38,0.36,-0.46,1721201332403
-2.13,1.98,7.26,0.21,0.12,-0.52,1721201332413
-2.05,-1.48,10.32,0.16,0.36,-0.40,1721201332423
-1.25,-1.75,12.43,0.25,0.29,-0.21,1721201332433
-0.75,-0.06,6.96,0.29,0.19,-0.07,1721201332443
1.29,-1.07,6.79,0.14,0.37,-0.16,1721201332453
0.28,-0.65,9.22,0.10,0.22,-0.42,1721201332463
-1.60,-1.51,9.16,0.04,0.33,-0.44,1721201332473
-2.33,-0.66,13.11,0.05,0.34,-0.18,1721201332483
-1.93,-0.18,9.99,0.06,0.28,-0.06,1721201332493
0.79,-0.84,8.62,-0.02,0.37,-0.03,1721201332503
1.89,1.36,11.19,-0.06,0.31,-0.27,1721201332513
0.98,1.14,10.96,-0.01,0.25,-0.38,1721201332523
-2.85,-1.44,6.69,-0.09,0.22,-0.42,1721201332533
-4.13,-1.99,10.40,-0.16,0.34,-0.27,1721201332543
-3.02,-0.15,13.52,-0.02,0.23,-0.06,1721201332553
-1.40,3.12,4.90,0.03,0.20,0.13,1721201332563
1.71,1.30,9.00,-0.25,0.44,-0.10,1721201332573
0.10,-0.64,11.53,-0.18,0.12,-0.34,1721201332583
-2.53,-5.18,7.14,-0.27,0.23,-0.27,1721201332593
-2.35,-0.27,14.12,-0.20,0.36,0.00,1721201332603
-1.07,-1.14,11.32,-0.10,0.18,0.14,1721201332613
-0.78,-1.30,11.49,-0.21,0.25,0.05,1721201332623
1.01,2.62,12.72,-0.09,0.29,-0.05,1721201332633
-0.21,-1.17,6.44,-0.15,0.10,-0.02,1721201332643
-0.49,-0.22,10.37,-0.21,0.35,-0.07,1721201332653
-1.17,2.10,10.65,0.00,0.05,-0.02,1721201332663
-1.30,-2.75,8.96,-0.19,0.18,0.13,1721201332673
-0.42,2.83,13.33,-0.09,0.23,0.19,1721201332683
0.36,0.80,9.45,-0.04,0.25,0.15,1721201332698
-0.77,1.54,9.19,-0.01,0.17,0.09,1721201332702
-0.49,-2.12,8.78,-0.01,0.14,0.05,1721201332712
-1.39,-0.97,7.70,0.18,0.11,0.13,1721201332722
0.05,2.17,11.69,0.18,0.23,0.23,1721201332732
-0.34,5.26,13.83,0.19,-0.00,0.20,1721201332742
-1.71,-2.65,9.99,0.12,0.06,0.15,1721201332752
-2.96,-2.50,11.37,0.13,0.16,0.09,1721201332762
-1.53,-1.29,8.89,0.29,-0.02,0.21,1721201332772
-2.10,-1.50,6.90,0.13,0.13,0.26,1721201332782
-1.09,6.89,14.26,0.16,0.11,0.17,1721201332792
-1.54,-3.08,6.66,0.17,-0.26,0.12,1721201332802
-2.27,-2.88,8.56,-0.09,0.10,0.18,1721201332812
0.38,-0.28,12.35,0.02,-0.02,0.22,1721201332822
-1.09,1.21,6.27,0.13,-0.10,0.06,1721201332832
-0.42,1.23,10.48,-0.08,0.09,-0.05,1721201332842
-1.97,-3.44,12.02,0.01,-0.24,0.11,1721201332852
-3.92,0.77,11.19,0.05,0.06,0.17,1721201332862
-1.04,2.22,11.17,0.02,-0.06,0.09,1721201332872
-1.72,-1.19,5.49,0.01,-0.28,0.15,1721201332882
-1.69,1.76,9.29,0.04,0.02,0.22,1721201332892
0.58,3.00,10.96,0.08,-0.19,0.30,1721201332902
-0.51,-0.49,5.15,-0.06,-0.27,0.27,1721201332912
0.20,-0.64,10.66,-0.17,-0.07,0.16,1721201332922
1.25,1.13,13.89,0.06,-0.18,0.09,1721201332932
-0.37,0.66,5.95,-0.04,-0.22,0.06,1721201332942
-2.06,1.70,14.41,-0.22,-0.08,0.00,1721201332952
-1.84,0.12,13.08,0.02,-0.25,0.15,1721201332962
-0.38,1.09,9.81,-0.14,-0.08,0.31,1721201332972
1.30,0.47,12.43,-0.20,-0.21,0.31,1721201332982
1.89,1.46,12.57,-0.12,-0.22,0.21,1721201332992
1.66,4.64,9.28,-0.05,-0.15,0.14,1721201333002
0.62,1.53,6.96,-0.23,-0.16,0.04,1721201333012
-0.57,-3.09,11.54,-0.33,-0.14,-0.00,1721201333022
-1.79,-2.00,12.05,-0.19,-0.24,0.10,1721201333032
-0.29,-0.80,10.23,-0.15,-0.07,0.25,1721201333042
-0.88,1.92,11.10,-0.15,-0.27,0.19,1721201333052
-0.29,-2.66,7.89,-0.15,-0.19,0.19,1721201333062
1.16,1.41,14.35,-0.21,0.07,-0.03,1721201333072
-0.94,-0.59,10.75,-0.04,-0.45,0.02,1721201333082
-2.08,-2.84,5.90,-0.12,-0.08,0.09,1721201333092
1.72,-4.08,10.21,-0.04,-0.09,0.21,1721201333102
2.09,3.52,12.44,0.03,-0.06,0.10,1721201333112
1.84,3.47,10.97,0.07,-0.28,0.01,1721201333122
2.03,4.81,8.33,0.02,0.04,-0.19,1721201333132
-0.58,-2.10,12.70,-0.16,-0.34,-0.21,1721201333142
-2.13,-2.37,11.16,0.12,-0.19,-0.02,1721201333152
-0.01,1.08,7.33,0.18,-0.07,0.20,1721201333162
1.17,-1.45,6.71,0.12,-0.15,0.16,1721201333172
1.72,5.52,11.91,0.26,0.06,-0.11,1721201333182
4.61,-2.48,11.55,0.08,-0.16,-0.15,1721201333192
-1.66,-0.85,12.47,0.03,-0.21,-0.19,1721201333202
0.62,-2.34,11.56,0.21,0.07,-0.08,1721201333212
0.68,0.06,7.70,0.16,-0.05,-0.09,1721201333222
-0.47,0.10,6.50,0.25,-0.20,-0.00,1721201333232
3.78,-0.21,10.66,0.15,0.31,-0.14,1721201333242
0.34,0.42,12.34,0.11,-0.26,-0.22,1721201333252
1.21,-1.16,11.00,0.14,0.26,-0.30,1721201333262
-1.25,2.88,12.84,0.13,-0.15,-0.16,1721201333272
-1.13,2.08,6.92,0.24,0.06,0.00,1721201333282
3.73,-3.69,7.79,0.05,0.29,0.02,1721201333292
2.29,-1.74,13.76,0.08,0.01,-0.23,1721201333302
3.18,2.65,11.77,0.34,0.26,-0.42,1721201333312
-0.26,2.11,7.78,0.18,-0.05,-0.39,1721201333322
-2.72,2.49,10.07,0.22,0.18,-0.33,1721201333332
-1.38,-1.36,6.17,0.15,0.12,-0.23,1721201333342
-2.73,-0.74,7.84,-0.00,0.15,-0.18,1721201333352
-0.57,1.70,14.41,-0.01,0.33,-0.21,1721201333362
-1.14,0.35,8.78,0.09,-0.13,-0.14,1721201333372
-0.79,2.86,6.92,0.04,0.40,-0.16,1721201333382
1.85,3.00,10.96,-0.07,0.19,-0.28,1721201333392
-0.11,0.34,9.75,-0.13,0.08,-0.28,1721201333402
-1.20,-0.32,10.65,-0.15,0.13,-0.26,1721201333412
-1.23,-0.41,9.94,-0.04,0.10,-0.19,1721201333422
-0.10,0.04,9.91,-0.18,0.21,-0.16,1721201333432
-1.26,-0.67,10.56,-0.14,0.03,-0.19,1721201333442
0.85,1.87,12.53,-0.15,0.39,-0.27,1721201333452
0.91,-1.84,9.25,-0.16,-0.02,-0.19,1721201333462
-1.67,0.12,11.46,-0.22,0.29,-0.24,1721201333472
-0.37,-2.67,8.92,-0.06,0.10,-0.29,1721201333482
-1.12,-0.78,9.38,-0.08,0.19,-0.23,1721201333492
0.40,2.63,11.24,-0.08,0.27,-0.21,1721201333502
-0.89,-1.02,12.17,-0.09,0.11,-0.30,1721201333512
-3.93,-2.89,12.58,-0.09,0.16,-0.21,1721201333522
-3.28,-3.68,9.12,-0.07,0.11,-0.05,1721201333532
0.07,0.55,12.36,-0.09,0.29,0.09,1721201333542
-1.15,3.03,9.46,0.19,-0.02,-0.04,1721201333552
-0.10,-1.87,4.89,-0.17,0.21,-0.14,1721201333562
-0.81,-1.72,15.51,-0.10,0.18,-0.26,1721201333572
-1.77,-1.27,10.95,0.07,0.08,-0.16,1721201333582
-3.22,-3.74,7.34,-0.02,0.13,-0.02,1721201333592
-2.13,-2.25,11.12,0.00,0.18,0.00,1721201333602
-1.14,1.99,12.45,0.20,0.12,0.01,1721201333612
-0.66,2.09,11.14,0.07,0.29,-0.07,1721201333622
-3.00,-0.55,13.34,-0.06,-0.08,-0.22,1721201333632
-3.77,-0.86,13.54,0.00,0.07,-0.14,1721201333642
-3.65,2.06,8.20,0.20,-0.00,0.15,1721201333652
-2.55,-1.97,7.39,0.07,0.20,0.20,1721201333662
-0.10,0.95,12.84,0.20,0.02,0.18,1721201333672
2.50,2.48,7.58,0.28,0.06,-0.04,1721201333682
2.74,1.11,12.34,-0.05,0.20,-0.24,1721201333692
-3.34,6.04,14.71,0.27,-0.25,-0.34,1721201333702
-4.98,-0.83,3.73,0.15,-0.03,-0.12,1721201333712
-4.33,-0.52,11.34,0.06,0.06,0.22,1721201333722
-0.06,0.77,13.86,0.23,-0.01,0.38,1721201333732
-0.61,4.40,8.21,0.33,-0.19,0.22,1721201333742
1.82,4.72,9.05,0.19,0.07,-0.09,1721201333752
0.12,-0.36,10.07,0.12,-0.25,-0.12,1721201333762
-2.61,-0.28,9.22,0.22,0.03,-0.10,1721201333772
-1.72,1.88,9.50,0.19,-0.01,0.07,1721201333782
-2.96,0.04,6.47,0.08,-0.32,0.29,1721201333792
0.45,0.96,12.48,0.10,0.09,0.28,1721201333802
3.07,1.50,12.64,0.18,-0.15,0.15,1721201333812
0.65,3.78,5.45,0.14,-0.21,-0.05,1721201333822
1.01,-0.31,5.97,-0.09,0.10,-0.09,1721201333832
-1.90,-1.99,7.88,-0.15,-0.17,0.11,1721201333842
0.41,0.26,11.58,0.04,0.10,0.14,1721201333852
1.55,-5.03,8.09,-0.15,-0.23,0.17,1721201333862
-1.44,0.99,13.10,-0.13,-0.05,0.07,1721201333872
0.86,0.91,15.95,-0.11,0.11,-0.07,1721201333882
-3.44,-3.60,10.22,-0.21,-0.46,0.00,1721201333892
-2.99,-7.24,6.62,-0.25,0.02,0.17,1721201333902
0.03,-2.94,9.33,-0.15,0.06,0.32,1721201333912
1.09,-0.34,9.19,-0.21,-0.09,0.19,1721201333922
1.63,-0.96,11.77,-0.22,-0.08,0.08,1721201333932
3.19,1.30,14.81,-0.22,0.11,-0.18,1721201333942
-0.66,-4.66,7.31,-0.26,-0.31,-0.11,1721201333952
-3.37,-2.94,8.15,-0.33,0.12,-0.03,1721201333962
1.85,-1.68,13.53,-0.12,0.05,0.20,1721201333972
-0.02,2.99,6.10,0.02,-0.17,0.18,1721201333982
2.58,1.98,10.53,-0.14,0.21,0.02,1721201333992
3.11,-3.05,14.71,-0.23,-0.11,-0.09,1721201334002
-0.20,-1.13,10.68,-0.12,0.03,-0.24,1721201334012
0.11,1.96,9.37,0.08,0.09,-0.23,1721201334022
-0.55,-1.86,10.58,-0.05,0.01,-0.11,1721201334032
0.52,4.07,14.37,0.09,0.19,-0.13,1721201334042
0.40,1.78,11.47,0.06,0.01,-0.18,1721201334052
-0.49,-2.49,11.25,-0.14,0.10,-0.15,1721201334062
-0.98,1.83,11.37,0.18,0.13,-0.14,1721201334072
1.95,-1.20,5.87,0.16,0.09,-0.05,1721201334082
0.54,2.46,11.71,0.08,0.25,-0.17,1721201334092
0.76,4.06,13.07,0.27,0.04,-0.25,1721201334102
0.61,2.37,9.27,0.18,0.19,-0.18,1721201334112
-0.85,3.42,10.79,0.19,0.16,-0.11,1721201334122
0.84,3.73,10.90,0.28,0.29,-0.10,1721201334132
1.46,-2.66,6.08,0.24,0.12,-0.10,1721201334142
0.65,-3.99,6.39,0.17,0.29,-0.27,1721201334152
-0.67,-0.06,13.88,0.19,0.25,-0.42,1721201334162
-2.79,1.72,14.44,0.36,0.11,-0.23,1721201334172
-3.65,7.20,9.46,0.49,0.27,-0.06,1721201334182
-1.56,-0.96,3.37,0.05,0.16,0.12,1721201334192
-0.98,0.09,10.50,-0.06,0.35,-0.02,1721201334202
0.94,-3.70,11.13,-0.01,0.11,-0.01,1721201334212
-0.83,-1.45,13.82,0.04,0.26,-0.15,1721201334222
1.14,4.04,15.45,0.31,0.26,-0.10,1721201334232
-0.43,4.46,9.23,0.08,0.09,-0.04,1721201334242
-0.88,2.96,9.12,-0.13,0.14,-0.09,1721201334252
-0.48,-0.26,7.69,0.01,0.10,-0.12,1721201334262
-0.88,-3.80,4.43,-0.03,0.16,-0.17,1721201334272
-0.67,-0.46,13.28,-0.02,0.25,-0.18,1721201334282
-3.39,3.37,7.58,0.04,-0.06,-0.00,1721201334292
-1.28,1.57,13.88,-0.33,0.47,-0.14,1721201334302
-0.22,-3.40,16.56,-0.13,-0.18,0.09,1721201334312
0.28,-3.59,7.47,-0.04,0.27,0.20,1721201334322
2.59,-0.99,7.38,-0.08,0.18,-0.03,1721201334332
-0.51,-1.75,7.24,-0.03,-0.00,-0.41,1721201334342
-0.69,0.36,11.32,-0.03,0.24,-0.30,1721201334352
-2.78,5.17,16.21,0.01,0.10,-0.05,1721201334362
-4.90,-1.93,7.66,-0.09,-0.11,0.08,1721201334372
-1.05,-5.16,11.10,-0.16,0.26,0.17,1721201334382
2.40,-0.56,14.23,0.02,0.16,0.05,1721201334392
-1.93,2.64,7.69,0.02,-0.18,-0.09,1721201334402
-2.65,-1.53,4.07,-0.10,0.17,-0.16,1721201334412
-1.63,-5.96,12.91,-0.18,0.26,0.06,1721201334422
-1.28,0.48,15.61,0.17,-0.02,0.17,1721201334432
-0.78,1.96,3.00,0.18,-0.06,0.18,1721201334442
0.52,-2.44,6.65,-0.13,0.17,0.05,1721201334452
0.35,-2.20,17.57,-0.08,0.03,-0.06,1721201334462
-2.67,-3.36,15.19,0.18,-0.11,-0.06,1721201334472
-3.60,1.83,7.42,0.05,0.05,-0.02,1721201334482
-3.63,-0.46,6.88,-0.04,0.01,0.11,1721201334492
-1.92,-0.13,8.42,0.17,-0.04,0.26,1721201334502
1.54,-2.54,1.41,0.13,0.01,0.28,1721201334512
3.76,3.58,10.41,-0.08,0.20,-0.02,1721201334522
0.54,1.27,15.95,-0.21,-0.20,-0.42,1721201334532
-5.14,0.36,12.78,-0.04,-0.06,-0.43,1721201334542
-7.23,3.26,10.08,0.05,0.01,-0.00,1721201334552
-4.17,-0.34,8.81,-0.19,-0.04,0.37,1721201334562
-1.45,0.64,13.92,0.11,-0.26,0.53,1721201334572
2.17,2.02,6.90,0.26,-0.07,0.27,1721201334582
4.05,3.19,9.43,0.11,0.02,-0.02,1721201334592
0.14,8.98,12.06,0.11,-0.20,-0.35,1721201334602
-2.25,-0.90,8.23,-0.05,-0.25,-0.22,1721201334612
-4.36,0.69,13.06,0.00,0.03,0.09,1721201334622
-1.87,-1.34,8.53,-0.06,-0.29,0.35,1721201334632
-1.96,0.93,11.71,-0.11,-0.09,0.37,1721201334642
1.66,7.07,13.48,0.23,-0.05,0.26,1721201334652
1.77,1.26,5.70,-0.10,-0.32,0.13,1721201334662
-1.61,3.92,10.78,-0.04,-0.19,0.14,1721201334672
2.85,-1.31,11.36,-0.12,-0.01,0.16,1721201334682
-1.20,-2.62,9.29,-0.11,-0.52,0.27,1721201334692
-2.58,-1.09,8.74,0.02,-0.22,0.25,1721201334707
-1.81,-1.36,8.91,-0.06,-0.64,0.23,1721201334711
-1.82,-3.70,11.04,-0.15,0.15,0.18,1721201334721
-0.76,3.11,15.36,0.06,-0.35,0.19,1721201334731
-0.91,-0.00,2.83,0.05,-0.31,0.39,1721201334741
0.45,-4.44,8.13,-0.20,-0.05,0.40,1721201334751
2.12,-3.23,13.46,-0.01,-0.25,0.19,1721201334761
4.06,0.90,14.68,-0.01,-0.01,0.12,1721201334771
1.00,0.37,11.12,-0.13,-0.45,0.06,1721201334781
-2.08,-2.22,7.52,-0.04,-0.26,0.08,1721201334791
1.85,-1.68,7.28,-0.07,0.04,0.23,1721201334801
4.21,-0.16,13.97,-0.16,-0.13,0.13,1721201334811
1.98,-3.56,11.23,-0.04,-0.35,-0.13,1721201334821
-1.20,-1.06,6.98,-0.00,-0.09,-0.31,1721201334831
-0.39,4.17,12.22,0.02,-0.05,-0.09,1721201334841
1.01,-0.90,7.93,-0.12,-0.10,0.17,1721201334851
0.61,-3.06,11.21,-0.07,-0.16,0.03,1721201334861
3.78,-2.60,8.52,0.06,0.03,-0.14,1721201334871
0.78,0.24,10.08,-0.13,-0.10,-0.32,1721201334881
-0.28,1.99,16.67,-0.01,-0.08,-0.25,1721201334891
-0.26,4.96,8.81,0.15,-0.08,-0.14,1721201334901
0.19,-1.47,5.05,-0.10,0.04,-0.07,1721201334911
-1.33,-3.66,12.60,-0.13,0.03,-0.16,1721201334921
0.07,-2.50,16.61,0.04,0.01,-0.19,1721201334931
-0.84,0.66,11.30,0.18,-0.19,0.01,1721201334941
-0.61,2.07,5.54,0.20,-0.09,0.19,1721201334951
4.60,5.44,12.80,0.17,0.30,-0.10,1721201334961
2.99,1.00,11.20,0.21,-0.31,-0.30,1721201334971
-0.29,-0.50,9.05,0.12,0.14,-0.45,1721201334981
-2.25,1.03,11.76,0.21,-0.07,-0.26,1721201334991
-2.17,0.66,8.71,0.24,0.03,0.02,1721201335001
-0.07,1.82,7.34,0.21,0.03,0.14,1721201335011
1.53,4.01,9.38,0.17,0.07,-0.07,1721201335021
2.71,0.12,11.26,0.02,0.05,-0.23,1721201335031
0.01,-0.42,8.59,0.02,-0.07,-0.25,1721201335041
-0.48,0.47,9.46,0.03,0.14,-0.28,1721201335051
-0.39,-0.56,10.53,0.03,0.04,-0.20,1721201335061
0.83,1.39,11.58,0.03,0.15,-0.17,1721201335071
1.43,0.74,10.54,0.03,-0.02,-0.30,1721201335081
-0.55,2.14,9.94,0.01,0.05,-0.36,1721201335091
0.87,0.47,11.26,-0.02,0.19,-0.31,1721201335101
-0.74,0.70,9.52,-0.02,-0.05,-0.32,1721201335111
-2.42,1.51,6.05,0.08,0.03,-0.36,1721201335121
1.96,-5.53,7.85,-0.32,0.34,-0.34,1721201335131
-0.24,0.13,16.48,-0.05,0.01,-0.44,1721201335141
-1.80,0.29,6.06,0.10,0.11,-0.46,1721201335151
-2.09,-1.43,8.27,-0.23,0.31,-0.44,1721201335161
-2.58,0.21,13.26,-0.06,0.09,-0.37,1721201335171
-3.02,-0.45,10.69,-0.03,0.18,-0.33,1721201335181
-1.92,-1.35,10.87,-0.07,0.19,-0.31,1721201335191
-0.86,-0.98,7.80,-0.07,0.16,-0.31,1721201335201
-2.10,2.76,10.55,-0.00,0.23,-0.33,1721201335211
-0.80,-0.72,11.02,-0.09,0.18,-0.27,1721201335221
-1.32,-1.54,10.74,-0.05,0.11,-0.23,1721201335231
-2.42,-1.05,10.52,-0.04,0.22,-0.33,1721201335241
-1.95,1.12,10.00,-0.05,0.16,-0.35,1721201335251
-3.92,-0.25,8.54,-0.00,0.00,-0.26,1721201335261
-4.79,-2.04,10.17,-0.09,0.26,-0.22,1721201335271
-3.06,-2.96,15.49,-0.08,0.16,-0.03,1721201335281
-0.58,0.43,12.52,0.05,0.04,0.03,1721201335291
-0.71,0.52,6.24,0.08,0.03,-0.00,1721201335301
1.76,3.36,13.37,-0.03,0.36,-0.21,1721201335311
-0.37,1.51,12.54,0.11,-0.10,-0.23,1721201335321
-4.42,3.11,7.56,0.13,0.13,-0.23,1721201335331
-2.44,2.49,11.65,-0.06,0.10,0.00,1721201335341
-2.61,-0.61,12.13,0.05,-0.07,-0.00,1721201335351
-2.36,0.43,7.69,0.18,0.03,0.12,1721201335361
-0.46,1.12,8.68,0.07,0.08,0.11,1721201335371
-1.47,2.87,10.75,0.17,-0.26,0.14,1721201335381
0.12,-1.49,12.52,0.09,0.13,0.12,1721201335391
1.03,1.83,15.90,0.22,-0.12,0.23,1721201335401
0.01,1.38,6.64,0.24,-0.14,0.08,1721201335411
-0.14,1.66,13.12,0.10,0.01,0.09,1721201335421
-1.87,4.66,11.16,0.34,-0.24,0.06,1721201335431
-2.54,1.78,4.94,0.16,-0.18,0.10,1721201335441
-2.99,0.90,7.89,0.04,-0.15,0.30,1721201335451
-1.03,0.85,9.30,0.03,-0.16,0.38,1721201335461
1.11,2.41,10.14,0.05,-0.18,0.33,1721201335471
2.14,0.93,7.19,-0.07,-0.30,0.34,1721201335481
2.44,1.14,9.80,-0.15,-0.13,0.16,1721201335491
0.51,-0.30,11.23,-0.18,-0.27,0.05,1721201335501
-2.09,-1.97,8.17,-0.19,-0.31,0.12,1721201335511
-1.51,-1.12,14.04,-0.25,-0.14,0.32,1721201335521
1.14,-0.13,14.05,-0.02,-0.28,0.35,1721201335531
1.90,0.33,8.23,-0.08,-0.19,0.15,1721201335541
2.69,-0.48,7.38,-0.19,-0.20,0.06,1721201335551
-0.25,-3.57,7.76,-0.30,-0.25,-0.07,1721201335561
-0.93,-0.67,11.92,-0.05,-0.13,-0.06,1721201335571
0.64,-1.40,6.41,-0.13,-0.24,0.12,1721201335581
0.68,-2.23,13.19,-0.31,-0.10,0.05,1721201335591
1.69,-3.35,14.30,-0.20,-0.29,-0.00,1721201335601
1.50,0.34,11.27,-0.11,-0.01,-0.15,1721201335611
-0.43,1.47,9.70,-0.22,-0.18,-0.26,1721201335621
-1.09,-2.49,11.04,-0.21,-0.11,-0.05,1721201335631
-0.53,-2.87,12.46,-0.15,-0.07,-0.08,1721201335641
3.25,0.36,11.08,-0.04,-0.02,0.02,1721201335651
2.05,2.46,8.98,-0.09,-0.12,-0.16,1721201335661
3.64,1.64,12.04,-0.00,0.06,-0.27,1721201335671
0.24,3.39,11.37,0.08,-0.11,-0.41,1721201335681
1.33,-3.56,10.29,-0.10,0.15,-0.35,1721201335691
-3.31,5.03,12.61,0.11,-0.06,-0.44,1721201335701
-0.09,-3.06,8.58,0.10,0.02,-0.17,1721201335711
-1.01,0.47,11.68,0.05,0.15,-0.21,1721201335721
3.41,4.70,12.82,0.31,0.14,-0.25,1721201335731
2.48,6.35,10.26,0.19,0.10,-0.42,1721201335741
-0.27,-1.58,9.60,0.08,-0.03,-0.52,1721201335751
-1.91,-0.24,10.74,0.22,0.27,-0.51,1721201335761
-0.07,-2.44,9.89,0.23,0.12,-0.28,1721201335771
-1.13,3.40,9.17,0.37,0.10,-0.28,1721201335781
0.91,2.15,7.88,0.28,0.23,-0.46,1721201335791
-1.92,0.72,10.53,0.16,0.06,-0.46,1721201335801
-2.56,-0.74,9.56,0.13,0.26,-0.41,1721201335811
-1.83,0.14,13.61,0.09,0.28,-0.20,1721201335821
-1.43,3.08,10.72,0.18,0.11,-0.06,1721201335831
0.08,2.56,7.69,0.16,0.17,-0.13,1721201335841
2.85,0.49,7.42,0.05,0.28,-0.26,1721201335851
0.73,-1.65,5.46,-0.07,0.04,-0.32,1721201335861
-1.54,1.66,13.29,-0.13,0.44,-0.52,1721201335871
-0.25,4.30,17.46,0.18,0.09,-0.37,1721201335881
-1.68,1.55,-1.24,0.12,-0.06,-0.05,1721201335891
2.05,1.18,6.11,-0.20,0.64,-0.14,1721201335901
3.67,-2.85,16.34,-0.13,0.21,-0.53,1721201335911
-1.36,0.95,12.93,0.04,0.05,-0.53,1721201335921
-4.74,6.37,7.54,0.17,0.22,-0.50,1721201335931
-2.97,-1.03,7.15,-0.10,0.21,-0.20,1721201335941
-0.61,0.96,14.50,-0.15,0.37,-0.10,1721201335951
1.19,15.05,18.71,0.02,0.28,-0.24,1721201335961
-0.25,13.37,8.53,0.00,0.11,-0.55,1721201335971
-1.53,-22.69,0.48,-0.65,0.10,-0.58,1721201335981
-3.28,-15.00,13.83,-0.39,0.48,-0.34,1721201335991
5.93,-6.24,11.45,0.06,0.59,-0.04,1721201336001
0.27,-7.11,14.85,-0.31,0.43,-0.28,1721201336011
-6.26,13.70,14.01,0.33,-0.05,-0.24,1721201336021
-0.21,0.44,3.17,-0.09,0.53,-0.04,1721201336031
3.61,-5.70,15.43,-0.52,0.28,0.09,1721201336041
1.28,-7.37,7.09,0.13,-0.03,-0.31,1721201336051
0.07,-3.44,5.04,-0.08,0.41,-0.37,1721201336061
-5.88,0.57,9.22,0.20,0.04,-0.27,1721201336071
-5.35,-1.83,7.65,0.15,0.24,0.13,1721201336081
-0.20,1.78,10.37,0.04,0.34,0.31,1721201336091
2.89,-2.91,15.16,-0.30,0.22,0.06,1721201336101
-1.51,-2.19,17.63,0.07,-0.08,-0.26,1721201336111
-1.87,-8.50,1.26,0.25,0.13,-0.02,1721201336121
0.20,-13.44,22.07,-0.41,0.67,0.15,1721201336131
2.60,4.97,49.22,-0.15,0.02,0.01,1721201336141
-2.58,55.41,34.45,0.70,0.00,-0.31,1721201336151
-2.67,-4.49,-17.64,1.33,-0.29,-0.01,1721201336161
-7.87,-15.26,-26.47,-0.77,0.65,0.60,1721201336171
8.36,1.87,56.43,0.77,0.80,0.77,1721201336181
-3.11,4.94,23.51,1.52,-1.40,0.35,1721201336191
-19.34,-10.47,-12.34,0.06,-1.19,-0.06,1721201336201
1.98,17.86,13.76,0.37,1.10,-0.04,1721201336211
-0.40,7.61,5.68,0.36,-0.49,-0.07,1721201336221
-8.65,1.32,6.88,0.22,0.20,0.14,1721201336231
-3.42,1.48,4.10,0.64,-0.18,0.52,1721201336241
2.03,-4.60,-5.52,0.22,0.23,0.76,1721201336251
5.87,1.15,8.74,-0.01,0.07,0.45,1721201336261
6.51,3.39,10.93,0.08,-0.34,-0.19,1721201336271
-0.73,-0.90,5.54,0.08,-0.10,-0.53,1721201336281
-5.15,-4.35,12.25,-0.13,-0.05,-0.12,1721201336291
-5.32,3.19,10.04,0.27,-0.13,0.41,1721201336301
0.33,3.82,-4.66,-0.01,0.05,0.53,1721201336311
-0.20,-13.34,15.77,-1.31,0.10,0.10,1721201336321
-2.59,-3.62,65.97,-0.09,-0.13,-0.30,1721201336331
-6.38,3.98,13.42,1.11,-0.83,-0.20,1721201336341
-11.46,-5.51,-24.10,-0.31,0.21,0.76,1721201336351
-0.51,-11.64,15.01,-0.74,0.15,1.11,1721201336361
5.43,-5.87,35.08,0.47,-0.92,0.93,1721201336371
-3.54,4.03,-3.81,-0.14,-0.06,0.13,1721201336381
9.09,4.72,12.05,-0.37,0.20,-0.40,1721201336391
0.87,2.88,16.73,-0.33,-0.41,-0.60,1721201336401
-6.01,-5.36,7.90,-0.12,-0.31,-0.41,1721201336411
-6.72,-8.38,4.07,-0.16,-0.02,0.25,1721201336421
-1.43,-2.02,15.35,-0.15,0.38,0.41,1721201336431
0.35,2.39,12.26,-0.02,-0.37,0.35,1721201336441
3.66,4.77,10.77,-0.11,0.20,0.13,1721201336451
4.26,-1.12,12.73,-0.19,-0.13,-0.08,1721201336461
-0.18,-3.05,12.99,-0.11,-0.15,-0.14,1721201336471
-1.11,-4.36,10.18,-0.08,0.08,-0.23,1721201336481
-0.92,1.47,18.39,-0.01,-0.00,-0.14,1721201336491
1.14,2.16,9.54,0.15,-0.10,0.21,1721201336501
3.39,-0.38,12.23,-0.09,0.27,0.11,1721201336511
2.60,1.73,9.41,0.23,-0.12,-0.21,1721201336521
3.21,-3.19,6.00,-0.02,0.24,-0.41,1721201336531
-1.28,3.43,19.05,0.14,0.05,-0.38,1721201336541
-0.29,3.15,5.75,0.45,0.04,-0.08,1721201336551
0.99,-4.62,10.75,-0.08,0.25,-0.16,1721201336561
0.00,2.32,14.46,0.31,-0.00,-0.24,1721201336571
2.50,5.22,7.00,0.41,0.31,-0.28,1721201336581
0.58,4.54,8.97,0.30,0.06,-0.29,1721201336591
-2.56,-1.28,4.19,0.22,0.11,-0.32,1721201336601
-1.87,-1.86,5.67,0.04,0.40,-0.27,1721201336611
-0.06,3.09,13.39,0.21,0.27,-0.19,1721201336621
2.14,1.34,9.89,0.07,0.25,-0.09,1721201336631
0.51,3.69,16.53,0.13,0.27,-0.38,1721201336641
-2.27,-1.95,4.45,0.14,-0.07,-0.33,1721201336651
-2.39,3.46,10.89,-0.17,0.58,-0.32,1721201336661
-0.41,2.60,13.88,0.08,0.01,-0.21,1721201336671
-1.96,-2.87,4.83,-0.19,0.15,-0.13,1721201336681
-3.42,4.03,13.22,0.07,0.23,-0.17,1721201336691
0.99,-5.94,3.30,-0.29,0.09,0.00,1721201336701
2.15,8.63,23.32,0.11,0.04,-0.16,1721201336716
-0.34,3.05,12.57,0.20,-0.02,-0.35,1721201336720
-0.04,3.31,2.75,-0.23,0.41,-0.27,1721201336730
-1.58,3.65,15.15,-0.29,0.13,-0.16,1721201336740
-3.79,-6.34,6.86,-0.29,-0.06,-0.05,1721201336750
-0.74,-3.08,15.85,-0.31,0.48,0.04,1721201336760
-0.04,1.88,10.62,-0.10,-0.10,0.04,1721201336770
-2.63,9.63,5.69,-0.13,0.10,-0.15,1721201336780
-1.56,-3.73,5.24,-0.31,0.01,-0.10,1721201336790
-1.65,-10.81,13.83,-0.57,0.30,-0.00,1721201336800
-1.66,-5.41,14.63,-0.19,-0.10,-0.00,1721201336810
-2.08,0.51,11.52,-0.06,0.22,-0.15,1721201336820
-1.53,-0.18,10.66,-0.08,-0.01,0.10,1721201336830
-4.19,-1.25,8.42,-0.23,-0.02,0.20,1721201336840
-1.12,-8.67,17.05,-0.24,0.13,0.18,1721201336850
1.79,1.53,17.74,-0.08,0.11,0.11,1721201336860
0.33,4.19,9.27,0.08,-0.05,-0.06,1721201336870
-0.84,4.33,7.75,-0.02,0.11,0.00,1721201336880
-2.31,-4.97,8.13,-0.11,-0.14,0.14,1721201336890
1.54,-2.53,20.22,-0.23,0.26,0.15,1721201336900
1.67,6.10,18.89,0.26,-0.23,0.04,1721201336910
-2.36,9.30,2.98,0.39,-0.11,-0.08,1721201336920
-3.37,1.16,-0.34,0.19,-0.09,0.04,1721201336930
1.72,-6.45,20.43,-0.29,0.32,0.19,1721201336940
-0.53,8.96,26.45,0.41,-0.30,0.05,1721201336950
-0.06,11.98,-3.89,0.69,-0.14,-0.21,1721201336960
-3.32,1.62,3.29,-0.06,-0.06,-0.24,1721201336970
-4.04,2.86,12.22,0.51,0.15,0.09,1721201336980
1.92,-1.46,10.19,0.39,0.32,0.36,1721201336990
0.04,6.61,11.73,0.16,-0.17,0.07,1721201337000
-1.57,6.06,1.36,0.38,-0.55,-0.09,1721201337010
-0.73,0.26,3.88,-0.07,0.22,-0.04,1721201337020
-1.41,-2.19,11.11,-0.04,-0.34,0.15,1721201337030
-0.70,-0.46,5.37,-0.01,-0.11,0.04,1721201337040
-0.75,-4.33,11.99,-0.31,-0.07,-0.05,1721201337050
-5.52,3.21,12.18,-0.02,-0.42,0.17,1721201337060
-0.70,-0.77,7.35,-0.16,0.02,0.53,1721201337070
0.68,3.68,8.85,-0.23,-0.13,0.33,1721201337080
3.16,-1.51,11.36,-0.51,-0.01,0.08,1721201337090
-1.66,-4.28,18.42,-0.45,-0.55,0.02,1721201337100
-1.76,0.83,10.89,0.08,-0.27,0.25,1721201337110
2.24,2.64,4.84,-0.13,0.05,0.46,1721201337120
3.64,-0.87,14.91,-0.58,-0.21,0.34,1721201337130
-1.11,-6.99,14.94,-0.39,-0.61,-0.10,1721201337140
-1.83,-6.24,12.49,-0.09,-0.05,-0.09,1721201337150
0.35,-5.18,7.74,-0.35,-0.22,0.45,1721201337160
-2.75,7.74,12.81,-0.05,-0.12,0.38,1721201337170
3.38,2.60,6.59,-0.06,-0.10,0.14,1721201337180
5.46,-5.18,15.76,-0.56,0.09,-0.13,1721201337190
-0.84,-1.65,11.24,0.02,-0.48,-0.22,1721201337200
-0.15,-4.94,8.26,-0.15,-0.02,-0.14,1721201337210
0.27,5.46,14.00,0.10,-0.23,0.28,1721201337220
1.79,2.00,6.06,0.02,-0.16,0.10,1721201337230
3.12,-5.79,12.48,-0.33,0.03,-0.09,1721201337240
2.38,7.31,21.06,0.21,-0.08,-0.53,1721201337250
0.56,-0.45,5.80,0.33,-0.51,-0.26,1721201337260
-2.88,-7.69,-2.74,-0.08,0.18,0.08,1721201337270
1.03,0.86,19.23,0.14,0.29,-0.12,1721201337280
3.53,-1.28,19.74,0.19,-0.46,-0.10,1721201337290
-1.03,4.94,7.67,0.41,-0.30,0.16,1721201337300
6.14,8.25,5.31,0.48,0.57,-0.13,1721201337310
2.50,-1.09,3.35,0.12,-0.35,-0.36,1721201337320
-1.45,0.40,10.29,0.25,0.24,-0.42,1721201337330
-0.72,-4.28,12.41,0.11,-0.09,-0.24,1721201337340
-3.06,5.18,15.64,0.39,0.05,-0.09,1721201337350
2.74,1.40,4.64,0.41,-0.02,0.13,1721201337360
4.62,3.62,8.90,0.14,0.20,-0.01,1721201337370
4.19,2.17,4.81,0.31,-0.02,-0.54,1721201337380
-1.19,-4.43,10.41,-0.22,0.23,-0.82,1721201337390
-7.99,5.51,15.62,0.37,-0.23,-0.36,1721201337400
-0.19,3.15,-1.73,0.38,0.38,0.16,1721201337410
2.71,1.27,16.10,-0.31,0.33,-0.16,1721201337420
1.13,3.14,11.60,0.25,-0.42,-0.55,1721201337430
3.38,-0.26,-3.20,0.06,0.69,-0.67,1721201337440
-0.27,-3.09,11.56,-0.33,0.22,-0.56,1721201337450
-7.35,9.99,11.99,0.21,-0.01,-0.43,1721201337460
-0.69,2.83,3.51,0.18,0.36,-0.23,1721201337470
-1.60,-5.22,3.68,-0.46,0.07,-0.28,1721201337480
2.51,-4.95,18.77,-0.22,0.56,-0.22,1721201337490
2.35,-4.67,21.95,0.03,0.20,-0.58,1721201337500
-2.42,0.46,-0.96,0.21,-0.11,-0.53,1721201337510
-2.04,2.89,10.19,-0.16,0.87,-0.55,1721201337520
-0.80,7.44,16.62,0.06,0.23,-0.42,1721201337530
-3.60,-2.77,5.70,-0.02,0.15,-0.10,1721201337540
-0.40,-3.37,12.51,-0.15,0.40,-0.21,1721201337550
-1.80,-0.78,6.73,0.21,-0.01,-0.30,1721201337560
-1.33,3.28,11.51,-0.08,0.57,-0.40,1721201337570
-4.48,-2.32,14.74,-0.12,-0.22,-0.28,1721201337580
-5.41,-3.02,12.05,0.14,0.22,0.04,1721201337590
-0.06,-2.03,8.55,0.07,0.36,0.06,1721201337600
-3.94,6.63,1.10,0.20,-0.17,0.01,1721201337610
2.65,-1.79,9.49,-0.13,0.57,0.03,1721201337620
-0.75,-8.69,14.25,-0.19,-0.01,-0.18,1721201337630
-5.79,4.91,11.15,0.20,-0.02,-0.19,1721201337640
1.23,-1.20,9.02,-0.11,0.38,0.23,1721201337650
-1.89,5.68,20.94,0.09,-0.07,0.24,1721201337660
0.27,-0.37,2.99,0.32,-0.06,0.23,1721201337670
0.45,-4.34,4.07,-0.21,0.23,0.14,1721201337680
-0.65,-0.37,15.44,-0.04,-0.07,-0.17,1721201337690
-3.04,0.67,16.29,0.04,-0.11,-0.28,1721201337700
-4.51,7.58,8.15,0.37,-0.10,0.10,1721201337710
0.25,-3.43,-0.90,0.06,0.15,0.40,1721201337720
-0.84,-8.29,15.58,-0.28,0.24,0.30,1721201337730
0.48,8.19,22.30,0.39,-0.23,-0.02,1721201337740
-0.02,2.20,1.73,0.21,-0.11,-0.20,1721201337750
-6.65,3.36,9.66,0.00,-0.04,-0.01,1721201337760
-1.37,0.87,8.56,0.23,0.05,0.28,1721201337770
3.11,-4.49,9.87,-0.13,-0.06,0.38,1721201337780
0.55,5.75,12.48,0.12,-0.17,-0.08,1721201337790
0.41,-1.38,3.23,0.02,-0.19,-0.16,1721201337800
-2.53,1.96,13.54,-0.01,0.15,-0.01,1721201337810
0.11,2.45,13.21,0.07,-0.03,0.22,1721201337820
-0.88,0.02,11.77,-0.16,-0.28,0.23,1721201337830
-0.14,1.53,13.27,0.04,-0.18,0.28,1721201337840
0.39,4.48,4.44,0.10,-0.24,0.21,1721201337850
2.32,0.31,6.61,-0.15,0.02,0.10,1721201337860
3.16,-5.51,8.29,-0.19,-0.18,-0.05,1721201337870
-2.01,-1.90,2.03,-0.16,-0.13,-0.21,1721201337880
-2.86,-3.48,24.60,-0.51,0.19,-0.08,1721201337890
-4.36,-0.29,21.10,0.07,-0.46,0.49,1721201337900
-0.74,2.62,-0.70,0.03,0.10,0.44,1721201337910
5.03,-1.78,16.83,-0.54,0.07,0.00,1721201337920
-2.21,8.65,14.77,0.22,-0.55,-0.16,1721201337930
-1.74,-2.18,-1.36,-0.08,0.03,0.01,1721201337940
-5.39,-6.59,12.49,-0.22,-0.05,0.19,1721201337950
1.80,-3.55,11.06,0.03,-0.01,0.26,1721201337960
5.11,1.64,17.75,-0.21,0.02,0.04,1721201337970
0.73,2.33,12.18,-0.05,-0.50,-0.08,1721201337980
2.29,-1.96,9.88,-0.14,0.16,0.02,1721201337990
2.53,4.71,12.34,0.18,-0.08,0.02,1721201338000
-0.02,-0.42,0.53,-0.05,-0.39,-0.21,1721201338010
-1.49,-2.49,16.97,-0.32,0.07,-0.24,1721201338020
0.66,10.98,22.74,0.21,-0.16,-0.03,1721201338030
3.38,0.02,3.54,0.27,-0.25,0.10,1721201338040
-1.26,-11.32,-6.72,-0.28,-0.23,-0.05,1721201338050
-4.00,1.14,23.83,-0.28,0.57,-0.37,1721201338060
-2.77,6.39,17.61,0.29,-0.80,-0.36,1721201338070
-2.41,-9.25,-8.29,-0.07,0.20,-0.05,1721201338080
-3.84,2.22,20.73,-0.08,0.44,0.10,1721201338090
4.62,9.16,19.07,0.29,-0.39,0.00,1721201338100
1.84,-3.05,1.97,0.03,-0.08,-0.29,1721201338110
-0.35,-2.16,12.00,0.04,0.09,-0.33,1721201338120
-0.81,2.84,7.04,0.05,0.01,-0.34,1721201338130
-0.73,3.43,10.01,0.08,0.08,-0.20,1721201338140
0.40,-2.77,12.22,-0.09,0.22,-0.18,1721201338150
1.08,6.42,21.47,0.30,0.08,-0.05,1721201338160
1.73,-0.22,1.02,0.06,-0.06,-0.13,1721201338170
1.83,-1.95,8.71,-0.27,0.30,-0.39,1721201338180
2.43,5.53,19.78,0.14,0.19,-0.44,1721201338190
-0.92,1.15,3.27,0.18,-0.25,-0.22,1721201338200
-3.37,4.33,4.59,0.06,0.31,-0.27,1721201338210
1.32,-5.55,13.62,-0.13,0.32,-0.34,1721201338220
-3.07,1.96,10.48,0.11,-0.09,-0.34,1721201338230
-0.13,4.77,6.00,0.06,0.40,-0.23,1721201338240
2.56,2.34,15.47,-0.08,0.37,-0.37,1721201338250
-0.88,-4.47,9.49,-0.07,-0.12,-0.49,1721201338260
-3.17,1.42,9.98,0.02,0.32,-0.39,1721201338270
-0.98,3.09,9.43,0.11,0.27,-0.23,1721201338280
0.05,-1.34,9.62,-0.12,0.26,-0.22,1721201338290
1.21,-2.56,14.48,0.10,0.24,-0.20,1721201338300
0.73,3.71,6.42,0.19,0.22,-0.42,1721201338310
2.67,-2.81,11.96,-0.28,0.50,-0.44,1721201338320
-1.20,6.72,18.65,0.22,0.10,-0.55,1721201338330
-3.35,-0.12,1.50,0.15,0.15,-0.50,1721201338340
-3.52,-4.42,8.00,-0.16,0.45,-0.32,1721201338350
-2.99,1.56,14.07,0.17,0.28,-0.16,1721201338360
-0.54,0.70,9.89,-0.09,0.31,-0.21,1721201338370
-0.02,0.40,14.90,0.05,0.23,-0.17,1721201338380
-2.65,-1.24,5.13,0.02,0.34,-0.26,1721201338390
-1.31,-5.52,7.10,-0.10,0.21,-0.14,1721201338400
-3.12,-1.04,14.97,-0.12,0.40,-0.13,1721201338410
-1.83,3.54,14.25,0.21,0.18,-0.06,1721201338420
-0.87,1.83,1.89,0.15,0.07,0.17,1721201338430
1.32,-2.32,13.29,-0.16,0.46,0.04,1721201338440
0.79,5.30,17.57,0.02,0.16,-0.08,1721201338450
0.48,1.44,8.95,0.12,0.23,-0.20,1721201338460
-2.63,-2.51,8.93,-0.11,0.03,-0.11,1721201338470
-4.40,3.79,14.71,0.06,0.12,0.00,1721201338480
-3.04,1.98,7.47,0.18,-0.17,0.32,1721201338490
-2.11,7.05,13.50,-0.01,0.31,0.29,1721201338500
1.58,7.22,6.96,0.32,-0.08,0.23,1721201338510
2.20,-14.02,0.83,-0.36,0.19,0.10,1721201338520
2.82,-3.12,20.84,-0.16,0.12,-0.18,1721201338530
-2.96,9.36,6.31,0.36,-0.20,0.15,1721201338540
-0.11,1.51,7.36,-0.16,0.35,0.39,1721201338550
1.50,8.99,18.39,0.20,-0.20,0.15,1721201338560
1.36,-1.24,0.57,0.09,-0.09,0.05,1721201338570
-1.49,-0.81,6.56,-0.27,0.21,-0.08,1721201338580
-2.94,2.17,18.31,-0.08,-0.11,-0.06,1721201338590
-3.04,2.60,10.01,0.21,-0.21,0.44,1721201338600
0.49,-6.35,5.17,-0.22,0.06,0.58,1721201338610
0.97,5.07,13.03,-0.06,0.04,0.06,1721201338620
3.24,2.00,10.45,-0.03,-0.20,-0.00,1721201338630
-2.37,-1.50,5.95,-0.20,-0.21,0.15,1721201338640
-1.85,-3.07,5.24,-0.03,-0.04,0.20,1721201338650
1.66,-8.12,11.20,-0.41,0.02,0.26,1721201338660
-0.18,24.66,30.36,0.55,-0.47,-0.45,1721201339216
0.12,26.31,24.24,0.86,-0.48,-0.40,1721201339220
-5.81,-10.04,-17.87,0.52,-0.03,-0.12,1721201339229
-12.29,4.29,11.84,-0.13,0.71,0.22,1721201339239
-2.14,6.60,29.37,0.41,0.40,0.34,1721201339248
4.14,-4.01,3.24,-0.05,-1.02,-0.09,1721201339258
-5.11,12.69,17.51,0.11,0.24,-0.65,1721201339267
-1.65,3.01,7.59,0.31,-0.22,-0.52,1721201339277
-9.64,-8.58,4.71,0.02,-0.00,-0.11,1721201339286
-3.82,-1.85,18.66,0.35,0.28,0.35,1721201339296
0.84,4.19,10.53,0.47,-0.03,0.48,1721201339305
2.97,5.09,8.46,0.30,0.11,0.08,1721201339315
3.60,3.46,12.70,0.40,-0.04,-0.23,1721201339324
-0.78,4.81,6.79,0.41,-0.03,-0.34,1721201339334
-2.31,3.59,4.84,0.30,-0.01,-0.30,1721201339343
-3.26,-6.00,11.64,-0.04,0.04,-0.10,1721201339353
-6.66,4.18,13.71,0.42,-0.13,0.15,1721201339362
-1.09,3.61,-3.81,0.40,0.02,0.48,1721201339372
0.98,-1.65,-1.11,-0.05,-0.05,0.57,1721201339382
4.19,-2.96,7.51,-0.10,0.01,0.16,1721201339392
2.52,-2.31,7.52,-0.26,-0.16,-0.29,1721201339402
-2.86,0.84,13.95,-0.02,-0.19,-0.32,1721201339412
-5.95,-1.83,8.64,-0.17,-0.25,0.30,1721201339422
-4.11,4.45,18.46,-0.34,0.03,0.71,1721201339432
2.72,0.10,16.27,-0.21,-0.17,0.61,1721201339442
5.14,-9.79,4.90,-0.49,-0.16,0.18,1721201339452
1.84,1.85,13.55,-0.17,-0.12,-0.13,1721201339462
-1.23,-0.39,3.92,-0.09,-0.36,0.09,1721201339472
-1.72,1.15,8.47,-0.19,0.06,0.22,1721201339482
0.43,-2.43,11.54,-0.18,-0.24,0.11,1721201339492
-1.11,-0.55,11.47,-0.25,-0.17,0.01,1721201339502
-0.04,2.89,13.38,-0.09,-0.09,0.08,1721201339512
-1.29,0.07,8.14,-0.12,-0.30,0.22,1721201339522
1.12,-0.37,11.27,-0.02,0.08,0.20,1721201339532
2.33,-5.69,6.53,-0.13,-0.25,0.13,1721201339542
0.69,-0.94,13.88,-0.11,-0.03,-0.10,1721201339552
0.70,4.11,9.98,0.18,-0.26,-0.01,1721201339562
1.18,-0.05,5.60,-0.10,-0.02,0.11,1721201339572
2.28,0.57,12.28,0.13,-0.12,0.13,1721201339582
2.80,-6.35,4.87,-0.22,0.01,-0.08,1721201339592
1.20,-0.09,37.34,-0.29,0.20,-0.39,1721201339602
-0.32,11.40,28.52,0.52,-0.56,-0.06,1721201339612
-0.13,-2.45,-17.37,0.52,-0.04,0.22,1721201339622
14.34,-2.53,-1.23,-0.20,0.54,-0.04,1721201339632
18.17,7.02,18.55,0.54,0.37,-0.41,1721201339642
2.91,5.80,0.72,0.08,-0.40,-0.47,1721201339652
1.03,0.21,9.05,0.01,0.66,-0.41,1721201339662
0.85,-0.56,16.09,0.16,-0.10,-0.39,1721201339672
-3.88,-1.07,8.26,0.11,0.01,-0.33,1721201339682
-4.26,2.52,13.69,0.20,0.27,-0.23,1721201339692
0.50,5.19,13.86,0.32,0.19,-0.07,1721201339702
2.55,-0.61,2.33,0.23,0.09,-0.01,1721201339712
2.40,-1.73,9.09,-0.16,0.33,-0.43,1721201339722
1.06,8.72,21.22,0.16,0.13,-0.56,1721201339732
-1.68,3.42,1.57,0.29,-0.04,-0.33,1721201339742
-2.95,-4.81,4.95,-0.23,0.39,-0.27,1721201339752
-0.75,-3.20,16.86,-0.12,0.20,-0.24,1721201339762
2.04,0.35,12.18,-0.07,0.28,-0.04,1721201339772
-0.39,4.84,8.54,0.05,0.08,-0.20,1721201339782
0.63,3.91,2.95,0.14,0.31,-0.31,1721201339792
0.77,-3.31,7.21,-0.31,0.26,-0.31,1721201339802
-1.11,6.81,21.13,-0.04,0.25,-0.38,1721201339812
-1.76,-1.47,8.98,0.01,0.03,-0.29,1721201339822
-2.48,-6.67,6.02,-0.26,0.31,-0.16,1721201339832
-0.72,-1.37,8.22,0.09,0.29,-0.11,1721201339842
0.51,-6.91,-0.18,-0.10,0.21,-0.02,1721201339852
-0.78,8.31,22.91,-0.10,0.66,-0.45,1721201339862
-0.19,8.62,23.34,0.08,-0.09,-0.56,1721201339872
-6.93,-3.25,-6.43,0.04,-0.11,-0.12,1721201339882
0.15,-19.66,4.83,-0.61,0.79,0.07,1721201339892
0.45,-0.39,26.26,-0.09,-0.14,0.02,1721201339902
-3.70,14.65,11.27,0.18,-0.10,-0.17,1721201339912
1.03,5.18,-4.77,0.04,0.51,-0.36,1721201339922
6.35,8.65,13.53,-0.31,0.23,-0.24,1721201339932
-2.55,-8.31,9.19,-0.23,-0.01,0.04,1721201339942
-3.21,-4.98,9.14,-0.10,0.19,-0.06,1721201339952
-1.24,0.81,6.51,-0.00,0.15,0.04,1721201339962
-0.53,2.05,12.80,-0.15,0.37,0.06,1721201339972
-1.41,-1.60,16.70,-0.02,-0.09,0.04,1721201339982
-2.53,5.31,6.98,0.09,0.23,-0.04,1721201339992
-1.33,-0.14,8.72,-0.17,0.22,-0.09,1721201340002
-0.62,7.95,15.02,0.21,-0.01,0.12,1721201340012
-0.64,-7.35,-1.56,0.01,-0.22,0.23,1721201340022
-1.65,-0.46,8.17,-0.26,0.36,-0.04,1721201340032
-0.96,1.09,15.29,-0.01,0.03,-0.13,1721201340042
-2.64,-3.97,13.48,-0.18,0.08,0.03,1721201340052
-6.70,0.75,8.15,0.20,-0.19,0.24,1721201340062
1.71,6.00,11.78,0.20,0.51,0.49,1721201340072
1.57,5.54,2.03,0.17,-0.44,0.29,1721201340082
0.95,-11.19,17.37,-0.71,0.36,-0.14,1721201340092
-2.29,9.99,44.78,0.20,-0.44,-0.12,1721201340102
-3.37,9.80,-6.61,0.91,-0.44,0.20,1721201340112
-10.84,-13.97,-0.30,-0.47,0.04,0.45,1721201340122
6.35,5.32,13.22,-0.36,-0.11,0.48,1721201340132
5.18,21.48,-12.42,0.71,0.31,0.08,1721201340142
7.98,-4.13,1.01,-0.06,0.45,-0.48,1721201340152
-2.19,-5.33,22.91,0.05,-0.65,-0.22,1721201340162
-10.12,7.35,15.73,0.14,-0.12,0.07,1721201340172
-5.32,2.06,9.16,-0.02,0.07,0.63,1721201340182
2.56,1.24,11.04,0.18,-0.08,0.57,1721201340192
2.67,-0.45,2.86,-0.09,-0.20,0.24,1721201340202
5.23,1.34,17.70,-0.27,0.31,-0.42,1721201340212
-1.79,-1.66,10.44,0.07,-0.63,-0.37,1721201340222
-10.32,-0.62,-6.66,0.02,-0.26,0.09,1721201340232
-1.60,-3.77,7.97,-0.16,0.38,0.57,1721201340242
5.82,-0.62,15.61,-0.08,-0.23,0.46,1721201340252
4.31,-3.98,13.47,-0.15,-0.14,-0.06,1721201340262
0.21,-0.52,23.38,-0.24,-0.19,-0.35,1721201340272
-2.61,12.00,13.24,0.21,-0.22,-0.03,1721201340282
1.69,-4.67,-0.81,-0.25,0.02,0.34,1721201340292
0.57,-9.27,14.68,-0.29,0.18,0.01,1721201340302
1.62,-7.44,8.73,-0.09,-0.24,-0.37,1721201340312
-1.51,4.03,9.02,-0.02,-0.02,-0.15,1721201340322
-0.22,5.17,8.50,0.16,-0.12,0.21,1721201340332
3.08,4.02,7.98,0.04,0.03,0.20,1721201340342
3.24,0.18,10.86,-0.06,0.00,-0.08,1721201340352
2.73,-1.70,17.31,-0.09,0.13,-0.38,1721201340362
-3.58,-2.72,4.33,0.15,-0.50,-0.34,1721201340372
-2.03,-0.71,8.84,-0.01,0.43,-0.04,1721201340382
1.16,-2.86,15.54,0.06,-0.22,0.20,1721201340392
0.03,3.57,5.86,0.25,0.10,-0.10,1721201340402
3.13,-0.26,7.13,-0.03,0.18,-0.32,1721201340412
-0.48,-2.73,8.52,-0.07,-0.09,-0.16,1721201340422
-2.58,1.06,11.79,0.10,0.23,-0.25,1721201340432
1.21,-2.32,17.07,-0.03,0.11,0.06,1721201340442
-0.08,2.18,14.41,0.20,-0.08,0.13,1721201340452
2.55,0.27,10.83,0.13,0.14,-0.01,1721201340462
1.22,-3.40,8.86,-0.01,-0.21,-0.09,1721201340472
-0.02,8.78,8.92,0.36,0.28,-0.13,1721201340482
1.12,6.34,-0.39,0.27,0.07,-0.21,1721201340492
-0.97,-0.21,5.30,0.04,0.16,-0.20,1721201340502
2.06,-8.81,22.12,-0.42,0.56,-0.18,1721201340512
-1.88,9.90,25.13,0.37,-0.33,-0.18,1721201340522
-1.36,-0.01,-3.11,-0.04,0.11,-0.03,1721201340532
0.78,-0.06,14.37,-0.19,0.33,-0.13,1721201340542
0.46,5.87,2.58,0.23,-0.40,-0.16,1721201340552
-3.58,-6.10,6.33,-0.44,0.48,-0.37,1721201340562
-5.09,-1.83,18.16,0.02,-0.13,-0.20,1721201340572
1.43,1.98,3.99,0.14,0.51,0.26,1721201340582
3.68,7.02,13.63,-0.19,0.08,0.10,1721201340592
0.92,-1.47,6.34,-0.13,-0.29,-0.28,1721201340602
2.63,-2.39,18.54,-0.14,0.62,-0.56,1721201340612
-1.54,-1.46,14.79,-0.03,-0.17,-0.47,1721201340622
-8.70,10.68,-3.64,0.34,0.01,0.10,1721201340632
-0.09,-2.79,3.79,-0.19,0.55,0.22,1721201340642
6.13,-5.92,19.10,-0.01,0.06,0.13,1721201340652
-1.23,-10.39,13.24,-0.36,0.12,-0.31,1721201340662
-2.68,6.20,16.37,0.14,0.29,-0.43,1721201340672
-4.20,-0.50,-2.94,-0.14,-0.04,-0.26,1721201340682
0.88,-4.41,22.17,-0.41,0.35,0.22,1721201340692
3.25,6.04,21.81,0.35,0.21,0.23,1721201340702
3.39,-4.12,-2.25,0.12,-0.02,-0.01,1721201340712
0.67,8.10,8.83,-0.03,0.43,-0.12,1721201340722
-2.06,-0.20,14.96,-0.08,-0.11,-0.50,1721201340732
-2.35,6.26,25.66,0.32,-0.03,-0.39,1721201340742
-1.89,-10.32,-5.43,0.27,-0.21,-0.04,1721201340752
-5.57,-10.69,5.59,-0.50,0.38,0.04,1721201340762
6.38,14.70,21.00,0.25,0.55,0.16,1721201340772
-1.11,2.62,14.42,0.28,-0.11,0.06,1721201340782
-5.72,-14.09,-4.72,-0.12,-0.13,0.03,1721201340792
2.04,-2.94,15.88,-0.05,0.59,0.04,1721201340802
-4.29,1.72,22.82,0.09,0.21,-0.16,1721201340812
-4.40,8.83,14.67,0.41,-0.39,-0.17,1721201340822
-2.21,1.20,5.81,0.38,0.08,-0.09,1721201340832
-2.51,-6.34,2.15,0.01,0.09,0.12,1721201340842
0.17,-0.23,15.44,0.01,0.32,0.13,1721201340852
1.44,1.77,13.56,-0.07,-0.19,-0.03,1721201340862
-2.64,6.31,10.34,0.25,-0.03,-0.13,1721201340872
0.09,3.96,8.31,0.38,0.15,0.10,1721201340882
-0.18,3.79,4.97,-0.00,-0.07,0.30,1721201340892
1.00,-5.90,12.66,-0.41,0.18,-0.22,1721201340902
-4.07,-2.31,21.31,-0.13,-0.15,-0.55,1721201340912
-9.22,1.68,8.48,0.21,-0.21,-0.01,1721201340922
-4.03,2.38,0.11,0.15,-0.01,0.85,1721201340932
5.15,3.20,10.96,-0.15,0.37,0.68,1721201340942
6.62,5.89,20.27,-0.13,-0.13,-0.03,1721201340952
-0.34,-2.10,7.66,-0.09,-0.34,-0.59,1721201340962
-6.37,-1.47,3.18,-0.12,-0.09,-0.31,1721201340972
-6.47,-2.01,3.94,-0.19,-0.11,0.32,1721201340982
-2.53,-2.10,10.60,-0.20,0.03,0.48,1721201340992
1.21,0.53,14.02,-0.16,-0.17,0.25,1721201341002
-0.05,-4.34,5.80,-0.23,-0.23,0.08,1721201341012
1.14,-3.24,10.42,-0.36,0.19,0.03,1721201341022
0.37,1.46,12.99,-0.08,-0.32,0.09,1721201341032
-0.26,3.45,7.77,0.04,-0.11,0.25,1721201341042
3.07,-0.70,8.86,-0.28,0.10,0.19,1721201341052
-0.46,-2.55,23.38,-0.40,-0.22,-0.07,1721201341062
-2.76,6.50,17.53,0.11,-0.20,-0.02,1721201341072
0.68,-1.60,-2.86,0.03,-0.12,0.32,1721201341082
1.82,-0.50,12.87,-0.16,0.21,0.20,1721201341092
3.49,-0.26,16.61,0.12,-0.11,-0.03,1721201341102
1.55,-1.22,8.00,0.21,-0.13,-0.01,1721201341112
1.57,3.12,13.89,-0.10,0.21,-0.22,1721201341122
-0.30,3.13,11.41,0.20,-0.25,-0.10,1721201341132
-1.22,-5.32,4.14,0.10,-0.10,0.06,1721201341142
1.85,-1.54,11.66,0.19,0.30,0.06,1721201341152
2.85,0.88,13.64,0.20,-0.08,-0.03,1721201341162
0.47,8.02,11.36,0.38,0.05,-0.10,1721201341172
1.30,-2.16,9.20,0.08,0.03,-0.08,1721201341182
0.24,-2.35,12.11,0.19,0.06,-0.05,1721201341192
1.49,0.60,9.20,0.33,0.11,-0.16,1721201341202
1.41,8.39,12.51,0.39,0.15,-0.21,1721201341217
0.14,8.54,8.50,0.48,0.16,-0.18,1721201341221
2.75,-5.53,7.30,0.13,0.18,-0.11,1721201341231
-1.13,0.67,13.79,0.15,0.09,-0.24,1721201341241
-0.55,1.13,7.18,0.26,0.10,-0.26,1721201341251
-0.72,0.67,8.59,0.04,0.23,-0.21,1721201341261
-1.64,2.08,10.10,0.18,0.00,0.01,1721201341271
0.54,-1.09,6.81,0.01,0.29,-0.05,1721201341281
0.76,-0.48,11.53,-0.06,0.18,-0.17,1721201341291
-0.63,0.68,13.80,-0.05,0.23,-0.36,1721201341301
-1.20,1.36,13.92,0.01,0.09,-0.19,1721201341311
-1.71,5.51,5.38,0.15,0.15,0.06,1721201341321
0.74,-0.28,5.10,-0.14,0.24,-0.05,1721201341331
1.98,-4.05,15.03,-0.31,0.17,-0.13,1721201341341
-0.54,4.01,11.78,0.13,-0.00,-0.23,1721201341351
0.11,1.07,5.26,-0.16,0.28,-0.23,1721201341361
-1.38,0.22,16.46,-0.09,0.07,-0.10,1721201341371
-2.55,-2.87,5.47,-0.02,0.01,-0.09,1721201341381
-0.44,-0.49,13.79,-0.18,0.46,-0.14,1721201341391
0.02,4.24,13.73,0.15,-0.02,-0.10,1721201341401
-1.16,-0.91,3.71,-0.14,0.08,-0.05,1721201341411
-1.56,-0.07,10.00,-0.06,0.11,-0.04,1721201341421
0.04,-1.67,9.81,0.00,0.27,-0.15,1721201341431
-0.42,0.00,13.17,-0.17,0.13,-0.17,1721201341441
-3.90,0.53,9.87,0.03,-0.03,-0.14,1721201341451
-3.74,1.76,9.80,0.01,0.24,-0.11,1721201341461
-1.10,-1.43,9.09,0.02,0.11,0.18,1721201341471
0.89,-3.33,7.43,-0.21,0.19,0.18,1721201341481
0.28,-0.93,14.02,-0.04,-0.00,-0.09,1721201341491
0.16,3.51,8.20,0.12,0.09,-0.25,1721201341501
-0.68,2.14,12.95,0.00,0.29,-0.14,1721201341511
-3.23,0.33,12.31,0.03,-0.18,0.18,1721201341521
-4.53,2.91,9.20,0.03,0.01,0.03,1721201341531
0.51,2.08,10.89,0.06,0.13,-0.03,1721201341541
-0.86,-2.30,8.11,-0.00,-0.13,-0.01,1721201341551
-5.18,4.05,7.23,0.10,-0.05,-0.06,1721201341561
-1.92,-5.29,10.17,-0.12,0.14,0.09,1721201341571
-3.55,3.20,15.67,0.14,-0.03,0.14,1721201341581
-0.36,2.18,6.68,0.16,0.08,0.07,1721201341591
0.27,-0.44,11.46,-0.09,0.06,0.09,1721201341601
-1.13,4.01,8.70,0.30,-0.21,0.14,1721201341611
0.81,0.11,9.15,0.00,-0.02,0.23,1721201341621
-0.21,5.90,15.34,0.19,-0.19,0.07,1721201341631
0.42,2.17,8.38,0.23,-0.09,0.02,1721201341641
-1.94,0.43,7.99,-0.06,-0.15,0.02,1721201341651
-3.79,1.70,10.67,-0.02,-0.17,0.06,1721201341661
-0.32,1.35,9.63,0.18,0.06,0.27,1721201341671
1.61,-0.17,7.79,-0.01,-0.10,0.28,1721201341681
-0.40,-0.60,4.47,-0.13,-0.30,0.18,1721201341691
1.13,1.95,19.76,-0.23,0.26,-0.07,1721201341701
0.33,6.72,22.17,0.22,-0.34,-0.02,1721201341711
-2.84,3.22,-4.96,0.08,-0.49,0.27,1721201341721
-0.73,-2.55,10.03,-0.41,0.28,0.18,1721201341731
-1.24,2.03,20.48,-0.12,-0.53,0.09,1721201341741
-0.90,5.59,5.03,-0.01,-0.08,0.02,1721201341751
0.15,-2.65,12.47,-0.20,-0.04,0.10,1721201341761
-0.28,-4.70,7.24,-0.15,-0.27,0.20,1721201341771
-2.48,3.72,7.59,-0.15,-0.13,0.11,1721201341781
1.41,3.21,18.53,-0.06,0.04,0.06,1721201341791
1.46,-5.21,9.71,-0.03,-0.34,0.29,1721201341801
-0.54,-1.11,5.69,-0.13,-0.09,0.09,1721201341811
2.34,-1.92,15.16,-0.20,-0.08,0.05,1721201341821
-0.69,2.64,9.80,-0.04,-0.36,0.14,1721201341831
-0.43,2.47,5.39,0.03,-0.03,0.12,1721201341841
2.79,0.79,10.43,-0.06,-0.04,0.12,1721201341851
2.72,0.82,13.67,-0.09,-0.13,-0.06,1721201341861
1.67,-0.82,10.93,-0.00,-0.19,-0.06,1721201341871
-2.13,-0.92,7.92,-0.02,-0.24,-0.02,1721201341881
-1.22,-0.54,11.28,-0.02,0.10,0.01,1721201341891
1.17,-1.21,11.53,0.09,-0.21,0.12,1721201341901
0.62,0.51,11.00,-0.07,-0.11,0.08,1721201341911
-0.24,0.37,15.38,0.06,-0.20,-0.05,1721201341921
0.62,-0.42,7.23,0.12,0.06,0.03,1721201341931
-0.22,4.04,7.90,0.20,-0.06,-0.08,1721201341941
2.18,-5.05,4.67,-0.01,0.01,-0.12,1721201341951
-0.40,3.22,19.16,0.12,0.06,-0.29,1721201341961
-0.38,1.54,7.47,0.42,-0.36,-0.03,1721201341971
0.42,-4.16,5.25,-0.07,0.23,-0.02,1721201341981
1.59,6.90,19.71,0.36,0.05,-0.12,1721201341991
0.81,-2.06,2.17,0.23,-0.27,-0.16,1721201342001
-1.35,-4.26,8.13,-0.14,0.18,-0.22,1721201342011
-1.29,2.77,15.86,0.23,-0.12,-0.21,1721201342021
0.85,0.60,3.77,0.12,0.00,0.06,1721201342031
1.51,-0.73,13.02,-0.09,0.11,-0.10,1721201342041
0.73,4.36,17.30,0.26,-0.03,-0.47,1721201342051
-0.05,-0.07,2.55,0.07,0.03,-0.35,1721201342061
-1.61,-2.18,10.06,-0.20,0.17,-0.14,1721201342071
-0.30,3.22,15.69,0.15,0.05,-0.16,1721201342081
0.99,-2.05,4.90,-0.03,0.00,-0.13,1721201342091
-1.63,1.14,10.02,-0.02,-0.02,-0.11,1721201342101
1.52,0.25,7.75,-0.05,0.14,-0.19,1721201342111
-1.28,3.29,12.68,-0.12,0.01,-0.24,1721201342121
-0.68,-0.47,12.47,-0.04,0.07,-0.22,1721201342131
-1.14,-0.99,8.75,-0.07,0.08,-0.18,1721201342141
-0.35,-4.01,9.79,-0.22,0.21,-0.17,1721201342151
1.30,2.12,17.26,0.01,0.15,-0.13,1721201342161
0.54,-0.40,9.61,-0.01,-0.13,-0.29,1721201342171
-3.29,0.62,3.24,0.06,-0.14,-0.29,1721201342181
-1.71,0.21,8.01,-0.06,0.42,-0.20,1721201342191
-0.54,2.15,16.05,-0.03,0.08,-0.16,1721201342201
0.25,-0.79,9.84,0.02,0.03,-0.19,1721201342211
-1.03,-1.91,7.29,-0.09,0.08,-0.28,1721201342221
-3.34,1.16,11.42,0.02,0.15,-0.43,1721201342231
-2.20,1.76,13.05,0.00,0.08,-0.21,1721201342241
-3.62,-0.39,7.80,-0.05,-0.16,-0.04,1721201342251
-4.45,-2.44,1.93,0.05,0.05,-0.01,1721201342261
2.42,-3.67,13.14,-0.25,0.50,-0.12,1721201342271
-0.15,5.14,16.22,0.10,-0.18,-0.14,1721201342281
-0.60,0.79,2.45,0.11,0.01,-0.15,1721201342291
-2.52,0.78,15.26,-0.09,0.18,-0.05,1721201342301
-0.91,6.62,16.65,0.22,-0.07,-0.04,1721201342311
-0.70,-0.14,3.11,0.02,-0.32,0.02,1721201342321
-2.54,-0.80,6.28,0.09,0.06,-0.03,1721201342331
0.51,-0.81,11.13,-0.01,0.14,-0.08,1721201342341
-1.84,1.09,8.53,0.13,-0.23,-0.09,1721201342351
-1.18,-3.00,7.51,-0.03,0.23,-0.03,1721201342361
0.39,-0.75,16.91,-0.06,0.06,0.01,1721201342371
-1.14,5.06,11.26,0.29,-0.24,0.10,1721201342381
-0.55,0.88,7.79,0.06,0.14,-0.10,1721201342391
-1.02,1.87,9.08,0.15,-0.26,-0.09,1721201342401
-1.12,-1.57,7.87,0.01,0.03,0.01,1721201342411
-0.55,0.88,15.21,0.10,-0.04,0.03,1721201342421
-0.75,2.99,8.12,0.18,-0.09,-0.03,1721201342431
-0.18,1.51,7.63,0.05,-0.02,-0.09,1721201342441
-0.64,-0.60,10.55,0.01,-0.07,-0.11,1721201342451
-2.02,1.66,13.00,0.03,-0.04,-0.13,1721201342461
-2.55,5.41,10.96,0.16,-0.12,0.04,1721201342471
-0.87,0.42,9.31,-0.01,-0.06,0.23,1721201342481
-0.05,-1.85,10.01,-0.04,-0.14,0.19,1721201342491
1.05,1.09,9.86,-0.00,-0.10,0.08,1721201342501
0.45,-0.97,7.37,-0.08,-0.17,-0.06,1721201342511
-1.34,-5.08,8.53,-0.19,-0.15,0.00,1721201342521
-0.44,1.75,14.06,-0.08,0.09,-0.06,1721201342531
-0.09,1.23,10.05,-0.05,-0.26,0.03,1721201342541
1.09,-4.28,10.72,-0.28,0.05,0.12,1721201342551
-0.87,2.41,13.47,-0.03,-0.12,-0.08,1721201342561
-1.52,-3.45,6.41,-0.20,-0.26,-0.03,1721201342571
-0.99,-3.07,8.43,-0.11,-0.09,0.19,1721201342581
0.51,-0.84,12.95,-0.09,-0.00,0.00,1721201342591
1.93,-1.47,9.45,-0.08,-0.26,0.02,1721201342601
-0.34,-3.85,5.87,-0.22,-0.11,-0.19,1721201342611
-0.52,-1.16,13.58,-0.15,0.03,-0.24,1721201342621
0.57,-0.47,8.85,-0.07,-0.14,-0.05,1721201342631
-0.16,-3.15,14.38,-0.27,0.01,0.10,1721201342641
-0.21,6.20,14.22,0.06,-0.11,-0.03,1721201342651
2.63,0.69,4.08,-0.05,-0.04,-0.04,1721201342661
-0.38,-0.52,11.09,-0.18,0.04,-0.25,1721201342671
-0.69,2.73,11.90,0.10,-0.12,-0.15,1721201342681
-0.14,1.80,10.08,-0.04,0.08,-0.08,1721201342691
-0.77,-1.99,9.45,0.05,-0.26,0.04,1721201342701
2.78,1.87,11.11,0.05,0.28,-0.15,1721201342711
2.95,1.89,14.61,0.06,-0.08,-0.26,1721201342721
-1.42,4.67,8.80,0.23,-0.14,-0.28,1721201342731
0.06,-0.99,9.43,0.15,0.14,-0.27,1721201342741
-1.46,-0.23,8.84,0.18,-0.08,-0.14,1721201342751
0.78,0.37,11.52,0.14,0.20,-0.15,1721201342761
0.48,1.76,12.23,0.29,-0.11,-0.16,1721201342771
0.91,3.27,7.69,0.33,0.10,-0.26,1721201342781
1.08,-3.87,8.04,0.10,0.08,-0.36,1721201342791
-1.17,2.97,12.81,0.19,0.11,-0.38,1721201342801
0.75,1.13,12.55,0.15,0.18,-0.20,1721201342811
-0.33,3.48,10.85,0.16,-0.02,-0.19,1721201342821
-0.09,3.30,7.36,0.17,0.15,-0.26,1721201342831
0.34,-4.55,8.12,-0.07,0.16,-0.43,1721201342841
-1.69,1.63,12.39,-0.01,0.19,-0.34,1721201342851
-1.39,1.30,8.70,0.02,0.09,-0.21,1721201342861
-1.86,0.93,6.51,0.03,0.12,-0.11,1721201342871
1.24,2.12,11.66,-0.10,0.38,-0.24,1721201342881
0.85,2.26,13.74,-0.03,-0.05,-0.26,1721201342891
-1.97,-1.30,9.11,-0.16,0.15,-0.34,1721201342901
-0.37,1.26,12.69,-0.06,0.21,-0.25,1721201342911
-0.69,0.15,6.55,-0.06,0.05,-0.16,1721201342921
-1.64,-0.34,11.33,-0.16,0.24,-0.29,1721201342931
-1.34,1.30,10.70,0.02,0.08,-0.21,1721201342941
-0.44,0.61,10.77,-0.15,0.28,-0.22,1721201342951
-2.10,-0.36,11.53,-0.09,-0.15,-0.15,1721201342961
-2.53,-0.92,1.63,0.06,0.11,-0.13,1721201342971
1.11,-3.28,11.33,-0.24,0.36,-0.15,1721201342981
-1.04,-0.31,14.85,-0.00,-0.10,-0.26,1721201342991
-3.42,2.29,9.38,-0.04,0.12,-0.20,1721201343001
-1.85,1.62,11.21,0.03,0.16,-0.15,1721201343011
-0.54,-4.46,8.30,-0.14,-0.04,0.15,1721201343021
-2.73,0.91,11.33,0.03,0.08,0.02,1721201343031
2.07,-1.46,9.84,0.05,0.11,0.01,1721201343041
0.36,-0.65,10.74,-0.14,-0.01,-0.11,1721201343051
-1.38,1.07,12.87,0.03,-0.06,-0.10,1721201343061
0.12,2.45,9.45,0.03,0.16,-0.04,1721201343071
-1.71,2.50,10.04,0.03,-0.10,-0.04,1721201343081
-0.73,-4.05,10.00,-0.02,0.01,-0.01,1721201343091
-0.52,1.16,13.21,0.04,0.10,0.07,1721201343101
-0.57,1.68,9.63,0.09,-0.04,-0.05,1721201343111
-1.24,1.67,11.76,0.08,-0.05,-0.07,1721201343121
-1.65,-0.48,8.53,0.12,-0.04,-0.06,1721201343131
-1.33,-0.85,12.27,0.05,0.04,0.00,1721201343141
-0.38,0.12,8.68,0.11,-0.09,0.05,1721201343151
-1.81,4.83,9.40,0.09,-0.07,-0.07,1721201343161
0.90,4.18,10.60,0.15,0.05,-0.06,1721201343171
-0.38,-3.21,7.04,0.03,-0.16,-0.02,1721201343181
-1.47,0.26,11.56,-0.05,-0.02,-0.01,1721201343191
-1.36,3.55,9.36,0.12,-0.19,0.03,1721201343201
1.21,0.82,12.24,0.00,0.09,0.06,1721201343211
1.04,0.72,8.25,0.11,-0.08,0.03,1721201343226
0.31,3.36,7.38,0.02,-0.02,-0.06,1721201343230
-1.05,2.28,13.61,-0.03,-0.24,-0.16,1721201343240
-3.04,0.85,9.54,-0.04,-0.19,-0.01,1721201343250
-2.78,1.22,8.33,0.06,-0.17,0.21,1721201343260
0.44,-1.02,8.29,-0.07,-0.05,0.25,1721201343270
1.61,2.48,11.24,-0.00,-0.27,0.17,1721201343280
1.99,1.38,7.20,-0.11,-0.14,-0.05,1721201343290
1.09,2.11,13.79,-0.07,-0.16,-0.18,1721201343300
-0.11,-1.49,8.67,0.04,-0.24,-0.04,1721201343310
-2.61,-4.21,7.78,-0.23,-0.24,0.15,1721201343320
0.21,0.82,17.93,-0.08,0.02,0.11,1721201343330
2.13,0.66,13.37,0.05,-0.35,0.01,1721201343340
0.56,-2.64,4.59,-0.11,-0.22,-0.11,1721201343350
0.77,-0.80,9.48,-0.07,0.03,-0.19,1721201343360
-0.08,2.85,15.43,-0.05,-0.06,-0.24,1721201343370
-1.41,-3.34,10.33,-0.09,-0.31,-0.04,1721201343380
-0.38,-4.89,4.91,-0.10,-0.05,0.03,1721201343390
3.50,-3.12,12.79,-0.21,0.19,-0.08,1721201343400
2.54,3.34,15.97,-0.03,-0.16,-0.23,1721201343410
0.17,0.65,6.93,0.05,-0.22,-0.33,1721201343420
-0.54,-6.19,7.12,-0.16,-0.02,-0.27,1721201343430
-1.81,-2.09,11.56,-0.13,0.01,-0.19,1721201343440
-0.90,1.25,14.54,-0.11,-0.01,-0.13,1721201343450
1.81,2.83,8.37,0.05,-0.12,-0.02,1721201343460
0.97,-2.82,7.39,-0.10,-0.03,-0.15,1721201343470
1.05,3.84,14.59,0.05,0.23,-0.35,1721201343480
1.44,-1.10,12.19,-0.06,-0.09,-0.31,1721201343490
-3.29,1.06,11.84,-0.04,-0.13,-0.19,1721201343500
-1.36,3.59,5.33,0.22,0.01,0.04,1721201343510
3.14,1.97,8.01,0.02,0.23,-0.04,1721201343520
2.60,-3.60,12.50,-0.04,-0.19,-0.27,1721201343530
-0.05,1.59,11.60,0.16,0.10,-0.42,1721201343540
0.95,0.30,11.40,0.15,0.09,-0.27,1721201343550
-0.98,3.02,13.90,0.17,-0.02,-0.11,1721201343560
0.09,3.97,9.37,0.32,-0.01,-0.06,1721201343570
1.94,0.42,10.83,0.10,0.12,-0.16,1721201343580
-0.15,2.02,10.66,0.13,-0.08,-0.29,1721201343590
-0.92,1.07,6.16,0.12,0.09,-0.40,1721201343600
-0.67,-0.62,10.82,0.06,0.24,-0.37,1721201343610
-1.19,2.93,8.62,0.16,-0.03,-0.18,1721201343620
-0.91,0.60,6.33,-0.02,0.12,-0.15,1721201343630
-0.20,-0.63,15.67,-0.16,0.12,-0.19,1721201343640
0.03,2.31,12.65,0.15,0.01,-0.16,1721201343650
1.84,-0.74,5.58,-0.06,0.14,-0.18,1721201343660
0.25,4.28,14.55,-0.01,0.13,-0.37,1721201343670
-0.52,0.87,12.15,0.01,0.01,-0.39,1721201343680
-4.20,1.38,3.23,0.09,-0.12,-0.26,1721201343690
-0.96,-2.99,7.88,-0.25,0.39,-0.15,1721201343700
1.43,-1.11,16.63,-0.16,0.02,-0.07,1721201343710
1.47,0.64,9.06,0.06,-0.05,-0.26,1721201343720
0.48,-3.06,6.65,-0.23,0.09,-0.41,1721201343730
-0.26,-1.18,14.24,-0.10,0.13,-0.40,1721201343740
-1.18,1.17,9.27,-0.00,0.07,-0.28,1721201343750
-2.56,-1.38,12.19,-0.20,0.04,-0.24,1721201343760
-2.61,0.43,11.40,0.05,-0.03,-0.16,1721201343770
-0.46,-1.38,10.65,-0.06,0.20,-0.10,1721201343780
-0.64,-3.51,9.39,-0.21,-0.15,-0.17,1721201343790
-3.48,0.17,8.52,0.02,-0.08,-0.16,1721201343800
2.07,0.78,12.06,-0.10,0.37,-0.18,1721201343810
-0.59,3.83,11.14,0.12,-0.40,-0.06,1721201343820
-1.93,-0.77,4.83,-0.13,0.11,-0.11,1721201343830
-0.71,0.52,16.32,-0.06,0.04,-0.19,1721201343840
-0.50,2.75,8.94,-0.01,-0.13,-0.09,1721201343850
-2.61,-1.17,9.22,-0.10,-0.10,-0.12,1721201343860
0.37,-2.05,11.63,-0.00,-0.05,-0.05,1721201343870
0.46,-1.02,8.97,0.05,-0.07,0.05,1721201343880
-0.44,0.72,8.93,0.01,-0.00,-0.12,1721201343890
0.64,1.29,11.82,0.11,-0.08,-0.14,1721201343900
-0.31,6.81,11.81,0.23,0.04,-0.19,1721201343910
-0.62,0.38,9.82,0.03,-0.11,-0.19,1721201343920
-1.76,2.50,13.91,0.11,-0.06,-0.11,1721201343930
-0.32,-0.40,8.56,0.14,-0.12,-0.04,1721201343940
0.53,1.37,9.86,0.13,-0.04,-0.07,1721201343950
2.83,3.66,10.56,0.29,-0.04,-0.07,1721201343960
1.58,4.03,6.36,0.18,-0.11,-0.23,1721201343970
0.27,-0.31,9.83,0.09,-0.07,-0.39,1721201343980
-1.97,1.34,13.66,0.11,-0.09,-0.35,1721201343990
-3.76,-0.83,6.84,0.07,-0.27,-0.13,1721201344000
-2.90,2.81,11.38,0.06,0.05,-0.07,1721201344010
1.76,1.24,15.66,0.15,-0.03,0.00,1721201344020
0.11,4.18,7.60,0.19,-0.20,-0.11,1721201344030
0.57,-2.44,4.80,-0.11,-0.03,-0.23,1721201344040
-0.97,1.79,14.25,-0.02,-0.09,-0.31,1721201344050
-0.11,1.82,8.28,0.11,-0.10,-0.06,1721201344060
1.05,-0.34,9.68,-0.26,-0.05,-0.10,1721201344070
1.14,-1.49,13.09,-0.08,-0.20,-0.18,1721201344080
-0.74,-3.76,8.96,-0.30,-0.01,-0.40,1721201344090
-2.86,4.26,14.56,-0.02,-0.18,-0.30,1721201344100
-0.89,-1.75,7.68,-0.09,-0.11,0.06,1721201344110
-1.64,-1.91,9.46,-0.08,-0.10,0.03,1721201344120
2.94,-0.69,11.18,-0.12,0.08,-0.19,1721201344130
0.59,-0.65,10.17,-0.15,-0.32,-0.28,1721201344140
-2.34,0.10,8.22,-0.03,0.04,-0.36,1721201344150
2.27,-4.43,11.34,-0.16,0.04,-0.15,1721201344160
-2.33,0.67,7.66,0.00,-0.25,-0.11,1721201344170
0.80,0.68,9.64,-0.20,0.25,-0.26,1721201344180
2.32,3.50,16.49,-0.16,-0.12,-0.20,1721201344190
-1.07,3.05,9.79,0.04,-0.11,-0.17,1721201344200
0.52,-2.40,8.52,-0.16,0.11,-0.22,1721201344210
-0.84,-1.04,10.33,-0.10,-0.13,-0.37,1721201344220
-1.47,-0.43,11.84,-0.09,0.04,-0.29,1721201344230
-1.05,-0.31,14.01,-0.04,-0.10,-0.10,1721201344240
-1.58,8.78,10.58,0.22,0.00,-0.07,1721201344250
1.33,1.03,3.99,0.05,-0.09,-0.18,1721201344260
0.23,-3.90,10.33,-0.09,0.06,-0.38,1721201344270
-1.71,3.27,15.58,0.10,0.00,-0.50,1721201344280
-2.91,-0.34,7.58,0.14,-0.25,-0.10,1721201344290
-1.08,-1.09,7.12,0.09,0.06,0.15,1721201344300
3.70,0.57,15.24,0.05,0.08,-0.09,1721201344310
3.12,6.44,12.72,0.17,-0.13,-0.36,1721201344320
-0.01,0.77,5.32,0.08,-0.09,-0.47,1721201344330
-2.06,-2.69,8.75,-0.02,0.06,-0.43,1721201344340
-0.90,0.82,14.33,0.11,0.09,-0.32,1721201344350
-0.56,0.60,7.17,0.09,-0.09,-0.19,1721201344360
0.73,2.20,12.35,0.06,0.25,-0.28,1721201344370
1.77,3.25,11.76,0.08,-0.00,-0.38,1721201344380
-1.39,2.75,8.41,0.04,-0.03,-0.47,1721201344390
-1.36,0.32,10.25,-0.01,0.19,-0.46,1721201344400
-2.26,-2.50,9.46,-0.08,-0.08,-0.23,1721201344410
-0.38,-1.79,12.46,-0.12,0.24,-0.23,1721201344420
1.24,2.10,8.37,0.07,-0.09,-0.31,1721201344430
2.00,1.46,7.67,-0.06,0.27,-0.42,1721201344440
1.20,2.97,14.30,0.04,0.15,-0.54,1721201344450
-1.80,-1.11,9.28,-0.01,0.00,-0.49,1721201344460
-2.03,-0.33,11.27,-0.04,0.33,-0.32,1721201344470
0.64,0.64,11.75,0.01,0.18,-0.26,1721201344480
0.72,-2.16,7.91,-0.09,0.07,-0.33,1721201344490
0.86,-0.26,14.43,0.01,0.29,-0.47,1721201344500
-0.74,6.84,11.40,0.15,0.09,-0.49,1721201344510
-3.13,3.61,7.65,-0.03,0.12,-0.43,1721201344520
-2.72,-4.42,8.84,-0.06,0.14,-0.28,1721201344530
-1.43,-1.87,8.91,-0.03,0.27,-0.25,1721201344540
0.51,-0.52,8.32,-0.03,0.19,-0.20,1721201344550
1.45,-2.08,14.97,-0.14,0.31,-0.42,1721201344560
-0.83,1.39,10.92,0.09,-0.07,-0.35,1721201344570
-0.38,2.16,9.84,-0.06,0.43,-0.36,1721201344580
-0.98,5.22,12.80,0.16,0.09,-0.22,1721201344590
-1.45,2.79,7.52,0.04,0.20,-0.18,1721201344600
