AccX,AccY,AccZ,GyrX,GyrY,GyrZ,Time
2.10,0.29,11.67,-0.07,-0.09,0.47,1721201787147
3.15,0.01,11.12,-0.07,-0.06,0.44,1721201787151
4.51,1.90,10.84,-0.06,-0.08,0.22,1721201787161
2.79,0.90,7.23,-0.19,-0.16,-0.06,1721201787171
0.12,1.25,11.71,-0.20,-0.08,-0.24,1721201787181
-3.52,0.89,9.99,-0.12,-0.19,-0.22,1721201787191
-4.85,-1.16,12.53,-0.23,-0.06,0.02,1721201787201
-4.45,2.66,12.40,-0.04,-0.18,0.27,1721201787211
-3.79,1.81,5.32,-0.14,-0.09,0.37,1721201787221
-2.19,-1.56,7.67,-0.25,-0.17,0.50,1721201787231
-0.50,0.72,12.20,-0.22,-0.14,0.47,1721201787241
1.00,1.11,11.19,-0.12,-0.18,0.46,1721201787251
1.38,0.82,10.59,-0.15,-0.13,0.33,1721201787261
0.63,0.14,9.35,-0.20,-0.26,0.33,1721201787271
1.17,-0.30,11.30,-0.23,-0.12,0.31,1721201787281
1.64,0.30,10.90,-0.02,-0.16,0.33,1721201787291
2.04,-0.20,8.58,-0.06,-0.18,0.28,1721201787301
0.23,1.76,11.77,-0.09,-0.15,0.25,1721201787311
-1.09,-0.41,10.74,-0.11,-0.17,0.13,1721201787321
-1.98,0.74,12.81,-0.12,-0.25,0.20,1721201787331
-3.29,0.45,9.90,0.01,-0.24,0.34,1721201787341
-2.39,-0.52,8.36,0.05,-0.17,0.52,1721201787351
-0.54,-2.56,8.30,0.00,-0.17,0.58,1721201787361
0.83,2.05,14.79,-0.07,-0.19,0.55,1721201787371
1.30,4.06,12.18,0.17,-0.30,0.54,1721201787381
2.96,-1.37,3.40,0.12,-0.21,0.46,1721201787391
3.31,-0.51,8.86,-0.24,-0.11,0.32,1721201787401
1.90,-1.32,14.50,-0.06,-0.28,0.24,1721201787411
-0.39,-0.02,10.47,0.04,-0.30,0.19,1721201787421
-0.12,-0.09,8.12,-0.03,-0.20,0.26,1721201787431
-0.49,-1.67,11.88,-0.14,-0.20,0.33,1721201787441
-1.68,-0.56,14.31,-0.06,-0.21,0.34,1721201787451
-1.97,-2.65,8.74,-0.05,-0.25,0.46,1721201787461
-0.90,-1.01,10.15,-0.06,-0.19,0.58,1721201787471
2.04,2.97,11.90,0.01,-0.16,0.52,1721201787481
3.01,-0.80,9.61,-0.10,-0.23,0.41,1721201787491
2.09,0.27,11.24,-0.08,-0.19,0.20,1721201787501
0.60,-0.83,7.08,-0.02,-0.28,0.07,1721201787511
-1.05,-1.00,8.87,-0.15,-0.20,0.12,1721201787521
-0.17,-1.24,12.27,-0.10,-0.18,0.24,1721201787531
-0.05,-1.51,9.89,-0.02,-0.23,0.23,1721201787541
-0.69,-0.36,8.47,-0.07,-0.20,0.12,1721201787551
0.47,-0.77,10.51,-0.25,-0.13,0.09,1721201787561
-0.24,-1.44,11.23,-0.11,-0.32,0.11,1721201787571
-0.65,-2.93,8.72,-0.15,-0.21,0.06,1721201787581
0.40,0.68,11.61,-0.01,-0.22,0.16,1721201787591
1.07,-0.84,6.91,0.04,-0.19,0.14,1721201787601
1.33,-1.80,10.95,-0.19,-0.17,-0.00,1721201787611
1.17,2.18,13.27,-0.01,-0.24,-0.04,1721201787621
1.12,-0.82,8.94,0.08,-0.17,0.01,1721201787631
0.68,-1.06,9.92,-0.20,-0.12,-0.06,1721201787641
0.09,2.82,12.50,-0.01,-0.24,-0.17,1721201787651
-0.62,0.15,8.40,0.07,-0.13,-0.28,1721201787661
-0.46,-0.21,9.93,-0.03,-0.13,-0.17,1721201787671
0.18,-0.70,10.33,0.08,-0.19,-0.07,1721201787681
1.61,1.01,10.26,0.07,-0.03,-0.09,1721201787691
1.81,1.65,11.92,0.09,-0.10,-0.14,1721201787701
1.36,2.92,11.44,0.08,-0.07,-0.29,1721201787711
1.44,0.34,8.57,0.11,-0.13,-0.42,1721201787721
1.53,-3.59,9.26,0.01,-0.05,-0.47,1721201787731
0.30,1.30,13.00,0.24,-0.09,-0.41,1721201787741
0.95,2.21,10.19,0.21,0.11,-0.40,1721201787751
0.27,3.57,9.36,0.16,-0.02,-0.45,1721201787761
1.19,-2.64,9.95,-0.05,0.02,-0.56,1721201787771
1.59,-0.91,13.18,0.09,0.03,-0.56,1721201787781
1.12,-3.06,7.41,0.11,0.05,-0.57,1721201787791
-0.32,0.17,7.87,0.15,0.12,-0.61,1721201787801
0.68,-1.14,11.46,0.07,0.18,-0.73,1721201787811
0.35,0.59,13.77,0.19,0.05,-0.73,1721201787821
-0.85,-0.36,9.68,0.12,0.17,-0.69,1721201787831
-1.82,0.83,8.83,0.12,0.16,-0.60,1721201787841
-0.21,-2.78,8.94,0.02,0.18,-0.56,1721201787851
1.01,-2.57,11.41,0.09,0.16,-0.63,1721201787861
2.35,2.21,10.52,0.23,0.24,-0.76,1721201787871
1.24,-2.05,8.72,-0.00,0.24,-0.85,1721201787881
-2.24,1.00,15.67,0.05,0.23,-0.93,1721201787891
-3.08,0.15,6.69,0.19,0.14,-0.83,1721201787901
-2.49,-1.47,7.57,-0.02,0.36,-0.73,1721201787911
-1.41,-0.75,13.24,0.11,0.24,-0.66,1721201787921
-1.30,3.02,8.53,0.23,0.23,-0.64,1721201787931
-0.23,-1.75,7.91,-0.04,0.30,-0.70,1721201787941
-0.78,1.29,15.36,0.08,0.28,-0.78,1721201787951
-1.53,-3.79,5.21,0.10,0.09,-0.69,1721201787961
-2.46,1.69,13.86,0.01,0.41,-0.63,1721201787971
-1.10,0.77,9.65,0.27,0.19,-0.50,1721201787981
-1.07,-0.12,5.20,0.04,0.28,-0.50,1721201787991
-0.46,1.91,12.85,0.04,0.30,-0.66,1721201788001
-1.43,-1.34,10.42,0.14,0.16,-0.63,1721201788011
-3.28,1.36,10.34,0.10,0.29,-0.55,1721201788021
-3.02,0.65,11.10,0.09,0.21,-0.37,1721201788031
-2.11,1.56,11.35,0.14,0.28,-0.26,1721201788041
-0.44,1.15,7.90,0.15,0.22,-0.29,1721201788051
0.54,1.85,9.82,0.09,0.28,-0.39,1721201788061
-0.11,-0.31,8.31,0.05,0.14,-0.48,1721201788071
-1.52,1.24,13.01,0.05,0.24,-0.42,1721201788081
-1.30,-0.56,9.25,0.17,0.23,-0.29,1721201788091
-1.54,1.13,11.12,0.05,0.30,-0.26,1721201788101
-1.72,1.02,11.99,0.08,0.14,-0.25,1721201788111
-2.50,1.81,7.69,0.13,0.14,-0.16,1721201788121
-1.43,-2.38,9.68,-0.11,0.29,-0.07,1721201788131
-0.57,1.52,14.46,0.17,0.13,0.03,1721201788141
1.08,-1.26,2.50,0.09,0.17,0.13,1721201788151
1.42,1.02,14.28,-0.20,0.37,-0.08,1721201788161
-0.63,1.70,13.86,0.23,-0.03,-0.18,1721201788171
-1.89,-3.71,2.69,-0.04,0.22,0.01,1721201788181
-2.09,1.65,15.43,-0.04,0.27,0.16,1721201788191
-1.39,-0.01,8.40,0.20,-0.07,0.32,1721201788201
1.27,-3.51,9.22,-0.20,0.36,0.35,1721201788211
0.79,5.51,14.41,0.18,0.02,0.15,1721201788221
0.84,-1.64,2.96,-0.06,0.10,-0.02,1721201788231
-2.02,0.93,13.90,-0.14,0.15,0.10,1721201788241
-1.27,0.22,10.83,0.09,0.09,0.31,1721201788251
-0.11,0.01,9.71,-0.10,0.20,0.42,1721201788261
1.31,2.70,10.96,0.01,0.08,0.36,1721201788271
1.75,0.69,7.17,-0.11,0.14,0.22,1721201788281
-0.02,1.32,12.95,-0.14,0.12,0.12,1721201788291
-0.87,-0.59,9.62,-0.04,0.05,0.31,1721201788301
-1.48,1.98,9.24,-0.07,0.16,0.54,1721201788311
1.19,2.07,11.52,-0.05,0.20,0.49,1721201788321
-1.46,-8.64,8.25,-0.10,-0.05,0.08,1721201788331
-9.01,3.51,8.70,-0.07,-0.24,-0.04,1721201788341
-11.07,-4.80,12.49,-0.47,-0.01,0.72,1721201788351
-2.09,-4.49,21.79,0.06,-0.13,2.23,1721201788361
10.60,-2.38,3.03,0.37,0.55,1.97,1721201788371
16.76,-0.57,-1.43,-0.30,0.20,0.72,1721201788381
13.46,1.80,9.69,-0.66,-0.09,-0.72,1721201788391
4.17,2.04,11.29,-0.38,-0.59,-1.20,1721201788401
-8.75,-5.71,10.24,-0.22,-0.03,-0.85,1721201788411
-14.53,-3.84,8.88,-0.19,-0.18,0.18,1721201788421
-12.94,-5.32,9.92,-0.23,-0.11,1.12,1721201788431
-0.26,-0.51,16.42,-0.25,0.38,1.55,1721201788441
6.54,4.17,15.12,0.03,0.16,1.21,1721201788451
7.69,-0.34,5.22,-0.04,0.03,0.52,1721201788461
7.97,-1.84,8.58,-0.52,0.03,-0.09,1721201788471
2.56,2.20,12.37,-0.15,-0.34,-0.44,1721201788481
0.47,1.78,11.25,0.02,-0.16,-0.37,1721201788491
-4.11,-3.25,13.39,-0.24,-0.12,0.05,1721201788501
-2.25,1.49,17.50,0.05,0.08,0.28,1721201788511
-0.36,-1.82,9.85,0.21,-0.04,0.31,1721201788521
-0.15,2.80,9.66,0.10,0.04,0.23,1721201788531
2.85,3.07,11.23,0.27,0.07,0.08,1721201788541
0.40,-1.95,10.46,0.20,-0.12,-0.10,1721201788551
-1.64,0.85,10.09,0.28,0.00,-0.11,1721201788561
-2.31,1.49,7.10,0.37,-0.08,-0.01,1721201788571
-2.45,-1.11,4.60,0.12,-0.06,0.15,1721201788581
-0.24,0.67,13.96,0.08,0.05,0.06,1721201788591
1.62,-0.87,10.48,0.36,-0.05,0.15,1721201788601
0.33,-5.07,4.72,0.00,0.02,0.07,1721201788611
-0.94,4.85,19.49,-0.09,0.10,-0.19,1721201788621
-2.87,2.09,7.88,0.40,-0.37,-0.23,1721201788631
-1.72,-8.46,3.21,-0.17,0.10,0.01,1721201788641
-5.01,0.71,15.63,0.12,-0.15,0.18,1721201788651
-0.69,-2.82,3.41,0.22,-0.14,0.11,1721201788661
4.25,4.00,11.40,-0.03,0.31,0.03,1721201788671
5.48,1.57,8.04,0.22,-0.20,-0.20,1721201788681
0.69,0.37,7.35,-0.23,0.02,-0.62,1721201788691
-2.63,2.60,18.56,-0.08,0.01,-0.89,1721201788701
-8.83,4.52,12.17,0.18,-0.37,-0.63,1721201788711
-13.02,1.83,1.51,0.13,-0.08,-0.03,1721201788721
-6.14,0.29,5.17,-0.09,0.04,0.67,1721201788731
4.65,-0.49,13.68,0.03,0.13,0.86,1721201788741
9.11,2.03,15.66,0.15,0.07,0.32,1721201788751
8.41,4.87,8.99,0.17,-0.25,-0.34,1721201788761
3.98,-2.32,5.80,-0.22,-0.10,-0.86,1721201788771
-2.34,-0.29,15.15,-0.08,-0.24,-0.84,1721201788781
-8.03,-2.70,6.34,0.07,-0.19,-0.58,1721201788791
-8.34,-4.68,8.41,-0.16,0.05,-0.02,1721201788801
-5.37,-2.40,12.54,0.04,-0.11,0.46,1721201788811
0.08,-4.08,9.58,-0.10,0.05,0.49,1721201788821
2.90,-0.67,11.38,-0.06,-0.10,0.26,1721201788831
1.99,-2.49,4.48,-0.19,-0.17,-0.07,1721201788841
0.64,-0.75,13.61,-0.25,-0.03,-0.30,1721201788851
-0.86,-5.59,11.17,-0.16,-0.34,-0.08,1721201788861
0.08,-2.28,13.30,-0.12,0.01,0.28,1721201788871
2.18,-4.19,10.23,-0.17,-0.07,0.15,1721201788881
-0.08,2.89,11.78,-0.10,-0.11,-0.26,1721201788891
0.64,0.15,8.12,-0.15,0.04,-0.49,1721201788901
0.14,-2.66,13.68,-0.16,-0.07,-0.26,1721201788911
-2.12,1.66,8.32,0.04,-0.01,-0.03,1721201788921
-1.43,-3.35,5.01,-0.19,0.03,0.03,1721201788931
0.34,-1.85,17.72,-0.15,-0.00,-0.11,1721201788941
3.09,5.44,16.48,0.33,-0.01,-0.24,1721201788951
4.16,-4.18,-0.25,0.10,-0.07,-0.12,1721201788961
2.02,-3.72,8.47,-0.41,0.31,-0.36,1721201788971
-0.78,3.23,21.83,0.20,-0.05,-0.55,1721201788981
-4.13,-2.74,5.30,0.28,-0.22,-0.40,1721201788991
-5.15,-2.59,9.77,-0.06,0.17,-0.08,1721201789001
0.02,1.17,13.71,0.29,-0.06,0.18,1721201789011
0.45,-0.84,5.86,0.13,0.08,0.10,1721201789021
1.26,-0.44,12.90,-0.01,0.16,-0.23,1721201789031
-0.57,-3.89,11.19,0.15,-0.24,-0.30,1721201789041
-2.65,-0.74,7.01,0.05,0.06,-0.17,1721201789051
-0.88,0.85,13.95,0.08,0.07,0.07,1721201789061
0.54,-2.42,8.37,0.13,-0.08,0.15,1721201789071
1.35,-1.23,8.93,0.06,0.11,-0.04,1721201789081
2.58,-0.10,11.72,0.18,-0.01,-0.03,1721201789091
1.46,0.32,7.84,0.13,0.01,0.01,1721201789101
0.35,1.59,11.00,0.13,0.08,-0.08,1721201789111
-0.95,1.06,9.59,0.25,-0.04,0.02,1721201789121
1.03,1.62,10.02,0.06,0.17,0.22,1721201789131
3.19,3.34,12.08,0.20,0.10,0.22,1721201789141
4.92,-1.69,8.52,-0.00,0.21,0.01,1721201789156
4.88,-0.44,12.61,0.04,0.21,-0.06,1721201789160
4.58,3.04,8.86,0.20,0.08,-0.30,1721201789170
1.65,1.92,9.16,-0.08,0.25,-0.50,1721201789180
-1.62,3.58,9.73,0.12,0.11,-0.54,1721201789190
-0.61,-3.74,9.66,-0.19,0.30,-0.36,1721201789200
-0.97,0.89,17.26,0.07,0.20,-0.33,1721201789210
-3.17,2.30,4.80,0.14,0.16,-0.39,1721201789220
-2.42,3.62,10.96,-0.20,0.40,-0.45,1721201789230
-1.65,0.39,10.66,-0.05,-0.01,-0.23,1721201789240
-2.05,-1.58,7.38,-0.06,0.24,-0.11,1721201789250
-0.77,-2.86,10.12,-0.23,0.26,-0.13,1721201789260
0.73,-1.54,9.19,0.01,0.04,-0.17,1721201789270
3.34,-2.80,10.60,-0.10,0.34,-0.26,1721201789280
0.17,-1.02,11.63,0.01,0.14,-0.44,1721201789290
-2.63,-1.58,4.60,-0.09,0.12,-0.50,1721201789300
-1.99,-4.92,11.80,-0.17,0.28,-0.28,1721201789310
-2.76,-3.72,12.33,0.03,0.11,-0.20,1721201789320
-3.14,-4.86,6.63,-0.13,0.17,-0.11,1721201789330
-1.75,0.41,9.96,-0.01,0.10,0.02,1721201789340
-1.00,-1.11,11.16,-0.13,0.22,-0.06,1721201789350
-1.76,-0.28,14.36,-0.09,0.09,0.02,1721201789360
-2.95,-9.41,6.64,-0.10,-0.04,0.06,1721201789370
-4.46,0.38,13.38,-0.09,0.25,0.07,1721201789380
0.06,0.08,10.22,0.04,-0.00,0.21,1721201789390
-1.81,1.60,11.55,-0.09,0.08,0.18,1721201789400
-3.44,-4.49,5.49,0.07,-0.25,0.10,1721201789410
1.47,-4.16,13.90,-0.23,0.43,0.17,1721201789420
-0.69,6.74,18.94,0.29,-0.01,-0.06,1721201789430
-4.29,-3.56,-2.51,0.09,-0.47,0.08,1721201789440
-2.02,-0.52,12.58,-0.25,0.45,0.19,1721201789450
1.57,1.00,17.01,0.14,-0.24,0.32,1721201789460
-0.52,-1.66,6.85,0.13,-0.15,0.06,1721201789470
-0.70,4.86,9.40,0.03,0.00,-0.11,1721201789480
-2.12,-2.27,10.68,-0.11,-0.14,-0.19,1721201789490
-6.61,-1.20,13.87,-0.01,-0.32,0.16,1721201789500
-3.48,-0.47,9.09,0.18,-0.10,0.45,1721201789510
1.87,3.22,10.13,0.16,-0.07,0.48,1721201789520
3.81,-0.06,6.43,-0.02,-0.18,0.29,1721201789530
2.02,13.74,14.76,0.23,-0.22,-0.09,1721201789540
2.51,-0.65,1.36,0.16,-0.24,-0.22,1721201789550
-4.12,0.68,17.30,-0.53,-0.00,0.05,1721201789560
-3.55,6.63,25.79,0.41,-0.71,0.62,1721201789570
0.60,-3.28,-1.34,0.51,-0.05,1.13,1721201789580
8.60,3.47,3.83,-0.09,0.17,0.76,1721201789590
15.17,4.03,10.53,-0.26,-0.25,-0.06,1721201789600
4.53,5.11,8.05,0.19,-0.48,-0.92,1721201789610
-5.82,-2.00,3.85,-0.10,-0.26,-0.91,1721201789620
-12.02,-1.33,14.49,-0.13,-0.32,0.14,1721201789630
-6.63,-4.37,9.44,0.14,-0.12,1.06,1721201789640
5.01,-0.74,10.11,0.01,0.11,1.29,1721201789650
10.14,1.73,8.04,0.02,0.01,0.75,1721201789660
11.59,3.01,9.08,-0.06,-0.09,-0.22,1721201789670
6.26,-1.76,6.11,-0.14,-0.38,-0.98,1721201789680
-0.46,-1.90,12.79,-0.29,-0.36,-1.33,1721201789690
-10.14,-3.40,16.49,-0.12,-0.39,-0.78,1721201789700
-12.40,-2.89,9.69,0.01,-0.13,0.15,1721201789710
-5.89,-2.23,9.02,-0.11,0.05,0.78,1721201789720
1.58,-1.30,6.15,0.12,-0.06,0.75,1721201789730
6.90,-3.95,6.51,-0.27,0.15,0.24,1721201789740
5.05,8.32,15.86,0.00,-0.13,-0.14,1721201789750
5.05,-5.68,5.68,-0.25,-0.22,-0.33,1721201789760
1.45,2.83,15.95,-0.27,-0.05,-0.48,1721201789770
1.81,-4.95,9.44,-0.09,-0.17,-0.53,1721201789780
-0.99,1.06,9.67,-0.18,0.06,-0.45,1721201789790
-2.44,-1.15,7.58,-0.07,-0.05,-0.45,1721201789800
-2.67,-1.59,11.22,-0.25,0.13,-0.38,1721201789810
-0.60,-2.37,13.72,-0.08,-0.02,-0.32,1721201789820
0.38,2.95,10.88,0.11,0.05,-0.28,1721201789830
1.61,0.86,6.95,0.03,0.06,-0.19,1721201789840
1.64,-0.42,10.61,-0.15,0.15,-0.29,1721201789850
1.06,5.16,11.69,0.12,0.13,-0.56,1721201789860
2.10,-3.67,8.92,-0.05,-0.02,-0.64,1721201789870
0.06,1.15,15.28,-0.06,0.11,-0.67,1721201789880
-1.54,2.46,13.08,0.20,0.13,-0.66,1721201789890
-4.32,0.53,7.18,0.14,0.04,-0.50,1721201789900
-3.86,-0.84,7.81,0.05,0.14,-0.42,1721201789910
-0.86,-2.37,12.65,0.14,0.12,-0.28,1721201789920
-0.05,1.54,11.31,0.21,0.11,-0.14,1721201789930
-0.47,0.51,9.91,0.14,0.15,-0.28,1721201789940
0.32,0.58,10.76,0.17,0.09,-0.43,1721201789950
-1.16,-2.22,4.58,0.20,-0.01,-0.42,1721201789960
-2.52,-1.88,8.55,-0.01,0.13,-0.33,1721201789970
-1.54,2.72,14.96,0.24,0.06,-0.17,1721201789980
-0.23,-1.45,6.52,0.19,0.05,-0.07,1721201789990
0.41,1.08,12.08,0.04,0.15,-0.22,1721201790000
0.55,-2.54,9.19,0.16,-0.04,-0.25,1721201790010
-2.01,-1.72,9.81,-0.00,0.13,-0.30,1721201790020
-2.51,1.51,10.25,0.19,0.01,-0.22,1721201790030
-1.46,-2.71,9.70,-0.04,0.11,-0.11,1721201790040
-0.33,3.71,15.28,0.21,0.07,-0.01,1721201790050
1.44,-3.91,5.64,0.09,0.04,-0.07,1721201790060
1.37,1.40,16.20,0.03,0.17,-0.11,1721201790070
1.20,1.13,11.76,0.27,0.00,-0.27,1721201790080
-1.99,2.83,7.30,0.14,0.04,-0.29,1721201790090
-0.91,1.49,12.03,0.12,0.18,-0.13,1721201790100
0.81,-1.64,5.35,0.21,0.02,0.14,1721201790110
1.66,-1.78,4.77,-0.10,0.23,0.02,1721201790120
3.49,2.71,18.93,0.15,0.19,-0.25,1721201790130
1.71,-1.47,8.73,0.27,-0.04,-0.27,1721201790140
-1.97,1.52,8.26,-0.05,0.22,-0.24,1721201790150
-1.85,1.54,18.21,0.06,0.16,-0.14,1721201790160
-2.87,-0.96,6.51,0.22,-0.06,0.14,1721201790170
-0.55,-3.10,4.57,-0.09,0.28,0.33,1721201790180
2.83,0.51,14.67,0.17,0.20,0.18,1721201790190
2.26,0.67,5.27,0.15,-0.02,-0.01,1721201790200
0.22,-0.63,10.94,-0.21,0.19,0.01,1721201790210
1.32,1.17,14.60,0.15,0.13,0.03,1721201790220
0.74,-3.57,8.25,-0.05,0.12,-0.02,1721201790230
-1.96,2.50,11.69,0.08,0.05,-0.01,1721201790240
-2.24,-1.13,6.94,-0.17,0.11,0.09,1721201790250
-1.29,1.94,13.04,-0.06,0.12,0.21,1721201790260
1.81,-2.13,9.87,-0.06,0.17,0.20,1721201790270
-0.59,-13.13,10.64,-0.12,0.22,-0.35,1721201790280
-10.62,13.40,13.51,0.41,-0.67,-0.93,1721201790290
-13.58,-4.96,0.16,-0.45,-0.08,0.03,1721201790300
-12.13,-12.79,20.36,-0.22,0.05,1.80,1721201790310
7.94,-4.49,11.38,0.49,0.57,2.32,1721201790320
16.01,-0.45,-1.26,-0.02,0.42,1.31,1721201790330
21.52,8.88,13.75,-0.11,0.16,-0.55,1721201790340
8.87,-2.27,9.04,-0.16,-0.88,-1.30,1721201790350
1.66,-0.96,9.66,-0.40,-0.40,-1.35,1721201790360
-10.16,-3.38,13.47,-0.05,-0.02,-0.80,1721201790370
-10.01,-3.11,13.22,0.03,-0.09,-0.00,1721201790380
-7.39,-4.24,4.92,-0.13,-0.14,1.00,1721201790390
4.53,0.06,12.45,0.06,0.49,1.09,1721201790400
10.70,-1.56,10.03,-0.08,0.31,0.50,1721201790410
6.83,1.99,7.17,-0.18,-0.05,-0.37,1721201790420
4.93,2.13,10.83,-0.15,-0.14,-0.86,1721201790430
2.82,1.35,13.04,-0.12,-0.02,-0.88,1721201790440
-3.23,-2.42,11.84,-0.19,0.06,-0.58,1721201790450
-3.29,6.44,10.61,0.11,0.19,-0.43,1721201790460
-2.91,1.69,4.70,-0.15,0.10,-0.43,1721201790470
-3.88,5.12,14.59,-0.03,0.04,-0.32,1721201790480
-2.30,-0.42,10.01,0.04,0.21,-0.15,1721201790490
-2.36,2.70,13.54,-0.17,0.20,-0.16,1721201790500
-3.00,2.61,9.84,0.08,-0.09,-0.22,1721201790510
-0.91,0.79,7.53,-0.05,0.21,-0.27,1721201790520
0.11,2.40,12.17,0.12,0.02,-0.11,1721201790530
0.67,-0.13,6.31,0.24,0.14,-0.12,1721201790540
1.84,1.07,9.56,0.05,0.19,-0.31,1721201790550
1.28,4.56,14.30,0.12,-0.02,-0.48,1721201790560
-0.32,-1.50,10.59,0.17,0.00,-0.42,1721201790570
-2.04,-7.38,8.35,-0.01,0.17,-0.25,1721201790580
-1.82,0.14,12.42,0.16,0.15,-0.05,1721201790590
1.10,1.85,7.13,0.30,0.16,-0.06,1721201790600
1.97,-0.82,7.00,0.06,0.18,-0.21,1721201790610
1.60,-1.98,11.06,0.05,0.15,-0.38,1721201790620
-0.23,0.74,10.57,0.11,0.18,-0.36,1721201790630
-0.55,-3.22,10.23,-0.05,0.20,-0.29,1721201790640
-1.52,-0.89,14.60,0.07,0.22,-0.32,1721201790650
-1.01,-3.65,5.40,0.16,0.12,-0.25,1721201790660
-1.00,-3.26,11.29,-0.12,0.32,-0.24,1721201790670
-0.07,6.11,16.28,0.27,0.16,-0.23,1721201790680
0.87,-0.80,3.80,0.06,0.22,-0.24,1721201790690
-0.46,-6.26,5.36,-0.20,0.23,-0.29,1721201790700
0.48,-5.02,12.76,-0.03,0.31,-0.38,1721201790710
-0.36,0.91,15.45,0.19,0.27,-0.40,1721201790720
-3.09,5.76,9.58,0.21,0.18,-0.36,1721201790730
-1.83,-0.26,6.91,-0.02,0.27,-0.20,1721201790740
-0.54,-5.26,11.39,-0.13,0.38,-0.16,1721201790750
-1.11,-2.43,14.20,0.06,0.20,-0.25,1721201790760
-2.78,3.70,9.46,0.30,0.12,-0.25,1721201790770
-1.53,3.16,7.39,0.10,0.37,-0.10,1721201790780
-1.39,3.02,9.96,0.10,0.20,-0.03,1721201790790
-0.85,-4.81,5.77,-0.17,0.21,-0.13,1721201790800
-1.97,1.32,18.03,-0.10,0.34,-0.37,1721201790810
-3.60,-0.75,9.90,0.31,0.03,-0.38,1721201790820
-4.51,-4.63,3.83,-0.03,0.20,0.00,1721201790830
-2.76,4.12,12.19,0.19,0.18,0.28,1721201790840
2.99,4.78,6.85,0.12,0.27,0.12,1721201790850
1.61,-0.34,10.88,-0.23,0.15,-0.19,1721201790860
-3.44,-3.25,8.13,-0.05,-0.14,-0.32,1721201790870
-5.35,-2.23,14.19,-0.13,0.26,-0.15,1721201790880
-4.40,3.34,11.96,0.27,0.04,0.19,1721201790890
-2.60,-2.22,6.26,-0.21,0.16,0.27,1721201790900
-2.22,3.12,15.46,0.04,-0.06,0.42,1721201790910
2.47,-3.71,5.71,-0.04,0.16,0.37,1721201790920
2.62,-1.00,13.41,-0.13,0.09,0.22,1721201790930
1.51,0.68,15.60,0.09,0.03,-0.16,1721201790940
-1.88,0.09,9.18,0.21,-0.14,-0.08,1721201790950
-4.14,2.96,1.42,-0.08,-0.01,0.28,1721201790960
-1.05,2.16,5.18,-0.19,0.08,0.40,1721201790970
2.17,-9.93,9.73,-0.44,0.09,0.26,1721201790980
1.35,-0.61,18.18,0.09,-0.20,0.23,1721201790990
0.97,7.23,7.82,0.27,0.06,0.07,1721201791000
0.28,0.47,4.42,-0.37,0.04,-0.08,1721201791010
-3.08,-3.88,17.65,-0.43,-0.23,0.02,1721201791020
-3.93,0.05,16.69,0.10,-0.05,0.18,1721201791030
-4.15,-6.51,3.09,-0.15,-0.10,0.43,1721201791040
-4.14,11.16,8.74,0.15,-0.13,0.65,1721201791050
4.35,-5.99,3.25,-0.32,0.22,0.63,1721201791060
2.36,3.67,19.71,-0.26,0.00,0.36,1721201791070
3.50,0.10,13.22,0.05,-0.12,0.03,1721201791080
-1.05,2.61,9.72,-0.27,-0.20,-0.06,1721201791090
-2.63,1.06,11.76,-0.14,-0.20,0.04,1721201791100
-1.86,-3.35,7.66,-0.11,-0.13,0.37,1721201791110
-2.11,-1.07,4.49,-0.05,-0.06,0.33,1721201791120
2.36,-3.25,10.31,-0.25,0.04,0.21,1721201791130
2.04,6.83,16.96,-0.07,-0.02,0.03,1721201791140
3.76,-1.92,13.49,0.11,-0.14,-0.02,1721201791150
0.12,-4.14,8.56,-0.29,-0.08,-0.04,1721201791165
-0.93,-4.18,11.76,-0.23,-0.01,0.03,1721201791169
-0.31,1.51,13.54,-0.08,-0.04,0.02,1721201791179
-0.44,-1.20,5.88,0.11,-0.10,-0.19,1721201791189
0.69,0.72,6.58,-0.06,0.02,-0.13,1721201791199
0.62,-5.38,15.35,-0.26,0.10,-0.07,1721201791209
0.33,7.73,15.55,0.14,0.01,-0.28,1721201791219
-0.36,-3.02,8.20,0.22,-0.08,-0.12,1721201791229
-1.22,-0.36,6.41,-0.04,0.12,0.07,1721201791239
-1.43,1.09,11.90,0.11,0.03,-0.10,1721201791249
2.49,-1.09,11.29,0.03,0.05,-0.17,1721201791259
0.81,-0.33,7.99,0.19,0.02,-0.09,1721201791269
-0.67,-0.89,5.31,0.13,0.11,-0.18,1721201791279
-0.12,-0.39,13.71,-0.06,0.08,-0.12,1721201791289
-0.62,3.08,15.81,0.16,-0.02,-0.09,1721201791299
-1.36,0.82,10.10,0.15,0.06,-0.16,1721201791309
-1.38,-0.56,8.49,0.09,0.03,0.01,1721201791319
-1.43,-3.76,7.60,-0.02,0.09,0.10,1721201791329
-1.21,2.04,12.60,0.11,0.07,0.08,1721201791339
0.47,-2.49,8.43,0.16,0.01,0.07,1721201791349
1.16,2.59,11.08,0.15,0.09,-0.00,1721201791359
-0.34,-0.54,9.93,0.01,-0.09,-0.13,1721201791369
-2.18,1.49,13.48,-0.01,-0.03,-0.07,1721201791379
-1.21,-1.94,8.41,0.14,-0.06,0.21,1721201791389
-0.36,-3.53,8.27,-0.04,0.13,0.25,1721201791399
1.23,1.11,15.58,0.05,0.03,0.09,1721201791409
0.48,-0.54,10.56,0.14,-0.05,-0.04,1721201791419
-2.04,1.09,6.64,0.13,-0.04,0.02,1721201791429
-1.37,-1.50,9.36,-0.05,0.07,0.02,1721201791439
-1.91,4.62,10.50,0.29,-0.19,0.42,1721201791449
1.43,-5.33,6.18,-0.13,0.16,0.43,1721201791459
2.54,-0.08,15.28,-0.06,-0.09,0.21,1721201791469
1.98,3.36,9.66,0.18,-0.03,-0.04,1721201791479
0.06,-2.10,7.86,-0.04,-0.02,0.01,1721201791489
-2.94,2.55,9.35,0.04,-0.12,0.07,1721201791499
-1.54,-0.76,11.81,-0.06,0.05,0.14,1721201791509
-0.83,-0.28,12.40,0.06,-0.15,0.33,1721201791519
-0.53,-3.80,7.21,-0.12,-0.08,0.34,1721201791529
0.80,0.85,13.01,0.00,0.02,0.31,1721201791539
1.29,0.17,6.64,0.09,-0.17,0.29,1721201791549
2.86,1.62,11.43,-0.10,0.05,0.26,1721201791559
3.47,1.29,9.74,-0.00,-0.08,0.19,1721201791569
2.88,-3.61,9.71,-0.38,0.03,0.04,1721201791579
1.10,3.92,15.52,-0.03,-0.11,-0.06,1721201791589
0.82,-4.28,5.63,-0.09,-0.09,0.02,1721201791599
-0.33,-2.76,10.78,-0.23,0.02,0.09,1721201791609
1.53,0.52,11.15,-0.00,-0.02,0.08,1721201791619
0.49,4.08,8.70,-0.09,0.02,-0.08,1721201791629
-0.15,-1.81,13.08,-0.32,-0.02,-0.16,1721201791639
-0.21,-0.75,14.17,-0.11,-0.00,-0.09,1721201791649
-1.10,-0.23,4.60,-0.02,-0.10,0.07,1721201791659
0.26,-0.69,7.25,-0.34,0.12,0.03,1721201791669
1.80,1.37,13.69,-0.16,0.06,-0.18,1721201791679
0.49,-1.81,9.06,-0.16,-0.08,-0.43,1721201791689
-2.22,2.11,9.24,-0.16,0.00,-0.42,1721201791699
-2.58,-4.45,7.63,-0.28,0.03,-0.30,1721201791709
-3.03,-1.64,11.94,-0.32,0.00,-0.15,1721201791719
-1.40,-1.77,12.77,-0.17,0.06,-0.13,1721201791729
-0.23,0.57,9.26,-0.06,0.02,-0.17,1721201791739
0.84,3.54,8.81,-0.09,0.17,-0.25,1721201791749
1.00,0.16,11.51,-0.24,0.07,-0.37,1721201791759
-1.08,0.61,9.68,-0.03,0.05,-0.51,1721201791769
-1.65,-5.59,9.67,-0.21,0.02,-0.44,1721201791779
-1.98,7.66,14.59,-0.09,-0.01,-0.29,1721201791789
-1.71,0.16,10.03,0.18,0.02,-0.18,1721201791799
-0.02,1.32,9.31,0.03,0.19,-0.17,1721201791809
0.08,2.00,13.35,0.11,0.02,-0.21,1721201791819
0.73,-1.49,7.37,0.23,0.12,-0.34,1721201791829
-1.43,-3.02,6.74,0.10,0.02,-0.36,1721201791839
-1.66,1.81,13.18,0.01,0.14,-0.33,1721201791849
-0.26,5.36,15.76,0.22,0.02,-0.24,1721201791859
-1.92,-2.14,8.60,0.19,0.10,-0.22,1721201791869
-2.48,-3.03,9.55,-0.01,0.14,-0.20,1721201791879
-2.23,0.16,11.41,0.17,0.07,-0.11,1721201791889
-1.59,-1.72,6.55,0.22,0.03,-0.06,1721201791899
0.03,1.88,14.29,0.07,0.13,-0.01,1721201791909
-0.29,-0.28,10.13,0.30,-0.13,0.01,1721201791919
-0.01,-2.26,5.66,0.11,0.16,-0.11,1721201791929
-0.19,2.51,14.58,-0.01,0.15,-0.13,1721201791939
-1.57,0.66,6.18,0.34,-0.21,-0.06,1721201791949
-2.20,-4.37,6.26,0.02,0.17,-0.08,1721201791959
-2.07,-1.40,13.11,-0.07,0.02,0.11,1721201791969
0.84,-0.94,12.66,0.04,-0.00,0.13,1721201791979
0.99,-0.62,11.46,0.02,0.08,0.01,1721201791989
0.73,-3.13,6.86,-0.02,-0.01,-0.07,1721201791999
0.20,-0.46,8.85,0.02,0.13,-0.08,1721201792009
-0.52,-1.33,9.59,0.03,0.01,-0.01,1721201792019
-0.87,0.09,10.85,-0.02,0.11,-0.08,1721201792029
-0.67,-1.58,10.87,-0.10,0.05,-0.18,1721201792039
-1.20,1.33,13.50,0.00,-0.07,-0.12,1721201792049
-0.56,0.96,9.25,0.10,0.07,0.08,1721201792059
1.02,1.75,8.55,-0.02,0.14,0.07,1721201792069
2.02,0.60,12.74,-0.07,0.08,-0.04,1721201792079
1.05,0.81,11.85,0.04,0.08,-0.30,1721201792089
-1.69,4.54,10.26,0.13,0.04,-0.34,1721201792099
-2.41,-0.61,9.35,-0.02,0.06,-0.11,1721201792109
-2.13,0.16,14.22,0.04,0.16,0.07,1721201792119
0.96,3.16,8.46,0.40,-0.02,0.19,1721201792129
2.02,0.39,3.77,0.13,0.17,0.03,1721201792139
4.03,4.07,13.05,-0.01,0.32,-0.23,1721201792149
1.92,0.73,11.50,0.13,-0.15,-0.37,1721201792159
-3.10,2.77,6.72,0.04,0.10,-0.47,1721201792169
-3.49,-0.51,13.64,-0.16,0.13,-0.28,1721201792179
-4.54,-0.78,13.77,0.00,-0.07,0.03,1721201792189
-3.26,-0.88,6.62,0.10,0.06,0.25,1721201792199
0.16,-1.52,6.93,0.04,0.17,0.16,1721201792209
1.38,-0.33,9.73,0.06,0.07,-0.02,1721201792219
0.05,0.68,8.95,0.16,-0.02,-0.18,1721201792229
-0.69,1.93,11.55,0.04,0.11,-0.10,1721201792239
-0.99,1.59,15.20,-0.02,0.06,0.05,1721201792249
-2.44,-0.49,8.92,-0.00,-0.04,-0.02,1721201792259
-2.66,-3.27,4.27,-0.18,0.05,-0.09,1721201792269
-1.58,-3.39,9.99,-0.15,0.03,0.09,1721201792279
-1.01,-3.17,8.77,-0.01,-0.01,0.23,1721201792289
1.25,-2.58,10.97,-0.13,0.15,0.22,1721201792299
1.44,1.40,13.66,-0.14,0.03,0.20,1721201792309
1.70,0.12,11.97,-0.19,0.07,0.03,1721201792319
0.67,-0.97,10.59,-0.22,-0.01,-0.09,1721201792329
-1.85,0.97,8.10,-0.23,-0.08,-0.14,1721201792339
-2.56,0.96,6.62,-0.15,-0.04,0.07,1721201792349
-1.53,-5.60,7.24,-0.35,0.10,0.15,1721201792359
-1.05,2.36,11.41,-0.31,-0.03,0.14,1721201792369
-0.06,0.33,13.72,-0.25,-0.02,0.18,1721201792379
-0.16,3.84,13.15,-0.21,0.01,0.08,1721201792389
-0.29,-1.57,9.40,-0.15,-0.13,0.08,1721201792399
-0.34,-2.52,7.31,-0.13,-0.05,0.01,1721201792409
0.24,0.49,11.38,-0.12,-0.02,0.08,1721201792419
-0.08,3.75,12.56,-0.03,-0.14,0.15,1721201792429
-0.05,0.50,8.51,0.16,-0.09,0.12,1721201792439
0.60,-2.01,5.18,0.09,-0.10,0.17,1721201792449
0.81,-4.91,12.94,-0.18,0.00,0.04,1721201792459
0.26,5.43,14.42,0.02,-0.17,0.02,1721201792469
-2.29,-3.11,9.76,0.08,-0.15,0.04,1721201792479
-1.54,3.53,11.64,0.12,-0.05,0.15,1721201792489
-0.12,-1.54,11.33,0.17,-0.08,0.32,1721201792499
-0.84,-0.76,9.02,0.14,-0.07,0.23,1721201792509
0.94,3.59,12.93,0.18,-0.07,0.09,1721201792519
2.28,-0.70,8.64,0.34,-0.20,0.28,1721201792529
2.62,-4.27,5.79,0.12,-0.01,0.17,1721201792539
3.27,3.12,12.34,0.15,0.01,0.03,1721201792549
1.59,-2.88,8.73,0.10,-0.21,-0.22,1721201792559
-0.11,-1.12,13.05,-0.05,-0.04,-0.27,1721201792569
-1.45,2.01,13.14,0.23,-0.13,-0.14,1721201792579
-1.67,-5.24,4.01,0.20,-0.06,0.12,1721201792589
0.34,-1.85,8.65,-0.05,0.10,0.15,1721201792599
1.05,2.88,13.03,0.16,-0.05,0.04,1721201792609
1.05,1.06,9.35,0.18,-0.05,-0.08,1721201792619
1.66,-2.76,10.72,-0.08,0.01,-0.12,1721201792629
-0.75,2.37,13.92,0.10,-0.04,-0.21,1721201792639
-1.09,-1.58,7.14,0.14,-0.06,-0.13,1721201792649
-0.33,0.74,8.80,0.09,0.09,0.02,1721201792659
2.33,0.71,10.36,0.24,0.06,0.05,1721201792669
1.62,-1.05,11.08,0.08,0.10,-0.17,1721201792679
-0.08,4.37,13.29,0.19,-0.02,-0.35,1721201792689
-2.51,1.49,7.06,0.12,-0.12,-0.39,1721201792699
-3.20,3.32,9.45,0.06,0.13,-0.28,1721201792709
-2.46,-4.55,5.86,0.04,-0.08,0.08,1721201792719
-1.41,-2.90,10.35,-0.11,0.20,0.07,1721201792729
0.99,3.57,13.51,0.19,-0.02,0.03,1721201792739
0.82,3.55,6.65,0.12,-0.05,-0.10,1721201792749
0.55,1.21,7.87,-0.14,0.03,-0.18,1721201792759
-0.38,-3.09,13.86,-0.20,-0.00,-0.26,1721201792769
-1.58,-0.84,11.32,0.01,-0.06,-0.17,1721201792779
-2.52,-0.93,8.80,-0.13,-0.00,-0.03,1721201792789
-1.83,5.23,12.10,-0.03,-0.00,-0.07,1721201792799
-0.22,0.23,8.48,0.03,-0.09,-0.01,1721201792809
0.60,-3.43,5.91,-0.16,0.00,-0.01,1721201792819
1.76,-1.84,11.80,-0.23,0.05,-0.06,1721201792829
1.05,1.51,11.70,-0.08,-0.04,-0.15,1721201792839
0.94,-0.38,8.11,-0.10,-0.01,-0.24,1721201792849
-0.26,-3.94,9.73,-0.26,-0.04,-0.25,1721201792859
-0.65,2.04,11.54,-0.19,-0.06,-0.13,1721201792869
-1.18,-0.61,10.73,-0.17,-0.01,-0.16,1721201792879
0.39,-0.11,11.38,-0.30,0.01,-0.04,1721201792889
-0.25,-2.59,7.32,-0.13,-0.02,-0.03,1721201792899
0.22,-6.38,7.47,-0.35,0.08,-0.03,1721201792909
0.34,2.56,11.94,-0.39,0.05,-0.01,1721201792919
1.39,-2.20,17.25,-0.38,-0.01,-0.13,1721201792929
1.60,8.08,12.49,-0.07,-0.01,-0.14,1721201792939
1.27,-5.86,7.56,-0.02,-0.03,-0.15,1721201792949
-0.24,0.92,6.50,-0.15,0.15,-0.26,1721201792959
0.02,-1.90,11.00,-0.16,-0.02,-0.30,1721201792969
-2.09,4.88,12.76,-0.08,-0.03,-0.36,1721201792979
-2.00,0.45,12.33,0.09,0.05,-0.15,1721201792989
-1.51,-1.41,10.45,-0.06,0.16,0.05,1721201792999
-2.09,-2.04,10.03,0.09,0.00,-0.03,1721201793009
-0.85,1.72,7.02,0.20,0.08,-0.16,1721201793019
-0.27,-3.49,10.32,0.01,-0.02,-0.10,1721201793029
-0.38,1.40,15.51,0.03,0.00,-0.06,1721201793039
0.40,1.65,10.77,0.27,0.16,-0.16,1721201793049
0.10,-2.63,7.70,0.22,0.02,-0.19,1721201793059
-0.94,3.85,8.34,0.11,0.10,-0.26,1721201793069
-1.72,-3.75,9.48,0.17,-0.07,-0.17,1721201793079
0.01,-3.60,10.11,0.10,0.18,-0.10,1721201793089
1.29,-0.74,14.00,0.11,0.14,-0.08,1721201793099
-0.18,2.81,10.27,0.21,0.05,-0.32,1721201793109
-1.67,0.96,10.71,0.05,0.11,-0.41,1721201793119
-1.93,-0.69,9.27,0.21,-0.06,-0.30,1721201793129
-1.15,-2.75,5.79,0.15,0.18,-0.23,1721201793139
-1.40,0.04,10.28,-0.10,0.12,-0.20,1721201793149
-1.39,2.30,12.36,0.10,0.07,-0.23,1721201793159
-0.42,2.91,9.04,0.23,0.20,-0.22,1721201793174
-1.00,-2.47,6.86,0.19,0.07,-0.23,1721201793178
0.14,0.33,11.36,0.00,0.29,-0.35,1721201793188
-0.29,7.66,17.24,0.17,-0.01,-0.35,1721201793198
-2.23,0.27,9.79,0.17,0.03,-0.36,1721201793208
-4.92,-0.67,5.57,0.13,0.03,-0.29,1721201793218
-2.80,1.71,8.60,0.13,0.23,-0.08,1721201793228
-0.64,-3.26,11.10,0.04,0.06,0.07,1721201793238
-0.26,3.42,16.34,0.20,0.16,-0.04,1721201793248
1.29,4.17,8.38,0.41,0.01,-0.06,1721201793258
1.63,0.15,6.41,0.12,0.09,-0.18,1721201793268
1.66,-1.87,9.76,0.01,0.09,-0.36,1721201793278
-0.19,-2.31,13.11,0.07,0.14,-0.36,1721201793288
-2.93,4.68,11.64,0.39,0.01,-0.35,1721201793298
-3.32,-1.51,1.54,0.18,-0.07,-0.18,1721201793308
-2.46,-1.00,10.40,-0.08,0.25,0.04,1721201793318
0.52,-0.83,15.60,0.04,0.08,0.11,1721201793328
-0.72,-0.29,10.84,0.02,-0.02,0.01,1721201793338
-0.72,0.92,7.89,0.07,-0.01,0.06,1721201793348
0.32,-1.75,8.69,-0.09,0.13,0.04,1721201793358
-0.25,-0.49,10.94,-0.07,-0.00,0.00,1721201793368
-1.50,3.71,9.77,0.03,0.03,-0.05,1721201793378
-2.79,-0.62,5.45,-0.05,-0.07,0.04,1721201793388
-2.62,-7.49,6.16,-0.30,0.01,0.25,1721201793398
-0.25,-3.51,17.58,-0.23,0.14,0.28,1721201793408
0.54,6.62,16.80,0.18,-0.00,0.13,1721201793418
-0.68,1.47,4.32,-0.04,-0.10,0.09,1721201793428
-2.07,-4.08,4.72,-0.37,-0.08,0.19,1721201793438
0.58,-6.03,11.52,-0.36,0.12,0.22,1721201793448
-0.85,2.15,14.50,-0.16,-0.19,0.11,1721201793458
-1.35,-2.15,9.10,-0.14,-0.21,0.18,1721201793468
0.57,-0.76,10.20,-0.23,-0.01,0.37,1721201793478
0.85,5.00,9.40,-0.26,-0.03,0.24,1721201793488
0.23,1.35,11.38,-0.28,-0.20,0.01,1721201793498
-1.17,-1.70,8.47,-0.21,-0.24,-0.04,1721201793508
-3.10,-3.05,6.17,-0.27,-0.20,0.06,1721201793518
-1.29,-1.10,13.21,-0.33,-0.13,0.34,1721201793528
-1.88,1.72,14.93,-0.18,-0.23,0.41,1721201793538
0.07,4.65,14.79,-0.12,-0.22,0.40,1721201793548
2.05,5.06,9.54,0.09,-0.22,0.34,1721201793558
2.23,-1.58,7.70,0.11,-0.14,0.24,1721201793568
2.65,-1.44,5.92,0.13,-0.23,0.25,1721201793578
2.55,-2.58,9.67,0.03,-0.12,0.03,1721201793588
2.83,7.05,17.93,0.04,-0.18,-0.01,1721201793598
1.75,7.78,12.22,0.42,-0.30,-0.06,1721201793608
1.40,-7.51,5.72,0.22,-0.14,-0.19,1721201793618
-0.28,-1.57,8.43,-0.05,-0.20,-0.18,1721201793628
0.09,3.53,12.28,0.38,-0.20,-0.04,1721201793638
0.16,-5.68,5.76,0.13,-0.18,-0.03,1721201793648
-0.26,-2.42,11.16,-0.01,-0.06,-0.08,1721201793658
1.50,-4.35,12.13,0.15,-0.17,-0.13,1721201793668
0.50,1.82,6.83,0.28,-0.16,-0.03,1721201793678
1.81,-0.62,8.39,0.08,0.08,-0.09,1721201793688
1.73,-2.62,12.79,0.09,-0.11,-0.32,1721201793698
0.61,-1.26,10.69,0.09,-0.07,-0.46,1721201793708
-1.10,-4.22,12.72,-0.10,-0.08,-0.38,1721201793718
-2.73,0.85,15.54,0.02,-0.03,-0.21,1721201793728
-1.36,2.91,8.37,0.27,-0.05,-0.04,1721201793738
1.47,-5.68,4.24,-0.02,0.11,-0.03,1721201793748
2.74,-1.87,11.90,-0.13,0.11,-0.23,1721201793758
1.55,0.58,16.30,0.07,-0.04,-0.43,1721201793768
-0.30,4.27,8.24,0.24,-0.02,-0.41,1721201793778
0.01,-1.24,6.16,0.01,0.14,-0.27,1721201793788
0.17,-1.76,12.72,0.05,0.11,-0.36,1721201793798
-0.12,0.53,13.70,0.14,0.09,-0.44,1721201793808
-1.29,4.87,10.87,0.28,0.08,-0.33,1721201793818
-0.59,0.14,3.07,0.19,0.13,-0.23,1721201793828
0.70,-3.49,9.58,-0.15,0.26,-0.32,1721201793838
-0.22,2.04,18.29,0.10,0.10,-0.52,1721201793848
-2.45,3.64,8.72,0.32,0.05,-0.46,1721201793858
-1.65,2.13,4.24,0.05,0.25,-0.24,1721201793868
-0.49,-0.62,6.37,0.02,0.16,-0.12,1721201793878
0.93,0.87,9.76,0.02,0.32,-0.34,1721201793888
0.74,0.35,9.96,0.07,0.07,-0.49,1721201793898
-1.41,-1.31,11.67,-0.21,0.19,-0.51,1721201793908
-3.29,3.67,16.70,0.05,0.11,-0.42,1721201793918
-2.65,-1.47,6.12,0.15,0.11,-0.10,1721201793928
0.51,-5.28,7.19,-0.26,0.30,-0.04,1721201793938
2.46,4.76,15.92,0.02,0.24,-0.29,1721201793948
1.36,1.39,9.93,0.20,0.09,-0.50,1721201793958
-0.80,-0.39,2.81,0.01,0.18,-0.53,1721201793968
-0.39,-0.62,10.07,-0.30,0.32,-0.40,1721201793978
-0.11,1.50,14.58,-0.01,0.25,-0.29,1721201793988
-0.82,-3.73,5.47,0.03,0.16,-0.24,1721201793998
-0.85,-0.67,10.08,-0.27,0.35,-0.36,1721201794008
0.49,-0.46,14.93,-0.16,0.20,-0.35,1721201794018
-0.67,1.13,13.13,-0.03,0.22,-0.42,1721201794028
-2.30,4.73,9.15,0.09,0.23,-0.41,1721201794038
-2.90,-7.28,4.65,-0.21,0.16,-0.22,1721201794048
-2.42,2.20,11.93,-0.07,0.38,0.02,1721201794058
-0.72,-4.48,9.02,-0.01,0.17,-0.01,1721201794068
-1.60,-1.57,10.44,-0.22,0.27,-0.33,1721201794078
-0.66,2.54,11.77,-0.05,0.11,-0.34,1721201794088
-2.94,-2.81,7.03,-0.02,0.11,-0.19,1721201794098
-2.30,1.90,11.48,-0.06,0.37,0.02,1721201794108
-1.44,1.43,13.58,-0.02,0.09,0.02,1721201794118
-1.78,1.09,7.41,0.00,0.09,0.07,1721201794128
-0.21,4.22,10.15,-0.02,0.33,0.06,1721201794138
-0.44,-3.01,8.38,-0.08,-0.01,0.04,1721201794148
-0.90,-4.37,9.35,-0.18,0.26,0.01,1721201794158
-1.52,0.81,11.47,0.06,0.01,0.17,1721201794168
-1.00,-4.97,7.90,-0.09,0.13,0.09,1721201794178
-0.02,7.07,15.47,0.03,0.20,0.04,1721201794188
0.53,0.43,13.06,0.08,-0.09,0.14,1721201794198
-0.96,-4.73,8.56,0.06,0.13,0.17,1721201794208
-0.46,-3.87,10.29,-0.09,0.14,0.12,1721201794218
0.46,1.68,13.73,0.05,0.04,0.08,1721201794228
-0.26,2.98,12.76,0.22,0.06,0.17,1721201794238
-0.36,2.32,9.44,0.13,0.08,0.23,1721201794248
-0.51,-0.93,9.93,0.08,0.03,0.11,1721201794258
-0.17,-0.68,11.64,0.07,0.05,-0.07,1721201794268
0.04,1.55,8.55,0.22,-0.00,-0.01,1721201794278
-2.19,-1.29,4.92,0.10,-0.04,0.07,1721201794288
-1.92,-0.80,11.07,0.00,0.13,0.12,1721201794298
0.20,1.98,16.69,0.24,-0.02,0.16,1721201794308
0.45,1.25,5.97,0.30,-0.05,0.13,1721201794318
0.22,-0.13,9.26,-0.13,0.10,0.02,1721201794328
-0.23,0.27,18.04,0.07,-0.16,-0.03,1721201794338
-1.42,-2.67,8.17,0.30,-0.09,-0.02,1721201794348
-0.96,1.73,6.58,0.22,-0.02,0.08,1721201794358
0.55,4.33,12.29,0.16,0.00,0.08,1721201794368
0.91,1.69,9.53,0.25,-0.14,0.10,1721201794378
0.47,-1.57,8.45,0.09,0.04,0.01,1721201794388
1.51,-2.40,12.13,0.04,0.03,-0.04,1721201794398
0.72,3.23,10.74,0.27,-0.12,-0.08,1721201794408
0.04,2.27,4.72,0.07,-0.04,-0.16,1721201794418
-0.13,0.77,11.18,0.00,0.04,-0.12,1721201794428
-1.19,0.49,10.23,0.14,-0.02,-0.08,1721201794438
-0.89,-1.86,11.39,-0.08,0.09,0.01,1721201794448
-1.31,0.51,15.83,-0.02,-0.07,-0.09,1721201794458
-2.83,3.32,6.22,0.19,-0.24,0.01,1721201794468
0.06,0.95,5.88,-0.03,0.16,0.13,1721201794478
1.92,-3.57,8.41,-0.08,-0.08,0.21,1721201794488
0.57,-0.50,10.31,-0.11,-0.04,-0.07,1721201794498
1.08,7.63,15.46,0.07,0.10,-0.31,1721201794508
-1.63,-0.20,7.71,-0.18,-0.13,-0.25,1721201794518
-5.41,-5.36,8.08,-0.35,0.03,-0.08,1721201794528
-1.43,-9.92,10.56,-0.17,0.11,0.00,1721201794538
-0.34,-2.68,7.47,0.08,-0.15,0.23,1721201794548
0.54,5.24,7.88,0.01,0.08,0.26,1721201794558
3.96,8.77,13.42,-0.03,0.26,0.09,1721201794568
4.11,-3.55,10.55,-0.24,-0.04,-0.23,1721201794578
0.16,-5.83,11.25,-0.48,0.05,-0.65,1721201794588
-3.53,-1.26,12.55,-0.29,-0.23,-0.78,1721201794598
-7.79,1.76,8.93,-0.11,-0.05,-0.25,1721201794608
-4.62,-2.68,6.10,-0.17,0.13,0.48,1721201794618
1.56,-3.66,8.41,-0.18,0.32,0.56,1721201794628
3.70,-4.04,11.54,-0.38,0.32,0.12,1721201794638
1.94,9.84,15.20,-0.34,-0.09,-0.36,1721201794648
1.30,13.93,12.43,0.07,-0.04,-0.64,1721201794658
0.54,-8.51,4.70,0.06,-0.03,-0.46,1721201794668
-2.04,-5.56,3.51,-0.43,0.27,-0.40,1721201794678
-6.57,5.00,10.58,-0.26,-0.25,-0.14,1721201794688
-3.85,7.36,14.13,0.05,0.15,-0.05,1721201794698
3.06,-5.73,16.10,-0.15,0.20,0.18,1721201794708
1.98,2.57,15.98,0.13,0.16,-0.03,1721201794718
0.94,2.32,3.43,0.60,0.11,-0.32,1721201794728
-2.31,2.38,-1.02,0.36,-0.09,-0.20,1721201794738
-1.22,0.52,12.43,0.02,0.42,0.02,1721201794748
2.80,-1.75,19.16,0.21,0.25,0.00,1721201794758
-1.45,-8.20,8.92,0.17,-0.21,-0.08,1721201794768
-2.24,6.40,14.74,0.01,0.24,-0.12,1721201794778
-0.43,7.81,18.62,0.27,0.01,0.07,1721201794788
0.19,-5.02,6.34,0.42,0.11,0.31,1721201794798
3.11,-2.35,0.35,0.45,0.26,0.12,1721201794808
1.89,-3.64,6.90,-0.15,0.11,-0.29,1721201794818
-5.34,8.09,25.64,0.25,-0.08,-0.45,1721201794828
-3.10,3.18,12.29,0.54,-0.01,-0.01,1721201794838
-2.14,-4.62,0.90,0.16,0.25,0.35,1721201794848
-0.17,-1.49,13.92,-0.00,0.19,0.26,1721201794858
0.72,-0.85,9.75,0.20,-0.01,0.07,1721201794868
-0.07,-1.81,12.52,-0.07,0.17,0.05,1721201794878
-0.37,4.71,13.15,0.37,-0.06,0.20,1721201794888
1.27,-4.63,3.37,0.23,0.22,0.18,1721201794898
0.50,2.04,7.23,0.08,0.07,0.11,1721201794908
-1.09,0.90,12.84,0.03,0.09,-0.06,1721201794918
-2.68,2.28,8.73,0.21,-0.03,-0.04,1721201794928
-1.33,-5.26,5.37,-0.13,0.07,0.30,1721201794938
0.11,2.39,17.41,0.11,0.16,0.32,1721201794948
2.65,2.13,9.18,0.19,0.03,0.07,1721201794958
0.82,1.83,4.72,-0.16,0.03,-0.12,1721201794968
-2.86,-2.77,7.82,-0.19,0.01,-0.16,1721201794978
-1.93,1.40,14.09,-0.02,0.12,-0.00,1721201794988
-0.25,-0.99,8.45,0.02,-0.11,0.35,1721201794998
0.70,0.41,12.26,-0.32,0.12,0.27,1721201795008
1.64,2.73,14.12,-0.12,0.02,-0.00,1721201795018
2.93,0.72,6.32,-0.02,0.02,-0.05,1721201795028
0.61,-2.04,9.48,-0.41,0.08,-0.14,1721201795038
-0.31,-1.04,15.29,-0.10,-0.03,-0.32,1721201795048
-1.16,-3.36,5.89,0.02,-0.09,-0.08,1721201795058
-2.71,0.32,12.52,-0.37,0.14,0.08,1721201795068
0.30,8.03,15.47,0.02,0.05,0.04,1721201795078
1.02,-5.21,5.32,0.06,-0.14,0.08,1721201795088
1.15,-3.78,3.83,-0.30,0.21,0.05,1721201795098
0.69,0.82,13.21,-0.27,0.08,-0.19,1721201795108
0.47,4.72,11.25,-0.01,-0.10,-0.24,1721201795118
-1.64,-4.44,6.17,-0.05,0.03,-0.10,1721201795128
-1.54,-3.19,10.06,-0.30,0.22,-0.01,1721201795138
-0.32,1.07,14.31,-0.28,0.07,-0.07,1721201795148
-0.74,2.07,11.48,-0.05,-0.08,-0.21,1721201795158
-1.49,1.43,4.54,0.03,0.01,-0.08,1721201795168
-0.36,1.13,14.06,-0.25,0.19,-0.03,1721201795183
0.82,3.17,16.07,-0.25,0.04,-0.09,1721201795187
-1.06,-0.78,12.86,-0.07,-0.05,-0.26,1721201795197
-2.18,-2.47,11.72,-0.15,0.07,-0.20,1721201795207
-2.28,4.83,12.56,0.01,0.07,0.03,1721201795217
-1.32,3.91,11.54,0.17,0.08,0.06,1721201795227
-0.75,0.74,9.37,0.18,0.06,0.04,1721201795237
-0.31,-2.23,7.09,0.17,0.01,0.10,1721201795247
1.40,0.31,7.75,0.14,0.14,0.05,1721201795257
1.90,0.98,12.84,-0.03,0.03,-0.22,1721201795267
-1.27,3.96,13.96,0.19,-0.14,-0.35,1721201795277
-3.16,-1.85,8.17,0.21,0.07,-0.24,1721201795287
-4.23,-4.09,11.00,-0.05,0.05,0.04,1721201795297
-2.94,3.04,14.42,0.18,-0.11,0.32,1721201795307
1.40,2.31,7.64,0.29,0.19,0.24,1721201795317
1.39,-4.44,7.52,-0.15,-0.08,0.05,1721201795327
-1.16,4.98,13.44,0.10,-0.04,-0.27,1721201795337
-0.15,-9.71,8.84,-0.08,-0.02,-0.28,1721201795347
-4.45,-0.99,13.52,-0.06,-0.12,-0.11,1721201795357
-2.27,3.78,11.19,0.29,-0.04,0.15,1721201795367
-0.58,2.73,7.87,0.06,-0.04,0.28,1721201795377
0.50,-1.16,7.68,0.00,-0.09,0.22,1721201795387
1.65,-3.48,9.79,-0.05,-0.01,-0.01,1721201795397
-0.27,1.98,9.42,-0.03,-0.13,-0.13,1721201795407
-1.74,3.82,15.06,-0.12,-0.00,-0.15,1721201795417
-2.63,-1.93,7.64,0.10,-0.31,0.13,1721201795427
-2.21,-6.97,3.77,-0.18,-0.05,0.25,1721201795437
0.56,5.54,13.16,0.04,-0.03,0.27,1721201795447
3.40,-2.66,6.07,-0.19,-0.15,0.20,1721201795457
2.03,0.98,13.91,-0.20,0.02,-0.02,1721201795467
1.37,-0.45,11.90,0.02,-0.11,-0.28,1721201795477
-1.28,3.96,11.82,-0.06,-0.10,-0.04,1721201795487
-0.40,4.65,12.89,-0.11,0.00,0.11,1721201795497
-0.15,0.23,10.59,-0.19,-0.17,0.07,1721201795507
-0.63,-2.93,15.03,-0.29,-0.05,-0.06,1721201795517
-1.01,2.88,13.33,0.03,-0.23,-0.09,1721201795527
-2.48,3.42,6.68,0.06,-0.14,0.02,1721201795537
-1.23,2.25,6.39,0.08,-0.07,0.28,1721201795547
0.67,2.98,11.04,-0.11,0.08,0.07,1721201795557
1.37,2.29,15.50,-0.09,-0.12,0.01,1721201795567
0.28,-0.86,9.43,0.01,-0.22,-0.07,1721201795577
-0.69,-0.30,8.52,-0.18,-0.04,-0.19,1721201795587
-0.74,-1.00,12.33,-0.08,-0.21,-0.04,1721201795597
-1.92,-3.66,9.65,0.03,-0.08,0.04,1721201795607
-0.62,5.79,11.07,0.24,0.03,0.07,1721201795617
-1.19,0.93,6.50,0.09,-0.18,-0.01,1721201795627
-1.67,2.27,9.43,-0.17,-0.06,-0.10,1721201795637
0.02,-2.17,6.74,0.19,-0.26,0.15,1721201795647
0.16,-0.35,3.95,0.16,0.00,0.05,1721201795657
2.26,3.10,6.87,0.05,-0.13,0.03,1721201795667
3.12,-8.37,8.06,-0.29,-0.01,-0.10,1721201795677
1.31,1.09,18.16,-0.21,0.02,-0.38,1721201795687
-0.92,-0.48,14.92,0.02,-0.26,-0.53,1721201795697
-4.29,3.92,6.72,0.10,-0.05,-0.26,1721201795707
-2.34,0.09,6.97,0.00,0.05,0.11,1721201795717
0.92,-6.43,7.16,-0.06,0.03,0.24,1721201795727
1.98,-0.32,9.79,-0.05,0.12,0.04,1721201795737
3.22,-1.70,13.14,-0.10,-0.00,-0.28,1721201795747
1.85,-0.04,15.36,-0.15,-0.13,-0.38,1721201795757
0.88,1.99,9.97,0.14,-0.01,-0.31,1721201795767
0.71,-3.02,6.98,0.14,0.14,-0.35,1721201795777
-1.67,2.50,12.24,0.08,0.01,-0.40,1721201795787
-2.50,-2.47,8.91,0.11,-0.02,-0.18,1721201795797
-1.37,0.80,12.53,0.02,0.21,0.02,1721201795807
0.38,1.61,12.99,0.16,-0.01,-0.05,1721201795817
1.51,1.55,7.47,0.19,0.10,-0.20,1721201795827
1.70,0.90,10.59,0.08,0.18,-0.19,1721201795837
-0.61,2.62,13.45,0.15,0.07,-0.26,1721201795847
-0.52,-3.74,8.73,0.16,0.05,-0.25,1721201795857
-0.53,0.20,13.51,0.14,0.18,-0.18,1721201795867
-0.72,6.36,11.67,0.40,0.01,-0.01,1721201795877
0.20,-0.27,3.47,0.28,0.18,0.02,1721201795887
2.60,-2.90,9.70,-0.02,0.28,-0.12,1721201795897
1.76,1.13,17.37,0.26,0.11,-0.34,1721201795907
-0.67,-3.20,7.07,0.22,0.05,-0.25,1721201795917
-2.70,6.77,13.23,0.22,0.31,-0.17,1721201795927
-0.59,1.88,4.12,0.42,0.08,0.10,1721201795937
0.23,-3.46,0.58,0.06,0.31,0.07,1721201795947
2.74,0.72,4.25,-0.00,0.06,-0.14,1721201795957
0.88,0.09,12.84,-0.08,0.25,-0.41,1721201795967
-2.13,0.43,15.56,0.09,0.13,-0.40,1721201795977
-4.16,-5.05,9.43,0.02,0.10,-0.06,1721201795987
-2.51,-1.84,10.49,-0.10,0.29,0.17,1721201795997
0.26,3.96,11.28,0.14,0.21,0.02,1721201796007
0.49,2.05,6.83,-0.02,0.14,-0.16,1721201796017
-0.43,-4.38,8.69,-0.24,0.09,-0.13,1721201796027
-1.37,-1.03,16.67,-0.04,0.15,-0.18,1721201796037
-0.94,2.46,10.05,0.13,0.07,-0.09,1721201796047
-1.07,1.60,4.60,-0.16,0.12,0.00,1721201796057
1.04,1.68,12.29,-0.08,0.21,0.02,1721201796067
1.65,-2.05,10.34,-0.11,0.09,-0.11,1721201796077
-0.14,-2.80,10.74,-0.23,0.08,-0.26,1721201796087
-1.98,3.17,9.91,-0.11,0.03,-0.28,1721201796097
-2.12,0.92,9.61,-0.11,0.15,-0.08,1721201796107
-1.68,-0.69,14.03,-0.16,0.17,0.15,1721201796117
-0.89,3.45,12.22,-0.04,0.03,0.21,1721201796127
1.72,-0.84,4.95,-0.04,0.16,0.17,1721201796137
2.18,-5.96,4.80,-0.33,0.07,0.04,1721201796147
1.24,-0.83,15.31,-0.23,0.21,-0.26,1721201796157
0.16,4.01,15.21,0.04,-0.15,-0.34,1721201796167
-5.05,0.29,7.07,-0.02,-0.01,-0.20,1721201796177
-3.41,-2.06,11.00,-0.13,0.25,0.23,1721201796187
-0.21,-1.04,13.23,-0.07,0.03,0.36,1721201796197
0.74,3.75,8.89,0.17,0.05,0.05,1721201796207
1.53,-3.22,6.91,-0.09,0.08,-0.14,1721201796217
-1.71,5.20,10.81,0.03,-0.09,-0.18,1721201796227
-1.45,-2.86,8.11,0.12,0.13,-0.09,1721201796237
-0.89,-2.50,9.87,-0.11,0.05,0.10,1721201796247
-0.43,4.18,12.15,0.17,0.07,0.02,1721201796257
0.79,1.53,9.41,0.11,-0.01,-0.19,1721201796267
-2.18,2.20,9.73,0.15,-0.07,-0.10,1721201796277
-1.14,-3.54,9.40,-0.04,0.17,-0.03,1721201796287
-1.26,1.28,14.04,0.10,-0.02,-0.09,1721201796297
-1.75,0.26,9.80,0.03,0.02,-0.09,1721201796307
-1.83,0.59,14.53,0.14,-0.03,0.09,1721201796317
-0.13,-0.84,7.81,0.27,0.01,0.13,1721201796327
1.95,3.25,4.37,0.32,0.06,0.10,1721201796337
2.46,1.07,7.61,0.02,0.09,-0.15,1721201796347
-0.17,2.65,18.88,0.03,-0.04,-0.46,1721201796357
-2.60,-1.75,7.40,0.43,-0.20,-0.27,1721201796367
-2.45,-6.46,5.26,-0.06,0.27,-0.07,1721201796377
-0.67,11.38,19.47,0.07,-0.08,-0.01,1721201796387
-2.21,3.27,4.65,0.30,-0.19,-0.05,1721201796397
-1.39,-2.99,8.42,-0.01,0.24,-0.03,1721201796407
-0.36,-2.33,12.78,0.15,-0.11,-0.05,1721201796417
-0.69,1.04,7.20,0.10,-0.06,-0.03,1721201796427
-0.96,0.77,9.36,0.03,-0.04,-0.07,1721201796437
-1.18,-0.39,9.24,0.12,0.02,-0.08,1721201796447
0.12,-2.19,11.01,0.12,-0.01,0.08,1721201796457
0.32,0.29,9.44,0.09,-0.09,0.06,1721201796467
0.63,2.53,10.68,0.04,0.06,-0.06,1721201796477
-0.23,1.50,6.26,-0.03,-0.11,-0.06,1721201796487
-0.58,0.89,13.14,-0.07,0.06,0.01,1721201796497
0.68,-4.31,11.74,-0.01,-0.11,0.05,1721201796507
-1.08,2.21,5.95,0.08,-0.10,-0.04,1721201796517
-0.77,3.31,7.93,-0.25,0.14,-0.18,1721201796527
-1.78,-1.98,14.31,-0.17,-0.24,0.01,1721201796537
-3.71,-5.76,7.87,-0.14,-0.13,0.20,1721201796547
-1.26,4.83,15.75,0.03,0.14,0.16,1721201796557
1.65,1.88,7.41,0.01,-0.26,0.22,1721201796567
0.92,-1.76,10.87,-0.37,0.08,0.12,1721201796577
0.69,4.30,15.57,0.05,-0.06,-0.11,1721201796587
-0.56,-2.20,4.26,-0.03,-0.24,-0.04,1721201796597
-2.00,3.91,12.41,-0.20,0.11,0.08,1721201796607
0.95,0.48,11.87,-0.03,-0.06,0.05,1721201796617
-0.32,-4.87,7.32,-0.24,-0.17,-0.09,1721201796627
-1.47,1.43,11.60,-0.02,0.00,-0.08,1721201796637
-1.12,-1.95,8.36,-0.06,-0.10,0.00,1721201796647
-2.54,4.46,11.32,-0.09,-0.07,0.07,1721201796657
1.45,-2.15,9.01,-0.15,-0.00,0.04,1721201796667
0.31,-4.67,11.70,-0.24,-0.12,-0.11,1721201796677
-0.66,-1.46,12.11,-0.11,-0.07,-0.12,1721201796687
-0.96,2.71,9.90,0.06,-0.03,0.02,1721201796697
-0.31,2.60,5.88,0.04,-0.05,0.07,1721201796707
2.00,-6.84,8.82,-0.28,0.06,0.00,1721201796717
1.41,1.64,15.51,-0.08,0.05,-0.21,1721201796727
-0.40,8.49,12.90,0.11,-0.15,-0.24,1721201796737
-1.83,0.57,8.49,-0.05,-0.02,-0.02,1721201796747
0.20,-1.93,10.72,0.06,0.07,0.01,1721201796757
1.59,-6.56,4.08,0.12,0.00,-0.08,1721201796767
0.13,3.07,9.86,-0.12,0.05,-0.12,1721201796777
1.75,6.69,17.99,0.03,0.11,-0.19,1721201796787
-0.95,-1.18,13.13,0.11,-0.08,-0.31,1721201796797
-1.81,-3.19,6.52,0.03,0.03,-0.26,1721201796807
-1.74,-2.88,10.57,0.04,0.05,-0.18,1721201796817
-1.66,1.83,9.15,0.30,-0.03,0.10,1721201796827
2.06,-2.35,12.01,0.06,0.30,0.19,1721201796837
1.18,5.48,14.99,0.30,0.02,-0.05,1721201796847
0.75,-1.50,6.97,0.20,0.00,-0.31,1721201796857
-1.54,1.81,11.38,0.07,0.02,-0.35,1721201796867
-1.76,0.31,10.69,0.20,-0.04,-0.07,1721201796877
-1.08,2.40,7.50,0.28,0.15,0.19,1721201796887
1.82,-6.43,7.74,0.01,0.12,0.02,1721201796897
0.71,3.87,10.73,0.13,-0.05,-0.20,1721201796907
-0.79,-0.81,7.98,0.04,0.03,-0.25,1721201796917
-0.54,-3.99,15.12,-0.01,0.11,-0.08,1721201796927
0.14,-1.34,12.54,0.27,0.04,0.14,1721201796937
-0.62,3.72,8.36,0.23,0.13,-0.04,1721201796947
0.59,1.47,10.29,0.03,0.10,-0.14,1721201796957
0.59,-0.06,10.03,0.03,0.03,-0.03,1721201796967
-0.45,0.13,8.45,0.23,0.14,-0.21,1721201796977
-0.11,-3.03,4.75,-0.03,0.11,-0.16,1721201796987
-0.95,4.37,14.91,-0.08,0.15,-0.02,1721201796997
-0.85,1.90,10.67,0.16,0.03,-0.10,1721201797007
-0.39,-2.36,5.50,-0.02,0.18,-0.05,1721201797017
-0.64,-1.28,4.55,-0.13,0.01,0.06,1721201797027
0.28,4.36,19.54,-0.17,0.26,-0.01,1721201797037
0.47,3.77,12.23,0.21,-0.13,-0.14,1721201797047
-1.83,-4.30,3.58,-0.20,0.07,-0.09,1721201797057
-2.64,0.13,14.40,-0.16,0.14,0.03,1721201797067
-1.45,-1.15,9.05,-0.05,-0.06,0.18,1721201797077
-0.02,2.68,9.32,-0.01,0.05,0.20,1721201797087
3.00,1.75,9.13,-0.00,0.05,0.01,1721201797097
2.90,-0.08,10.36,-0.02,0.01,-0.11,1721201797107
0.18,-1.75,9.32,-0.19,0.01,-0.16,1721201797117
-1.30,2.55,14.01,-0.05,0.03,-0.20,1721201797127
1.17,-1.91,9.35,-0.16,-0.05,-0.25,1721201797683
1.05,-4.35,10.52,-0.22,-0.06,-0.31,1721201797687
-1.79,-2.58,11.97,-0.11,-0.06,-0.25,1721201797696
-1.93,2.02,13.66,-0.13,0.02,-0.03,1721201797706
-1.58,6.31,10.74,0.07,-0.01,0.07,1721201797715
0.99,-4.43,6.74,-0.12,0.11,-0.07,1721201797725
1.60,-1.13,9.87,-0.09,-0.07,-0.11,1721201797734
0.68,5.81,8.85,0.08,0.06,-0.21,1721201797744
1.23,-1.55,10.02,-0.12,0.05,-0.22,1721201797753
0.37,-6.34,10.38,-0.21,-0.01,-0.20,1721201797763
0.08,1.78,13.47,0.10,0.05,-0.11,1721201797772
0.37,4.88,13.26,0.11,0.08,-0.16,1721201797782
0.04,3.63,13.59,-0.00,0.06,-0.20,1721201797791
1.75,-0.26,12.75,0.21,0.10,-0.12,1721201797801
0.10,-4.71,4.55,0.16,0.05,-0.31,1721201797810
-1.92,2.49,7.87,-0.02,0.25,-0.34,1721201797820
-1.31,2.80,15.57,0.16,0.05,-0.08,1721201797830
-1.68,-0.38,6.62,0.23,-0.05,0.11,1721201797840
1.53,-0.51,8.69,0.10,0.26,0.05,1721201797850
2.99,0.84,14.67,0.04,0.07,-0.28,1721201797860
-1.99,2.33,11.92,0.11,-0.07,-0.52,1721201797870
-4.26,-0.57,10.24,0.16,0.12,-0.18,1721201797880
-1.51,-0.95,8.93,0.32,0.12,0.24,1721201797890
1.25,-4.11,6.82,0.14,0.12,0.13,1721201797900
2.77,4.70,11.25,0.17,0.07,-0.02,1721201797910
2.89,2.12,10.49,0.07,0.09,-0.28,1721201797920
-1.11,-3.87,7.74,0.04,-0.07,-0.43,1721201797930
-4.17,-3.20,9.62,0.02,0.11,-0.21,1721201797940
-3.78,1.92,9.76,0.24,0.01,0.09,1721201797950
-0.48,-3.72,8.06,-0.09,0.20,0.18,1721201797960
1.43,0.83,14.87,0.15,0.06,0.07,1721201797970
0.38,-0.55,6.99,0.08,0.03,-0.12,1721201797980
-0.25,1.94,15.05,-0.02,0.20,-0.09,1721201797990
-2.00,1.46,9.21,0.25,-0.10,-0.21,1721201798000
-2.47,-0.19,4.62,-0.15,0.08,0.02,1721201798010
0.07,1.91,13.96,-0.05,0.12,0.22,1721201798020
1.91,0.39,10.24,0.12,0.03,-0.01,1721201798030
1.71,-3.76,5.94,-0.26,0.09,-0.11,1721201798040
-0.41,5.09,15.90,-0.00,0.01,-0.28,1721201798050
-2.03,-3.50,6.97,-0.11,-0.04,-0.26,1721201798060
-3.69,5.92,12.06,0.11,0.00,0.18,1721201798070
1.72,-2.12,10.08,-0.12,0.17,0.32,1721201798080
3.27,-3.76,9.62,-0.09,-0.11,0.16,1721201798090
3.88,3.38,12.30,-0.10,0.10,-0.20,1721201798100
1.89,1.34,11.09,0.06,0.10,-0.42,1721201798110
-2.80,-2.51,3.43,-0.06,-0.08,-0.22,1721201798120
-3.28,-2.00,13.14,-0.26,0.24,-0.02,1721201798130
0.29,3.35,17.06,0.18,-0.03,0.16,1721201798140
1.59,1.10,0.03,0.09,0.05,0.10,1721201798150
2.51,-0.34,13.38,-0.35,0.30,-0.21,1721201798160
-1.30,1.57,15.36,0.00,-0.13,-0.32,1721201798170
-0.83,1.43,8.73,0.01,0.16,-0.33,1721201798180
-2.56,-3.96,4.13,-0.09,-0.19,-0.09,1721201798190
-3.39,-2.62,12.15,-0.18,0.35,0.06,1721201798200
-0.24,2.86,16.54,0.17,0.19,0.06,1721201798210
0.98,0.80,4.04,0.15,-0.11,0.01,1721201798220
0.48,-0.19,10.72,-0.17,0.21,-0.11,1721201798230
0.77,6.01,15.40,0.14,0.05,-0.17,1721201798240
0.70,-2.34,8.80,-0.05,0.11,-0.29,1721201798250
-3.36,-0.39,14.01,-0.05,-0.00,-0.33,1721201798260
-4.25,-2.83,6.82,0.11,-0.08,-0.18,1721201798270
-1.72,1.55,11.77,0.12,0.20,0.19,1721201798280
0.78,3.73,11.48,0.16,0.09,0.10,1721201798290
-0.67,4.26,7.59,0.12,-0.05,-0.17,1721201798300
-1.25,-4.46,7.75,-0.07,0.07,-0.26,1721201798310
-0.98,-4.51,8.61,-0.01,0.00,-0.05,1721201798320
0.27,2.53,13.01,0.05,0.14,0.02,1721201798330
0.43,-2.03,7.05,-0.02,-0.17,0.04,1721201798340
0.60,-0.67,15.68,-0.02,0.21,-0.13,1721201798350
0.93,4.45,9.24,0.32,-0.04,-0.18,1721201798360
-1.38,0.69,5.88,-0.07,0.08,-0.30,1721201798370
-2.44,-1.93,9.70,-0.12,-0.12,-0.13,1721201798380
-1.04,0.96,15.83,0.09,0.28,-0.15,1721201798390
-0.63,-3.17,3.59,0.06,-0.19,0.00,1721201798400
-1.39,3.31,16.68,-0.08,0.32,-0.07,1721201798410
1.07,-3.51,11.34,0.02,-0.19,-0.14,1721201798420
-3.24,6.62,10.43,0.12,0.04,-0.23,1721201798430
-0.31,-4.10,10.48,-0.03,0.15,-0.11,1721201798440
-2.52,2.36,9.54,0.16,-0.21,0.04,1721201798450
0.24,0.85,8.37,-0.00,0.19,0.20,1721201798460
3.46,3.15,16.68,0.09,0.11,-0.03,1721201798470
1.20,1.41,6.74,0.08,-0.23,-0.30,1721201798480
-1.69,-2.01,11.29,-0.19,0.12,-0.27,1721201798490
-2.47,5.34,19.01,0.20,-0.04,-0.26,1721201798500
-3.50,1.75,-0.25,0.25,-0.22,0.10,1721201798510
-1.97,-1.59,9.06,-0.30,0.24,0.25,1721201798520
1.28,3.42,14.13,0.23,-0.14,0.19,1721201798530
0.85,-1.85,3.15,-0.09,-0.02,-0.07,1721201798540
0.54,4.13,16.67,-0.13,0.03,-0.05,1721201798550
-0.25,0.80,9.29,0.18,-0.20,-0.07,1721201798560
-2.24,-1.99,2.47,-0.15,0.01,-0.08,1721201798570
-1.39,-2.11,10.29,-0.22,-0.04,0.08,1721201798580
0.58,-0.69,15.66,-0.01,-0.02,0.09,1721201798590
0.14,0.89,8.41,0.06,-0.10,-0.04,1721201798600
-0.28,2.85,10.52,-0.07,0.02,-0.11,1721201798610
-0.12,-2.08,10.27,-0.09,-0.03,-0.12,1721201798620
-2.89,-1.51,5.92,-0.09,-0.13,-0.21,1721201798630
-2.40,-4.03,13.78,-0.25,0.07,0.02,1721201798640
-1.08,0.13,15.18,0.01,-0.10,0.09,1721201798650
-0.17,0.98,6.29,0.05,-0.12,0.05,1721201798660
2.28,1.82,11.84,-0.24,0.11,-0.10,1721201798670
1.89,-2.98,8.67,-0.08,-0.16,-0.16,1721201798680
0.48,-6.34,7.59,-0.28,0.17,-0.37,1721201798690
-1.55,1.68,14.31,0.00,-0.05,-0.24,1721201798700
-1.04,-0.87,9.13,-0.02,0.13,-0.07,1721201798710
0.30,2.65,10.37,-0.00,0.14,-0.08,1721201798720
0.85,2.86,10.62,-0.01,0.02,-0.15,1721201798730
2.19,1.19,12.79,-0.06,0.24,-0.30,1721201798740
-0.19,1.50,10.56,0.15,-0.04,-0.29,1721201798750
-1.55,4.78,5.63,0.24,0.14,-0.16,1721201798760
0.89,-6.33,7.21,-0.24,0.21,-0.10,1721201798770
-1.15,1.75,20.66,-0.06,0.06,-0.37,1721201798780
-0.77,6.56,11.16,0.43,0.02,-0.30,1721201798790
-1.23,-5.61,2.16,-0.05,0.09,-0.06,1721201798800
-1.41,-2.80,14.82,-0.01,0.22,0.00,1721201798810
-1.80,0.47,8.39,0.38,0.07,-0.01,1721201798820
-0.67,1.47,11.56,-0.11,0.17,0.07,1721201798830
0.61,10.39,18.61,0.20,-0.00,0.03,1721201798840
2.51,-3.70,4.55,0.36,0.04,0.09,1721201798850
2.75,-3.76,2.98,-0.08,0.22,-0.02,1721201798860
1.73,4.36,20.40,0.07,0.07,-0.16,1721201798870
-2.99,4.04,4.83,0.44,-0.09,-0.10,1721201798880
-0.05,-4.26,1.18,-0.04,0.33,0.03,1721201798890
0.21,1.42,18.41,-0.02,0.03,0.12,1721201798900
0.09,3.49,15.11,0.22,0.13,-0.03,1721201798910
0.82,2.43,7.88,0.24,0.12,-0.07,1721201798920
-1.10,-4.39,1.70,-0.06,-0.03,-0.01,1721201798930
-1.27,-2.55,15.31,-0.15,0.28,-0.01,1721201798940
-0.81,4.43,13.70,0.33,0.02,-0.01,1721201798950
-0.73,-1.11,2.40,-0.01,0.08,0.14,1721201798960
1.35,-1.04,17.61,-0.19,0.26,0.11,1721201798970
2.12,-1.41,12.93,0.23,-0.07,0.11,1721201798980
0.41,5.21,5.58,0.08,0.24,-0.18,1721201798990
-0.04,3.19,7.25,-0.01,0.13,-0.19,1721201799000
-1.28,-5.48,10.15,-0.30,0.12,-0.02,1721201799010
-2.32,0.46,13.12,0.07,0.03,0.04,1721201799020
0.61,4.37,8.44,-0.01,0.24,0.07,1721201799030
2.30,1.66,10.75,-0.13,0.03,0.16,1721201799040
3.06,-3.67,10.01,-0.17,0.16,-0.04,1721201799050
1.46,4.61,16.51,0.09,0.24,-0.38,1721201799060
-2.55,-2.65,2.96,-0.05,-0.12,-0.26,1721201799070
-4.41,2.44,14.99,-0.19,0.34,-0.08,1721201799080
-0.85,0.88,8.51,0.16,-0.06,0.19,1721201799090
-0.56,-0.07,9.98,-0.23,0.23,0.20,1721201799100
2.90,5.15,10.65,0.15,0.09,0.03,1721201799110
2.80,-9.98,4.45,-0.23,0.09,-0.30,1721201799120
-2.82,7.43,17.93,-0.03,0.13,-0.43,1721201799130
-2.89,1.69,9.79,0.06,0.05,-0.14,1721201799140
-4.14,-0.60,10.12,-0.10,0.08,0.20,1721201799150
-0.16,-0.72,10.45,0.08,0.15,0.24,1721201799160
3.17,-4.34,7.07,-0.07,0.08,0.23,1721201799170
2.50,0.98,10.14,-0.13,0.13,-0.07,1721201799180
-0.51,4.28,10.20,0.14,0.01,-0.29,1721201799190
-1.87,0.76,7.96,-0.07,0.18,-0.18,1721201799200
-2.14,-3.06,14.85,-0.15,-0.01,0.09,1721201799210
-1.02,-3.07,12.95,-0.08,-0.03,0.25,1721201799220
0.22,5.26,13.95,0.11,0.35,-0.04,1721201799230
-1.15,-2.35,1.99,0.02,-0.25,-0.08,1721201799240
-2.62,-3.04,6.56,-0.18,0.17,-0.02,1721201799250
1.97,-3.75,13.16,-0.01,0.13,0.14,1721201799260
-0.13,2.55,14.95,0.06,0.02,-0.07,1721201799270
-1.22,7.96,13.55,0.05,-0.00,-0.08,1721201799280
-1.95,0.18,6.28,0.01,-0.15,-0.07,1721201799290
-0.64,-5.15,5.41,0.04,0.08,0.09,1721201799300
1.79,-2.22,4.62,-0.07,0.08,0.09,1721201799310
0.73,-1.48,14.08,-0.24,0.12,-0.08,1721201799320
-0.87,8.18,19.88,0.25,-0.03,-0.25,1721201799330
-2.22,-1.45,5.17,0.14,-0.17,-0.01,1721201799340
-2.83,1.75,9.41,-0.06,0.11,0.14,1721201799350
2.08,2.02,11.47,0.21,-0.04,0.09,1721201799360
0.84,-5.11,3.65,-0.05,-0.11,-0.08,1721201799370
-1.68,-0.23,14.75,-0.07,0.14,-0.30,1721201799380
-2.26,4.60,13.97,0.29,-0.08,-0.20,1721201799390
-2.72,-4.47,7.69,-0.14,-0.07,0.18,1721201799400
-0.83,5.51,16.92,0.26,0.04,0.14,1721201799410
2.68,1.40,7.58,0.30,0.09,-0.06,1721201799420
-0.44,-0.12,5.63,-0.02,-0.18,-0.05,1721201799430
-1.63,4.24,8.55,0.23,0.04,-0.12,1721201799440
0.54,-1.40,6.47,-0.01,0.04,-0.15,1721201799450
-1.00,-1.61,15.23,-0.11,-0.03,-0.04,1721201799460
0.23,4.18,17.01,0.35,0.10,-0.10,1721201799470
2.27,2.17,7.96,0.19,0.06,-0.12,1721201799480
-1.10,0.81,4.86,-0.03,-0.14,-0.07,1721201799490
-0.80,-0.64,11.57,-0.03,0.16,-0.03,1721201799500
-0.20,5.27,10.70,0.29,0.06,-0.13,1721201799510
0.25,-1.90,7.65,-0.17,0.03,-0.20,1721201799520
-2.67,1.83,11.89,0.09,-0.13,-0.12,1721201799530
-3.20,0.61,6.84,-0.01,0.15,-0.17,1721201799540
-2.83,1.69,11.93,-0.00,0.03,-0.05,1721201799550
-1.60,-1.89,4.98,-0.04,-0.18,0.27,1721201799560
0.58,-0.19,11.23,-0.15,0.13,0.26,1721201799570
2.26,5.42,13.72,0.16,0.04,-0.06,1721201799580
2.70,-7.55,3.74,-0.20,-0.09,-0.08,1721201799590
-1.82,3.07,14.58,-0.14,0.03,-0.29,1721201799600
-0.65,3.92,12.38,0.23,0.11,-0.26,1721201799610
-1.32,-2.53,-0.66,-0.06,-0.03,0.12,1721201799620
0.06,-8.16,15.44,-0.60,0.22,-0.05,1721201799630
0.36,10.14,23.61,0.32,-0.13,-0.22,1721201799640
-2.17,0.57,-2.58,0.13,-0.13,-0.14,1721201799650
-2.17,-3.56,10.58,-0.47,0.33,0.02,1721201799660
1.89,1.33,16.63,0.19,-0.11,-0.02,1721201799670
0.34,-2.55,2.96,-0.29,0.26,-0.13,1721201799685
-1.62,0.94,12.94,-0.36,0.33,-0.09,1721201799689
1.16,2.99,20.55,0.07,-0.02,-0.14,1721201799699
-0.92,-3.10,5.45,0.13,-0.16,0.20,1721201799709
0.56,-0.78,6.45,-0.13,0.32,0.03,1721201799719
2.55,0.31,15.83,0.05,0.06,-0.22,1721201799729
-1.58,1.95,7.13,0.13,-0.10,-0.31,1721201799739
-1.90,1.98,9.23,-0.00,0.22,-0.09,1721201799749
0.11,-2.09,11.13,0.10,0.04,0.11,1721201799759
0.18,1.63,10.02,0.08,0.11,0.03,1721201799769
-0.16,1.76,9.74,0.01,0.11,-0.29,1721201799779
-3.43,-1.08,9.37,-0.04,-0.08,-0.18,1721201799789
-3.19,1.48,15.56,0.08,0.14,0.11,1721201799799
-0.21,-4.26,6.03,0.19,0.02,0.36,1721201799809
-0.50,0.97,6.09,0.01,0.11,0.17,1721201799819
0.92,-2.73,11.62,-0.18,0.05,-0.02,1721201799829
0.06,7.01,20.41,0.19,-0.04,0.05,1721201799839
0.33,1.48,9.01,0.37,0.02,0.21,1721201799849
0.23,-9.28,-1.01,-0.01,-0.01,0.28,1721201799859
-0.60,-1.16,13.49,-0.16,0.16,-0.05,1721201799869
-0.54,8.34,22.91,0.30,0.01,-0.29,1721201799879
-2.50,-5.32,1.94,0.15,-0.13,0.18,1721201799889
-2.37,-1.67,7.73,-0.07,0.18,0.41,1721201799899
3.18,4.00,13.27,0.22,0.04,0.32,1721201799909
3.62,0.58,7.38,-0.02,-0.04,0.17,1721201799919
2.71,2.18,15.22,0.00,0.08,-0.22,1721201799929
-0.86,-0.23,8.19,0.25,-0.17,-0.26,1721201799939
-3.53,-2.79,5.98,-0.13,0.06,0.04,1721201799949
-2.58,2.70,15.81,0.01,-0.03,0.09,1721201799959
-1.70,3.20,12.11,0.25,-0.01,0.18,1721201799969
-0.07,-1.83,4.33,-0.01,0.03,0.25,1721201799979
1.43,1.09,9.47,-0.06,-0.01,0.14,1721201799989
3.49,2.53,10.86,-0.01,0.04,-0.05,1721201799999
2.14,1.53,11.34,-0.04,0.01,-0.23,1721201800009
-1.72,-3.25,10.18,-0.10,-0.10,-0.30,1721201800019
-2.39,2.08,11.71,-0.00,-0.04,0.02,1721201800029
-0.58,1.65,7.58,0.03,-0.06,0.18,1721201800039
1.84,-3.27,13.74,-0.13,0.21,-0.02,1721201800049
0.83,-4.25,4.41,0.05,-0.24,-0.23,1721201800059
-1.47,0.26,11.85,-0.19,0.22,-0.12,1721201800069
-1.23,0.39,9.37,0.12,-0.14,-0.04,1721201800079
-3.21,-0.49,7.24,-0.09,0.08,0.05,1721201800089
1.41,-2.37,16.32,-0.14,0.08,0.18,1721201800099
3.16,-3.71,8.95,-0.03,-0.19,0.30,1721201800109
4.14,2.26,14.25,-0.08,0.25,-0.10,1721201800119
1.91,-3.29,6.54,-0.09,-0.31,-0.40,1721201800129
-5.64,3.36,9.63,-0.18,0.03,-0.38,1721201800139
-2.66,-0.45,11.32,0.04,0.18,-0.11,1721201800149
-0.88,-5.95,9.99,-0.08,-0.05,0.32,1721201800159
0.09,4.75,10.13,0.04,0.04,0.32,1721201800169
3.25,1.16,7.86,-0.00,0.06,-0.10,1721201800179
1.80,-1.40,11.41,-0.03,-0.02,-0.25,1721201800189
-0.87,2.21,7.13,0.10,0.01,-0.19,1721201800199
-1.10,-2.20,10.34,-0.26,0.13,-0.34,1721201800209
-0.75,7.03,19.79,0.16,-0.07,-0.15,1721201800219
-0.42,-0.32,4.18,0.23,-0.08,0.01,1721201800229
-0.68,-0.92,6.16,-0.11,0.24,-0.24,1721201800239
1.42,-0.41,18.32,0.00,0.20,-0.30,1721201800249
-0.68,1.93,12.45,0.22,-0.05,-0.33,1721201800259
-4.13,1.51,3.34,0.11,0.01,-0.25,1721201800269
-2.92,-2.94,10.12,-0.08,0.23,-0.06,1721201800279
0.29,0.70,20.38,0.18,0.20,-0.11,1721201800289
-0.25,0.13,3.81,0.24,-0.25,-0.03,1721201800299
0.06,5.01,8.98,0.02,0.38,-0.17,1721201800309
0.01,-2.95,9.31,-0.02,-0.06,-0.43,1721201800319
-4.11,3.30,10.54,0.20,-0.09,-0.26,1721201800329
-1.42,-3.29,5.45,0.00,0.17,0.11,1721201800339
0.95,1.17,15.62,-0.10,0.10,0.02,1721201800349
0.46,2.65,9.44,0.20,-0.02,-0.29,1721201800359
-2.11,-0.37,6.64,-0.09,0.11,-0.43,1721201800369
-4.11,-0.72,12.92,-0.02,-0.07,-0.17,1721201800379
-3.50,-2.39,11.33,-0.03,0.02,0.21,1721201800389
-1.37,4.07,12.06,0.15,0.05,0.26,1721201800399
1.96,-0.03,5.97,0.01,0.00,0.12,1721201800409
1.17,0.33,8.50,-0.14,0.03,-0.10,1721201800419
-0.17,-0.48,13.05,-0.05,0.08,-0.18,1721201800429
-2.70,-4.49,11.53,-0.06,-0.04,-0.05,1721201800439
-3.31,5.20,12.86,0.07,-0.00,0.21,1721201800449
0.54,3.44,9.89,-0.08,0.01,0.31,1721201800459
2.27,2.83,15.11,-0.06,0.01,0.16,1721201800469
1.55,-0.14,8.67,-0.05,-0.13,-0.15,1721201800479
-3.34,0.26,4.10,-0.19,-0.23,-0.18,1721201800489
-4.41,2.49,11.09,-0.06,0.04,0.26,1721201800499
0.61,-4.43,6.24,-0.08,-0.03,0.51,1721201800509
2.33,-0.73,11.68,-0.18,-0.03,0.28,1721201800519
3.26,3.80,15.99,0.03,0.07,-0.04,1721201800529
0.80,3.07,9.42,0.01,-0.15,-0.24,1721201800539
-2.33,-1.04,7.33,-0.25,-0.17,-0.12,1721201800549
-1.50,-0.57,11.80,-0.11,-0.01,0.13,1721201800559
-2.32,-2.03,5.53,-0.08,-0.13,0.13,1721201800569
-0.59,-2.78,9.90,-0.24,0.06,0.15,1721201800579
0.61,-1.34,11.74,-0.14,-0.15,0.06,1721201800589
0.68,1.19,16.23,-0.27,0.02,-0.05,1721201800599
-0.73,0.36,15.44,-0.02,-0.17,-0.09,1721201800609
-1.51,3.64,6.47,0.10,-0.05,-0.02,1721201800619
-0.65,-3.09,0.71,-0.06,-0.10,0.09,1721201800629
-2.49,-8.67,9.72,-0.41,0.04,-0.01,1721201800639
-1.38,8.61,20.66,0.07,-0.17,0.06,1721201800649
-0.50,0.68,10.34,0.24,-0.14,0.16,1721201800659
3.51,-1.29,8.05,-0.01,0.05,0.27,1721201800669
4.73,3.41,12.61,0.13,0.05,0.05,1721201800679
3.20,-2.85,2.83,0.30,-0.15,-0.11,1721201800689
0.11,-2.91,3.99,-0.12,0.11,-0.45,1721201800699
1.67,0.32,18.91,-0.16,-0.11,-0.46,1721201800709
-1.87,3.03,17.36,0.26,-0.13,-0.32,1721201800719
-2.84,0.39,10.02,0.14,0.16,-0.15,1721201800729
-1.36,1.23,8.77,0.19,0.05,0.02,1721201800739
1.00,-5.19,6.45,0.08,0.16,0.05,1721201800749
2.04,1.69,10.86,0.04,0.05,-0.17,1721201800759
0.59,-2.48,8.75,0.01,0.02,-0.37,1721201800769
-0.45,3.71,15.36,0.11,0.08,-0.29,1721201800779
-0.31,-4.69,5.36,0.08,-0.01,-0.22,1721201800789
-1.30,1.67,11.14,0.02,0.25,-0.21,1721201800799
-0.08,1.81,12.21,0.19,0.11,-0.27,1721201800809
-0.11,-0.77,9.62,0.02,0.11,-0.25,1721201800819
-1.04,3.48,13.22,0.26,0.18,-0.18,1721201800829
0.40,-10.44,7.39,-0.09,0.19,-0.16,1721201800839
-0.72,5.66,16.29,0.23,0.16,-0.19,1721201800849
1.14,6.34,6.34,0.39,0.22,-0.17,1721201800859
1.40,0.17,6.24,0.00,0.21,-0.25,1721201800869
-0.14,-0.94,12.26,0.12,0.13,-0.42,1721201800879
-2.36,-1.78,5.72,0.10,0.19,-0.33,1721201800889
-4.09,1.41,9.51,-0.05,0.22,-0.13,1721201800899
-2.31,2.97,17.69,0.07,0.28,-0.06,1721201800909
-0.93,3.42,3.57,0.38,0.00,0.11,1721201800919
1.82,-3.24,5.11,-0.18,0.51,-0.06,1721201800929
3.50,0.37,17.31,-0.12,0.10,-0.07,1721201800939
-0.98,3.40,7.77,0.09,0.08,-0.40,1721201800949
-2.88,4.90,13.00,-0.05,0.40,-0.50,1721201800959
-4.36,-0.75,3.98,0.18,-0.16,0.07,1721201800969
-0.26,-6.84,8.51,-0.41,0.62,0.32,1721201800979
4.16,0.51,15.40,0.08,0.15,0.10,1721201800989
3.71,2.66,9.54,-0.07,0.28,-0.44,1721201800999
-1.30,6.12,15.94,-0.02,0.11,-0.66,1721201801009
-6.16,2.67,2.94,0.20,-0.16,-0.19,1721201801019
-3.21,-8.42,3.13,-0.37,0.59,0.14,1721201801029
3.05,-1.47,22.47,-0.27,0.13,0.11,1721201801039
-0.00,5.49,7.23,0.31,-0.24,-0.05,1721201801049
0.48,3.29,1.06,0.05,0.52,-0.19,1721201801059
0.57,-5.82,11.93,-0.42,0.16,-0.11,1721201801069
-2.18,-1.76,13.34,0.01,-0.05,-0.04,1721201801079
-1.55,2.50,11.47,0.10,0.39,0.03,1721201801089
-1.01,3.99,7.29,0.09,0.09,-0.03,1721201801099
-2.05,-4.96,5.55,-0.18,-0.00,0.11,1721201801109
0.76,-3.28,11.67,0.00,0.24,0.25,1721201801119
1.85,1.13,11.53,-0.02,0.15,-0.11,1721201801129
-0.53,-1.89,12.21,-0.20,-0.00,-0.19,1721201801139
-2.15,-1.89,15.36,0.02,0.18,-0.17,1721201801149
-4.27,2.33,8.67,0.29,0.09,-0.04,1721201801159
-4.36,2.06,2.39,-0.01,0.07,0.20,1721201801169
-0.90,-3.21,13.22,-0.27,0.20,0.29,1721201801179
1.76,-4.28,17.52,0.11,-0.11,0.13,1721201801189
1.10,-1.94,10.52,0.14,0.09,0.00,1721201801199
-2.76,1.06,1.92,0.22,-0.12,-0.10,1721201801209
-2.32,0.53,11.25,-0.17,0.27,-0.05,1721201801219
-1.58,12.67,21.20,0.33,-0.24,0.20,1721201801229
-2.95,-5.22,1.65,0.08,-0.10,0.30,1721201801239
0.89,-0.18,12.13,-0.03,0.34,0.24,1721201801249
3.75,0.91,11.30,0.21,-0.29,0.27,1721201801259
-0.07,-2.81,2.88,-0.15,-0.21,0.11,1721201801269
-0.97,3.12,14.72,0.18,0.12,-0.16,1721201801279
-0.47,-1.36,7.54,0.15,-0.07,-0.05,1721201801289
-4.88,1.30,11.24,-0.28,-0.11,0.28,1721201801299
-0.47,7.74,24.33,0.36,0.01,0.23,1721201801309
0.50,-5.15,-2.36,0.35,-0.39,0.29,1721201801319
-0.59,1.74,6.56,-0.19,0.17,0.16,1721201801329
5.56,5.29,3.77,0.15,-0.30,-0.19,1721201801339
1.52,0.38,9.03,0.32,-0.10,-0.15,1721201801349
-2.00,-1.41,4.26,-0.02,-0.19,0.06,1721201801359
-2.26,3.00,8.29,0.09,-0.07,0.17,1721201801369
2.49,1.31,8.57,0.03,0.02,0.37,1721201801379
2.97,2.01,0.42,0.00,-0.31,0.33,1721201801389
4.84,-4.03,12.82,-0.44,0.13,-0.04,1721201801399
2.47,3.56,20.17,-0.05,-0.29,-0.24,1721201801409
-2.90,-0.28,10.35,-0.17,-0.17,-0.34,1721201801419
-5.24,2.17,15.66,-0.10,-0.13,-0.11,1721201801429
-5.05,1.22,4.07,0.03,-0.34,0.30,1721201801439
0.06,2.09,6.74,-0.21,0.12,0.53,1721201801449
4.64,-2.44,10.79,-0.22,-0.12,0.22,1721201801459
2.08,3.79,13.64,-0.13,-0.21,-0.18,1721201801469
-0.13,-0.92,8.93,-0.14,-0.18,-0.25,1721201801479
-2.78,-0.78,3.50,-0.15,-0.27,0.25,1721201801489
1.02,-5.55,11.25,-0.52,0.16,0.29,1721201801499
1.83,7.44,21.16,0.06,-0.17,-0.06,1721201801509
-0.17,0.09,4.37,0.08,-0.29,-0.16,1721201801519
-1.79,3.00,10.54,-0.34,0.19,-0.06,1721201801529
-1.18,-1.62,12.66,-0.18,-0.29,0.01,1721201801539
-1.94,-1.13,13.04,-0.14,-0.03,-0.01,1721201801549
0.44,0.53,7.12,0.11,-0.19,0.06,1721201801559
0.79,2.49,6.88,-0.17,-0.06,0.16,1721201801569
1.24,2.24,13.80,-0.13,0.05,-0.05,1721201801579
2.43,-4.65,11.48,-0.10,-0.07,-0.21,1721201801589
-2.10,3.36,7.10,0.06,-0.12,-0.31,1721201801599
-1.36,-4.47,8.51,-0.24,0.00,-0.09,1721201801609
-0.83,3.72,17.01,0.03,-0.10,0.04,1721201801619
1.83,1.94,9.01,0.29,0.05,-0.07,1721201801629
2.16,-1.98,7.21,-0.12,-0.05,-0.16,1721201801639
-0.25,6.79,14.85,0.03,-0.01,-0.38,1721201801649
-2.38,-0.81,10.04,0.20,-0.12,-0.40,1721201801659
-3.94,-7.02,5.26,-0.03,-0.03,-0.00,1721201801669
-2.02,2.19,11.89,0.08,0.01,0.17,1721201801679
0.39,5.07,13.01,0.12,0.11,0.06,1721201801694
1.26,1.90,10.39,0.15,-0.11,0.07,1721201801698
2.48,-4.21,8.26,0.01,0.08,-0.11,1721201801708
-0.65,4.88,12.68,0.18,-0.12,-0.19,1721201801718
-1.44,3.13,9.02,0.11,-0.03,-0.13,1721201801728
-1.46,-4.68,11.90,-0.06,-0.09,0.13,1721201801738
-0.44,0.84,15.64,0.19,0.03,0.25,1721201801748
3.01,3.24,4.14,0.32,0.03,0.16,1721201801758
4.07,1.04,6.50,-0.07,0.05,0.03,1721201801768
2.38,-1.02,17.56,0.01,0.05,-0.33,1721201801778
-0.79,3.37,6.64,0.46,-0.14,-0.37,1721201801788
-0.94,-1.55,3.75,-0.13,0.16,-0.06,1721201801798
-1.29,3.80,17.93,0.04,-0.16,0.01,1721201801808
-0.67,-3.26,4.19,0.10,-0.05,0.07,1721201801818
0.23,-2.78,15.82,-0.09,0.26,-0.07,1721201801828
-0.32,3.05,10.13,0.37,-0.24,0.03,1721201801838
-0.38,-2.16,1.21,-0.17,0.17,0.06,1721201801848
1.03,1.00,16.53,0.00,0.01,-0.03,1721201801858
0.55,1.42,8.08,0.23,0.01,0.02,1721201801868
0.60,4.37,7.64,-0.03,0.11,0.08,1721201801878
0.90,4.30,11.19,0.00,-0.05,-0.09,1721201801888
1.55,-4.35,9.71,-0.18,0.15,-0.22,1721201801898
0.30,-1.81,10.56,-0.08,-0.02,-0.32,1721201801908
-1.76,1.58,11.92,-0.17,0.06,-0.29,1721201801918
-2.04,5.30,15.34,0.22,0.04,-0.07,1721201801928
-1.27,-0.22,1.83,0.04,0.01,0.05,1721201801938
0.75,2.75,10.82,-0.15,0.15,0.08,1721201801948
3.55,-1.68,10.28,-0.08,0.03,0.03,1721201801958
2.64,-2.18,12.24,-0.09,0.14,-0.45,1721201801968
0.03,-0.68,11.56,-0.11,-0.01,-0.61,1721201801978
-3.71,1.92,9.08,0.08,-0.09,-0.30,1721201801988
-0.40,0.34,15.08,-0.13,0.28,-0.09,1721201801998
-1.52,5.14,12.91,0.26,0.02,-0.08,1721201802008
-0.98,-1.79,1.15,-0.01,0.13,-0.17,1721201802018
0.87,1.08,12.16,-0.16,0.17,-0.38,1721201802028
0.07,-4.64,7.66,0.08,-0.10,-0.28,1721201802038
-1.97,-1.58,7.56,-0.13,0.34,-0.26,1721201802048
-0.78,-1.12,18.40,-0.19,0.17,-0.29,1721201802058
-2.85,5.55,9.61,0.41,-0.23,-0.18,1721201802068
0.13,-7.92,0.67,-0.08,0.40,-0.05,1721201802078
-2.83,-3.27,14.64,0.05,0.05,-0.16,1721201802088
0.89,12.01,5.78,0.59,-0.04,-0.30,1721201802098
2.13,-13.44,-4.40,-0.19,0.23,-0.28,1721201802108
1.62,1.81,16.84,-0.45,0.38,-0.64,1721201802118
-14.58,4.04,28.64,0.19,0.47,-0.61,1721201802128
-9.21,1.77,6.88,0.37,-0.01,-0.34,1721201802138
-6.58,-8.38,-1.42,-0.15,0.11,0.15,1721201802148
-2.09,0.28,19.14,-0.12,0.29,0.37,1721201802158
10.34,7.51,7.91,0.14,0.33,0.24,1721201802168
7.52,0.48,5.44,-0.00,-0.08,-0.26,1721201802178
-0.29,-2.93,8.96,-0.21,-0.21,-0.37,1721201802188
-4.48,1.59,10.94,0.06,0.16,-0.50,1721201802198
-3.07,-0.10,11.49,0.07,0.14,-0.11,1721201802208
-4.10,-2.61,3.52,-0.02,-0.19,0.31,1721201802218
0.72,1.46,18.24,-0.08,0.49,0.15,1721201802228
4.22,4.55,13.73,0.14,-0.18,0.01,1721201802238
-0.78,2.86,2.30,0.02,-0.05,-0.21,1721201802248
-2.24,-6.93,7.13,-0.27,0.16,-0.27,1721201802258
-3.49,0.66,19.40,-0.01,-0.03,-0.06,1721201802268
-3.27,4.66,8.63,0.22,-0.05,0.31,1721201802278
-1.06,4.85,6.30,-0.09,0.11,0.21,1721201802288
1.02,-3.18,9.51,-0.11,-0.07,0.13,1721201802298
2.43,1.54,16.68,-0.01,0.13,0.08,1721201802308
1.85,2.56,1.83,0.11,-0.31,0.04,1721201802318
1.39,-4.66,8.76,-0.44,0.23,-0.00,1721201802328
-3.22,6.06,21.63,0.15,-0.16,-0.11,1721201802338
-3.66,1.82,4.01,0.13,-0.16,-0.13,1721201802348
-2.92,3.56,13.78,-0.22,0.20,0.00,1721201802358
-1.89,-0.54,15.00,0.05,-0.21,0.01,1721201802368
-2.60,1.10,10.25,-0.11,-0.14,0.17,1721201802378
-0.87,5.32,12.23,0.09,-0.12,0.27,1721201802388
1.58,-3.22,2.81,0.00,-0.11,0.31,1721201802398
2.79,-0.33,13.09,-0.17,0.06,0.11,1721201802408
1.97,6.11,13.92,0.12,-0.25,-0.18,1721201802418
-0.35,0.91,5.34,-0.00,-0.07,-0.13,1721201802428
-1.28,3.05,11.26,-0.10,-0.01,-0.12,1721201802438
-1.30,3.70,7.32,0.08,-0.19,0.01,1721201802448
0.68,-1.84,14.07,-0.45,0.11,0.16,1721201802458
0.77,0.48,19.74,0.01,-0.19,-0.10,1721201802468
-0.01,-10.03,-1.07,-0.06,-0.23,-0.14,1721201802478
-4.26,-5.48,7.44,-0.60,0.09,-0.18,1721201802488
-0.94,-0.20,17.16,0.01,-0.23,0.14,1721201802498
-1.15,4.95,5.13,0.13,-0.14,0.31,1721201802508
3.79,4.22,5.75,-0.11,0.15,0.21,1721201802518
5.71,-7.07,15.55,-0.55,-0.07,-0.07,1721201802528
0.67,-4.43,19.24,-0.25,-0.21,-0.55,1721201802538
-2.83,-0.71,9.34,0.17,-0.18,-0.37,1721201802548
-4.94,-2.76,0.08,-0.16,-0.13,0.15,1721201802558
-1.28,1.95,15.77,-0.17,0.05,0.31,1721201802568
3.93,3.80,13.85,0.15,0.08,0.23,1721201802578
4.64,-4.53,5.35,-0.20,-0.06,-0.12,1721201802588
1.98,6.82,12.98,-0.14,0.08,-0.52,1721201802598
0.48,-1.46,12.21,-0.04,-0.25,-0.50,1721201802608
-2.26,-6.48,9.78,-0.13,0.06,-0.28,1721201802618
-2.79,-3.25,20.67,-0.19,-0.03,-0.23,1721201802628
-2.69,8.86,28.13,0.11,-0.01,-0.19,1721201802638
-2.33,8.74,7.14,0.81,0.06,0.12,1721201802648
0.66,-7.46,-6.27,0.51,-0.07,0.28,1721201802658
1.06,3.65,10.65,0.09,0.33,0.04,1721201802668
-1.59,3.23,15.13,0.41,-0.55,0.14,1721201802678
4.86,-3.33,3.31,0.07,-0.13,-0.29,1721201802688
1.92,2.66,18.50,0.15,0.12,-0.33,1721201802698
-0.51,-0.68,8.34,0.37,-0.29,-0.34,1721201802708
-3.04,-1.48,2.34,0.21,0.12,-0.21,1721201802718
-1.78,3.24,10.52,0.26,0.12,0.01,1721201802728
-0.65,-2.83,9.49,0.05,0.10,-0.03,1721201802738
-0.39,-1.98,19.75,0.09,0.05,-0.03,1721201802748
1.01,1.49,1.69,0.47,-0.08,0.01,1721201802758
1.21,-2.95,-1.79,-0.19,0.14,0.01,1721201802768
-0.82,-3.37,22.04,-0.34,0.09,-0.16,1721201802778
-1.28,0.84,18.21,0.22,-0.10,-0.39,1721201802788
-2.77,3.64,1.16,0.21,0.07,-0.24,1721201802798
-2.16,-6.37,4.53,-0.44,0.04,0.08,1721201802808
0.41,0.49,22.61,-0.11,0.21,0.03,1721201802818
0.51,6.14,9.55,0.40,-0.12,-0.10,1721201802828
-1.89,-4.10,-6.76,-0.06,-0.08,-0.03,1721201802838
0.86,-8.46,12.79,-0.35,0.39,-0.05,1721201802848
-6.06,1.37,27.01,0.27,-0.53,0.01,1721201802858
-3.44,16.50,11.12,0.27,0.07,-0.05,1721201802868
2.95,18.53,13.41,0.22,0.25,-0.13,1721201802878
0.97,-20.19,2.74,-0.42,-0.28,-0.11,1721201802888
1.39,-6.17,15.13,-0.55,0.67,-0.50,1721201802898
1.00,15.35,16.09,-0.02,-0.27,-0.47,1721201802908
-5.45,-2.17,-0.16,0.11,-0.13,-0.59,1721201802918
-7.19,-0.97,11.42,-0.13,0.09,-0.12,1721201802928
-2.54,5.89,11.71,0.19,-0.09,0.35,1721201802938
1.17,-3.40,7.66,-0.03,0.28,0.52,1721201802948
6.50,2.28,16.06,0.15,0.33,0.04,1721201802958
5.45,-0.56,5.46,0.30,-0.26,-0.29,1721201802968
0.90,-2.09,3.95,0.08,0.21,-0.63,1721201802978
-2.77,0.20,7.39,-0.00,-0.12,-0.48,1721201802988
-3.98,3.48,2.35,0.07,-0.01,-0.20,1721201802998
-1.94,2.21,12.39,-0.04,0.33,-0.08,1721201803008
-0.63,-3.12,0.22,0.19,-0.30,0.12,1721201803018
-3.26,-4.32,-9.03,0.06,0.10,0.24,1721201803028
5.28,-3.99,-3.06,-0.49,0.34,0.17,1721201803038
3.51,-25.11,31.39,-1.70,0.61,-0.79,1721201803048
-2.77,22.11,78.45,0.28,-0.12,-1.31,1721201803058
-20.90,-0.49,18.64,1.52,-0.81,-0.73,1721201803068
-11.34,-5.05,-23.52,0.61,1.01,0.45,1721201803078
-7.99,-18.34,4.13,-2.00,-0.48,1.25,1721201803088
8.37,25.21,22.38,0.07,1.18,0.21,1721201803098
14.77,15.36,20.20,0.47,-0.48,-0.51,1721201803108
1.91,3.45,-13.89,-0.30,-0.07,-0.70,1721201803118
8.41,-1.37,18.32,-0.61,0.38,-0.58,1721201803128
-5.06,1.60,23.65,0.13,-0.26,-0.42,1721201803138
-4.66,-0.24,5.54,0.48,0.06,-0.03,1721201803148
-2.12,-2.81,3.30,-0.20,0.15,0.09,1721201803158
1.06,6.56,15.58,0.15,-0.01,-0.10,1721201803168
2.90,5.31,15.80,0.49,0.10,-0.28,1721201803178
-2.49,-1.36,3.94,0.19,-0.17,-0.26,1721201803188
-3.36,-0.22,9.30,0.17,0.06,-0.17,1721201803198
-0.10,6.35,13.86,0.47,0.09,-0.02,1721201803208
0.29,-1.67,3.73,0.12,-0.14,0.17,1721201803218
1.75,-0.52,14.65,0.07,0.24,-0.08,1721201803228
2.39,2.02,12.05,0.40,-0.12,-0.26,1721201803238
0.28,-1.27,5.41,0.04,0.09,-0.37,1721201803248
-0.32,0.57,11.60,0.09,0.07,-0.30,1721201803258
-2.12,-0.14,8.57,0.05,0.06,-0.16,1721201803268
-1.88,4.87,11.94,0.18,0.14,-0.07,1721201803278
1.27,-5.46,2.85,-0.10,-0.05,0.06,1721201803288
1.61,-1.04,15.62,-0.29,0.24,-0.09,1721201803298
1.18,5.85,16.96,0.17,0.03,-0.43,1721201803308
-2.54,-3.17,1.11,-0.05,-0.16,-0.32,1721201803318
-4.64,-1.22,10.77,-0.31,0.19,-0.05,1721201803328
-2.19,5.36,11.67,0.12,0.05,0.04,1721201803338
1.01,-5.02,6.61,-0.33,0.12,0.10,1721201803348
0.25,1.86,19.35,-0.22,-0.00,-0.10,1721201803358
-1.90,8.40,6.62,0.28,-0.23,-0.15,1721201803368
-0.08,-8.99,1.92,-0.42,0.25,0.08,1721201803378
-1.92,-6.96,17.23,-0.32,-0.07,0.05,1721201803388
-1.09,1.96,7.43,0.17,-0.02,-0.13,1721201803398
0.35,1.92,10.79,-0.24,0.26,-0.08,1721201803408
1.07,4.06,19.66,-0.07,-0.07,0.12,1721201803418
-0.55,2.92,4.40,0.26,-0.10,0.04,1721201803428
0.87,-9.90,4.15,-0.43,0.21,-0.21,1721201803438
-1.24,4.04,21.80,-0.12,-0.04,-0.35,1721201803448
-5.36,-0.49,10.72,0.13,-0.01,-0.27,1721201803458
-5.57,-1.64,3.98,0.07,0.03,0.35,1721201803468
1.08,-2.09,9.04,-0.04,0.26,0.46,1721201803478
4.47,2.81,14.75,0.03,0.12,0.29,1721201803488
2.84,3.90,8.44,0.13,-0.08,-0.04,1721201803498
4.44,-0.93,7.89,0.02,0.17,-0.34,1721201803508
0.72,-3.07,12.19,-0.13,-0.08,-0.34,1721201803518
-3.47,2.69,12.59,0.08,-0.01,-0.35,1721201803528
-1.31,-2.57,12.92,0.09,0.25,-0.20,1721201803538
-2.05,0.16,16.10,0.02,-0.05,0.04,1721201803548
-2.19,6.73,8.97,0.35,0.06,0.12,1721201803558
1.64,-1.23,-4.98,0.27,0.14,0.11,1721201803568
2.71,-3.06,7.30,-0.37,0.21,0.02,1721201803578
8.51,8.50,21.56,-0.16,0.07,-0.22,1721201803588
0.46,-0.73,8.81,0.29,-0.15,-0.21,1721201803598
-0.60,-3.62,5.82,-0.10,0.29,-0.17,1721201803608
-3.19,2.23,14.54,0.20,-0.02,-0.10,1721201803618
-1.93,-4.60,6.94,0.12,0.18,0.08,1721201803628
0.26,2.93,9.70,0.24,0.08,0.36,1721201803638
2.78,5.68,8.27,0.22,0.23,0.13,1721201803648
4.15,-0.60,10.47,0.05,0.15,-0.06,1721201803658
2.48,-2.46,11.60,0.09,0.02,-0.29,1721201803668
1.10,-2.34,7.15,0.06,0.11,-0.42,1721201803678
-2.02,1.13,13.11,0.08,0.13,-0.23,1721201803688
-2.54,-0.91,5.80,0.10,0.17,-0.06,1721201803703
-2.66,-1.79,7.82,-0.00,0.20,-0.08,1721201803707
-1.51,-0.24,9.98,0.08,0.08,0.14,1721201803717
0.94,1.61,11.60,-0.01,0.37,-0.07,1721201803727
0.80,0.03,10.61,0.04,-0.03,-0.12,1721201803737
0.13,-0.59,9.82,-0.06,0.18,-0.04,1721201803747
1.04,0.88,10.43,0.02,0.17,-0.18,1721201803757
-1.14,2.22,12.75,-0.03,0.14,-0.26,1721201803767
-2.57,2.54,10.68,0.00,0.12,-0.05,1721201803777
-0.96,0.85,12.25,-0.03,0.24,0.03,1721201803787
1.44,1.90,9.86,0.07,0.16,-0.04,1721201803797
2.01,3.94,0.88,0.13,0.15,0.00,1721201803807
3.14,-7.62,10.79,-0.54,0.50,-0.32,1721201803817
-1.87,4.32,21.11,0.14,-0.20,-0.55,1721201803827
-4.55,-0.49,4.42,0.14,0.17,-0.29,1721201803837
-3.76,4.30,10.81,0.00,0.15,0.20,1721201803847
1.20,1.12,9.19,0.09,0.18,0.28,1721201803857
2.26,-3.22,6.88,-0.08,0.27,-0.10,1721201803867
3.86,-3.09,16.02,-0.05,0.19,-0.37,1721201803877
-0.50,-0.88,9.75,0.17,0.05,-0.39,1721201803887
-4.43,3.24,7.95,0.01,0.20,-0.23,1721201803897
-4.66,0.23,7.49,-0.04,0.08,0.09,1721201803907
-0.07,-3.24,14.95,-0.04,0.31,0.16,1721201803917
1.03,-5.42,6.56,0.07,0.03,0.07,1721201803927
-0.42,4.78,10.45,-0.04,0.38,-0.21,1721201803937
0.50,-3.40,12.57,-0.11,0.01,-0.26,1721201803947
-2.49,-0.41,15.31,0.08,-0.00,-0.06,1721201803957
-2.06,-4.27,4.13,0.16,0.15,0.23,1721201803967
0.11,2.96,14.93,-0.09,0.35,0.03,1721201803977
-0.06,1.87,5.21,0.24,-0.26,0.01,1721201803987
-0.32,-1.61,5.82,-0.12,0.34,0.00,1721201803997
-0.08,0.14,10.43,0.01,0.09,-0.04,1721201804007
-0.62,-6.85,8.16,-0.28,-0.01,-0.11,1721201804017
-1.84,3.17,21.36,0.00,0.13,-0.11,1721201804027
-1.73,-0.18,7.38,0.20,-0.09,0.02,1721201804037
-1.21,-3.68,7.54,-0.29,0.23,0.12,1721201804047
0.63,4.48,15.46,0.16,0.03,0.04,1721201804057
1.64,0.28,4.86,0.02,0.01,-0.04,1721201804067
-0.84,2.90,13.90,-0.20,0.13,-0.09,1721201804077
-0.11,4.40,6.68,0.31,-0.10,-0.03,1721201804087
1.47,-1.21,6.92,-0.13,0.37,-0.01,1721201804097
-1.90,2.63,17.71,0.01,-0.07,-0.01,1721201804107
-0.96,2.49,8.33,0.17,0.00,-0.23,1721201804117
-2.42,3.27,10.86,0.17,0.13,-0.08,1721201804127
-2.82,0.74,7.01,0.15,-0.05,0.18,1721201804137
-1.34,5.85,13.27,0.16,0.20,0.29,1721201804147
1.77,-0.86,5.88,0.13,-0.02,0.11,1721201804157
0.84,2.72,12.20,0.06,0.10,-0.13,1721201804167
0.86,-1.94,11.78,0.06,-0.03,-0.09,1721201804177
-3.23,4.07,10.14,0.19,-0.10,-0.13,1721201804187
-2.60,0.33,5.07,0.05,0.12,0.00,1721201804197
-2.45,0.93,12.65,-0.09,-0.03,0.27,1721201804207
-1.57,5.33,10.19,0.15,-0.10,0.31,1721201804217
0.78,-2.34,6.24,-0.07,0.01,0.25,1721201804227
0.28,-3.17,13.41,-0.16,-0.06,0.08,1721201804237
-2.60,4.13,11.49,0.10,-0.20,-0.06,1721201804247
-2.81,5.39,9.24,0.04,-0.08,0.19,1721201804257
-0.88,-2.78,2.98,-0.12,-0.13,0.42,1721201804267
1.41,-10.39,8.66,-0.41,0.05,0.31,1721201804277
2.28,0.25,21.23,-0.04,-0.05,-0.01,1721201804287
-1.20,8.06,7.30,0.37,-0.43,-0.06,1721201804297
-1.02,2.05,3.87,-0.32,0.03,0.24,1721201804307
1.81,-6.56,15.05,-0.30,-0.14,0.35,1721201804317
-0.95,-3.36,9.55,-0.08,-0.14,-0.06,1721201804327
-1.69,-0.68,8.94,-0.19,-0.13,-0.05,1721201804337
-1.55,0.55,12.87,-0.15,-0.25,0.20,1721201804347
0.65,1.24,10.98,0.06,-0.11,0.48,1721201804357
3.62,-1.19,7.06,-0.07,0.06,0.24,1721201804367
2.33,8.43,12.04,-0.18,-0.11,-0.05,1721201804377
2.22,-0.02,14.03,-0.24,-0.03,-0.29,1721201804387
-2.70,1.18,7.18,0.25,-0.29,-0.30,1721201804397
-2.25,-3.71,2.99,-0.15,0.16,-0.08,1721201804407
-3.17,2.62,18.56,-0.13,-0.30,0.44,1721201804417
-0.23,3.10,12.82,-0.01,-0.02,0.20,1721201804427
3.14,2.80,10.84,0.16,-0.12,-0.12,1721201804437
3.64,-2.91,4.08,0.12,-0.17,-0.14,1721201804447
2.91,6.67,7.55,0.10,0.07,-0.13,1721201804457
0.57,9.08,14.54,-0.08,0.02,-0.53,1721201804467
-4.10,-0.19,17.67,0.04,-0.25,-0.56,1721201804477
-4.35,-22.52,-1.74,-0.03,-0.13,-0.29,1721201804487
-4.85,1.69,16.56,-0.14,0.23,-0.09,1721201804497
-2.69,10.52,18.98,0.39,-0.03,0.14,1721201804507
-0.16,-3.82,0.91,-0.17,-0.24,0.35,1721201804517
2.79,1.58,13.28,0.08,0.17,0.02,1721201804527
4.26,-5.60,2.55,-0.05,-0.20,-0.26,1721201804537
-2.15,3.76,19.17,-0.40,0.06,-0.54,1721201804547
-4.54,4.81,16.00,0.33,-0.22,-0.17,1721201804557
-1.39,-9.49,-5.09,-0.00,0.06,0.45,1721201804567
4.18,-1.70,16.48,-0.35,0.34,0.31,1721201804577
6.65,7.64,15.89,-0.00,-0.03,-0.07,1721201804587
1.36,8.38,5.79,0.17,-0.18,-0.33,1721201804597
1.34,-6.06,7.05,-0.12,0.13,-0.33,1721201804607
-0.63,-1.52,2.27,0.06,-0.15,-0.13,1721201804617
-0.91,-9.00,3.36,-0.57,0.23,-0.30,1721201804627
-2.48,-7.90,39.78,-0.55,0.04,-0.42,1721201804637
-4.77,17.41,30.32,0.86,-0.42,-0.22,1721201804647
-4.56,2.13,-17.15,0.80,-0.07,0.43,1721201804657
3.32,1.19,-0.74,-0.29,0.72,0.55,1721201804667
6.54,-5.94,14.62,-0.11,-0.31,0.09,1721201804677
9.93,10.22,5.34,0.17,0.29,-0.44,1721201804687
2.41,3.59,5.70,0.24,-0.16,-0.27,1721201804697
-2.89,-5.43,5.04,-0.35,-0.07,-0.18,1721201804707
-1.24,3.84,23.30,0.04,0.24,-0.11,1721201804717
0.66,4.99,16.14,0.46,0.04,-0.13,1721201804727
-0.01,2.76,5.10,0.15,0.11,-0.03,1721201804737
0.97,-3.92,2.97,0.11,0.06,0.01,1721201804747
2.80,-2.55,11.29,-0.01,0.32,-0.18,1721201804757
0.22,6.28,14.38,0.29,-0.04,-0.45,1721201804767
-3.11,-0.28,5.73,0.11,0.00,-0.46,1721201804777
-4.70,1.30,15.03,0.06,0.05,-0.15,1721201804787
-1.90,9.84,16.11,0.49,0.11,0.21,1721201804797
3.00,6.23,3.09,0.49,0.27,0.26,1721201804807
5.29,-11.63,0.27,-0.12,0.12,-0.05,1721201804817
2.97,-2.71,14.10,-0.06,0.29,-0.73,1721201804827
-4.28,2.74,11.36,0.28,0.03,-0.80,1721201804837
-5.92,-0.98,3.64,-0.00,0.06,-0.53,1721201804847
-8.08,-3.41,13.92,0.03,0.12,0.08,1721201804857
-4.91,3.80,12.47,0.12,0.14,0.30,1721201804867
1.64,-6.99,14.15,-0.23,0.28,0.13,1721201804877
2.72,-4.14,12.22,0.14,-0.09,-0.19,1721201804887
0.74,0.55,4.95,-0.07,0.17,-0.33,1721201804897
-2.51,-0.85,15.50,-0.10,0.12,-0.37,1721201804907
-3.43,-2.50,9.60,0.14,-0.14,-0.11,1721201804917
-3.08,2.73,5.12,0.06,0.18,0.20,1721201804927
0.19,0.05,1.19,-0.10,0.12,0.27,1721201804937
2.54,0.17,14.44,-0.24,0.31,-0.22,1721201804947
0.79,-3.85,2.61,0.02,-0.28,-0.18,1721201804957
-2.28,-7.34,3.28,-0.60,0.26,-0.22,1721201804967
1.47,3.77,25.10,-0.43,0.09,-0.25,1721201804977
-2.49,-2.26,22.77,-0.04,-0.37,-0.21,1721201804987
-6.84,6.93,6.27,0.39,0.13,0.01,1721201804997
-2.66,-6.28,-2.79,-0.16,-0.04,0.50,1721201805007
0.91,-1.09,18.32,-0.09,0.21,0.70,1721201805017
6.13,6.53,17.94,0.19,0.06,0.21,1721201805027
2.87,-3.85,8.24,-0.23,-0.16,-0.52,1721201805037
-6.22,-0.21,13.85,-0.11,-0.32,-0.57,1721201805047
-6.39,-2.27,9.51,0.02,0.03,0.02,1721201805057
-3.48,4.77,18.90,0.11,0.21,0.50,1721201805067
0.27,3.80,5.22,0.33,-0.28,0.61,1721201805077
4.02,-0.22,3.06,-0.01,0.24,0.32,1721201805087
6.08,-2.11,19.16,-0.16,0.13,-0.20,1721201805097
0.34,2.64,13.51,0.14,-0.36,-0.47,1721201805107
-5.20,4.12,10.93,0.10,0.01,-0.35,1721201805117
-4.93,2.77,5.73,0.30,-0.15,0.30,1721201805127
-0.61,-0.70,6.34,-0.02,0.14,0.46,1721201805137
4.03,2.57,10.84,-0.00,-0.14,0.38,1721201805147
5.60,0.56,11.25,-0.02,0.08,-0.12,1721201805157
2.88,0.95,11.26,-0.02,-0.05,-0.53,1721201805167
-2.74,-0.42,11.28,-0.01,-0.16,-0.50,1721201805177
-4.18,1.81,11.33,0.23,0.04,-0.03,1721201805187
-2.28,-0.53,9.20,-0.07,0.08,0.17,1721201805197
-0.38,-0.84,17.11,-0.03,-0.06,0.15,1721201805207
0.72,6.44,8.45,0.43,-0.11,0.09,1721201805217
3.06,1.39,2.69,-0.05,0.08,-0.04,1721201805227
1.02,-1.69,7.24,-0.16,-0.06,-0.15,1721201805237
-0.45,-6.72,7.23,-0.15,0.10,-0.40,1721201805247
-2.46,2.54,19.85,0.05,0.04,-0.26,1721201805257
-3.68,0.55,7.94,0.25,-0.23,0.07,1721201805267
-1.98,3.11,7.22,0.04,0.14,0.21,1721201805277
2.00,-3.09,8.70,-0.13,-0.08,0.08,1721201805287
1.73,-3.46,18.16,-0.09,-0.03,-0.18,1721201805297
-1.08,1.73,8.57,0.32,-0.07,-0.29,1721201805307
-3.77,1.48,1.32,-0.04,0.00,-0.38,1721201805317
-3.52,-0.54,13.61,-0.22,-0.08,-0.00,1721201805327
-0.73,-0.35,10.38,0.24,-0.17,0.40,1721201805337
4.12,-1.64,5.57,-0.18,0.22,0.36,1721201805347
5.33,8.34,14.54,0.05,-0.02,-0.09,1721201805357
2.82,-0.68,6.02,-0.03,-0.24,-0.53,1721201805367
-3.51,-0.55,9.94,-0.20,-0.06,-0.52,1721201805377
-4.42,2.84,12.77,0.07,0.02,-0.30,1721201805387
-3.77,-0.47,10.43,-0.10,0.06,-0.04,1721201805397
-2.23,-0.99,16.68,-0.01,-0.09,0.17,1721201805407
-0.56,5.06,6.14,0.46,-0.13,0.28,1721201805417
2.72,1.58,1.99,-0.17,0.19,0.09,1721201805427
1.08,6.01,16.40,-0.12,-0.11,-0.23,1721201805437
0.87,-0.82,11.76,0.07,-0.05,-0.41,1721201805447
-1.93,-5.02,8.75,-0.17,-0.05,-0.23,1721201805457
-1.73,3.42,14.34,0.19,0.05,-0.02,1721201805467
1.40,-1.24,4.84,0.09,-0.03,0.08,1721201805477
1.23,4.44,12.59,-0.07,0.07,-0.12,1721201805487
1.30,4.03,10.60,0.17,-0.10,-0.43,1721201805497
-1.82,-5.06,7.03,-0.21,-0.01,-0.44,1721201805507
-4.29,-0.66,16.14,-0.06,0.01,-0.17,1721201805517
-2.94,0.31,7.87,0.29,-0.10,-0.01,1721201805527
-1.29,-0.74,5.64,-0.11,0.10,0.15,1721201805537
0.61,5.28,13.21,0.16,-0.05,0.09,1721201805547
3.82,-1.31,6.94,0.02,0.03,-0.05,1721201805557
3.28,0.46,15.58,-0.16,0.15,-0.20,1721201805567
-0.67,5.59,9.07,0.25,-0.18,-0.45,1721201805577
-2.90,-0.02,5.16,-0.18,0.20,-0.41,1721201805587
-4.28,-1.10,11.02,-0.09,-0.18,0.09,1721201805597
-1.26,-7.61,8.26,-0.18,0.09,0.23,1721201805607
2.49,2.22,17.06,0.17,0.16,0.11,1721201805617
3.35,4.38,6.96,0.24,-0.11,-0.19,1721201805627
2.15,1.26,8.37,-0.13,0.10,-0.28,1721201805637
0.01,3.79,11.27,0.11,0.03,-0.38,1721201805647
-1.78,-2.46,5.54,-0.23,0.13,-0.42,1721201805657
-5.09,-4.10,15.48,-0.27,-0.07,-0.17,1721201805667
-4.07,4.73,13.49,0.31,-0.04,0.15,1721201805677
0.62,0.50,3.04,0.02,0.21,0.28,1721201805687
3.29,-1.99,10.63,-0.27,0.08,0.09,1721201805697
1.41,-1.68,6.32,-0.05,-0.20,-0.43,1721201805712
2.30,-4.22,7.77,-0.21,0.04,-0.47,1721201805716
-3.12,8.00,14.98,0.08,-0.07,-0.43,1721201805726
-2.99,1.96,3.42,0.17,0.04,-0.29,1721201805736
-2.52,-4.97,6.94,-0.43,0.30,-0.12,1721201805746
-1.55,-0.13,20.06,-0.05,0.05,0.02,1721201805756
0.63,0.99,14.63,0.25,0.18,-0.14,1721201805766
-0.44,4.82,5.34,0.16,0.05,-0.25,1721201805776
-0.08,3.38,4.30,0.07,0.12,-0.14,1721201805786
0.56,0.32,8.01,-0.14,0.20,-0.23,1721201805796
-0.59,0.51,14.13,-0.09,0.06,-0.38,1721201805806
-2.70,2.59,12.44,0.18,0.15,-0.28,1721201805816
-3.27,-3.28,1.99,0.05,0.01,-0.08,1721201805826
-2.45,3.44,17.81,-0.12,0.37,0.03,1721201805836
1.89,6.09,10.12,0.39,-0.10,0.04,1721201805846
1.62,-1.79,0.86,-0.11,0.17,-0.09,1721201805856
2.24,-2.26,16.60,-0.28,0.27,-0.32,1721201805866
0.88,-0.12,14.43,0.24,0.00,-0.34,1721201805876
-3.04,3.34,4.88,0.11,0.15,-0.23,1721201805886
-2.36,2.32,11.40,-0.01,0.20,-0.05,1721201805896
-1.36,-1.38,8.77,0.07,-0.06,-0.00,1721201805906
-1.10,-1.58,12.23,-0.10,0.25,0.02,1721201805916
0.54,3.80,13.17,0.29,0.02,0.06,1721201805926
1.67,0.21,3.85,0.03,0.10,0.05,1721201805936
0.82,1.13,11.93,-0.11,0.18,-0.19,1721201805946
0.38,-0.55,11.08,0.16,0.04,-0.29,1721201805956
-1.61,-2.82,7.51,0.01,0.12,-0.08,1721201805966
-2.28,3.80,13.89,0.06,0.19,0.05,1721201805976
-0.75,4.10,2.10,0.32,-0.06,0.03,1721201805986
0.69,-1.09,4.99,-0.28,0.27,0.08,1721201805996
2.43,2.09,20.88,-0.11,0.11,-0.07,1721201806006
0.71,-2.41,6.75,0.26,-0.05,-0.12,1721201806016
-0.28,3.02,9.89,-0.14,0.51,-0.25,1721201806026
-2.02,0.52,10.71,-0.00,-0.15,-0.21,1721201806036
-3.33,3.47,11.27,0.03,0.22,-0.03,1721201806046
0.61,-1.18,7.56,0.02,0.13,0.25,1721201806056
1.51,-1.17,11.25,-0.09,0.13,0.08,1721201806066
2.65,-0.04,12.67,0.02,0.23,-0.14,1721201806076
-0.27,3.16,9.85,0.11,0.02,-0.26,1721201806086
-2.02,4.80,9.66,-0.02,0.18,-0.24,1721201806096
-1.62,-1.26,11.75,-0.02,0.07,-0.01,1721201806106
-2.43,-5.40,7.08,-0.12,0.07,0.15,1721201806116
-1.03,3.28,14.39,-0.01,0.29,0.07,1721201806126
1.55,0.51,8.48,0.21,0.00,0.02,1721201806136
1.61,2.50,7.31,0.00,0.20,-0.09,1721201806146
0.80,0.44,11.33,-0.08,0.17,-0.27,1721201806156
-3.12,4.03,10.77,0.10,0.03,-0.23,1721201806166
-1.42,-4.24,10.58,-0.27,0.26,0.04,1721201806176
-0.97,3.91,17.32,0.19,0.02,0.10,1721201806186
0.89,-1.89,2.87,0.13,0.15,0.03,1721201806196
-0.13,-0.33,10.01,-0.21,0.22,-0.10,1721201806206
-0.21,7.30,17.78,0.16,0.12,-0.27,1721201806216
-0.91,1.95,7.89,0.21,0.01,-0.06,1721201806226
-1.37,-3.08,4.49,-0.16,0.17,0.13,1721201806236
0.52,-2.52,12.96,-0.10,0.15,0.06,1721201806246
0.16,4.19,12.37,0.29,0.14,-0.19,1721201806256
0.39,2.07,6.69,0.00,0.14,-0.15,1721201806266
-3.44,0.80,12.12,-0.05,-0.05,-0.07,1721201806276
-1.09,2.62,12.99,0.18,0.33,0.09,1721201806286
0.85,-1.33,4.85,0.02,0.17,0.12,1721201806296
-2.04,5.80,12.61,-0.16,0.15,-0.16,1721201806306
-0.41,-0.79,12.24,0.11,0.03,-0.02,1721201806316
-1.05,-4.44,4.86,-0.03,0.16,0.17,1721201806326
0.87,-4.03,11.25,-0.21,0.26,0.12,1721201806336
0.50,5.08,17.63,0.23,0.04,0.06,1721201806346
-0.33,9.48,2.28,0.35,0.06,-0.05,1721201806356
0.07,-0.72,7.55,-0.41,0.25,-0.08,1721201806366
-1.06,-5.48,16.06,-0.13,-0.23,0.09,1721201806376
0.57,-5.08,10.05,0.03,0.37,0.05,1721201806386
-0.12,2.42,10.79,0.21,0.10,0.02,1721201806396
-2.22,3.99,8.16,0.09,0.03,0.02,1721201806406
-2.86,5.92,10.51,0.15,-0.06,0.23,1721201806416
0.65,0.19,4.97,-0.17,0.16,0.30,1721201806426
3.09,-3.02,13.75,-0.26,0.24,0.08,1721201806436
0.33,-5.88,11.24,-0.04,-0.13,-0.06,1721201806446
-2.75,3.86,14.03,0.18,0.10,0.01,1721201806456
-1.98,4.01,1.91,0.28,-0.11,0.33,1721201806466
1.44,-4.00,9.99,-0.49,0.28,0.33,1721201806476
3.04,0.31,22.92,-0.06,-0.08,0.19,1721201806486
0.62,2.56,12.36,0.24,0.07,-0.13,1721201806496
-3.45,7.58,4.27,0.27,-0.13,-0.11,1721201806506
-3.93,-1.66,-3.73,-0.13,-0.12,0.15,1721201806516
-1.21,1.04,16.06,-0.16,0.30,0.32,1721201806526
1.03,-5.74,17.70,-0.12,-0.23,0.36,1721201806536
-1.67,3.76,14.67,0.16,-0.18,0.34,1721201806546
4.20,3.34,7.93,0.20,0.20,0.17,1721201806556
2.24,-1.61,1.55,-0.14,-0.23,-0.01,1721201806566
-3.05,3.32,9.25,-0.08,0.08,-0.24,1721201806576
-0.29,1.06,13.88,-0.02,-0.09,0.08,1721201806586
-1.66,-0.75,8.59,-0.02,-0.22,0.50,1721201806596
1.32,-0.21,9.03,-0.08,0.09,0.37,1721201806606
3.76,-0.94,17.58,-0.14,0.09,-0.01,1721201806616
-1.15,3.04,8.93,0.20,-0.34,-0.16,1721201806626
-3.80,-2.00,2.92,-0.22,0.02,-0.09,1721201806636
-4.26,-1.61,16.19,-0.06,-0.10,0.26,1721201806646
0.36,2.76,11.21,0.22,-0.05,0.44,1721201806656
2.86,2.79,4.44,0.02,-0.06,0.29,1721201806666
3.23,1.57,12.84,-0.23,0.02,-0.09,1721201806676
1.41,1.96,12.93,0.10,-0.27,-0.21,1721201806686
-2.03,-1.37,6.07,-0.06,-0.08,-0.11,1721201806696
-3.00,0.91,11.15,-0.07,-0.05,0.14,1721201806706
-1.04,-4.62,10.09,-0.12,-0.11,0.26,1721201806716
0.12,5.91,12.73,0.24,-0.06,0.16,1721201806726
2.98,2.05,4.93,0.01,-0.14,0.02,1721201806736
-1.10,0.40,13.07,-0.23,-0.16,-0.09,1721201806746
-0.80,-0.11,13.75,0.06,-0.01,-0.17,1721201806756
-0.69,-0.15,8.21,0.04,-0.15,-0.02,1721201806766
-1.46,1.29,10.40,-0.10,-0.06,0.09,1721201806776
-0.70,2.49,11.79,0.12,-0.16,0.06,1721201806786
0.66,-0.19,4.57,0.02,-0.08,0.02,1721201806796
0.37,0.16,13.72,-0.20,0.01,-0.08,1721201806806
0.01,1.09,15.94,0.11,-0.19,-0.12,1721201806816
-0.85,0.47,3.52,0.11,-0.21,-0.02,1721201806826
-0.58,0.40,9.53,-0.10,0.10,0.01,1721201806836
0.29,2.85,13.23,0.12,-0.09,-0.09,1721201806846
-0.32,0.73,7.94,-0.03,-0.13,-0.12,1721201806856
-1.36,-1.22,10.82,-0.10,-0.07,-0.08,1721201806866
-0.90,-2.06,12.25,-0.02,-0.01,-0.07,1721201806876
-0.16,2.41,12.53,0.18,-0.04,0.05,1721201806886
0.34,1.09,5.07,0.08,-0.12,0.05,1721201806896
-0.18,1.83,7.55,-0.10,-0.07,-0.08,1721201806906
1.27,2.29,11.09,-0.03,-0.04,-0.12,1721201806916
2.09,-2.47,17.20,-0.14,0.11,-0.19,1721201806926
-2.70,1.90,7.08,0.24,-0.40,-0.18,1721201806936
-1.27,-0.13,4.86,-0.21,0.27,-0.07,1721201806946
-1.62,0.19,20.22,-0.02,-0.11,0.08,1721201806956
-1.02,1.75,6.66,0.17,-0.31,0.10,1721201806966
2.75,4.80,9.80,-0.01,0.30,0.02,1721201806976
2.52,-3.02,6.64,-0.10,-0.29,-0.14,1721201806986
-2.14,-0.91,11.21,-0.16,0.07,-0.33,1721201806996
-0.54,-0.71,15.46,0.08,0.06,-0.25,1721201807006
-2.84,4.04,8.06,0.26,-0.22,0.04,1721201807016
-1.37,-0.30,2.52,-0.19,0.10,0.18,1721201807026
1.82,1.55,16.33,-0.08,0.04,0.05,1721201807036
3.76,-1.02,12.52,0.13,-0.01,-0.21,1721201807046
0.36,1.76,7.15,-0.04,-0.03,-0.37,1721201807056
-2.67,2.72,9.72,-0.03,-0.11,-0.29,1721201807066
-2.27,-0.15,11.15,-0.04,0.08,-0.04,1721201807076
0.06,-3.73,13.31,-0.09,0.06,0.08,1721201807086
-0.18,3.82,7.22,0.27,-0.15,0.01,1721201807096
0.65,-3.59,3.62,-0.27,0.15,-0.15,1721201807106
-0.48,3.16,19.36,-0.02,-0.03,-0.12,1721201807116
0.25,1.04,10.01,0.22,-0.04,-0.17,1721201807126
-1.27,0.10,9.73,-0.13,0.03,-0.18,1721201807136
-1.92,1.23,11.71,0.03,-0.03,-0.10,1721201807146
-1.31,-1.70,6.98,-0.03,0.07,-0.05,1721201807156
-0.75,3.09,12.91,0.09,0.08,-0.04,1721201807166
0.41,-1.48,8.98,-0.02,-0.06,0.02,1721201807176
-1.15,3.70,10.55,0.13,-0.04,0.00,1721201807186
3.12,-3.15,9.36,-0.15,0.15,-0.04,1721201807196
0.18,0.48,10.37,0.00,-0.21,-0.05,1721201807206
0.60,2.93,11.06,-0.03,0.22,-0.32,1721201807216
-0.55,1.36,7.51,0.17,-0.13,-0.33,1721201807226
-4.17,-1.61,5.77,-0.19,0.03,-0.20,1721201807236
-3.48,1.29,20.75,-0.16,0.13,0.03,1721201807246
-1.51,0.16,8.37,0.24,-0.23,0.18,1721201807256
-0.33,-1.48,3.88,-0.14,0.13,0.10,1721201807266
1.95,2.23,16.13,-0.06,-0.00,-0.04,1721201807276
0.93,4.91,8.14,0.24,-0.16,-0.21,1721201807286
-1.63,2.11,7.47,-0.14,0.01,-0.16,1721201807296
-2.16,2.00,14.50,-0.04,-0.11,-0.05,1721201807306
-0.39,-1.41,10.08,0.09,0.04,0.02,1721201807316
0.25,-3.13,9.15,-0.11,-0.03,0.02,1721201807326
-0.56,8.40,15.33,0.28,-0.08,-0.10,1721201807336
0.25,-1.51,3.92,0.11,-0.10,-0.06,1721201807346
-1.50,2.98,11.38,0.00,0.05,-0.03,1721201807356
2.14,-1.14,13.53,0.10,0.06,-0.09,1721201807366
-0.50,-2.23,10.78,0.08,-0.12,-0.16,1721201807376
-3.01,4.75,8.33,0.24,0.00,-0.24,1721201807386
-0.51,-1.30,8.33,0.05,-0.02,0.04,1721201807396
0.35,2.53,13.37,0.15,-0.04,0.18,1721201807406
3.95,2.95,6.15,0.27,0.03,-0.00,1721201807416
2.38,-1.67,5.07,-0.18,0.06,-0.30,1721201807426
-0.71,-0.22,18.10,-0.09,0.02,-0.48,1721201807436
-2.55,0.11,10.89,0.33,-0.15,-0.25,1721201807446
-2.48,-0.24,6.01,-0.07,0.15,0.08,1721201807456
0.27,0.55,12.78,0.01,0.02,0.15,1721201807466
2.08,0.96,9.72,0.15,0.07,-0.10,1721201807476
1.53,0.74,4.30,-0.01,0.04,-0.32,1721201807486
-1.01,-5.31,11.13,-0.32,0.05,-0.34,1721201807496
-1.30,4.46,21.78,0.28,0.01,-0.19,1721201807506
-2.10,0.22,0.46,0.18,-0.09,-0.16,1721201807516
-1.48,1.60,12.43,-0.20,0.34,-0.14,1721201807526
0.96,-4.09,11.89,0.07,-0.09,-0.01,1721201807536
-0.02,1.18,8.38,0.08,0.06,-0.14,1721201807546
1.26,4.26,9.49,0.02,0.19,-0.35,1721201807556
-1.99,2.98,7.78,0.01,-0.13,-0.38,1721201807566
-3.23,-2.87,7.80,-0.25,0.23,-0.22,1721201807576
-2.34,-3.23,16.43,-0.09,0.12,-0.07,1721201807586
-0.82,0.43,13.22,0.15,0.00,0.01,1721201807596
1.20,4.25,8.20,0.12,0.09,-0.04,1721201807606
1.49,3.57,7.72,-0.03,0.04,-0.26,1721201807616
0.63,-2.50,12.63,-0.17,0.08,-0.35,1721201807626
-2.62,0.80,13.02,0.15,-0.01,-0.32,1721201807636
-4.24,-1.59,4.91,-0.03,0.03,-0.13,1721201807646
-3.27,0.76,11.97,0.05,0.08,0.11,1721201807656
0.24,-0.49,18.67,0.03,0.20,-0.38,1721201808212
-3.10,-0.66,13.80,0.15,-0.18,-0.31,1721201808216
-2.85,1.81,6.53,0.27,0.24,-0.18,1721201808225
-3.81,3.96,7.56,0.01,0.04,0.00,1721201808235
-3.38,4.38,8.28,0.11,-0.05,0.17,1721201808244
1.53,-5.33,7.42,-0.19,0.25,0.19,1721201808254
2.03,-3.09,17.58,-0.14,0.05,0.05,1721201808263
0.44,0.22,13.06,0.21,-0.13,-0.10,1721201808273
0.63,6.70,7.81,0.25,0.20,-0.18,1721201808282
-0.03,-0.18,4.39,-0.12,-0.05,-0.12,1721201808292
-3.90,1.30,10.91,-0.09,-0.03,-0.11,1721201808301
-1.96,-1.61,9.06,0.07,0.10,0.05,1721201808311
-1.17,-3.41,9.48,-0.19,0.09,0.18,1721201808320
-1.05,5.70,14.16,0.25,-0.09,0.14,1721201808330
1.49,-1.86,3.37,-0.02,-0.02,0.04,1721201808339
-1.63,4.02,14.01,-0.17,-0.05,-0.07,1721201808349
-0.13,-2.14,9.95,-0.03,-0.11,-0.05,1721201808359
-1.21,-2.64,13.33,-0.08,0.06,0.13,1721201808369
-2.01,1.84,9.64,0.20,-0.15,0.17,1721201808378
-0.55,4.78,6.23,0.04,0.06,0.07,1721201808388
1.03,-0.24,10.61,-0.12,-0.21,0.24,1721201808397
0.42,-0.29,16.41,-0.24,0.00,0.14,1721201808407
0.15,1.45,11.24,0.15,-0.19,0.04,1721201808416
1.37,-1.71,4.77,-0.14,0.02,0.07,1721201808426
-0.50,0.23,11.24,-0.10,-0.12,0.07,1721201808435
1.11,3.83,11.10,0.13,0.05,-0.07,1721201808445
0.66,1.47,6.89,-0.05,-0.21,-0.05,1721201808454
-0.42,4.82,15.54,-0.18,0.06,-0.13,1721201808464
1.37,-0.63,11.27,0.06,-0.19,-0.06,1721201808473
-0.16,1.38,7.85,-0.08,0.08,-0.16,1721201808483
-0.58,3.29,11.90,-0.16,-0.05,-0.18,1721201808492
-2.45,3.55,9.88,0.01,-0.23,-0.06,1721201808502
-0.14,-6.30,6.19,-0.31,0.11,-0.01,1721201808511
0.61,-10.58,8.09,-0.15,-0.20,0.06,1721201808521
3.01,-7.69,11.90,0.02,0.24,-0.19,1721201808530
1.76,-0.86,14.11,0.38,-0.15,-0.37,1721201808540
-0.28,23.18,12.45,0.65,-0.03,-0.25,1721201808549
1.02,31.71,11.00,0.21,0.10,-0.15,1721201808559
0.30,-9.42,2.34,-0.73,-0.11,-0.33,1721201808569
-1.40,-22.81,19.54,-0.72,0.38,-0.60,1721201808579
-5.41,-11.38,13.01,0.74,-0.45,-0.56,1721201808589
-7.19,-2.04,-10.02,0.66,0.25,-0.15,1721201808599
1.07,19.32,17.21,0.34,0.31,0.53,1721201808609
6.78,35.85,7.02,0.02,0.38,0.50,1721201808619
12.86,-4.31,3.58,-0.32,-0.07,-0.09,1721201808629
6.59,-21.14,12.15,-0.68,0.17,-0.92,1721201808639
-3.01,5.71,19.16,0.65,-0.43,-1.28,1721201808649
-11.39,18.05,-1.39,0.80,-0.02,-0.91,1721201808659
-12.26,6.10,0.85,-0.41,-0.01,0.25,1721201808669
-3.31,-15.78,23.56,-0.79,0.00,0.97,1721201808679
7.68,-14.10,32.13,0.17,0.43,0.84,1721201808689
9.35,6.78,12.38,0.99,-0.04,0.23,1721201808699
5.94,13.75,-8.36,0.51,-0.13,-0.51,1721201808709
0.13,13.44,-5.19,0.27,-0.02,-1.07,1721201808719
-4.06,1.56,-17.67,-0.13,-0.38,-0.95,1721201808729
-9.96,-1.98,-11.59,-1.16,0.19,-0.36,1721201808739
-8.52,-29.77,50.06,-1.16,0.31,0.20,1721201808749
20.86,6.97,65.83,0.71,0.79,0.22,1721201808759
7.85,12.89,-1.23,1.85,-0.71,0.51,1721201808769
8.48,15.77,-24.95,-0.06,0.75,0.17,1721201808779
6.94,-8.21,1.95,-1.07,-0.30,-0.12,1721201808789
-0.16,-9.62,2.07,0.01,-0.34,-0.70,1721201808799
-1.49,-0.59,5.16,-0.43,0.42,-0.54,1721201808809
-3.04,1.83,27.11,-0.22,0.06,0.15,1721201808819
-0.57,-0.19,13.05,0.10,-0.05,0.57,1721201808829
4.52,3.37,1.04,-0.13,0.45,0.49,1721201808839
10.87,-10.38,13.94,-0.58,0.29,-0.15,1721201808849
5.52,-3.11,20.19,-0.05,-0.26,-0.93,1721201808859
-3.54,5.43,11.66,0.43,0.03,-1.07,1721201808869
-9.00,8.33,4.11,-0.13,0.02,-0.52,1721201808879
-8.86,12.85,9.06,0.15,-0.08,0.22,1721201808889
-2.74,-10.35,-2.56,-0.29,0.17,0.43,1721201808899
2.68,-6.49,20.01,-0.25,0.30,0.22,1721201808909
3.53,-4.92,11.77,0.11,-0.13,-0.03,1721201808919
-0.55,13.01,8.14,0.22,0.25,-0.40,1721201808929
-0.49,4.19,6.89,-0.03,-0.07,-0.16,1721201808939
-3.60,2.34,11.28,-0.18,-0.07,-0.16,1721201808949
1.50,-6.03,16.65,-0.16,0.25,-0.09,1721201808959
1.36,-3.50,17.44,0.12,0.04,-0.01,1721201808969
-0.50,5.12,11.15,0.31,0.02,-0.13,1721201808979
-2.82,12.40,0.64,0.46,-0.18,-0.20,1721201808989
-0.52,2.56,4.78,-0.15,0.28,-0.38,1721201808999
-3.30,-1.83,17.10,-0.19,-0.22,-0.28,1721201809009
-4.71,-4.34,8.38,0.09,-0.05,0.19,1721201809019
-1.45,4.10,14.58,0.17,0.30,0.33,1721201809029
2.37,3.54,9.60,0.34,-0.29,0.23,1721201809039
2.06,3.16,-1.51,0.27,-0.03,-0.01,1721201809049
3.52,-0.20,7.14,-0.30,0.20,-0.19,1721201809059
-0.46,1.02,13.65,-0.06,-0.29,-0.31,1721201809069
-3.02,-4.56,12.59,0.12,-0.04,-0.29,1721201809079
-1.53,-2.46,12.88,0.23,0.05,0.16,1721201809089
0.62,3.08,9.98,0.18,-0.03,0.29,1721201809099
1.89,6.54,5.81,0.10,-0.07,0.06,1721201809109
2.07,-2.11,2.89,-0.10,-0.12,-0.13,1721201809119
-2.59,-3.72,2.98,0.03,-0.08,-0.18,1721201809129
0.05,-5.39,17.60,-0.24,0.28,-0.10,1721201809139
1.33,6.95,25.07,0.22,-0.02,0.07,1721201809149
-1.68,4.69,4.79,0.08,-0.26,0.00,1721201809159
-1.40,-1.64,6.72,-0.35,0.04,0.14,1721201809169
2.92,-1.74,12.25,0.04,0.09,0.07,1721201809179
1.81,-1.44,4.69,-0.03,-0.07,-0.29,1721201809189
-1.92,3.32,11.28,-0.20,-0.07,-0.37,1721201809199
-2.54,4.08,16.13,-0.02,-0.01,-0.07,1721201809209
-0.13,-3.16,11.05,-0.05,0.05,0.26,1721201809219
2.29,1.00,10.85,-0.05,0.07,0.13,1721201809229
3.38,2.46,6.55,-0.02,0.02,-0.30,1721201809239
-1.53,-0.02,5.00,-0.10,-0.17,-0.48,1721201809249
-3.41,2.85,11.82,-0.04,0.09,-0.28,1721201809259
-1.83,-2.23,11.54,-0.09,0.01,0.01,1721201809269
-0.89,4.62,13.66,0.05,-0.01,0.16,1721201809279
3.33,-1.24,5.51,-0.06,0.06,0.04,1721201809289
2.97,-1.87,9.71,-0.22,0.05,-0.25,1721201809299
0.00,3.65,10.85,0.12,-0.02,-0.55,1721201809309
-1.91,-4.02,6.77,-0.06,-0.02,-0.41,1721201809319
-3.92,4.21,11.80,0.08,-0.07,-0.02,1721201809329
0.50,4.41,16.01,-0.09,0.28,0.06,1721201809339
0.86,3.86,11.95,0.02,-0.14,-0.05,1721201809349
1.79,-4.39,10.57,-0.16,0.16,-0.40,1721201809359
-1.97,-3.09,10.13,0.12,-0.18,-0.36,1721201809369
-3.80,2.08,11.77,0.06,0.14,-0.32,1721201809379
-1.91,6.60,10.73,0.35,-0.06,0.03,1721201809389
-0.23,3.33,6.21,0.20,0.11,0.09,1721201809399
2.60,-0.32,12.68,0.05,0.09,-0.07,1721201809409
1.35,-2.34,13.41,0.11,-0.07,-0.43,1721201809419
-2.96,5.71,8.66,0.37,0.01,-0.53,1721201809429
-4.84,2.03,5.45,0.21,-0.01,-0.21,1721201809439
-4.36,1.83,14.41,0.09,-0.04,0.15,1721201809449
0.79,5.73,10.20,0.42,0.05,0.28,1721201809459
3.70,-5.49,6.63,-0.06,0.13,0.11,1721201809469
1.65,1.41,13.64,0.11,-0.13,-0.20,1721201809479
0.89,0.27,5.91,0.29,-0.07,-0.28,1721201809489
-1.40,2.04,6.91,-0.02,0.00,-0.18,1721201809499
-1.03,2.00,15.40,0.04,0.05,-0.12,1721201809509
-0.31,-1.43,4.91,0.08,-0.11,0.07,1721201809519
1.05,1.22,8.38,-0.14,0.23,0.02,1721201809529
1.70,-4.19,5.70,-0.08,-0.14,-0.11,1721201809539
-0.60,-6.01,16.75,-0.35,0.22,-0.35,1721201809549
-0.86,2.96,19.00,0.34,-0.11,-0.20,1721201809559
-1.55,3.45,0.74,0.02,0.05,0.12,1721201809569
1.29,1.80,9.47,-0.32,0.17,0.21,1721201809579
3.34,-1.48,7.38,-0.05,-0.14,-0.00,1721201809589
3.00,-4.93,8.43,-0.31,0.32,-0.33,1721201809599
-0.61,-0.76,13.92,-0.13,-0.16,-0.36,1721201809609
-3.80,3.37,10.08,-0.10,-0.06,-0.07,1721201809619
-1.47,1.94,7.93,-0.11,0.13,0.21,1721201809629
3.83,-5.61,10.20,-0.31,0.15,0.24,1721201809639
5.07,-1.05,13.64,-0.11,0.12,-0.17,1721201809649
1.53,2.94,10.95,-0.09,0.02,-0.68,1721201809659
-4.12,2.86,11.44,-0.15,-0.07,-0.62,1721201809669
-4.59,1.12,8.55,0.04,0.01,-0.13,1721201809679
-1.35,0.86,12.76,-0.19,0.29,0.03,1721201809689
-0.52,5.44,14.28,0.05,-0.04,-0.07,1721201809699
-0.11,2.68,6.82,0.08,0.07,-0.16,1721201809709
-0.17,0.97,11.57,-0.07,0.14,-0.16,1721201809719
-0.84,3.66,15.25,0.12,-0.04,-0.17,1721201809729
-0.83,2.42,7.77,0.15,0.04,-0.06,1721201809739
-0.34,1.67,9.36,0.03,0.14,-0.08,1721201809749
1.51,0.77,11.72,0.20,0.10,-0.15,1721201809759
1.38,-4.01,6.47,0.14,-0.01,-0.09,1721201809769
-0.22,2.76,12.54,0.14,0.18,-0.24,1721201809779
0.19,5.54,14.90,0.27,0.13,-0.34,1721201809789
-0.80,-0.02,9.12,0.08,0.01,-0.22,1721201809799
-1.53,-3.06,6.11,0.09,0.15,-0.17,1721201809809
0.55,-1.06,12.48,0.01,0.33,-0.25,1721201809819
-0.27,5.93,14.04,0.24,-0.02,-0.30,1721201809829
-1.74,4.15,2.35,0.17,-0.02,-0.12,1721201809839
1.74,-1.96,7.76,-0.16,0.36,0.06,1721201809849
3.94,-8.80,13.22,-0.30,0.22,-0.10,1721201809859
0.07,-0.22,12.62,0.19,0.01,-0.45,1721201809869
-1.50,1.88,3.62,0.15,0.25,-0.52,1721201809879
-3.34,-1.91,6.91,-0.09,0.09,-0.03,1721201809889
-0.46,4.60,18.96,-0.09,0.39,0.09,1721201809899
3.29,-5.05,7.64,-0.02,0.17,-0.19,1721201809909
1.61,-1.39,13.58,-0.18,0.45,-0.62,1721201809919
-2.66,3.46,11.24,0.15,0.09,-0.66,1721201809929
-6.20,0.38,9.32,-0.13,0.22,-0.28,1721201809939
-4.71,3.35,12.88,0.04,0.25,0.22,1721201809949
1.26,-2.94,7.58,-0.11,0.37,0.28,1721201809959
3.47,0.87,10.31,-0.13,0.29,0.00,1721201809969
2.72,3.61,5.15,0.06,0.10,-0.32,1721201809979
-0.27,-1.86,9.32,-0.30,0.34,-0.38,1721201809989
-1.67,-0.04,19.84,-0.08,0.21,-0.23,1721201809999
-3.49,0.76,11.55,0.01,0.14,-0.02,1721201810009
-2.01,3.79,5.39,-0.07,0.31,0.14,1721201810019
2.01,-2.23,13.21,-0.30,0.40,0.01,1721201810029
0.56,-5.52,15.07,-0.03,0.04,-0.22,1721201810039
-3.18,-2.64,10.06,0.01,0.20,-0.22,1721201810049
-3.46,6.15,13.84,0.16,0.33,-0.04,1721201810059
-1.30,4.42,5.52,0.15,0.12,0.19,1721201810069
-0.91,0.91,2.41,0.01,0.14,0.31,1721201810079
2.60,-2.59,9.79,-0.15,0.41,0.09,1721201810089
1.18,-2.96,12.84,-0.05,0.03,-0.15,1721201810099
-2.16,4.90,15.04,0.06,0.16,-0.16,1721201810109
-3.28,2.83,3.91,0.16,-0.09,0.28,1721201810119
0.56,0.91,13.03,-0.17,0.52,0.55,1721201810129
4.04,-7.98,12.84,-0.10,0.08,0.27,1721201810139
0.45,1.93,17.16,0.06,0.14,-0.27,1721201810149
-2.48,-1.63,9.65,0.10,-0.03,-0.11,1721201810159
-5.70,7.94,10.28,0.25,-0.00,0.38,1721201810169
0.16,-0.48,3.23,0.02,0.21,0.65,1721201810179
3.75,1.53,19.48,-0.01,0.29,0.34,1721201810189
2.25,-5.11,7.49,0.06,-0.29,0.05,1721201810199
-4.02,1.00,10.49,-0.01,-0.23,0.14,1721201810214
0.57,-3.66,12.06,0.10,0.09,0.20,1721201810219
-2.38,2.54,8.52,0.24,-0.23,0.44,1721201810229
2.06,1.23,11.05,-0.02,0.40,0.19,1721201810239
2.12,9.59,13.38,0.36,-0.11,0.10,1721201810249
0.76,-7.07,-1.98,0.01,0.04,0.16,1721201810259
-3.02,1.46,9.20,0.03,0.02,0.16,1721201810269
3.76,-0.95,6.73,0.12,0.19,0.09,1721201810279
3.03,-2.16,12.30,-0.06,0.01,0.21,1721201810289
-1.84,8.41,13.36,0.23,-0.04,0.18,1721201810299
2.08,-2.92,4.34,-0.01,0.18,0.12,1721201810309
2.71,-4.33,11.71,-0.19,0.10,-0.05,1721201810319
-0.62,-3.07,11.56,0.11,-0.10,-0.25,1721201810329
-3.89,10.08,12.83,0.31,0.13,-0.30,1721201810339
-4.09,2.57,4.91,-0.05,-0.02,0.09,1721201810349
-2.01,5.39,12.00,-0.05,0.11,0.40,1721201810359
4.05,-4.16,6.00,-0.05,0.28,0.36,1721201810369
3.61,-7.53,9.48,-0.33,0.04,-0.11,1721201810379
-0.34,2.78,14.65,0.09,-0.09,-0.43,1721201810389
-1.60,4.57,13.80,0.13,0.16,-0.20,1721201810399
-0.94,5.09,12.70,0.14,0.13,0.27,1721201810409
2.48,-3.12,3.40,-0.06,0.16,0.16,1721201810419
2.57,-3.58,10.86,-0.29,0.35,-0.48,1721201810429
-4.16,9.08,8.11,0.43,-0.25,-0.61,1721201810439
-4.93,-6.60,1.28,-0.34,0.23,-0.05,1721201810449
-6.50,4.61,24.49,0.07,0.05,0.42,1721201810459
1.49,-6.09,4.97,0.02,0.11,0.39,1721201810469
3.93,6.90,15.90,-0.06,0.50,0.06,1721201810479
1.87,-1.91,2.10,0.03,-0.31,-0.34,1721201810489
-3.28,-0.42,7.97,-0.18,0.34,-0.35,1721201810499
-1.45,-7.16,12.59,-0.18,0.24,0.07,1721201810509
-3.41,7.44,16.70,0.16,-0.11,0.21,1721201810519
0.50,1.85,1.31,-0.10,0.07,0.36,1721201810529
5.41,-1.13,12.83,-0.21,0.40,0.16,1721201810539
4.50,-7.56,6.99,-0.13,-0.03,-0.20,1721201810549
-2.26,0.54,15.44,-0.18,0.18,-0.55,1721201810559
-3.84,6.49,20.48,0.16,0.08,-0.41,1721201810569
-5.83,2.31,8.65,-0.02,0.04,0.13,1721201810579
-4.39,5.02,12.52,0.02,0.29,0.34,1721201810589
-0.77,-3.14,3.93,0.06,-0.08,0.33,1721201810599
-1.19,-2.08,5.68,-0.16,0.04,0.25,1721201810609
2.41,3.93,15.71,0.08,0.11,0.13,1721201810619
0.50,-1.94,8.52,0.10,-0.18,0.16,1721201810629
-1.39,1.59,8.48,-0.14,0.09,0.01,1721201810639
2.26,1.24,17.40,0.05,0.19,-0.17,1721201810649
-1.85,-1.96,10.43,0.02,-0.16,-0.13,1721201810659
-5.76,1.83,11.58,0.05,-0.04,0.12,1721201810669
-4.34,0.77,4.84,0.11,-0.06,0.34,1721201810679
-0.99,-2.77,7.04,-0.25,-0.01,0.52,1721201810689
1.76,4.97,18.53,0.07,0.08,0.38,1721201810699
1.44,-0.54,1.95,0.05,-0.33,0.26,1721201810709
-0.75,3.77,10.13,-0.28,0.14,0.16,1721201810719
2.85,-3.79,14.59,-0.13,-0.21,0.39,1721201810729
1.30,-3.31,9.18,-0.19,-0.22,0.44,1721201810739
2.04,4.71,10.70,0.04,-0.03,0.20,1721201810749
4.91,-0.31,7.75,-0.02,-0.17,0.50,1721201810759
3.41,3.13,9.36,-0.16,0.11,0.43,1721201810769
5.56,-2.24,12.69,-0.41,0.02,-0.12,1721201810779
0.28,-8.63,12.28,-0.32,-0.28,-0.50,1721201810789
-7.72,1.79,8.02,-0.01,-0.37,-0.47,1721201810799
-9.37,-2.08,7.06,-0.06,0.08,0.15,1721201810809
-9.48,-1.37,13.57,-0.07,-0.03,0.79,1721201810819
-2.85,1.83,11.40,0.01,-0.18,1.10,1721201810829
5.21,-0.48,9.21,-0.11,0.08,1.00,1721201810839
9.54,-1.69,11.88,-0.15,0.00,0.60,1721201810849
7.93,-0.19,11.14,-0.07,-0.22,0.01,1721201810859
5.80,0.52,9.80,-0.01,-0.21,-0.29,1721201810869
1.22,-0.20,10.43,-0.10,-0.23,-0.59,1721201810879
-6.32,4.88,9.43,0.03,-0.39,-0.45,1721201810889
-6.81,-5.03,13.16,-0.22,0.07,0.08,1721201810899
-4.76,-0.37,12.33,0.19,-0.35,0.47,1721201810909
-1.90,-5.49,2.54,-0.06,0.00,0.58,1721201810919
2.86,0.89,12.17,-0.00,-0.11,0.38,1721201810929
5.31,-1.27,10.84,-0.00,-0.18,0.21,1721201810939
2.87,3.39,10.11,0.06,-0.08,-0.04,1721201810949
-0.35,-0.22,4.96,0.09,-0.24,-0.21,1721201810959
-1.10,0.59,11.09,-0.14,0.05,-0.17,1721201810969
-0.19,-2.28,15.00,-0.10,-0.24,-0.01,1721201810979
-0.83,-0.07,10.50,0.16,-0.18,0.17,1721201810989
2.68,-5.71,7.99,-0.11,0.13,-0.03,1721201810999
0.30,6.58,13.62,0.16,-0.27,-0.09,1721201811009
-0.17,-0.03,5.98,0.02,-0.00,-0.16,1721201811019
-0.49,1.21,14.59,0.06,-0.01,-0.27,1721201811029
-1.64,0.69,9.11,0.09,-0.13,-0.20,1721201811039
-2.39,0.78,10.23,0.04,-0.04,-0.01,1721201811049
-0.50,-1.06,9.26,-0.01,-0.12,0.04,1721201811059
1.09,0.33,9.59,0.07,-0.01,0.07,1721201811069
2.85,0.62,6.60,0.08,0.01,-0.05,1721201811079
2.40,-0.55,11.77,-0.08,0.01,-0.29,1721201811089
-0.47,0.75,12.50,0.09,-0.15,-0.34,1721201811099
-1.55,0.53,11.66,0.07,0.02,-0.20,1721201811109
-0.49,-0.48,13.31,0.13,0.04,-0.03,1721201811119
-1.01,0.48,4.53,0.18,-0.12,-0.01,1721201811129
0.55,3.88,10.51,-0.06,0.20,-0.15,1721201811139
1.21,1.51,9.91,0.21,-0.14,-0.18,1721201811149
1.67,-7.39,8.57,-0.16,0.21,-0.10,1721201811159
0.16,0.85,15.18,0.08,-0.02,-0.22,1721201811169
-1.01,1.22,6.61,0.07,0.01,-0.27,1721201811179
-1.68,4.33,12.51,0.02,0.14,-0.20,1721201811189
-0.50,0.40,9.07,0.15,-0.02,-0.04,1721201811199
-0.36,0.02,5.25,-0.05,0.11,0.05,1721201811209
2.41,1.78,12.03,-0.04,0.20,-0.13,1721201811219
3.21,-0.21,12.28,-0.04,0.11,-0.39,1721201811229
-0.67,-1.31,7.13,-0.02,-0.07,-0.37,1721201811239
-1.80,2.56,12.47,-0.03,0.30,-0.29,1721201811249
-1.43,-1.96,14.33,-0.02,0.08,-0.12,1721201811259
-1.91,5.74,11.20,0.21,0.06,-0.09,1721201811269
1.12,-3.10,2.81,-0.14,0.22,-0.17,1721201811279
0.97,3.18,16.07,-0.01,0.18,-0.34,1721201811289
-0.26,-1.16,6.06,0.11,-0.02,-0.28,1721201811299
-2.64,1.90,11.71,-0.07,0.31,-0.32,1721201811309
-2.15,-4.08,7.62,-0.09,-0.03,-0.15,1721201811319
-2.55,0.79,12.81,-0.03,0.15,-0.00,1721201811329
1.93,2.41,11.31,0.03,0.30,-0.14,1721201811339
0.68,1.24,13.12,0.01,0.06,-0.30,1721201811349
-3.11,-3.82,6.59,-0.10,-0.05,-0.25,1721201811359
-3.39,1.11,16.24,-0.04,0.27,-0.11,1721201811369
-1.28,2.64,4.58,0.22,-0.05,0.10,1721201811379
0.09,2.68,9.50,-0.22,0.29,0.08,1721201811389
1.07,0.35,9.50,0.10,-0.11,-0.14,1721201811399
1.15,-10.39,5.26,-0.34,0.19,-0.37,1721201811409
-1.82,4.78,19.41,-0.05,0.07,-0.35,1721201811419
-4.49,-1.44,6.07,0.02,-0.08,-0.23,1721201811429
-4.34,2.54,13.29,-0.09,0.26,0.07,1721201811439
-1.73,-2.85,8.35,0.02,-0.08,0.20,1721201811449
0.25,1.06,10.75,-0.09,0.15,0.24,1721201811459
2.67,-2.78,12.25,-0.17,0.10,-0.08,1721201811469
-0.39,4.31,13.38,0.14,-0.12,-0.19,1721201811479
-1.52,-4.62,0.43,-0.05,0.04,-0.23,1721201811489
-0.04,0.13,14.51,-0.29,0.08,-0.06,1721201811499
-1.93,5.20,14.28,0.27,-0.05,0.06,1721201811509
-0.99,-3.58,3.90,-0.06,0.13,0.13,1721201811519
-0.40,2.77,12.73,-0.04,-0.02,0.11,1721201811529
1.53,-2.22,8.93,0.08,-0.01,-0.01,1721201811539
-0.43,0.07,8.27,-0.07,0.00,-0.07,1721201811549
-0.89,1.72,16.23,-0.05,0.13,-0.18,1721201811559
-3.15,1.51,8.98,0.16,-0.20,-0.00,1721201811569
-2.07,-2.26,6.04,-0.12,0.19,0.20,1721201811579
1.91,-0.69,19.75,0.01,0.13,0.14,1721201811589
0.85,1.02,8.37,0.32,-0.27,0.11,1721201811599
-0.36,3.39,5.23,-0.01,0.14,-0.03,1721201811609
0.66,7.92,18.04,0.10,0.06,-0.17,1721201811619
-0.49,0.07,6.73,0.24,-0.26,-0.06,1721201811629
-2.85,-6.61,7.81,-0.15,0.12,-0.07,1721201811639
-2.45,-0.76,12.58,0.10,-0.11,-0.01,1721201811649
-0.47,3.17,9.46,0.16,-0.05,0.20,1721201811659
2.80,3.49,14.01,0.13,0.09,0.12,1721201811669
0.42,5.28,3.77,0.43,-0.32,0.03,1721201811679
-0.11,-6.10,3.72,-0.17,0.17,-0.12,1721201811689
-0.96,2.82,21.61,0.03,-0.09,-0.20,1721201811699
-2.62,-0.05,8.79,0.34,-0.26,0.06,1721201811709
-1.55,4.37,10.40,0.13,0.13,0.24,1721201811719
2.42,-3.76,3.25,0.12,-0.23,0.22,1721201811729
2.69,-0.63,13.98,-0.17,0.22,-0.11,1721201811739
0.83,5.39,10.60,0.23,-0.35,-0.28,1721201811749
-2.67,-3.61,5.34,-0.26,-0.02,-0.19,1721201811759
-3.11,4.57,16.26,0.11,-0.15,0.14,1721201811769
-0.46,-5.39,2.21,-0.02,-0.14,0.25,1721201811779
-0.51,3.30,14.00,-0.27,0.07,0.15,1721201811789
2.26,5.39,9.99,0.11,-0.23,0.05,1721201811799
2.62,1.24,5.81,-0.19,0.05,0.02,1721201811809
2.86,-1.20,14.71,-0.34,0.01,-0.15,1721201811819
-0.48,-2.48,14.74,-0.20,-0.18,-0.32,1721201811829
-3.21,3.22,14.68,-0.11,-0.04,-0.23,1721201811839
-2.39,3.33,7.13,0.02,-0.19,0.08,1721201811849
-0.23,2.77,8.37,-0.07,0.13,0.17,1721201811859
0.17,-3.09,2.43,-0.09,-0.24,0.12,1721201811869
-0.08,0.13,8.73,-0.21,0.10,-0.16,1721201811879
1.52,-3.80,12.22,-0.18,-0.06,-0.07,1721201811889
-0.62,2.41,13.18,-0.14,-0.14,-0.05,1721201811899
-1.77,-1.32,6.32,-0.04,-0.14,-0.02,1721201811909
-0.52,-3.02,10.11,-0.26,0.10,-0.09,1721201811919
0.97,-2.05,16.70,-0.13,-0.11,-0.01,1721201811929
-0.58,4.23,13.58,0.03,-0.06,-0.05,1721201811939
0.23,-2.66,4.31,-0.11,-0.06,-0.04,1721201811949
-0.87,-5.86,6.79,-0.23,-0.06,-0.21,1721201811959
-1.58,-0.52,9.44,-0.15,-0.06,-0.31,1721201811969
-2.00,-1.08,15.65,-0.31,-0.04,-0.16,1721201811979
-1.14,3.58,17.41,-0.03,-0.12,0.04,1721201811989
-0.60,-3.00,4.76,-0.03,-0.07,-0.03,1721201811999
1.38,-2.13,15.27,-0.31,0.14,-0.18,1721201812009
0.22,4.11,14.65,-0.00,-0.20,-0.19,1721201812019
-0.42,-0.33,13.23,-0.08,0.15,-0.34,1721201812029
-0.59,-0.17,12.85,0.13,-0.16,-0.17,1721201812039
-0.53,0.22,9.96,0.09,0.01,-0.08,1721201812049
1.87,6.12,12.25,0.32,0.13,0.01,1721201812059
2.24,2.52,9.91,0.38,0.04,-0.07,1721201812069
1.75,1.77,10.53,0.31,0.10,-0.30,1721201812079
0.34,3.00,7.83,0.41,-0.06,-0.34,1721201812089
-0.09,1.59,5.47,0.38,0.10,-0.34,1721201812099
-1.07,-5.59,7.06,0.13,-0.01,-0.30,1721201812109
-1.74,1.69,11.39,0.38,0.10,-0.16,1721201812119
-1.07,-1.32,5.32,0.38,0.08,-0.12,1721201812129
-1.87,3.87,13.21,0.11,0.09,-0.22,1721201812139
-0.09,5.30,14.96,0.30,-0.02,-0.07,1721201812149
0.90,2.06,8.83,0.25,0.18,-0.09,1721201812159
0.94,-9.32,4.22,0.03,0.03,-0.30,1721201812169
-1.60,-1.84,12.51,0.03,0.07,-0.34,1721201812179
-2.11,2.04,8.51,0.20,0.04,-0.12,1721201812189
0.33,-5.45,9.84,-0.05,0.24,-0.03,1721201812199
1.16,-1.02,9.44,0.17,0.02,-0.05,1721201812209
0.12,3.79,13.01,-0.03,0.10,-0.30,1721201812224
0.56,1.83,13.95,0.03,0.00,-0.38,1721201812228
-2.49,-0.10,6.87,0.20,-0.01,-0.17,1721201812238
-1.19,-4.51,2.22,-0.05,0.26,0.02,1721201812248
-0.18,-0.01,10.73,-0.06,0.12,-0.05,1721201812258
0.83,3.12,13.03,0.03,0.24,-0.18,1721201812268
-0.40,-0.70,7.92,0.08,-0.00,-0.14,1721201812278
-0.90,-1.75,9.20,-0.07,0.24,-0.12,1721201812288
-0.24,-0.50,15.07,-0.14,0.16,-0.18,1721201812298
-2.51,6.48,12.81,0.20,-0.04,-0.16,1721201812308
-0.57,0.49,0.56,0.00,0.20,0.02,1721201812318
-0.19,-2.20,2.07,-0.18,0.10,0.03,1721201812328
0.45,-5.47,9.70,-0.31,0.18,-0.15,1721201812338
-0.07,1.54,18.09,-0.14,0.10,-0.26,1721201812348
-2.28,0.17,14.30,-0.07,-0.02,-0.21,1721201812358
-3.02,2.62,14.19,0.02,0.15,-0.04,1721201812368
-0.96,0.86,9.39,0.05,0.09,0.14,1721201812378
0.34,2.56,14.06,-0.08,0.18,-0.02,1721201812388
1.36,3.76,16.54,0.06,0.09,-0.24,1721201812398
-0.20,4.43,4.45,0.20,-0.00,-0.13,1721201812408
0.25,0.31,7.76,-0.03,0.32,-0.10,1721201812418
0.88,-0.29,9.15,0.05,0.00,-0.11,1721201812428
-0.06,3.26,11.02,-0.07,0.23,-0.16,1721201812438
-0.42,4.09,9.42,0.17,0.06,-0.09,1721201812448
0.42,1.03,13.29,-0.01,0.33,-0.15,1721201812458
-3.63,-10.21,4.14,0.12,-0.27,-0.60,1721201812468
-7.65,3.62,8.39,-0.10,0.02,0.01,1721201812478
-5.61,2.06,21.34,-0.08,0.49,0.49,1721201812488
5.56,-1.83,12.02,0.45,0.07,0.99,1721201812498
9.43,-0.33,-3.43,0.07,0.28,0.29,1721201812508
14.05,4.98,11.61,-0.21,0.44,-0.89,1721201812518
2.74,-4.67,17.79,-0.21,-0.34,-1.25,1721201812528
-8.59,1.81,5.68,0.20,-0.04,-1.07,1721201812538
-11.01,-3.09,7.92,-0.11,0.33,-0.26,1721201812548
-8.18,-4.62,11.96,-0.08,0.01,0.55,1721201812558
-1.02,-3.51,11.55,0.02,0.31,0.72,1721201812568
5.43,5.62,11.03,0.11,0.23,0.39,1721201812578
6.04,0.10,9.67,-0.03,0.10,-0.17,1721201812588
1.37,-3.59,10.61,-0.17,0.00,-0.60,1721201812598
-3.83,1.92,10.01,0.14,-0.04,-0.54,1721201812608
-5.45,-6.30,7.17,-0.19,0.24,0.01,1721201812618
-3.26,3.27,17.14,0.11,0.09,0.30,1721201812628
0.23,4.65,1.65,0.28,-0.05,0.32,1721201812638
5.52,-2.52,9.45,-0.32,0.52,0.01,1721201812648
3.19,8.61,22.51,0.02,-0.05,-0.52,1721201812658
-3.48,-7.16,-0.22,0.12,-0.25,-0.56,1721201812668
-7.09,-7.74,8.53,-0.38,0.48,-0.16,1721201812678
-5.58,3.73,16.09,0.07,-0.32,0.30,1721201812688
-5.04,5.36,10.71,0.16,0.09,0.36,1721201812698
3.41,-0.05,15.14,-0.06,0.37,0.20,1721201812708
3.36,0.38,8.68,0.06,-0.13,-0.03,1721201812718
1.95,-7.20,7.59,-0.14,0.24,-0.26,1721201812728
-2.11,8.10,12.84,0.12,-0.04,-0.35,1721201812738
-5.81,1.63,4.19,0.09,-0.05,-0.02,1721201812748
-4.09,-3.59,9.52,-0.10,0.23,0.38,1721201812758
1.64,0.83,12.93,0.05,0.10,0.40,1721201812768
3.58,7.29,16.08,0.00,0.14,-0.02,1721201812778
1.16,0.62,5.99,0.13,-0.27,-0.29,1721201812788
-2.12,2.23,5.54,0.07,0.26,-0.32,1721201812798
-4.25,-4.33,8.42,-0.21,-0.04,0.10,1721201812808
-4.48,2.56,16.75,-0.04,-0.17,0.32,1721201812818
0.62,4.17,13.04,0.21,0.06,0.42,1721201812828
2.55,-2.10,2.27,-0.02,-0.01,0.32,1721201812838
4.60,0.25,12.79,-0.19,0.31,-0.03,1721201812848
2.21,2.61,18.08,0.04,-0.18,-0.28,1721201812858
-3.59,0.37,4.26,0.00,-0.19,-0.11,1721201812868
-2.89,0.68,10.78,-0.15,0.25,0.16,1721201812878
-0.34,-0.56,5.99,0.12,-0.24,0.42,1721201812888
2.18,0.82,12.71,-0.25,0.30,0.30,1721201812898
3.35,1.57,14.79,0.00,-0.19,-0.03,1721201812908
0.67,4.07,5.50,0.08,-0.03,-0.18,1721201812918
-0.86,-0.46,10.56,-0.27,0.12,-0.06,1721201812928
-3.30,-0.82,14.35,-0.11,-0.22,0.05,1721201812938
-3.44,2.74,10.56,0.00,0.06,0.11,1721201812948
-0.41,2.48,6.16,0.11,-0.06,0.38,1721201812958
0.79,-2.12,4.88,-0.21,0.04,0.29,1721201812968
2.26,0.42,16.79,-0.14,0.11,0.09,1721201812978
1.56,-0.49,13.52,0.07,-0.21,-0.07,1721201812988
-1.05,-2.53,7.75,-0.04,-0.05,0.07,1721201812998
-1.80,-2.61,8.17,-0.09,-0.08,0.15,1721201813008
-0.78,4.22,11.21,0.08,-0.04,0.17,1721201813018
1.98,0.26,7.86,0.04,-0.07,0.29,1721201813028
1.73,0.78,9.50,-0.06,0.01,-0.00,1721201813038
-0.09,-0.69,12.24,-0.11,-0.09,-0.21,1721201813048
-0.54,-1.72,12.46,-0.04,-0.00,-0.09,1721201813058
-1.77,1.14,11.92,0.01,-0.04,0.06,1721201813068
-1.79,-4.15,3.93,0.01,-0.18,0.27,1721201813078
1.80,0.68,10.18,-0.06,0.23,0.16,1721201813088
3.74,1.98,12.35,0.02,-0.07,-0.06,1721201813098
0.48,0.52,11.08,-0.16,-0.15,-0.08,1721201813108
-1.81,-0.06,13.13,-0.01,0.05,-0.22,1721201813118
-2.88,-1.23,8.89,0.01,-0.12,-0.18,1721201813128
-2.90,-0.14,7.81,-0.02,-0.06,0.19,1721201813138
1.14,-4.44,9.87,-0.04,0.10,0.20,1721201813148
2.09,0.66,11.87,-0.01,-0.03,0.07,1721201813158
1.00,5.22,13.53,0.07,-0.03,0.02,1721201813168
1.05,-0.41,8.95,0.06,-0.03,-0.19,1721201813178
-0.03,-2.07,10.20,0.00,-0.00,-0.14,1721201813188
-2.38,0.50,8.10,0.09,-0.06,-0.07,1721201813198
-1.54,1.95,8.43,0.06,0.04,0.10,1721201813208
-0.14,0.28,4.73,0.02,-0.09,0.18,1721201813218
1.36,-0.41,10.90,-0.15,0.07,0.00,1721201813228
2.29,-1.80,16.41,-0.02,-0.03,-0.19,1721201813238
-0.68,-2.43,9.29,0.01,-0.10,-0.34,1721201813248
-4.31,8.14,12.18,0.15,-0.04,-0.31,1721201813258
-3.14,1.43,6.14,0.17,-0.07,0.15,1721201813268
-0.72,-0.68,11.33,-0.03,0.09,0.38,1721201813278
3.55,-0.73,10.02,0.21,0.01,0.22,1721201813288
3.31,5.04,10.26,-0.03,0.06,-0.17,1721201813298
0.80,1.89,14.66,0.01,-0.13,-0.39,1721201813308
-1.88,-2.45,10.00,0.10,-0.10,-0.35,1721201813318
-3.70,-3.73,5.74,0.09,-0.01,-0.02,1721201813328
-2.44,-0.86,7.93,0.04,0.01,0.21,1721201813338
0.41,5.32,18.34,0.15,0.11,0.11,1721201813348
1.41,6.35,6.85,0.34,-0.27,0.17,1721201813358
1.97,-5.31,8.35,-0.19,0.27,-0.13,1721201813368
-0.03,2.77,18.39,0.23,-0.08,-0.39,1721201813378
-3.50,1.54,5.10,0.10,-0.14,-0.21,1721201813388
-2.25,2.77,11.97,-0.04,0.11,0.17,1721201813398
1.98,-1.25,9.28,0.19,0.02,0.15,1721201813408
1.81,-7.61,3.80,-0.16,-0.06,0.06,1721201813418
2.42,1.75,14.26,-0.12,0.09,-0.19,1721201813428
0.40,3.53,10.23,0.10,-0.02,-0.47,1721201813438
-4.14,0.25,4.47,-0.08,-0.12,-0.17,1721201813448
-3.00,-3.51,3.94,-0.13,0.05,0.20,1721201813458
1.30,-2.06,12.54,-0.21,0.17,0.19,1721201813468
3.11,-3.23,16.46,-0.27,-0.12,0.08,1721201813478
1.49,1.11,11.47,-0.05,-0.21,-0.09,1721201813488
0.56,-0.98,10.81,-0.26,0.17,-0.54,1721201813498
-1.83,-1.75,13.11,-0.01,-0.26,-0.21,1721201813508
-3.42,-2.88,8.91,-0.20,0.10,0.12,1721201813518
-1.75,5.55,10.88,0.16,0.01,0.13,1721201813528
1.72,-4.67,-2.94,-0.07,-0.02,0.16,1721201813538
0.46,1.85,15.61,-0.30,0.29,0.02,1721201813548
-2.78,0.01,19.32,-0.04,0.11,-0.17,1721201813558
-1.24,1.06,16.85,-0.16,-0.08,-0.28,1721201813568
-1.79,6.69,13.33,0.07,-0.06,-0.05,1721201813578
0.69,-8.02,9.76,-0.25,-0.00,0.08,1721201813588
-0.43,-1.24,15.73,-0.06,-0.08,0.07,1721201813598
-1.08,5.02,9.05,0.27,-0.06,-0.18,1721201813608
-0.54,2.34,8.04,0.13,0.01,-0.13,1721201813618
-1.24,5.28,9.92,0.18,-0.08,0.02,1721201813628
