AccX,AccY,AccZ,GyrX,GyrY,GyrZ,Time
-4.63,0.73,7.32,-0.10,0.07,0.31,1721199673140
-4.51,2.42,9.08,-0.07,-0.25,0.23,1721199673144
-0.74,-8.92,7.37,-0.33,-0.14,0.41,1721199673154
-1.87,4.72,25.92,0.34,-0.24,0.59,1721199673164
3.61,0.88,-6.09,-0.17,-0.30,0.31,1721199673174
-4.43,0.82,11.15,-0.52,-0.44,0.02,1721199673184
-1.00,4.25,15.16,0.04,0.17,-0.00,1721199673194
-0.02,6.98,9.65,0.03,-0.22,0.20,1721199673204
1.25,4.17,8.68,-0.11,-0.27,0.27,1721199673214
-0.59,3.49,9.29,-0.15,-0.28,0.35,1721199673224
1.24,0.75,11.68,-0.10,-0.18,0.23,1721199673234
0.85,3.38,10.83,0.18,-0.40,-0.06,1721199673244
-1.14,8.73,7.06,0.10,-0.19,-0.05,1721199673254
1.18,2.94,9.71,-0.17,-0.06,0.40,1721199673264
4.30,4.38,16.12,0.08,-0.16,0.45,1721199673274
8.43,5.12,4.87,0.04,-0.06,-0.04,1721199673284
4.22,9.54,9.24,0.06,-0.11,-0.43,1721199673294
2.03,1.80,4.18,-0.22,-0.01,-0.31,1721199673304
-1.28,-2.80,18.46,-0.23,0.01,-0.09,1721199673314
-2.35,-4.15,10.62,0.11,-0.20,0.05,1721199673324
-3.22,6.33,9.32,0.10,0.04,0.02,1721199673334
0.78,-0.75,4.69,-0.32,-0.01,0.18,1721199673344
-0.41,-4.07,18.27,-0.11,-0.16,0.24,1721199673354
1.37,-2.51,6.73,0.17,-0.12,0.23,1721199673364
5.33,0.76,11.89,-0.07,0.33,0.17,1721199673374
7.94,-0.64,8.37,0.12,-0.01,0.07,1721199673384
7.32,-4.81,8.81,-0.21,0.34,-0.25,1721199673394
3.55,-5.40,15.75,0.12,0.02,-0.50,1721199673404
0.28,-0.53,14.05,0.27,0.36,-0.60,1721199673414
-3.02,2.40,0.59,0.10,0.13,-0.45,1721199673424
-5.80,-1.39,7.01,-0.24,0.25,-0.34,1721199673434
-5.45,-6.54,21.16,0.07,0.24,-0.28,1721199673444
-5.02,1.03,10.77,0.53,0.09,-0.21,1721199673454
-5.06,5.49,-7.32,-0.19,0.14,-0.11,1721199673464
-5.78,-6.03,20.12,-0.30,0.27,-0.16,1721199673474
-3.51,-9.64,25.82,0.50,-0.09,0.01,1721199673484
1.70,5.52,0.55,0.31,0.21,0.39,1721199673494
9.03,4.06,7.77,0.04,0.28,0.18,1721199673504
7.12,0.02,14.45,-0.03,0.18,-0.54,1721199673514
1.79,1.54,16.85,0.15,-0.02,-0.76,1721199673524
-2.24,6.59,6.36,0.16,0.24,-0.56,1721199673534
-4.18,1.09,10.50,-0.19,0.44,-0.61,1721199673544
-9.72,3.73,10.35,0.33,-0.21,-0.58,1721199673554
-6.88,-1.56,2.99,-0.14,0.30,-0.24,1721199673564
-5.85,0.15,12.78,-0.06,-0.03,0.09,1721199673574
-4.35,-4.80,21.78,0.09,0.18,-0.28,1721199673584
-4.56,2.82,9.77,0.49,-0.07,-0.37,1721199673594
-3.17,1.81,-3.04,-0.40,0.02,0.02,1721199673604
-1.26,-3.74,11.31,-0.38,-0.03,0.26,1721199673614
7.22,-4.82,16.27,0.19,0.28,-0.29,1721199673624
5.05,4.66,15.59,0.34,0.10,-0.89,1721199673634
-2.85,3.96,-8.94,-0.25,-0.40,-0.69,1721199673644
-9.57,1.71,18.56,-0.29,0.23,-0.27,1721199673654
-0.86,-4.25,9.32,-0.10,0.18,-0.17,1721199673664
-5.65,3.84,23.23,0.28,-0.17,-0.54,1721199673674
-10.16,5.95,-12.41,0.19,-0.48,-0.60,1721199673684
-18.52,0.33,14.06,-0.60,-0.23,-0.24,1721199673694
-17.54,-5.66,24.77,0.67,-1.39,0.62,1721199673704
-1.12,-12.22,-1.62,-0.23,-0.47,1.28,1721199673714
13.14,1.40,17.47,0.25,0.08,1.63,1721199673724
20.76,7.13,-1.31,-0.50,0.25,-0.26,1721199673734
2.51,-0.05,20.18,-0.50,-0.64,-2.62,1721199673744
-18.61,-15.18,12.81,0.46,-0.58,-2.53,1721199673754
-35.07,-5.94,-7.17,0.39,-0.34,0.13,1721199673764
-25.13,-1.63,9.75,-0.27,-0.36,2.21,1721199673774
2.01,-7.41,20.30,-0.51,-0.35,2.53,1721199673784
19.06,0.51,24.32,0.08,-0.25,1.79,1721199673794
24.23,-0.21,9.28,0.16,-0.33,0.62,1721199673804
17.62,0.95,-0.42,-0.06,-0.56,-0.40,1721199673814
11.47,-8.80,4.52,-0.27,-0.43,-0.39,1721199673824
7.10,-4.08,20.10,0.03,-0.04,0.21,1721199673834
14.43,-0.97,19.78,0.31,0.13,0.12,1721199673844
11.68,2.14,-1.34,0.19,-0.25,-0.78,1721199673854
1.48,1.61,6.40,-0.39,0.13,-1.47,1721199673864
-5.09,-6.57,22.73,0.08,-0.40,-1.20,1721199673874
-14.37,0.51,6.53,0.46,0.09,-0.14,1721199673884
-7.88,-3.20,0.03,-0.24,0.20,0.28,1721199673894
-6.31,-0.37,11.21,0.03,-0.12,0.13,1721199673904
-5.29,-3.59,15.24,-0.04,0.09,-0.00,1721199673914
-7.43,1.94,8.71,0.25,-0.24,0.12,1721199673924
-4.57,1.47,2.61,-0.22,0.03,0.05,1721199673934
-5.96,-3.29,6.75,-0.20,-0.47,-0.02,1721199673944
-7.12,-0.71,18.41,-0.25,-0.04,0.07,1721199673954
-3.44,2.21,12.80,0.03,-0.29,0.43,1721199673964
2.29,2.58,10.39,-0.09,-0.09,0.43,1721199673974
5.42,-1.39,9.82,-0.13,-0.15,0.19,1721199673984
4.04,1.16,9.27,0.04,-0.29,0.04,1721199673994
3.97,3.35,9.83,-0.03,-0.08,0.01,1721199674004
4.29,0.91,10.49,0.01,-0.17,0.02,1721199674014
3.70,3.20,16.00,-0.02,-0.01,0.01,1721199674024
2.66,4.06,9.64,0.10,-0.20,-0.04,1721199674034
2.76,6.66,11.39,0.02,0.05,-0.07,1721199674044
3.73,3.73,11.16,-0.07,0.04,-0.19,1721199674054
0.59,4.57,10.75,0.14,-0.12,-0.16,1721199674064
1.66,1.43,5.97,-0.08,0.25,-0.07,1721199674074
0.94,-1.08,13.35,-0.09,-0.03,-0.04,1721199674084
0.37,5.93,14.69,0.08,0.08,0.02,1721199674094
2.36,1.50,1.68,0.05,-0.08,0.21,1721199674104
3.30,1.23,12.18,-0.21,0.25,-0.00,1721199674114
5.57,1.13,13.34,0.12,0.17,-0.16,1721199674124
2.20,-0.83,7.09,-0.02,-0.06,-0.17,1721199674134
-0.48,1.45,11.95,0.06,0.05,-0.18,1721199674144
1.63,-3.94,4.00,0.03,0.02,-0.09,1721199674154
-1.29,-2.39,13.12,-0.12,0.17,-0.27,1721199674164
-2.09,-2.44,10.92,0.10,0.13,-0.37,1721199674174
-3.18,-2.22,10.62,-0.09,0.18,-0.29,1721199674184
-2.76,-0.61,12.18,0.03,0.06,0.06,1721199674194
0.85,-1.41,4.99,-0.05,0.09,0.24,1721199674204
3.54,-5.54,9.34,-0.18,0.08,0.00,1721199674214
2.76,-3.75,10.69,-0.06,-0.03,-0.30,1721199674224
1.11,1.12,13.94,0.05,0.34,-0.51,1721199674234
-1.86,-3.26,10.02,-0.11,0.12,-0.40,1721199674244
-4.66,0.06,9.85,-0.12,-0.04,-0.12,1721199674254
-0.89,-1.20,8.49,0.01,0.11,0.09,1721199674264
2.09,-1.86,9.43,-0.10,0.28,-0.20,1721199674274
-1.68,-1.01,17.32,0.03,-0.07,-0.55,1721199674284
-5.42,0.74,10.53,0.20,-0.07,-0.37,1721199674294
-4.47,-3.09,7.21,-0.03,0.20,-0.04,1721199674304
-4.36,-4.07,17.78,0.08,0.08,0.16,1721199674314
-3.36,3.65,9.87,0.24,-0.02,0.18,1721199674324
4.12,-4.42,9.46,-0.14,0.12,-0.21,1721199674334
0.21,-0.52,12.07,0.26,-0.54,-0.37,1721199674344
-1.38,-0.97,3.33,0.06,0.26,-0.31,1721199674354
-3.46,-4.49,13.45,0.07,-0.12,-0.01,1721199674364
-3.95,-0.50,12.45,0.17,-0.01,0.10,1721199674374
2.20,-1.94,6.71,-0.06,0.20,0.01,1721199674384
1.60,-4.37,12.04,-0.05,-0.22,-0.19,1721199674394
-1.98,-1.45,13.23,-0.01,0.27,-0.38,1721199674404
-4.73,-0.66,10.61,0.14,-0.17,-0.14,1721199674414
-4.71,0.90,10.43,0.07,-0.19,0.14,1721199674424
1.19,1.40,6.83,0.07,0.12,0.24,1721199674434
5.07,-0.81,12.61,-0.09,0.08,0.12,1721199674444
3.31,1.72,12.51,0.22,-0.31,-0.22,1721199674454
1.32,1.85,4.63,0.16,0.06,-0.39,1721199674464
-0.91,3.62,12.54,0.03,0.14,-0.35,1721199674474
-4.10,2.50,8.31,0.12,-0.14,-0.37,1721199674484
-5.00,0.85,7.17,-0.02,-0.12,-0.23,1721199674494
-2.08,0.13,13.86,-0.01,-0.03,-0.01,1721199674504
-2.91,3.85,11.02,0.16,-0.19,-0.03,1721199674514
-2.35,4.87,12.82,-0.03,-0.04,-0.06,1721199674524
-2.39,1.63,9.16,0.07,-0.29,0.08,1721199674534
-2.62,2.67,6.75,-0.15,-0.15,0.10,1721199674544
-0.23,3.04,8.52,-0.10,-0.15,0.06,1721199674554
5.15,3.21,9.80,-0.07,0.03,-0.01,1721199674564
3.41,-0.32,10.25,-0.11,-0.14,-0.33,1721199674574
-3.45,-1.96,7.39,-0.07,-0.36,-0.54,1721199674584
-6.17,1.51,15.66,-0.09,-0.09,-0.22,1721199674594
-5.78,0.72,8.26,0.11,-0.15,0.28,1721199674604
-2.45,-2.77,3.81,-0.19,-0.28,0.27,1721199674614
1.54,0.09,16.68,-0.09,-0.18,0.16,1721199674624
2.34,1.61,8.96,0.08,-0.26,0.04,1721199674634
1.78,-3.51,7.59,-0.10,-0.30,0.07,1721199674644
3.00,-3.68,12.27,-0.16,-0.15,0.15,1721199674654
1.92,4.91,13.92,0.00,-0.14,-0.09,1721199674664
2.26,-0.84,4.06,0.06,-0.48,-0.18,1721199674674
3.89,-5.07,7.39,-0.19,-0.02,-0.02,1721199674684
0.67,1.28,13.82,0.01,-0.06,-0.15,1721199674694
2.17,-3.08,12.16,0.04,-0.17,-0.14,1721199674704
3.32,-3.12,7.41,-0.06,-0.07,-0.17,1721199674714
0.33,1.13,11.74,-0.08,-0.06,-0.42,1721199674724
1.41,-2.79,11.63,0.00,-0.12,-0.27,1721199674734
-0.93,-0.66,7.07,-0.04,-0.09,-0.22,1721199674744
-0.09,0.33,15.49,-0.04,0.01,-0.39,1721199674754
3.38,-2.25,4.62,0.10,-0.14,-0.28,1721199674764
1.94,-5.48,11.14,0.05,-0.13,-0.28,1721199674774
-0.93,-0.65,15.96,0.19,-0.01,-0.29,1721199674784
0.69,0.73,10.33,-0.02,0.18,-0.29,1721199674794
-1.61,0.90,12.74,0.01,-0.12,-0.31,1721199674804
-0.10,0.24,6.00,0.10,-0.04,-0.35,1721199674814
1.36,0.71,11.59,0.00,0.18,-0.48,1721199674824
0.25,0.94,8.37,0.20,-0.01,-0.55,1721199674834
0.18,1.16,11.00,0.17,0.11,-0.60,1721199674844
-1.69,2.03,7.88,0.28,0.06,-0.50,1721199674854
-2.04,-1.67,14.23,0.03,0.24,-0.39,1721199674864
-3.70,4.38,11.17,0.34,-0.08,-0.31,1721199674874
-0.26,1.51,6.72,-0.02,0.18,-0.26,1721199674884
3.35,5.80,10.76,0.22,0.09,-0.19,1721199674894
5.77,-3.30,4.34,-0.03,0.24,-0.58,1721199674904
1.80,3.00,13.38,0.15,-0.02,-0.63,1721199674914
-0.23,-0.86,6.92,-0.12,0.30,-0.55,1721199674924
-1.14,2.48,18.70,0.14,0.19,-0.44,1721199674934
1.81,1.17,7.81,0.09,0.26,-0.34,1721199674944
3.41,3.27,14.61,0.03,0.35,-0.50,1721199674954
3.44,0.74,5.62,0.13,0.14,-0.69,1721199674964
-2.66,1.34,8.89,-0.07,0.31,-0.90,1721199674974
-4.12,-6.39,5.53,-0.15,0.16,-0.56,1721199674984
-5.06,2.32,18.76,-0.09,0.39,-0.26,1721199674994
2.47,-6.82,4.50,0.06,0.13,-0.18,1721199675004
3.03,-0.21,13.96,-0.19,0.67,-0.68,1721199675014
4.53,-3.81,9.70,0.00,0.24,-1.04,1721199675024
-3.86,-3.80,10.49,-0.18,0.16,-1.06,1721199675034
-5.54,-5.32,8.46,-0.13,0.44,-0.80,1721199675044
-0.19,-4.24,14.26,-0.12,0.64,-0.53,1721199675054
3.88,-3.09,6.39,-0.06,0.29,-0.66,1721199675064
-1.96,-6.69,6.98,-0.32,0.43,-1.09,1721199675074
-5.63,-3.72,11.17,0.00,0.37,-1.25,1721199675084
-5.66,-3.52,11.62,-0.18,0.60,-0.96,1721199675094
-4.88,0.51,15.73,-0.06,0.53,-0.48,1721199675104
-2.43,-2.47,10.51,-0.19,0.36,-0.41,1721199675114
-2.00,1.90,6.42,0.08,-0.02,-0.58,1721199675124
-2.89,-3.95,6.75,-0.18,0.62,-0.79,1721199675134
-6.19,-4.38,5.55,0.09,0.21,-0.59,1721199675149
-4.78,-3.04,6.56,-0.12,0.32,-0.46,1721199675153
-7.18,0.78,15.35,0.01,0.18,-0.23,1721199675163
-3.77,0.74,6.12,0.19,0.23,-0.22,1721199675173
-2.78,0.52,11.42,0.08,0.35,-0.44,1721199675183
-3.37,4.82,13.07,0.17,0.45,-0.39,1721199675193
-5.97,3.49,12.39,0.04,0.18,-0.38,1721199675203
-7.42,8.52,7.94,0.35,-0.09,-0.22,1721199675213
-3.08,-2.63,7.80,0.03,0.24,0.06,1721199675223
-2.36,4.46,16.31,0.44,0.01,0.46,1721199675233
1.31,4.21,2.07,0.26,0.24,0.16,1721199675243
0.86,4.38,12.78,0.10,-0.02,-0.25,1721199675253
-1.75,1.45,9.16,0.16,-0.01,-0.21,1721199675263
-5.42,3.78,13.66,0.17,0.03,0.00,1721199675273
-3.54,3.08,4.79,0.16,0.04,0.25,1721199675283
-0.82,-1.00,7.15,-0.06,0.06,0.39,1721199675293
0.82,1.13,7.49,-0.00,0.02,0.23,1721199675303
1.98,3.16,12.56,-0.20,0.11,0.04,1721199675313
0.72,1.75,10.98,-0.06,-0.08,-0.04,1721199675323
-0.86,-0.93,12.58,-0.21,0.26,-0.05,1721199675333
-6.17,-3.35,3.63,-0.08,-0.22,0.17,1721199675343
-3.63,-0.03,16.14,-0.11,0.23,0.42,1721199675353
0.62,-4.13,8.66,0.12,-0.03,0.60,1721199675363
3.06,4.86,16.19,-0.11,0.32,0.34,1721199675373
2.20,-5.59,2.49,-0.06,-0.37,0.12,1721199675383
-2.77,-4.82,18.28,-0.40,0.26,-0.10,1721199675393
-1.98,-1.97,11.63,0.38,-0.09,0.34,1721199675403
0.64,-5.44,7.33,-0.24,0.23,0.63,1721199675413
3.21,0.11,14.88,0.03,-0.17,0.61,1721199675423
4.65,-6.58,5.94,-0.16,-0.13,0.10,1721199675433
-0.23,0.34,14.63,-0.01,-0.12,-0.14,1721199675443
2.40,-8.22,9.87,-0.14,0.10,0.20,1721199675453
-1.73,-2.86,10.69,-0.08,0.02,0.33,1721199675463
2.15,-4.04,11.03,-0.21,0.14,0.40,1721199675473
0.05,3.69,11.84,0.16,-0.24,0.16,1721199675483
3.52,-3.64,9.08,-0.19,0.31,-0.00,1721199675493
-1.08,6.37,15.51,0.27,-0.07,0.31,1721199675503
3.10,1.09,4.87,-0.04,0.33,0.40,1721199675513
3.30,0.67,15.33,0.16,-0.13,0.33,1721199675523
5.57,2.05,5.09,0.04,0.24,-0.10,1721199675533
0.77,4.60,12.21,0.20,-0.01,-0.22,1721199675543
-1.12,0.20,5.93,0.07,0.19,-0.10,1721199675553
-3.41,7.47,14.71,0.33,0.09,0.03,1721199675563
0.23,0.58,4.99,0.11,0.17,0.22,1721199675573
1.77,3.82,17.53,0.09,0.28,0.21,1721199675583
3.88,0.53,9.39,0.20,0.12,0.03,1721199675593
1.36,6.93,10.08,0.26,0.18,-0.18,1721199675603
1.41,0.24,1.06,0.16,0.14,-0.26,1721199675613
-0.99,4.17,19.10,-0.07,0.39,-0.33,1721199675623
-2.67,2.13,6.83,0.36,-0.02,-0.20,1721199675633
-4.77,-0.99,3.58,-0.09,0.33,-0.17,1721199675643
-4.33,1.75,10.76,0.03,0.20,-0.13,1721199675653
-1.81,-0.31,13.03,-0.04,0.20,-0.09,1721199675663
0.53,-1.85,13.33,0.13,0.08,0.06,1721199675673
0.21,2.19,5.56,0.04,0.16,-0.01,1721199675683
1.88,-2.77,9.36,-0.19,0.19,-0.18,1721199675693
-0.78,-3.16,12.07,-0.05,0.01,-0.49,1721199675703
-2.08,-4.93,8.83,-0.05,0.21,-0.19,1721199675713
-0.67,-6.21,12.32,-0.06,0.17,0.06,1721199675723
-2.58,-6.63,7.26,-0.01,0.03,0.08,1721199675733
-3.06,0.22,17.07,-0.05,0.03,0.17,1721199675743
-1.96,3.68,3.57,0.12,-0.17,0.14,1721199675753
-1.07,-6.12,8.00,-0.34,0.17,0.10,1721199675763
-3.80,-11.08,5.00,-0.37,-0.03,0.23,1721199675773
-4.88,-9.40,14.91,-0.27,0.10,0.20,1721199675783
-2.14,-7.56,10.94,0.06,-0.25,0.54,1721199675793
1.10,1.33,13.08,-0.06,0.25,0.47,1721199675803
4.71,0.87,12.49,-0.01,-0.16,0.28,1721199675813
0.22,-3.31,9.04,-0.33,-0.25,0.05,1721199675823
-3.79,-1.86,16.19,-0.14,-0.25,-0.13,1721199675833
-5.51,1.28,5.60,0.11,-0.28,0.18,1721199675843
-2.66,-0.67,3.70,-0.31,-0.00,0.41,1721199675853
-0.62,4.21,16.41,-0.03,-0.22,0.30,1721199675863
-0.52,2.14,5.18,0.03,-0.30,0.13,1721199675873
-1.10,10.57,13.95,0.14,-0.11,0.13,1721199675883
0.97,4.12,6.41,0.12,-0.23,0.28,1721199675893
-1.07,6.28,13.70,-0.05,-0.15,0.22,1721199675903
0.91,0.35,5.76,0.10,-0.32,0.18,1721199675913
3.18,3.66,15.97,0.06,0.07,0.34,1721199675923
4.65,-1.54,9.67,0.12,-0.36,0.39,1721199675933
7.28,13.71,19.06,0.13,0.47,0.10,1721199675943
6.04,-10.37,-7.52,0.11,-0.87,-0.03,1721199675953
3.00,6.58,15.51,-0.19,0.91,-0.50,1721199675963
2.64,5.79,10.96,-0.11,0.17,-0.60,1721199675973
-14.56,-1.55,22.87,-0.33,-0.45,-0.03,1721199675983
-12.65,0.74,4.99,0.49,-0.17,0.36,1721199675993
-1.88,-2.34,3.37,-0.22,0.34,0.55,1721199676003
4.55,9.73,19.57,0.17,-0.16,0.71,1721199676013
9.99,-5.07,3.91,-0.14,0.10,0.33,1721199676023
6.62,2.71,12.66,0.21,-0.28,-0.27,1721199676033
6.71,0.52,9.30,0.04,0.21,-0.67,1721199676043
-2.46,-1.21,17.31,0.02,-0.15,-0.51,1721199676053
-8.49,0.06,6.79,0.19,-0.15,-0.20,1721199676063
-4.13,-3.27,10.35,-0.13,0.16,0.19,1721199676073
0.90,-4.39,11.62,0.13,-0.15,0.43,1721199676083
4.00,-2.59,13.07,-0.08,0.15,-0.10,1721199676093
0.88,2.02,12.89,0.26,-0.21,-0.35,1721199676103
-2.94,-8.07,-4.98,-0.35,-0.12,-0.15,1721199676113
-5.51,3.59,23.74,-0.02,0.03,0.17,1721199676123
3.73,-4.08,-0.71,0.04,-0.20,0.21,1721199676133
6.50,0.13,13.19,-0.34,0.39,-0.39,1721199676143
2.49,3.68,11.02,0.23,-0.21,-0.61,1721199676153
-3.23,-1.14,10.33,-0.21,0.21,-0.29,1721199676163
-4.87,-3.22,5.49,0.10,-0.07,0.19,1721199676173
-0.59,4.13,7.70,-0.14,0.39,-0.00,1721199676183
1.75,1.99,13.73,0.04,-0.03,-0.06,1721199676193
0.63,3.51,7.68,0.07,-0.06,-0.27,1721199676203
-0.75,-3.63,10.24,-0.19,0.16,-0.33,1721199676213
-3.67,-0.88,15.31,0.13,-0.00,-0.09,1721199676223
-1.19,2.63,2.72,0.15,0.04,0.13,1721199676233
1.48,3.79,9.95,-0.01,0.18,0.01,1721199676243
2.47,0.28,11.02,0.00,0.00,-0.17,1721199676253
-0.77,-2.50,8.44,-0.10,-0.01,-0.34,1721199676263
-5.05,2.23,16.58,0.09,0.05,-0.30,1721199676273
-3.54,-2.34,3.41,0.06,-0.00,0.06,1721199676283
0.29,4.12,17.05,0.07,0.21,0.16,1721199676293
3.72,-4.14,2.21,0.04,-0.08,-0.03,1721199676303
-2.34,4.03,17.84,0.03,0.01,-0.16,1721199676313
-0.37,-1.89,0.37,0.17,0.02,0.00,1721199676323
-0.97,1.58,14.67,-0.11,0.24,-0.02,1721199676333
0.59,-1.21,4.27,0.19,-0.10,0.09,1721199676343
0.97,1.15,14.51,-0.08,0.29,-0.00,1721199676353
1.17,2.52,6.59,0.18,-0.07,-0.01,1721199676363
-0.50,1.67,16.94,-0.11,0.27,-0.29,1721199676373
-2.84,-0.02,12.20,0.44,-0.08,-0.04,1721199676383
-1.10,-2.01,5.95,-0.04,0.26,0.28,1721199676393
0.80,1.64,11.37,0.05,0.03,0.37,1721199676403
2.06,1.92,8.05,0.02,0.00,-0.06,1721199676413
-0.63,0.60,9.95,-0.02,0.07,-0.15,1721199676423
-3.40,2.66,6.75,0.13,-0.06,0.07,1721199676433
-0.25,-1.80,9.17,-0.32,0.22,0.37,1721199676443
0.70,3.41,15.08,0.18,-0.09,0.36,1721199676453
6.34,-1.26,9.49,-0.17,0.35,0.12,1721199676463
2.46,5.78,16.79,0.21,-0.18,-0.10,1721199676473
1.11,-3.86,0.19,-0.14,0.04,-0.19,1721199676483
-4.37,2.75,17.26,-0.08,0.01,-0.05,1721199676493
-2.00,0.88,3.62,0.11,0.00,0.13,1721199676503
0.83,-0.92,12.50,-0.25,0.19,0.12,1721199676513
0.37,-0.32,6.55,0.10,-0.33,0.09,1721199676523
-0.31,-0.74,12.04,-0.32,0.39,-0.26,1721199676533
-1.89,-3.75,15.88,0.02,-0.21,-0.07,1721199676543
-4.09,0.08,7.50,-0.12,-0.09,0.19,1721199676553
-0.01,0.79,10.17,-0.12,0.09,0.15,1721199676563
1.58,-0.73,7.16,-0.19,-0.10,0.02,1721199676573
1.29,-0.80,9.56,-0.17,-0.10,-0.10,1721199676583
-0.29,-6.87,9.32,-0.31,-0.03,-0.21,1721199676593
-2.60,0.32,13.31,0.06,-0.14,-0.06,1721199676603
0.05,-0.90,8.66,-0.21,0.20,-0.02,1721199676613
-2.37,3.98,15.00,-0.07,-0.27,0.06,1721199676623
-1.59,2.38,5.09,-0.17,-0.09,0.05,1721199676633
0.74,-4.22,14.36,-0.39,0.05,0.03,1721199676643
-0.46,3.22,13.13,0.13,-0.20,-0.01,1721199676653
0.64,-0.97,3.64,-0.26,0.02,0.02,1721199676663
-2.43,2.39,15.11,-0.09,-0.25,-0.00,1721199676673
-1.34,1.38,6.39,0.01,-0.07,0.10,1721199676683
-0.11,1.29,13.26,-0.12,0.03,0.02,1721199676693
-0.45,1.51,10.14,0.10,-0.25,0.01,1721199676703
0.03,0.34,8.56,-0.05,0.01,0.02,1721199676713
-0.42,2.05,11.87,0.08,-0.18,-0.07,1721199676723
-1.16,1.01,5.55,0.08,-0.08,-0.12,1721199676733
0.37,-1.41,14.94,-0.05,0.11,0.01,1721199676743
0.88,2.27,12.03,0.20,-0.16,-0.01,1721199676753
1.00,-1.84,10.35,-0.09,0.14,-0.24,1721199676763
-2.06,2.83,11.57,0.30,-0.30,-0.26,1721199676773
-1.35,-2.27,6.62,-0.07,0.10,-0.07,1721199676783
-1.37,3.01,13.89,0.24,-0.32,0.14,1721199676793
0.44,-1.33,7.74,-0.01,0.05,-0.08,1721199676803
1.53,-0.15,13.24,0.14,-0.18,-0.25,1721199676813
-3.11,0.58,5.19,0.18,-0.12,-0.21,1721199676823
-2.60,-0.71,8.91,-0.04,0.01,0.01,1721199676833
-0.26,4.08,12.67,0.18,-0.11,0.03,1721199676843
2.56,-3.06,7.14,0.01,-0.10,-0.01,1721199676853
0.52,4.42,16.65,0.12,0.02,-0.29,1721199676863
-0.51,-1.02,5.06,0.13,-0.28,-0.39,1721199676873
-4.88,6.30,11.82,0.16,-0.03,-0.18,1721199676883
-0.30,-2.21,3.87,0.08,-0.05,-0.02,1721199676893
-0.28,2.18,10.82,0.03,-0.22,0.12,1721199676903
3.64,-2.05,10.18,-0.01,0.06,-0.15,1721199676913
0.58,3.28,19.21,0.10,-0.02,-0.52,1721199676923
-2.73,3.73,5.39,0.27,-0.22,-0.39,1721199676933
-3.62,-3.73,7.67,-0.15,-0.03,-0.28,1721199676943
-1.30,2.84,8.92,0.27,-0.07,0.07,1721199676953
4.28,-3.37,9.21,-0.29,0.20,-0.13,1721199676963
-0.82,6.36,19.95,0.18,-0.35,-0.35,1721199676973
-4.01,2.01,1.95,0.07,-0.01,-0.41,1721199676983
-4.92,1.62,13.10,-0.09,-0.03,-0.10,1721199676993
-2.30,0.84,8.01,0.03,-0.17,0.16,1721199677003
1.60,-0.76,14.92,-0.08,-0.02,0.16,1721199677013
1.38,5.36,10.23,0.23,-0.19,-0.08,1721199677023
1.47,1.25,4.88,-0.15,-0.06,-0.23,1721199677033
-0.25,4.40,16.00,0.02,-0.14,-0.18,1721199677043
-0.26,-5.34,3.28,-0.12,-0.13,-0.13,1721199677053
-2.09,1.05,16.93,-0.04,0.11,-0.09,1721199677063
1.52,-3.92,2.60,0.08,-0.13,-0.00,1721199677073
0.25,1.57,15.99,-0.10,0.13,-0.17,1721199677083
0.06,0.45,7.68,0.15,-0.19,-0.31,1721199677093
-1.57,-0.85,13.75,-0.23,0.09,-0.30,1721199677103
-3.37,0.27,9.25,0.06,-0.18,-0.18,1721199677113
-1.29,-4.68,6.52,-0.24,0.11,-0.14,1721199677123
-0.94,1.27,16.25,-0.00,-0.06,-0.12,1721199677133
1.10,-1.28,5.66,-0.02,0.01,-0.03,1721199677143
-0.30,1.80,12.91,0.03,-0.09,-0.19,1721199677158
0.88,-3.19,6.71,0.04,-0.18,-0.22,1721199677162
-0.50,4.62,15.32,-0.09,0.16,-0.34,1721199677172
0.33,0.07,7.58,-0.01,-0.14,-0.15,1721199677182
0.57,0.56,9.07,-0.20,0.03,-0.17,1721199677192
3.41,0.68,7.43,-0.09,0.16,-0.33,1721199677202
0.60,-3.96,13.07,-0.22,0.08,-0.61,1721199677212
-2.61,-5.66,10.14,0.01,-0.18,-0.25,1721199677222
-1.66,4.46,14.03,0.10,0.23,-0.13,1721199677232
4.14,-2.35,6.56,0.17,-0.07,0.02,1721199677242
1.98,3.60,16.66,0.04,0.25,-0.36,1721199677252
0.72,-2.37,10.88,0.13,0.05,-0.57,1721199677262
-4.00,-2.50,13.22,0.05,0.09,-0.40,1721199677272
-2.34,-0.40,10.45,0.21,0.19,-0.02,1721199677282
-0.51,1.53,4.30,0.21,0.17,-0.01,1721199677292
4.23,5.80,16.57,0.16,0.40,-0.33,1721199677302
4.98,-0.44,8.50,0.24,0.12,-0.63,1721199677312
-2.32,-1.54,12.63,-0.02,0.29,-0.64,1721199677322
-4.35,1.76,10.84,0.28,0.26,-0.21,1721199677332
-0.14,-1.19,4.22,0.11,0.29,-0.12,1721199677342
4.04,-0.73,10.61,0.12,0.32,-0.30,1721199677352
2.74,-1.04,10.47,0.19,0.23,-0.54,1721199677362
-2.61,0.33,14.12,0.10,0.39,-0.58,1721199677372
-4.38,2.89,10.30,0.22,0.31,-0.27,1721199677382
-1.34,-2.25,2.95,-0.09,0.33,-0.06,1721199677392
-0.75,6.23,15.28,0.21,0.37,-0.42,1721199677402
1.33,-2.30,5.98,0.11,0.34,-0.48,1721199677412
-2.48,0.07,19.47,0.15,0.27,-0.32,1721199677422
-3.08,-1.28,3.77,0.15,0.24,-0.18,1721199677432
-2.81,6.28,7.82,0.07,0.37,-0.20,1721199677442
1.53,-1.79,5.34,-0.12,0.39,-0.25,1721199677452
-2.84,-2.97,9.91,0.01,0.17,-0.40,1721199677462
-6.74,4.65,16.74,-0.01,0.44,-0.27,1721199677472
-3.06,4.47,9.96,0.13,0.29,0.16,1721199677482
3.07,2.88,9.30,-0.09,0.39,0.14,1721199677492
6.15,-2.49,12.65,-0.11,0.26,-0.22,1721199677502
-0.22,1.21,5.08,0.18,-0.07,-0.44,1721199677512
-4.86,2.20,13.15,-0.18,0.58,-0.49,1721199677522
-5.93,-3.82,5.44,0.17,-0.03,0.03,1721199677532
-2.18,-0.40,15.71,-0.35,0.61,0.34,1721199677542
5.48,2.98,16.93,0.30,0.13,0.15,1721199677552
3.74,-0.97,2.64,-0.22,0.15,-0.20,1721199677562
-2.83,3.35,8.56,-0.04,0.19,-0.43,1721199677572
-2.19,-8.24,2.47,-0.34,0.30,-0.28,1721199677582
-4.81,-1.06,19.30,-0.13,0.12,0.17,1721199677592
1.30,-2.09,5.20,-0.00,0.35,0.19,1721199677602
0.86,1.41,12.09,-0.12,0.21,-0.13,1721199677612
-1.34,-0.81,9.04,-0.18,0.20,-0.18,1721199677622
-1.06,-2.41,15.13,-0.21,0.14,-0.03,1721199677632
-1.45,-0.12,8.25,0.08,-0.02,0.15,1721199677642
0.09,-4.15,5.95,-0.36,0.26,0.12,1721199677652
-2.08,4.41,16.63,0.02,0.12,-0.03,1721199677662
-0.42,-3.77,8.04,-0.20,0.28,-0.09,1721199677672
-4.48,4.29,12.11,-0.03,-0.07,0.13,1721199677682
-1.64,0.06,6.93,-0.18,0.24,0.14,1721199677692
-0.75,4.41,16.18,-0.00,0.13,0.13,1721199677702
-1.78,3.75,3.80,0.15,-0.11,0.09,1721199677712
-1.27,-1.98,10.93,-0.20,0.34,0.03,1721199677722
-1.18,-0.56,15.03,0.27,-0.08,0.18,1721199677732
-0.01,2.33,7.18,-0.02,0.38,0.15,1721199677742
0.23,6.68,16.54,0.18,0.06,0.12,1721199677752
-3.88,-1.73,2.29,0.16,-0.32,0.30,1721199677762
-0.13,3.84,23.69,0.08,0.55,0.26,1721199677772
1.07,-2.14,-0.69,0.53,-0.58,0.30,1721199677782
0.54,1.88,9.43,-0.38,0.76,-0.00,1721199677792
-14.62,6.21,23.45,0.27,0.04,-0.05,1721199677802
-8.78,-6.28,3.71,0.00,-0.26,0.02,1721199677812
-2.87,-1.69,19.31,0.14,0.35,0.33,1721199677822
3.24,-0.31,6.04,0.25,-0.14,0.42,1721199677832
2.67,6.38,9.42,0.06,0.09,0.19,1721199677842
2.22,-1.47,7.31,0.07,-0.09,-0.15,1721199677852
-4.18,-6.14,7.13,-0.09,-0.23,-0.05,1721199677862
-3.36,3.25,15.27,0.08,0.13,0.07,1721199677872
0.15,-2.26,4.82,0.02,-0.08,0.26,1721199677882
-0.99,6.13,11.12,0.01,0.11,-0.03,1721199677892
2.77,-4.48,7.74,-0.08,0.10,-0.15,1721199677902
-2.78,4.39,15.30,0.09,-0.26,-0.07,1721199677912
-3.17,1.54,7.71,0.09,-0.05,0.09,1721199677922
-3.55,-2.12,9.68,-0.15,-0.16,0.14,1721199677932
-0.41,2.01,10.24,0.23,-0.12,0.25,1721199677942
3.85,-0.74,5.55,-0.02,0.23,0.13,1721199677952
0.87,-1.97,14.11,-0.15,-0.31,-0.04,1721199677962
-2.74,5.50,10.70,0.18,-0.31,0.07,1721199677972
2.56,5.88,9.45,0.01,0.37,0.09,1721199677982
1.53,-2.40,4.41,-0.21,-0.27,0.02,1721199677992
-2.46,-0.34,13.98,-0.22,-0.11,-0.01,1721199678002
-0.58,0.90,10.56,0.02,-0.02,0.01,1721199678012
-2.38,6.12,10.46,0.04,-0.08,0.03,1721199678022
-0.86,-2.91,6.69,-0.14,-0.11,0.26,1721199678032
-3.80,3.61,11.14,0.01,-0.28,0.42,1721199678042
2.19,1.37,8.04,-0.12,0.23,0.35,1721199678052
3.12,0.04,13.45,-0.10,-0.19,0.12,1721199678062
-0.72,-3.63,7.09,-0.17,-0.20,0.06,1721199678072
-1.75,1.42,17.80,-0.13,0.12,0.01,1721199678082
-0.62,-3.36,5.15,-0.03,-0.22,0.21,1721199678092
-1.11,-1.46,12.69,-0.32,-0.03,0.14,1721199678102
0.24,-2.66,7.99,-0.03,-0.25,0.20,1721199678112
-0.37,-1.46,11.17,-0.25,0.15,-0.00,1721199678122
-1.67,5.03,17.75,0.06,-0.05,-0.08,1721199678132
-2.39,-4.59,-1.92,-0.03,-0.28,0.08,1721199678142
-1.46,2.19,16.08,-0.36,0.35,0.24,1721199678152
3.43,-4.19,8.49,0.13,-0.35,0.34,1721199678162
5.57,6.87,14.02,-0.06,0.45,-0.06,1721199678172
3.00,-1.33,7.85,-0.00,-0.33,-0.23,1721199678182
-4.29,1.44,17.07,-0.34,0.13,-0.28,1721199678192
-1.01,3.50,12.81,0.00,-0.04,-0.15,1721199678202
-1.94,-7.23,-5.83,0.02,-0.34,0.08,1721199678212
3.53,2.56,14.43,-0.10,0.42,-0.03,1721199678222
6.93,-0.26,13.52,0.24,-0.22,-0.18,1721199678232
-0.06,1.65,13.99,-0.02,0.14,-0.32,1721199678242
-3.14,2.42,11.50,0.19,-0.05,-0.07,1721199678252
-3.72,-6.65,4.78,0.07,-0.01,0.18,1721199678262
1.39,0.76,15.85,0.01,0.45,0.06,1721199678272
4.05,-0.39,8.88,0.39,-0.17,0.11,1721199678282
1.12,3.49,7.36,0.14,0.13,-0.03,1721199678292
-0.23,0.32,13.08,0.13,0.00,-0.30,1721199678302
-2.95,-1.97,12.85,0.05,0.08,-0.23,1721199678312
-1.86,-0.21,12.75,0.18,0.08,0.27,1721199678322
0.78,0.84,7.54,0.10,0.14,0.20,1721199678332
2.90,-1.42,12.55,0.07,0.15,-0.18,1721199678342
-0.12,3.16,8.75,0.26,0.06,-0.28,1721199678352
-2.52,-0.57,11.65,-0.09,0.17,-0.13,1721199678362
-3.84,-2.33,7.86,0.13,-0.10,0.30,1721199678372
2.65,-1.22,15.19,-0.05,0.37,0.34,1721199678382
4.94,2.26,4.14,0.36,-0.10,0.00,1721199678392
2.08,-2.68,12.79,-0.22,0.44,-0.43,1721199678402
-5.11,-0.43,13.69,0.29,-0.27,-0.19,1721199678412
-4.40,5.93,11.30,0.11,0.43,0.09,1721199678422
2.03,0.60,10.73,0.14,0.15,0.28,1721199678432
2.95,-3.91,4.97,-0.05,0.03,0.05,1721199678442
0.42,5.29,13.62,0.04,0.22,-0.26,1721199678452
-0.71,2.72,7.37,0.10,0.18,-0.37,1721199678462
-2.48,-1.64,10.35,-0.12,0.13,-0.09,1721199678472
-1.16,2.21,9.58,0.09,0.15,0.10,1721199678482
1.48,3.98,11.22,-0.08,0.42,-0.16,1721199678492
-1.76,-1.92,15.67,-0.12,-0.03,-0.23,1721199678502
-6.11,2.52,6.22,0.23,-0.24,0.11,1721199678512
0.52,0.39,3.46,-0.27,0.51,0.11,1721199678522
4.24,0.34,15.77,-0.11,0.09,-0.01,1721199678532
0.27,-5.27,8.01,-0.19,-0.16,-0.15,1721199678542
-3.19,6.23,16.50,0.17,0.20,-0.22,1721199678552
1.47,-4.02,2.39,-0.31,0.23,-0.14,1721199678562
-3.06,3.49,13.29,-0.08,-0.07,-0.04,1721199678572
2.77,-5.98,7.20,-0.20,0.41,-0.24,1721199678582
-2.43,3.34,16.31,-0.04,-0.11,-0.22,1721199678592
-1.13,-0.72,6.35,-0.15,0.29,0.11,1721199678602
-0.48,-2.08,16.26,-0.29,0.13,0.05,1721199678612
-0.52,3.96,13.25,0.12,-0.18,0.00,1721199678622
0.08,-0.87,-1.88,-0.14,0.06,-0.08,1721199678632
0.22,0.42,16.97,-0.23,0.36,-0.17,1721199678642
-0.62,-2.09,7.72,0.06,-0.19,0.15,1721199678652
-4.96,0.42,10.17,-0.17,0.21,-0.09,1721199678662
-2.18,2.09,13.67,0.09,0.17,-0.12,1721199678672
-0.76,4.19,15.95,-0.04,0.07,0.16,1721199678682
-1.79,-0.04,7.77,0.06,-0.30,0.27,1721199678692
-0.21,2.76,7.46,0.12,0.22,0.30,1721199678702
3.84,-5.53,12.97,-0.04,-0.10,0.28,1721199678712
-3.05,5.54,10.13,0.27,-0.41,0.07,1721199678722
-1.08,3.26,4.89,0.14,0.16,0.01,1721199678732
-1.43,2.45,16.29,-0.03,0.14,-0.00,1721199678742
-1.22,-6.52,8.51,-0.05,-0.12,0.23,1721199678752
-4.53,-0.69,8.53,0.30,-0.25,0.39,1721199678762
2.07,3.90,8.15,0.13,0.29,0.22,1721199678772
1.11,2.14,8.61,0.05,-0.39,-0.05,1721199678782
-1.99,0.89,11.07,-0.02,0.17,-0.19,1721199678792
1.78,-7.09,18.79,-0.11,0.03,0.18,1721199678802
-3.68,4.80,13.09,0.21,-0.28,0.36,1721199678812
0.55,0.48,2.24,-0.03,0.14,0.17,1721199678822
0.23,0.04,15.59,-0.11,-0.24,0.03,1721199678832
-1.62,-1.56,3.16,0.22,-0.33,0.04,1721199678842
1.34,3.14,14.86,-0.07,0.40,-0.13,1721199678852
0.83,0.60,14.92,0.10,-0.32,-0.08,1721199678862
-5.26,3.35,6.03,0.03,-0.35,0.08,1721199678872
-1.94,0.44,4.68,-0.04,-0.09,0.32,1721199678882
2.58,-2.64,12.77,-0.02,-0.06,0.19,1721199678892
0.58,2.15,11.30,0.08,-0.25,-0.10,1721199678902
-3.55,4.35,6.39,0.07,-0.32,-0.12,1721199678912
-2.86,3.58,11.09,-0.04,-0.11,0.10,1721199678922
0.74,-5.72,12.74,-0.17,-0.16,0.27,1721199678932
1.30,5.44,14.71,0.16,-0.16,0.09,1721199678942
3.13,1.20,2.64,-0.06,-0.20,-0.09,1721199678952
-1.63,0.76,13.77,-0.21,-0.27,-0.05,1721199678962
-0.74,0.08,6.54,0.21,-0.19,0.06,1721199678972
1.13,0.22,8.28,-0.19,0.04,-0.07,1721199678982
-1.32,4.53,11.91,0.09,-0.44,0.05,1721199678992
-2.44,0.10,5.79,-0.16,-0.07,0.03,1721199679002
-2.74,-2.19,15.81,-0.13,-0.17,-0.00,1721199679012
-2.27,0.82,8.43,0.15,-0.26,0.22,1721199679022
0.19,0.34,6.62,-0.22,-0.05,0.29,1721199679032
1.42,4.37,15.08,-0.06,-0.16,0.01,1721199679042
0.93,-7.63,6.17,-0.18,-0.33,-0.03,1721199679052
-3.48,0.34,13.18,-0.14,-0.14,0.03,1721199679062
0.25,-3.32,6.49,-0.18,-0.12,0.27,1721199679072
0.39,3.44,17.32,-0.10,-0.10,0.13,1721199679082
0.55,0.37,8.48,0.01,-0.33,-0.01,1721199679092
-1.58,-0.74,7.73,-0.16,-0.14,-0.10,1721199679102
-1.55,-5.83,8.40,-0.26,-0.10,-0.02,1721199679112
-2.24,1.53,17.17,0.09,-0.31,0.37,1721199679122
1.91,1.03,2.75,0.06,-0.20,0.50,1721199679132
4.57,5.27,12.71,-0.13,0.03,0.02,1721199679142
4.55,-1.24,10.22,-0.09,-0.22,-0.28,1721199679152
-3.29,5.88,14.61,0.19,-0.36,0.03,1721199679167
-3.24,1.80,3.42,0.24,-0.37,0.15,1721199679171
0.91,-0.94,6.33,-0.16,0.14,0.18,1721199679181
2.30,-2.70,13.08,0.00,-0.34,0.10,1721199679191
1.50,-0.66,10.37,-0.09,-0.03,-0.29,1721199679201
-1.47,-0.16,11.31,0.02,-0.30,-0.26,1721199679211
-1.59,2.17,13.73,0.08,-0.09,0.23,1721199679221
3.31,-2.46,6.00,0.07,-0.09,0.40,1721199679231
5.12,-4.91,13.53,-0.08,0.03,-0.02,1721199679241
1.01,4.06,10.97,0.31,-0.34,-0.42,1721199679251
-1.06,0.31,11.03,0.01,-0.01,-0.46,1721199679261
-1.45,2.02,15.30,0.12,-0.12,0.14,1721199679271
0.92,2.05,3.11,0.15,-0.06,0.27,1721199679281
4.65,-6.10,12.90,-0.16,0.19,-0.12,1721199679291
0.92,0.01,10.94,0.22,-0.32,-0.22,1721199679301
-0.64,5.32,7.26,0.14,0.13,-0.25,1721199679311
2.07,0.52,14.94,-0.02,0.03,0.05,1721199679321
-0.53,0.45,9.93,0.27,-0.18,-0.10,1721199679331
1.99,-0.65,5.11,0.03,0.25,-0.25,1721199679341
0.88,1.61,13.50,0.10,-0.02,-0.23,1721199679351
-0.17,-1.97,9.36,0.05,0.00,-0.08,1721199679361
0.22,5.15,17.65,0.22,0.15,-0.22,1721199679371
1.87,2.75,2.80,0.32,-0.01,-0.30,1721199679381
-0.62,0.35,9.24,-0.22,0.20,-0.45,1721199679391
-3.37,1.06,16.17,0.03,-0.00,-0.51,1721199679401
-4.24,2.07,12.16,0.09,0.10,-0.30,1721199679411
-2.37,-2.89,-2.89,0.09,-0.07,-0.02,1721199679421
2.39,2.10,12.46,-0.14,0.44,-0.22,1721199679431
1.78,4.25,16.75,0.19,-0.06,-0.47,1721199679441
-2.13,7.88,7.72,0.30,-0.13,-0.44,1721199679451
-1.00,-3.68,2.63,-0.30,0.16,-0.21,1721199679461
-1.12,-6.87,17.11,-0.37,0.06,-0.18,1721199679471
1.03,3.15,17.78,0.05,0.10,-0.39,1721199679481
2.02,2.73,2.58,0.30,-0.15,-0.36,1721199679491
2.14,2.32,5.62,-0.20,0.41,-0.47,1721199679501
0.22,-2.41,12.21,0.07,-0.33,-0.53,1721199679511
-3.93,-6.57,7.79,-0.27,0.13,-0.33,1721199679521
-4.47,3.18,19.30,0.04,0.09,-0.20,1721199679531
-0.88,-4.46,1.02,-0.10,-0.01,-0.17,1721199679541
-0.21,2.57,16.58,-0.23,0.40,-0.37,1721199679551
0.95,-4.09,7.70,0.05,-0.11,-0.22,1721199679561
-1.13,1.75,12.85,-0.22,0.31,-0.27,1721199679571
0.34,1.72,9.73,0.03,-0.03,-0.34,1721199679581
-3.06,0.89,11.83,-0.23,0.12,-0.45,1721199679591
-2.96,0.66,11.26,0.03,0.03,-0.29,1721199679601
-1.17,-5.55,13.06,-0.23,0.32,-0.22,1721199679611
-2.78,6.15,11.04,0.22,-0.16,-0.07,1721199679621
-0.33,-1.81,-3.44,-0.03,-0.01,0.08,1721199679631
-1.84,-0.44,10.22,-0.12,0.28,-0.15,1721199679641
1.01,-1.00,16.12,0.13,0.19,-0.32,1721199679651
-2.58,-1.37,16.90,-0.05,0.10,-0.19,1721199679661
-2.75,4.31,11.14,0.13,-0.10,-0.07,1721199679671
0.82,0.81,6.34,0.05,0.12,-0.13,1721199679681
1.33,2.34,13.88,0.21,0.06,-0.25,1721199679691
-1.45,-4.43,3.41,0.15,-0.23,-0.04,1721199679701
-3.17,2.08,11.28,-0.01,0.28,-0.04,1721199679711
1.88,-1.18,13.46,0.08,0.13,-0.07,1721199679721
-1.04,3.00,10.24,0.09,-0.17,-0.27,1721199679731
-0.80,4.14,10.94,0.08,0.15,-0.27,1721199679741
0.02,-4.08,9.04,0.05,-0.01,-0.03,1721199679751
-1.19,-2.30,10.54,-0.02,0.08,-0.08,1721199679761
0.82,-0.86,9.79,0.10,0.04,-0.10,1721199679771
0.46,6.13,15.82,0.16,0.16,-0.28,1721199679781
-0.90,0.14,6.38,0.10,-0.06,-0.32,1721199679791
-4.76,5.32,13.38,0.15,-0.05,-0.20,1721199679801
-0.80,0.42,10.70,0.18,0.19,0.02,1721199679811
-1.18,-1.05,6.10,0.06,-0.04,-0.07,1721199679821
1.30,7.08,13.52,0.36,0.25,-0.21,1721199679831
0.83,-5.94,1.98,-0.07,-0.23,-0.16,1721199679841
-5.61,9.93,13.04,0.24,-0.29,-0.05,1721199679851
4.67,0.00,2.72,0.10,0.45,-0.13,1721199679861
3.70,1.17,22.04,-0.03,0.17,-0.34,1721199679871
-2.58,1.72,0.45,0.30,-0.43,-0.19,1721199679881
-3.03,-2.51,14.32,-0.33,0.56,-0.21,1721199679891
-0.95,6.17,4.45,0.55,-0.24,-0.04,1721199679901
2.06,-3.73,7.87,-0.50,0.40,-0.34,1721199679911
-8.48,-0.04,19.38,0.12,-0.65,-0.08,1721199679921
-3.07,-2.53,4.58,-0.19,0.37,-0.06,1721199679931
0.30,2.51,15.41,0.23,0.06,0.10,1721199679941
0.89,-1.27,5.38,-0.25,0.03,-0.04,1721199679951
-3.64,3.86,17.64,0.02,-0.15,-0.02,1721199679961
-2.08,-0.03,6.89,-0.11,0.17,-0.08,1721199679971
-0.96,-1.14,11.72,-0.12,-0.08,0.06,1721199679981
1.41,-5.28,9.51,-0.22,-0.03,0.10,1721199679991
0.83,-1.39,12.53,0.08,-0.04,0.09,1721199680001
-0.27,0.11,4.38,-0.13,0.07,-0.16,1721199680011
-0.68,2.06,17.72,-0.12,0.03,-0.16,1721199680021
0.45,-0.58,7.86,0.06,-0.07,0.13,1721199680031
-0.39,-2.14,6.39,-0.24,0.06,0.01,1721199680041
-1.73,-5.10,11.71,-0.27,0.01,-0.09,1721199680051
-2.69,-0.49,15.08,-0.02,-0.09,-0.07,1721199680061
1.34,-0.63,9.37,-0.07,0.11,0.07,1721199680071
0.43,7.38,12.66,0.10,0.02,0.14,1721199680081
2.26,1.50,12.32,-0.15,0.16,-0.19,1721199680091
1.49,-1.51,11.88,0.02,-0.03,-0.14,1721199680101
1.56,-2.56,4.42,-0.15,0.19,-0.24,1721199680111
-1.76,1.44,14.41,0.14,-0.10,-0.14,1721199680121
-0.52,0.98,4.73,0.17,0.12,0.12,1721199680131
2.04,2.77,11.53,-0.07,0.24,0.08,1721199680141
2.10,4.02,11.72,0.07,-0.04,-0.24,1721199680151
-0.30,0.58,15.48,0.03,0.07,-0.41,1721199680161
-0.93,-7.69,7.43,0.04,0.00,-0.08,1721199680171
-2.82,0.73,11.49,0.21,0.06,0.25,1721199680181
3.59,2.70,8.40,0.09,0.45,0.03,1721199680191
2.77,4.31,10.52,0.21,-0.12,-0.17,1721199680201
1.00,0.03,13.26,0.04,0.30,-0.49,1721199680211
-2.07,-0.54,12.46,0.32,-0.00,-0.20,1721199680221
-2.75,3.26,7.39,0.15,0.28,0.05,1721199680231
0.81,-3.73,9.53,-0.03,0.18,0.11,1721199680241
1.14,3.71,10.41,0.35,0.10,-0.05,1721199680251
3.37,-1.42,1.95,0.07,0.23,-0.21,1721199680261
-1.14,-0.12,19.11,-0.01,0.13,-0.40,1721199680271
-3.38,1.82,10.12,0.28,0.07,-0.13,1721199680281
-1.98,2.97,10.97,0.13,0.29,0.04,1721199680291
1.92,-0.61,8.30,0.19,0.21,0.03,1721199680301
0.34,0.52,5.45,0.13,0.10,-0.24,1721199680311
-1.77,1.99,7.28,-0.02,0.21,-0.32,1721199680321
-1.66,0.32,11.26,-0.09,0.25,-0.17,1721199680331
-0.39,0.19,13.34,0.10,0.03,0.14,1721199680341
1.85,6.02,12.97,0.12,0.36,-0.05,1721199680351
1.49,-6.88,5.86,-0.31,0.01,-0.33,1721199680361
-5.86,7.15,17.97,0.22,-0.05,-0.40,1721199680371
0.53,1.10,-0.33,-0.00,0.45,-0.07,1721199680381
-2.13,-2.08,9.93,-0.17,-0.10,0.15,1721199680391
-0.67,0.27,14.11,-0.01,0.21,-0.22,1721199680401
1.19,-3.15,9.15,-0.17,0.19,-0.23,1721199680411
-2.13,8.35,15.43,0.08,0.05,-0.12,1721199680421
2.14,-3.98,5.04,-0.35,0.31,-0.16,1721199680431
-4.01,0.76,8.64,0.01,-0.29,-0.22,1721199680441
1.02,-1.46,10.60,-0.20,0.74,-0.22,1721199680451
0.01,-5.81,14.62,-0.15,-0.19,0.03,1721199680461
-4.62,7.46,11.16,0.03,-0.05,0.11,1721199680471
1.94,-0.54,8.69,-0.16,0.59,-0.26,1721199680481
-2.24,-5.65,12.80,-0.09,-0.27,-0.25,1721199680491
-4.10,0.52,7.25,-0.09,0.28,0.06,1721199680501
1.61,2.40,14.26,-0.17,0.42,-0.08,1721199680511
1.97,2.47,10.68,0.02,-0.12,-0.01,1721199680521
-0.03,-2.23,5.49,-0.15,0.15,-0.06,1721199680531
-1.30,-4.35,13.17,-0.15,0.18,-0.11,1721199680541
-3.19,2.04,14.11,0.01,-0.01,-0.08,1721199680551
-4.63,1.02,5.11,-0.01,-0.05,0.11,1721199680561
-1.96,-0.94,9.54,-0.02,0.34,0.27,1721199680571
3.62,-0.94,14.98,-0.11,0.28,0.19,1721199680581
0.90,3.08,13.44,0.18,-0.19,-0.09,1721199680591
-0.18,-4.28,6.12,-0.05,0.18,-0.17,1721199680601
-5.08,1.32,13.96,0.11,-0.06,0.02,1721199680611
-3.89,-1.14,6.54,0.08,-0.05,0.33,1721199680621
0.23,8.34,13.97,0.25,0.21,0.45,1721199680631
5.27,-4.75,7.20,-0.05,0.00,0.08,1721199680641
-3.45,0.07,8.15,0.12,-0.42,-0.11,1721199680651
-2.33,-0.05,4.81,0.11,0.29,-0.00,1721199680661
0.30,2.25,20.54,0.01,0.26,0.17,1721199680671
-0.51,0.03,6.47,0.19,-0.37,0.24,1721199680681
-1.76,-6.64,4.58,-0.32,0.15,-0.04,1721199680691
-1.30,6.64,19.27,0.15,0.16,-0.11,1721199680701
-0.84,1.59,7.61,0.12,-0.07,0.02,1721199680711
-1.32,5.43,17.76,0.25,-0.05,0.24,1721199680721
0.51,-2.97,-3.03,0.16,-0.33,0.41,1721199680731
-1.31,2.48,10.85,-0.20,0.32,0.09,1721199680741
3.34,8.72,13.84,0.33,-0.13,-0.07,1721199680751
1.04,-3.76,9.11,-0.16,-0.14,-0.02,1721199680761
-4.99,-0.96,6.48,0.17,-0.53,0.00,1721199680771
0.39,-0.33,11.77,-0.04,0.54,0.16,1721199680781
2.30,2.53,17.28,0.07,-0.15,0.34,1721199680791
0.22,5.27,6.81,0.10,-0.40,0.05,1721199680801
1.77,-1.81,8.70,0.04,0.00,-0.10,1721199680811
-1.30,0.37,11.04,0.03,-0.13,0.05,1721199680821
-4.32,-1.43,5.00,-0.25,-0.29,0.13,1721199680831
-4.93,6.72,15.22,-0.03,-0.14,0.19,1721199680841
1.08,-4.22,6.89,-0.23,-0.09,0.25,1721199680851
0.63,-1.17,12.12,-0.03,-0.32,0.35,1721199680861
5.92,-1.46,9.66,-0.20,0.32,0.12,1721199680871
0.86,-0.11,16.06,-0.05,-0.35,-0.17,1721199680881
-5.00,5.49,6.44,0.16,-0.36,-0.13,1721199680891
0.27,-2.38,8.97,-0.36,0.27,0.19,1721199680901
0.08,-5.81,13.03,-0.08,-0.43,0.33,1721199680911
0.13,-9.38,8.68,-0.38,0.04,0.01,1721199680921
-3.29,4.03,16.90,0.09,-0.20,0.06,1721199680931
0.72,-3.68,1.85,-0.28,-0.01,0.26,1721199680941
-0.13,7.69,19.45,0.03,-0.24,-0.03,1721199680951
4.61,-5.15,2.80,-0.10,-0.11,-0.10,1721199680961
-2.05,0.63,17.80,-0.26,-0.09,-0.02,1721199680971
-0.83,-4.31,9.59,-0.07,-0.12,-0.00,1721199680981
-2.15,3.00,8.80,-0.05,-0.17,0.04,1721199680991
2.85,-2.84,7.35,-0.15,-0.02,0.10,1721199681001
2.75,5.02,15.19,0.06,-0.04,-0.17,1721199681011
2.64,-0.65,7.74,0.03,-0.11,-0.31,1721199681021
-2.52,-4.01,15.32,-0.09,-0.13,-0.19,1721199681031
-1.69,1.01,8.75,0.16,-0.02,0.06,1721199681041
2.57,3.78,7.81,0.05,0.15,0.06,1721199681051
2.50,0.61,7.57,0.14,-0.26,-0.10,1721199681061
0.78,-1.62,16.96,0.01,0.09,-0.52,1721199681071
-1.81,-0.76,11.76,0.24,-0.07,-0.28,1721199681081
-2.55,1.49,7.68,-0.08,0.16,0.06,1721199681091
0.82,4.22,12.00,0.33,-0.04,0.18,1721199681101
4.47,-0.05,9.15,0.24,0.11,-0.17,1721199681111
2.02,0.72,6.59,0.21,-0.04,-0.36,1721199681121
-2.26,2.45,14.89,-0.06,0.25,-0.34,1721199681131
-1.58,1.11,9.35,0.22,0.03,-0.17,1721199681141
0.53,-5.82,6.72,-0.02,0.11,-0.02,1721199681151
1.56,5.28,14.72,0.29,0.17,-0.07,1721199681161
2.02,3.54,10.22,0.16,0.34,-0.45,1721199681176
0.88,0.33,11.01,0.03,0.10,-0.53,1721199681180
-2.97,1.54,12.67,0.25,0.15,-0.54,1721199681190
-2.43,-3.53,9.55,0.18,0.26,-0.08,1721199681200
-1.14,3.62,10.00,0.29,0.30,0.05,1721199681210
0.05,4.64,5.57,0.05,0.22,-0.23,1721199681220
-1.32,0.68,12.30,-0.01,0.11,-0.47,1721199681230
-1.96,-2.43,10.42,0.01,0.14,-0.45,1721199681240
-3.40,0.32,7.64,0.13,0.06,-0.05,1721199681250
-2.20,4.11,13.09,-0.08,0.38,-0.07,1721199681260
0.13,1.03,8.61,0.23,0.00,-0.18,1721199681270
0.90,-2.54,2.87,-0.11,0.07,-0.18,1721199681280
0.97,5.08,15.54,0.06,0.31,-0.25,1721199681290
1.37,-1.16,2.32,-0.06,-0.05,-0.40,1721199681300
-4.28,-2.32,12.64,-0.23,0.09,-0.45,1721199681310
-2.01,-7.08,8.35,-0.07,0.22,-0.31,1721199681320
-0.08,3.72,18.68,0.07,0.25,0.10,1721199681330
3.22,-3.55,5.31,-0.17,0.10,-0.06,1721199681340
-4.02,6.86,11.40,0.00,-0.12,-0.33,1721199681350
1.58,-5.31,10.18,-0.33,0.52,-0.54,1721199681360
-3.00,-4.50,17.09,-0.20,-0.37,-0.15,1721199681370
-4.70,-2.38,-0.01,0.06,-0.01,0.14,1721199681380
3.96,1.59,18.39,-0.35,0.85,-0.16,1721199681390
-0.05,2.03,12.38,0.17,-0.63,-0.08,1721199681400
-2.52,0.27,7.17,-0.39,0.48,-0.15,1721199681410
-3.62,-2.02,16.83,-0.06,-0.25,-0.01,1721199681420
-2.55,1.59,10.22,-0.18,0.18,-0.11,1721199681430
-0.89,4.04,8.17,0.11,-0.07,-0.09,1721199681440
-1.37,-1.93,6.30,-0.15,0.16,-0.18,1721199681450
-0.17,1.16,20.97,0.01,0.21,-0.11,1721199681460
-2.21,-4.13,6.60,0.07,-0.02,0.01,1721199681470
-2.60,5.83,11.48,0.03,0.43,0.06,1721199681480
0.31,-1.53,7.77,0.02,-0.05,0.05,1721199681490
-0.43,1.84,10.58,0.14,0.06,-0.02,1721199681500
4.03,-0.11,8.03,0.20,0.26,-0.09,1721199681510
-1.50,-1.33,9.46,0.06,-0.18,-0.18,1721199681520
-4.15,1.40,11.70,0.01,0.05,0.05,1721199681530
-1.44,-4.84,10.66,-0.01,0.13,-0.05,1721199681540
-0.55,1.64,16.46,0.22,0.25,-0.15,1721199681550
0.61,-2.15,3.21,0.15,-0.01,-0.06,1721199681560
-2.76,1.11,7.57,0.01,0.05,-0.04,1721199681570
0.52,2.65,15.43,0.09,0.41,-0.06,1721199681580
-0.64,2.26,8.32,0.05,-0.02,-0.20,1721199681590
-1.90,0.27,10.98,-0.05,0.06,-0.21,1721199681600
-1.50,-2.98,16.13,0.02,0.17,0.02,1721199681610
-4.57,2.41,6.42,0.09,-0.20,0.10,1721199681620
-3.29,8.30,13.64,0.10,0.22,-0.15,1721199681630
0.27,-3.50,1.42,0.11,-0.28,0.14,1721199681640
-1.75,-0.07,10.12,-0.03,0.25,0.09,1721199681650
2.31,1.59,13.05,0.07,0.09,-0.26,1721199681660
-0.86,5.31,15.58,0.11,-0.07,-0.12,1721199681670
-2.45,7.01,6.95,0.17,-0.08,-0.01,1721199681680
0.70,-5.88,1.86,-0.07,0.09,0.16,1721199681690
-0.55,-1.41,13.49,-0.09,-0.10,0.14,1721199681700
1.44,2.64,14.52,-0.04,0.05,0.01,1721199681710
0.95,4.73,17.49,0.08,0.04,-0.14,1721199681720
-3.45,0.43,1.34,-0.02,-0.29,-0.07,1721199681730
-6.65,4.66,12.65,-0.06,0.16,0.03,1721199681740
-1.24,-4.11,6.69,-0.09,0.06,0.31,1721199681750
-2.27,7.52,14.24,0.15,-0.17,0.43,1721199681760
2.51,-7.21,3.26,-0.26,-0.12,0.38,1721199681770
-0.82,1.23,20.72,-0.11,-0.27,0.30,1721199681780
1.15,2.88,3.92,0.16,-0.01,-0.03,1721199681790
-0.61,-2.55,9.17,-0.32,-0.02,0.03,1721199681800
-4.41,-2.72,7.30,0.05,-0.39,0.28,1721199681810
-1.15,-0.55,16.07,-0.14,0.18,0.21,1721199681820
3.34,-1.45,3.85,0.24,-0.29,0.41,1721199681830
1.54,4.45,12.44,-0.38,0.15,0.09,1721199681840
-2.91,-0.34,18.81,0.15,-0.59,0.14,1721199681850
-1.30,-2.99,6.74,-0.14,0.03,0.04,1721199681860
0.50,0.45,7.77,0.06,-0.10,0.19,1721199681870
2.31,1.45,11.39,-0.28,0.16,0.10,1721199681880
0.27,2.10,10.44,0.04,-0.42,0.12,1721199681890
1.28,-1.26,6.43,-0.09,0.08,0.08,1721199681900
2.53,-0.41,13.43,0.00,-0.11,-0.09,1721199681910
1.28,-3.30,11.32,-0.11,-0.19,-0.11,1721199681920
-1.80,4.15,13.86,0.08,-0.11,-0.05,1721199681930
1.01,0.86,9.24,-0.01,0.10,-0.06,1721199681940
-0.37,-1.15,8.99,-0.01,-0.25,-0.05,1721199681950
-0.26,-0.16,7.45,0.01,-0.03,-0.01,1721199681960
1.14,0.94,15.06,0.03,0.11,-0.05,1721199681970
-0.04,-2.38,11.77,0.11,-0.17,-0.04,1721199681980
-0.48,1.16,10.09,0.09,-0.02,-0.03,1721199681990
1.32,5.74,14.66,0.13,0.08,-0.13,1721199682000
1.39,-1.80,7.13,0.05,-0.08,-0.13,1721199682010
-0.62,-1.03,8.68,0.07,-0.06,-0.04,1721199682020
2.17,-4.07,10.36,-0.03,0.13,-0.04,1721199682030
0.08,2.80,11.42,0.20,-0.12,-0.08,1721199682040
0.91,4.09,5.76,0.15,0.07,0.02,1721199682050
3.47,1.96,14.94,0.05,0.29,-0.22,1721199682060
0.41,-0.49,9.19,0.31,-0.22,-0.38,1721199682070
-2.23,-0.71,11.09,-0.01,0.20,-0.27,1721199682080
-1.88,3.79,13.17,0.28,0.07,-0.01,1721199682090
0.16,-0.28,4.98,0.03,0.05,-0.06,1721199682100
0.21,2.04,10.98,0.18,-0.01,-0.20,1721199682110
1.16,0.33,8.54,0.04,0.16,-0.17,1721199682120
-1.65,-1.21,7.21,-0.15,0.03,-0.24,1721199682130
-3.62,3.49,15.66,-0.01,0.11,-0.30,1721199682140
-0.45,-0.36,9.11,0.01,0.09,-0.10,1721199682150
0.93,0.22,8.86,-0.01,0.04,0.04,1721199682160
1.42,-1.69,12.03,-0.11,0.18,-0.29,1721199682170
-1.59,4.56,7.92,0.18,-0.08,-0.46,1721199682180
-1.23,3.75,8.10,-0.16,0.21,-0.28,1721199682190
-0.95,-2.50,12.57,-0.05,0.05,-0.03,1721199682200
0.49,-3.47,8.74,-0.12,0.06,-0.05,1721199682210
1.85,-1.22,11.00,-0.23,0.13,-0.34,1721199682220
-0.23,-1.26,9.77,-0.13,-0.11,-0.52,1721199682230
-2.96,5.69,12.32,0.05,0.19,-0.51,1721199682240
-0.75,-5.15,9.66,-0.27,0.21,-0.19,1721199682250
-4.19,0.25,11.04,-0.00,-0.20,-0.06,1721199682260
2.91,-2.61,8.04,-0.21,0.46,-0.21,1721199682270
-0.58,3.43,9.56,0.05,-0.20,-0.23,1721199682280
-1.43,-2.59,10.48,-0.35,0.33,-0.25,1721199682290
-3.38,-2.86,15.30,-0.11,-0.07,-0.20,1721199682300
-2.95,1.58,11.80,-0.08,0.13,-0.09,1721199682310
1.47,3.54,10.71,0.05,0.25,-0.07,1721199682320
1.02,-1.37,7.45,-0.01,0.02,-0.06,1721199682330
-3.38,1.41,10.21,0.00,0.05,-0.23,1721199682340
-1.26,-0.25,9.14,0.07,0.21,-0.18,1721199682350
0.15,-4.00,11.58,-0.14,0.09,0.05,1721199682360
-2.41,3.72,15.23,0.10,-0.02,-0.02,1721199682370
-1.54,4.02,9.51,0.10,0.25,-0.17,1721199682380
-1.35,-0.55,9.65,0.07,0.03,-0.15,1721199682390
-1.12,0.44,10.24,0.09,0.14,-0.02,1721199682400
0.36,-0.95,6.78,0.09,0.01,0.19,1721199682410
2.20,3.60,11.75,0.19,0.16,-0.04,1721199682420
1.63,-1.51,6.47,0.12,-0.14,-0.20,1721199682430
-2.55,1.76,13.60,0.15,0.07,-0.13,1721199682440
-1.50,-0.98,4.21,0.11,0.11,-0.13,1721199682450
-3.35,1.08,10.87,-0.07,0.08,-0.06,1721199682460
-1.24,1.77,17.64,0.08,0.10,-0.04,1721199682470
0.18,1.45,8.44,0.17,-0.01,-0.05,1721199682480
-1.71,-4.92,5.15,-0.02,-0.10,-0.08,1721199682490
-3.54,0.70,9.91,0.11,-0.06,0.07,1721199682500
-1.62,2.34,10.98,0.00,0.12,0.04,1721199682510
-1.88,3.76,9.45,0.28,-0.22,0.04,1721199682520
1.28,-2.41,5.89,0.05,0.25,-0.01,1721199682530
1.54,-2.74,13.26,-0.04,-0.24,0.06,1721199682540
-2.65,3.26,12.68,0.16,-0.07,0.09,1721199682550
0.74,6.85,9.37,0.27,0.14,0.06,1721199682560
3.00,-0.27,7.49,0.01,-0.03,0.03,1721199682570
0.95,1.32,15.05,0.01,-0.02,-0.15,1721199682580
-0.74,4.44,5.92,0.29,-0.12,-0.17,1721199682590
-1.74,2.46,8.15,-0.11,0.20,-0.14,1721199682600
-2.53,-2.20,12.25,0.04,-0.31,0.25,1721199682610
-1.39,-0.36,14.79,-0.07,0.14,0.33,1721199682620
0.91,4.53,14.76,0.14,-0.01,-0.07,1721199682630
-2.68,2.92,1.96,-0.09,-0.29,-0.23,1721199682640
-4.70,1.05,11.62,-0.13,-0.01,0.19,1721199682650
0.93,-6.61,6.39,-0.15,0.09,0.42,1721199682660
2.36,1.80,16.89,0.03,-0.10,0.15,1721199682670
1.95,1.97,3.12,0.05,-0.21,-0.09,1721199682680
-2.11,-0.91,9.95,-0.45,0.10,-0.32,1721199682690
-2.98,-9.00,11.58,-0.13,-0.20,0.10,1721199682700
-4.17,-1.80,10.21,0.01,-0.03,0.24,1721199682710
-0.74,-0.55,6.11,0.00,-0.19,0.27,1721199682720
2.96,3.67,15.03,-0.12,0.13,0.23,1721199682730
3.93,1.08,8.34,-0.08,-0.16,-0.07,1721199682740
0.23,-4.47,9.06,-0.35,-0.02,-0.24,1721199682750
-2.61,0.14,13.16,-0.08,-0.17,-0.01,1721199682760
-1.14,0.55,4.82,-0.06,-0.16,0.17,1721199682770
3.32,-0.71,11.30,-0.12,-0.00,0.17,1721199682780
5.15,-3.15,15.55,-0.13,0.02,-0.12,1721199682790
-0.07,3.77,11.19,0.06,-0.10,-0.31,1721199682800
-2.04,3.56,8.36,-0.09,0.07,-0.10,1721199682810
-1.22,0.98,12.45,-0.01,-0.04,0.09,1721199682820
1.69,-4.22,6.29,0.11,-0.09,0.04,1721199682830
4.01,2.47,16.23,0.07,0.28,-0.03,1721199682840
1.00,1.87,10.76,0.20,-0.22,-0.12,1721199682850
-3.34,7.77,15.55,0.05,0.15,-0.27,1721199682860
0.11,-2.65,9.56,0.16,-0.05,-0.19,1721199682870
-1.70,-1.30,10.69,0.27,-0.02,0.02,1721199682880
1.25,5.48,6.39,0.32,0.22,0.18,1721199682890
2.13,3.27,12.67,0.10,0.10,-0.01,1721199682900
2.18,2.21,9.39,0.32,-0.07,-0.18,1721199682910
1.48,-8.08,3.93,-0.08,0.09,-0.29,1721199682920
-3.04,-0.40,17.12,0.13,0.01,-0.27,1721199682930
-2.31,5.74,10.97,0.34,0.16,0.01,1721199682940
0.54,0.65,7.69,0.14,0.10,0.13,1721199682950
2.07,3.26,10.91,0.28,0.08,-0.16,1721199682960
3.55,-4.27,8.28,0.08,0.25,-0.54,1721199682970
-4.29,4.08,13.70,0.28,-0.10,-0.39,1721199682980
-4.69,2.54,8.28,0.02,0.23,-0.08,1721199682990
0.74,-3.87,13.92,-0.05,0.11,0.12,1721199683000
3.39,0.99,8.11,0.24,-0.02,0.08,1721199683010
1.98,0.69,3.25,-0.23,0.20,-0.45,1721199683020
-3.79,0.69,16.43,-0.05,-0.01,-0.60,1721199683030
-3.96,-1.48,10.25,0.04,0.10,-0.15,1721199683040
0.74,-0.97,8.20,-0.01,0.17,0.31,1721199683050
1.79,4.22,9.94,-0.00,0.07,-0.21,1721199683060
1.31,-2.60,5.86,-0.23,0.02,-0.55,1721199683070
-1.54,-2.96,17.32,-0.22,0.01,-0.45,1721199683080
-3.85,3.57,11.35,0.18,-0.03,-0.14,1721199683090
-1.19,-5.25,2.53,-0.34,0.15,-0.17,1721199683100
-4.42,3.36,13.86,-0.07,-0.16,-0.24,1721199683110
2.98,-2.74,8.09,-0.18,0.51,-0.23,1721199683120
1.43,1.89,8.07,0.03,-0.11,-0.24,1721199683667
2.07,-1.47,9.17,-0.05,-0.03,-0.26,1721199683671
0.21,-2.55,14.40,0.01,0.00,-0.12,1721199683681
-1.42,-3.05,5.07,0.08,-0.07,0.01,1721199683691
-1.46,4.23,17.15,0.01,0.25,-0.01,1721199683701
2.54,1.40,5.97,0.21,-0.04,-0.10,1721199683711
0.56,-1.63,11.81,-0.00,-0.01,-0.09,1721199683721
2.15,-2.32,7.75,0.08,0.09,-0.13,1721199683731
1.23,3.86,16.03,0.16,0.21,-0.23,1721199683741
0.93,1.66,11.54,0.18,0.13,-0.28,1721199683751
-4.49,2.15,9.89,0.28,-0.06,-0.06,1721199683761
-0.76,3.85,6.12,0.18,0.38,0.01,1721199683771
4.96,-1.26,9.91,0.08,0.16,-0.10,1721199683781
2.46,-4.55,6.34,0.07,-0.02,-0.28,1721199683791
-1.88,3.92,14.20,0.18,0.21,-0.42,1721199683801
-1.73,1.47,12.05,0.11,0.22,-0.21,1721199683811
-1.53,4.09,9.63,0.28,0.02,-0.06,1721199683821
1.98,-2.49,2.20,-0.01,0.29,-0.16,1721199683831
-0.20,1.33,15.55,-0.10,0.22,-0.45,1721199683841
-4.74,2.71,14.76,0.26,0.08,-0.56,1721199683851
-4.81,-0.27,1.78,0.07,0.13,-0.04,1721199683861
-1.84,0.32,8.65,-0.05,0.21,0.19,1721199683871
0.90,-2.60,13.31,-0.24,0.24,-0.11,1721199683881
-0.83,8.19,18.16,0.26,0.15,-0.42,1721199683891
0.39,-0.23,1.63,-0.07,0.11,-0.21,1721199683901
-2.30,2.82,12.56,-0.07,-0.03,-0.01,1721199683911
1.75,3.97,8.87,0.10,0.31,-0.15,1721199683921
2.27,-4.19,8.93,-0.29,0.01,-0.30,1721199683931
-3.51,3.73,10.04,0.16,-0.20,-0.35,1721199683941
1.92,-7.22,7.61,-0.35,0.59,-0.18,1721199683951
-4.47,2.22,17.47,0.04,-0.22,-0.01,1721199683961
-1.16,0.46,2.17,-0.09,0.37,-0.19,1721199683971
2.57,2.85,16.29,-0.04,0.25,-0.26,1721199683981
1.13,-3.63,9.62,-0.04,0.04,-0.14,1721199683991
-3.36,2.82,13.32,-0.06,0.21,-0.29,1721199684001
-2.65,-7.57,4.67,-0.13,0.03,-0.16,1721199684011
-2.42,0.04,15.83,-0.02,0.36,0.06,1721199684021
1.86,2.96,10.75,0.04,0.23,-0.02,1721199684031
-2.04,1.28,4.08,-0.14,-0.22,-0.22,1721199684041
-1.94,1.63,15.07,-0.04,0.40,-0.12,1721199684051
1.83,-0.87,12.32,0.07,0.22,-0.15,1721199684061
-2.93,-3.26,0.91,-0.17,-0.27,-0.01,1721199684071
-3.56,-2.51,17.76,-0.08,0.51,-0.04,1721199684081
-0.37,7.63,11.92,0.36,0.14,0.02,1721199684091
1.36,-0.50,7.08,-0.13,0.13,-0.01,1721199684101
-1.07,-1.07,15.37,0.02,-0.05,-0.05,1721199684111
-3.71,-0.56,7.95,0.13,0.01,-0.10,1721199684121
-1.87,2.83,8.39,0.08,0.17,-0.05,1721199684131
-1.09,-4.42,6.23,-0.07,-0.14,0.23,1721199684141
-2.13,1.70,15.04,0.08,0.14,0.04,1721199684151
-0.31,-0.26,7.77,0.02,-0.01,-0.17,1721199684161
-1.65,0.67,10.87,-0.00,0.09,-0.08,1721199684171
2.25,-1.86,10.45,-0.08,0.34,0.03,1721199684181
-0.19,-0.94,12.90,-0.01,-0.31,0.14,1721199684191
-2.05,6.31,8.04,0.22,-0.05,-0.06,1721199684201
2.69,-1.85,13.73,-0.08,0.37,-0.27,1721199684211
-5.12,4.99,12.69,0.09,-0.36,-0.03,1721199684221
-6.48,0.71,4.15,-0.09,-0.05,0.21,1721199684231
1.79,-0.09,14.04,0.07,0.19,0.41,1721199684241
5.04,2.87,8.94,0.13,-0.10,0.23,1721199684251
0.06,6.83,8.37,0.06,-0.17,-0.34,1721199684261
-3.67,-1.33,8.59,-0.05,-0.10,-0.24,1721199684271
-5.06,1.13,13.72,0.02,0.06,0.23,1721199684281
-0.22,0.62,3.52,0.19,-0.22,0.47,1721199684291
5.12,2.87,13.72,-0.10,0.34,0.21,1721199684301
5.44,0.39,16.33,0.07,-0.27,-0.07,1721199684311
-2.93,0.66,6.30,-0.12,-0.28,-0.15,1721199684321
-5.91,2.12,14.94,-0.02,-0.07,-0.15,1721199684331
-5.29,-0.76,1.87,0.01,-0.22,0.35,1721199684341
-1.50,6.33,16.42,-0.11,0.16,0.56,1721199684351
4.30,-2.29,4.30,-0.09,-0.23,0.37,1721199684361
0.79,-0.91,14.73,-0.31,-0.04,-0.13,1721199684371
-0.92,3.22,10.08,0.14,-0.22,-0.13,1721199684381
-0.35,-6.47,10.49,-0.20,-0.08,0.14,1721199684391
-1.83,-1.25,14.26,0.18,-0.27,0.43,1721199684401
1.09,-3.93,5.39,-0.18,-0.03,0.23,1721199684411
0.55,6.03,19.82,0.04,-0.06,0.12,1721199684421
0.93,0.46,-0.05,0.02,-0.22,-0.10,1721199684431
-1.67,-2.75,11.71,-0.21,-0.07,0.05,1721199684441
2.40,-3.39,10.90,0.02,-0.04,0.16,1721199684451
1.38,0.54,12.78,0.10,-0.17,0.26,1721199684461
1.64,2.03,4.21,0.13,-0.22,0.16,1721199684471
3.20,1.83,18.10,-0.13,0.24,-0.15,1721199684481
1.86,-2.15,9.60,0.14,-0.26,-0.27,1721199684491
-3.01,-4.34,4.35,-0.12,-0.08,-0.29,1721199684501
-2.23,3.61,14.17,0.14,0.07,0.08,1721199684511
3.01,-0.58,8.60,0.01,-0.06,0.33,1721199684521
4.00,1.99,13.31,0.06,0.02,0.08,1721199684531
4.19,-7.01,3.91,-0.08,-0.15,-0.37,1721199684541
-1.61,-4.01,13.52,-0.16,-0.04,-0.41,1721199684551
-3.55,6.72,12.29,0.28,-0.05,-0.02,1721199684561
1.64,0.33,11.54,-0.03,0.26,0.29,1721199684571
1.85,0.10,9.33,0.25,-0.10,-0.01,1721199684581
2.02,-4.13,7.64,-0.16,0.24,-0.43,1721199684591
-1.70,1.13,17.17,0.09,-0.12,-0.22,1721199684601
-2.32,3.07,8.49,0.25,0.03,0.10,1721199684611
3.10,-1.89,7.96,0.01,0.33,0.10,1721199684621
3.16,-2.12,8.63,0.08,-0.12,-0.15,1721199684631
0.69,4.34,14.11,0.07,0.26,-0.40,1721199684641
-1.25,6.34,11.91,0.25,0.12,-0.38,1721199684651
-1.86,1.26,6.04,0.19,0.03,-0.06,1721199684661
1.58,-4.12,10.56,0.06,0.29,-0.07,1721199684671
-0.01,4.05,5.57,0.32,0.05,-0.25,1721199684681
-1.83,3.89,7.70,-0.16,0.27,-0.33,1721199684691
-2.43,-2.79,14.61,0.07,-0.07,-0.14,1721199684701
-0.54,-1.84,9.33,0.22,0.25,-0.05,1721199684711
1.18,4.98,6.91,0.12,0.25,-0.11,1721199684721
1.22,2.65,11.51,-0.11,0.15,-0.25,1721199684731
-1.30,2.48,11.58,0.02,0.10,-0.43,1721199684741
-2.66,0.30,13.18,-0.02,0.25,-0.25,1721199684751
-1.09,-1.71,6.95,0.04,0.15,-0.04,1721199684761
0.85,0.64,8.69,-0.12,0.11,-0.09,1721199684771
0.82,1.13,6.90,-0.03,0.01,-0.26,1721199684781
-0.68,2.89,15.11,-0.09,0.32,-0.36,1721199684791
-2.25,0.74,8.59,0.06,0.00,-0.29,1721199684801
-0.51,-9.31,4.89,-0.44,0.18,-0.06,1721199684811
0.38,0.87,21.43,-0.04,0.24,-0.16,1721199684821
1.99,2.54,7.80,0.23,0.12,-0.27,1721199684831
-2.44,0.46,3.66,-0.07,0.01,-0.41,1721199684841
-5.31,2.12,10.09,-0.09,0.12,-0.11,1721199684851
-0.32,-3.39,15.16,-0.29,0.27,0.07,1721199684861
0.42,2.20,11.24,0.12,-0.11,-0.11,1721199684871
-0.20,0.25,3.92,-0.08,0.21,-0.33,1721199684881
-4.63,1.48,9.54,0.01,0.03,-0.10,1721199684891
-2.75,-6.58,7.52,-0.29,0.11,0.12,1721199684901
0.29,1.91,18.31,0.06,0.01,0.20,1721199684911
2.61,3.51,6.64,0.08,0.12,-0.09,1721199684921
-1.07,0.11,16.37,-0.12,0.04,-0.13,1721199684931
-5.15,-1.31,7.07,0.10,-0.10,-0.13,1721199684941
-2.26,-2.11,3.47,0.06,0.22,0.18,1721199684951
3.08,-4.84,13.22,-0.14,0.21,0.22,1721199684961
1.03,8.12,16.34,0.23,-0.14,-0.07,1721199684971
1.51,2.88,5.95,0.02,0.07,-0.08,1721199684981
-3.01,-0.53,8.60,0.04,-0.20,-0.05,1721199684991
-1.54,-2.89,8.28,0.04,0.21,-0.04,1721199685001
1.97,0.21,16.51,0.03,0.16,0.14,1721199685011
-0.66,4.56,7.16,0.14,-0.16,0.00,1721199685021
-4.35,3.29,9.27,0.02,-0.07,-0.13,1721199685031
-0.78,0.74,11.68,0.14,0.15,0.15,1721199685041
0.27,-5.36,9.34,-0.18,-0.08,0.14,1721199685051
-2.79,10.93,10.22,0.30,-0.25,-0.07,1721199685061
1.20,-3.53,4.43,-0.03,0.01,0.02,1721199685071
-2.03,-2.22,11.15,0.14,-0.47,0.35,1721199685081
1.78,1.09,7.23,0.15,0.32,0.28,1721199685091
4.01,11.48,15.62,0.20,0.17,-0.21,1721199685101
-1.49,1.39,5.21,-0.10,-0.32,-0.39,1721199685111
-7.45,-1.10,17.38,-0.15,-0.07,0.02,1721199685121
-0.81,-8.34,4.71,0.08,-0.17,0.57,1721199685131
1.60,5.25,8.47,-0.01,-0.00,0.37,1721199685141
5.67,9.83,11.88,0.07,0.11,-0.16,1721199685151
0.60,1.85,8.58,-0.07,-0.24,-0.41,1721199685161
-5.70,-1.86,9.88,-0.09,-0.14,-0.19,1721199685171
-5.27,-5.74,10.44,-0.20,-0.06,0.27,1721199685181
-2.57,6.26,12.85,0.17,-0.04,0.66,1721199685191
6.13,-2.77,5.01,-0.30,-0.03,0.38,1721199685201
4.49,-0.28,16.04,-0.09,-0.43,0.10,1721199685211
1.43,1.30,6.05,-0.12,0.05,-0.34,1721199685221
-3.97,-0.11,11.39,-0.13,-0.06,-0.36,1721199685231
-5.81,-3.14,13.36,-0.05,-0.15,0.15,1721199685241
-2.27,1.08,12.81,0.04,-0.06,0.51,1721199685251
3.72,1.60,6.23,-0.02,-0.04,0.32,1721199685261
5.19,-2.94,5.94,-0.10,-0.17,-0.16,1721199685271
-0.43,-2.19,10.44,-0.16,-0.17,-0.53,1721199685281
-3.58,0.15,22.07,-0.05,0.02,-0.15,1721199685291
-3.85,9.08,9.12,0.29,-0.08,0.23,1721199685301
1.84,2.38,-2.67,-0.03,-0.02,0.26,1721199685311
8.59,-6.14,10.60,-0.35,0.18,-0.18,1721199685321
2.40,1.09,19.60,0.19,-0.30,-0.48,1721199685331
-2.09,2.20,8.38,0.16,0.12,-0.19,1721199685341
-3.45,-2.62,5.05,-0.07,-0.15,0.10,1721199685351
-0.24,-0.16,16.86,-0.06,0.14,-0.05,1721199685361
2.92,-0.62,16.13,0.15,0.08,-0.41,1721199685371
-1.07,-5.02,7.44,0.13,-0.19,-0.13,1721199685381
-3.18,7.33,10.96,0.10,0.24,0.01,1721199685391
0.99,3.97,7.31,0.08,0.18,0.07,1721199685401
1.28,-4.70,12.56,-0.14,-0.09,-0.06,1721199685411
-0.78,-0.10,6.19,0.23,-0.13,-0.16,1721199685421
1.29,-1.43,3.46,-0.31,0.35,-0.18,1721199685431
-0.03,0.76,20.93,0.08,-0.20,0.19,1721199685441
1.37,5.38,3.94,0.30,0.15,-0.07,1721199685451
1.69,0.16,6.90,-0.19,0.36,-0.37,1721199685461
-3.39,1.00,20.79,0.20,-0.17,-0.27,1721199685471
-3.07,0.58,10.69,0.22,0.29,-0.19,1721199685481
0.44,-1.10,11.10,0.06,0.21,0.13,1721199685491
-0.42,2.98,5.47,0.21,-0.17,0.06,1721199685501
1.87,2.54,15.67,-0.01,0.47,-0.30,1721199685511
1.76,0.39,7.77,0.24,-0.02,-0.30,1721199685521
-3.17,0.53,7.76,-0.16,0.07,-0.15,1721199685531
-1.49,2.83,12.33,0.04,0.24,-0.17,1721199685541
0.79,3.69,7.27,0.11,0.06,-0.21,1721199685551
0.02,-4.86,4.62,-0.21,0.06,-0.02,1721199685561
-2.34,-0.46,16.74,-0.22,0.23,-0.05,1721199685571
0.68,-0.20,15.14,0.14,0.24,-0.29,1721199685581
0.66,1.83,7.00,0.11,0.11,-0.27,1721199685591
-0.05,4.83,9.66,0.05,0.23,-0.13,1721199685601
0.39,5.01,10.24,0.10,0.13,-0.05,1721199685611
0.63,-0.48,12.19,-0.07,0.01,-0.21,1721199685621
0.39,-7.63,4.05,-0.28,-0.15,-0.27,1721199685631
-4.72,-2.15,5.44,-0.12,0.11,-0.44,1721199685641
-2.41,4.79,16.92,-0.03,0.63,-0.29,1721199685651
0.22,-5.07,10.76,-0.08,0.00,0.09,1721199685661
4.09,-0.74,13.92,-0.24,0.13,0.04,1721199685676
4.61,5.43,17.24,0.01,0.64,-0.13,1721199685680
4.80,-3.79,8.20,-0.09,-0.16,-0.24,1721199685690
-6.11,0.32,4.83,-0.15,-0.19,-0.49,1721199685700
-2.43,-2.90,8.95,-0.04,0.55,-0.25,1721199685710
-2.07,-1.75,16.42,-0.09,0.28,0.12,1721199685720
-2.39,-1.02,12.87,-0.15,-0.10,0.10,1721199685730
-0.26,7.19,15.97,-0.04,0.14,-0.00,1721199685740
1.05,5.87,12.66,0.17,0.10,-0.13,1721199685750
-2.63,-5.44,-2.82,-0.04,-0.40,0.04,1721199685760
-2.33,-6.01,3.80,-0.11,0.38,0.14,1721199685770
2.92,4.50,10.59,0.14,0.27,0.17,1721199685780
2.61,-1.56,17.73,-0.19,0.10,-0.08,1721199685790
-1.42,3.59,16.76,0.11,0.01,-0.14,1721199685800
-2.24,-0.19,5.68,0.02,0.01,-0.03,1721199685810
-1.85,4.27,11.43,0.12,-0.08,0.02,1721199685820
2.61,1.17,12.31,0.19,0.23,0.09,1721199685830
-0.16,2.38,9.30,0.16,-0.17,-0.05,1721199685840
-4.03,-0.07,5.22,0.07,-0.04,-0.17,1721199685850
-1.20,-2.96,13.46,-0.10,0.36,-0.10,1721199685860
-1.05,8.09,16.07,0.35,-0.05,0.05,1721199685870
-1.13,-0.32,1.34,0.05,-0.12,0.03,1721199685880
-3.95,4.00,14.64,0.17,0.07,0.07,1721199685890
1.35,2.23,7.94,0.15,0.02,-0.02,1721199685900
0.85,0.95,10.02,0.09,-0.11,-0.03,1721199685910
1.41,1.40,10.69,0.25,0.09,0.01,1721199685920
-0.39,1.16,8.08,0.08,-0.15,-0.03,1721199685930
-3.07,8.12,16.36,0.20,-0.20,-0.07,1721199685940
0.46,-1.80,7.28,0.18,-0.00,0.20,1721199685950
1.25,0.34,7.71,0.22,-0.08,-0.03,1721199685960
0.14,-3.85,5.36,-0.26,-0.07,-0.17,1721199685970
-7.31,7.20,12.33,0.11,-0.35,-0.05,1721199685980
1.47,-0.12,7.80,0.04,0.42,0.15,1721199685990
3.36,-8.08,14.34,-0.20,-0.09,0.24,1721199686000
-5.18,4.68,10.91,-0.07,-0.45,-0.17,1721199686010
-4.46,1.39,7.49,-0.14,0.09,-0.09,1721199686020
-0.39,1.53,13.33,0.09,0.16,0.36,1721199686030
4.30,-9.96,2.55,-0.33,-0.12,0.51,1721199686040
-1.27,5.07,16.69,-0.15,-0.29,-0.06,1721199686050
3.15,2.46,8.92,0.02,0.17,-0.32,1721199686060
-0.83,-1.04,15.50,-0.21,0.01,-0.32,1721199686070
-4.39,-5.25,6.19,0.14,-0.35,0.25,1721199686080
-3.13,-5.44,5.06,-0.31,0.30,0.27,1721199686090
2.49,-0.18,19.40,-0.03,0.09,0.14,1721199686100
0.56,7.27,14.85,0.14,0.00,0.01,1721199686110
2.49,-3.87,5.41,-0.15,-0.23,-0.01,1721199686120
-0.32,-1.48,14.61,-0.08,-0.04,0.03,1721199686130
2.44,4.64,15.08,0.01,0.19,-0.11,1721199686140
1.05,-9.39,-1.13,-0.14,-0.49,-0.04,1721199686150
-4.22,-9.07,-1.85,-0.12,0.15,-0.10,1721199686160
3.71,10.86,18.14,0.30,0.45,-0.06,1721199686170
4.15,2.78,12.75,0.12,-0.12,0.11,1721199686180
-0.23,6.51,14.52,0.04,-0.10,-0.09,1721199686190
2.94,-10.11,2.51,-0.11,0.11,-0.26,1721199686200
-3.42,9.02,14.41,0.29,-0.10,-0.33,1721199686210
-0.82,-4.22,0.97,0.12,-0.04,0.14,1721199686220
-0.43,-2.15,12.32,-0.03,0.12,0.26,1721199686230
0.33,8.47,6.52,0.34,-0.02,-0.01,1721199686240
5.44,3.05,17.93,-0.12,0.37,-0.26,1721199686250
1.30,-4.64,5.27,0.26,-0.51,-0.21,1721199686260
-2.98,-1.72,3.60,-0.13,0.42,-0.22,1721199686270
2.29,-4.19,11.92,-0.09,0.30,-0.02,1721199686280
-0.91,5.11,17.68,0.29,-0.21,0.12,1721199686290
2.79,5.91,8.51,0.26,0.32,-0.08,1721199686300
2.79,-1.36,7.86,0.11,0.06,-0.27,1721199686310
-1.29,-0.87,13.91,0.04,0.25,-0.51,1721199686320
-5.45,1.06,9.25,0.11,-0.06,-0.21,1721199686330
-3.75,5.36,5.46,0.05,0.15,0.22,1721199686340
3.89,-9.17,7.44,-0.47,0.30,0.01,1721199686350
1.48,-0.14,26.90,-0.07,-0.02,-0.31,1721199686360
1.27,6.50,11.32,0.20,0.16,-0.27,1721199686370
0.41,3.33,4.12,-0.06,0.10,-0.36,1721199686380
-2.43,3.26,7.53,0.02,0.07,-0.30,1721199686390
0.01,-5.05,10.87,-0.20,0.31,-0.19,1721199686400
0.40,1.90,8.68,0.17,0.01,-0.08,1721199686410
-1.63,-0.75,8.78,-0.20,0.24,-0.37,1721199686420
-3.83,-2.39,15.84,-0.12,-0.06,-0.04,1721199686430
-2.19,6.46,10.58,0.25,0.03,0.07,1721199686440
5.76,-1.86,6.53,-0.26,0.39,-0.09,1721199686450
0.97,-1.97,10.26,0.02,-0.40,-0.35,1721199686460
-2.00,-8.20,7.94,-0.33,0.33,-0.47,1721199686470
-5.21,8.77,18.26,0.30,-0.01,-0.37,1721199686480
-1.65,-1.55,2.92,-0.21,0.28,0.09,1721199686490
-3.86,-0.23,16.23,-0.05,-0.08,0.29,1721199686500
4.02,-1.40,13.23,-0.11,0.47,0.13,1721199686510
3.09,3.47,12.12,0.16,-0.11,-0.17,1721199686520
-1.86,-4.03,3.81,-0.21,0.09,-0.43,1721199686530
-6.70,0.76,10.49,0.16,0.03,0.03,1721199686540
-1.97,3.43,20.43,0.02,0.51,0.19,1721199686550
-0.01,3.79,9.24,0.23,-0.40,0.22,1721199686560
2.05,-1.83,9.65,-0.07,0.46,-0.18,1721199686570
1.53,-5.66,7.58,0.13,-0.25,0.04,1721199686580
-4.51,-1.30,8.13,-0.11,0.05,-0.06,1721199686590
-4.08,8.78,14.75,0.31,-0.01,-0.10,1721199686600
-1.12,-11.97,1.71,-0.23,-0.11,0.20,1721199686610
-2.01,-0.83,16.80,-0.05,0.25,0.20,1721199686620
4.99,4.82,15.26,0.21,0.46,-0.13,1721199686630
2.72,-3.56,9.07,-0.15,-0.20,-0.14,1721199686640
-3.91,3.08,12.71,0.14,-0.12,-0.22,1721199686650
-2.24,-3.35,6.47,0.02,0.07,0.07,1721199686660
-2.64,7.55,18.90,0.19,0.06,0.26,1721199686670
0.43,2.65,1.79,0.06,-0.13,0.03,1721199686680
-4.16,-1.37,4.84,-0.13,-0.25,-0.21,1721199686690
-1.97,-1.80,7.23,0.14,0.35,-0.11,1721199686700
-0.08,1.13,14.07,-0.04,0.23,0.01,1721199686710
-1.44,3.79,17.16,0.06,-0.29,0.01,1721199686720
-0.09,0.76,9.64,0.06,-0.12,0.35,1721199686730
0.79,4.10,6.69,0.12,-0.05,0.17,1721199686740
1.58,2.04,12.20,-0.06,-0.10,-0.11,1721199686750
-1.20,5.19,14.84,0.18,-0.25,-0.00,1721199686760
-1.34,-4.97,1.24,-0.04,-0.14,-0.07,1721199686770
-3.02,1.99,9.97,0.01,0.03,0.01,1721199686780
1.72,3.92,17.01,0.04,0.22,0.27,1721199686790
3.83,2.40,16.03,0.05,-0.13,0.13,1721199686800
0.03,2.44,0.73,0.23,-0.47,-0.24,1721199686810
-2.36,-1.21,7.47,-0.13,0.26,-0.36,1721199686820
-3.88,1.14,18.43,0.11,-0.11,0.18,1721199686830
-2.49,0.01,5.09,-0.05,-0.16,0.51,1721199686840
-0.12,1.43,6.68,-0.04,-0.17,0.49,1721199686850
6.69,-3.89,11.58,-0.38,0.17,0.11,1721199686860
2.81,1.58,21.65,-0.09,-0.39,-0.30,1721199686870
-2.89,-4.08,4.99,-0.07,-0.25,-0.10,1721199686880
-2.16,-0.72,6.66,-0.05,0.06,0.41,1721199686890
4.11,1.87,12.83,-0.02,0.16,0.22,1721199686900
2.28,2.95,14.87,0.06,-0.37,-0.24,1721199686910
-1.20,-3.14,6.93,-0.26,-0.05,-0.36,1721199686920
-3.83,-0.58,16.71,-0.00,-0.11,-0.14,1721199686930
-2.47,-2.50,2.78,-0.04,-0.03,0.34,1721199686940
1.29,6.10,12.34,0.00,0.20,0.23,1721199686950
6.35,2.23,5.55,0.11,-0.09,-0.09,1721199686960
4.06,-1.31,18.46,-0.22,0.18,-0.49,1721199686970
-2.10,-0.35,14.75,0.12,-0.23,-0.34,1721199686980
-3.09,3.41,0.77,0.00,-0.04,0.04,1721199686990
2.84,0.55,7.19,-0.09,0.28,0.08,1721199687000
3.31,-4.20,9.18,-0.01,-0.08,-0.29,1721199687010
-4.38,0.78,13.52,0.05,-0.23,-0.42,1721199687020
-2.40,7.08,14.48,0.13,0.40,-0.07,1721199687030
-2.12,-0.92,4.13,0.02,-0.23,0.17,1721199687040
0.15,2.62,14.16,0.11,0.19,0.09,1721199687050
4.40,0.17,7.86,0.21,-0.02,0.02,1721199687060
0.15,1.20,12.94,-0.03,-0.01,-0.24,1721199687070
-1.56,0.04,8.89,0.16,-0.07,-0.14,1721199687080
0.34,2.38,11.29,0.13,0.35,0.04,1721199687090
1.77,1.09,11.87,0.21,0.00,0.16,1721199687100
1.46,1.32,8.36,0.20,-0.01,0.07,1721199687110
2.94,2.57,12.76,0.20,0.16,-0.26,1721199687120
0.63,-3.93,6.12,0.04,-0.16,-0.30,1721199687130
-5.49,6.98,13.80,0.25,0.02,-0.19,1721199687140
-1.27,-0.22,7.35,0.08,0.31,0.00,1721199687150
-0.15,-0.71,10.08,0.17,-0.09,0.19,1721199687160
1.50,1.65,6.11,-0.02,0.19,-0.16,1721199687170
1.81,-2.45,15.02,-0.06,0.22,-0.38,1721199687180
-2.50,6.33,12.56,0.26,0.00,-0.23,1721199687190
-1.43,-5.86,2.27,-0.34,0.07,0.01,1721199687200
-2.42,4.05,16.91,0.09,0.04,-0.07,1721199687210
2.59,3.51,0.79,0.01,0.22,-0.08,1721199687220
1.55,-2.67,10.96,-0.32,0.14,-0.33,1721199687230
0.22,-3.72,15.02,-0.07,0.07,-0.24,1721199687240
-2.24,-3.78,6.71,-0.21,-0.01,-0.14,1721199687250
-1.99,7.74,17.28,0.17,0.18,-0.17,1721199687260
3.40,-1.48,2.86,-0.11,0.13,-0.18,1721199687270
-3.84,1.65,11.09,-0.28,-0.25,-0.28,1721199687280
-1.89,-3.21,7.05,-0.14,0.31,-0.33,1721199687290
2.92,-4.72,14.65,-0.13,0.48,-0.24,1721199687300
-1.01,-0.47,11.24,0.04,-0.15,-0.22,1721199687310
-6.06,5.72,8.94,-0.03,0.03,-0.15,1721199687320
-1.62,5.33,16.72,-0.11,0.29,-0.01,1721199687330
2.82,-2.31,9.32,0.01,0.00,0.01,1721199687340
1.52,-4.96,4.80,-0.21,0.10,-0.27,1721199687350
-1.81,-0.49,12.57,-0.10,0.00,-0.38,1721199687360
-4.79,2.15,13.15,0.06,0.09,-0.21,1721199687370
-3.99,5.14,12.51,0.12,0.24,0.12,1721199687380
-0.12,-2.16,5.12,-0.04,0.09,0.08,1721199687390
-0.06,-5.10,13.41,-0.17,0.01,-0.11,1721199687400
-1.95,7.03,6.31,0.33,-0.00,-0.26,1721199687410
0.00,0.80,9.76,-0.06,0.40,-0.29,1721199687420
-3.54,-5.24,11.68,-0.01,-0.39,0.12,1721199687430
-3.14,-7.57,10.15,-0.11,0.11,0.38,1721199687440
1.72,12.32,16.25,0.30,0.34,-0.10,1721199687450
4.17,0.27,11.09,-0.06,0.01,-0.41,1721199687460
-6.16,-1.04,5.98,0.15,-0.58,-0.07,1721199687470
-2.03,-4.51,1.26,0.02,0.40,0.16,1721199687480
1.87,1.37,16.01,0.03,0.05,0.10,1721199687490
0.28,4.79,12.44,0.05,-0.11,-0.21,1721199687500
-5.46,-6.09,4.03,-0.15,-0.42,-0.23,1721199687510
-5.55,3.39,15.01,0.17,0.16,0.31,1721199687520
3.90,-0.92,8.44,0.08,0.26,0.30,1721199687530
0.04,4.61,16.01,0.05,-0.41,0.11,1721199687540
-2.05,0.40,3.97,0.07,-0.15,-0.09,1721199687550
-2.71,3.43,10.58,0.01,-0.08,0.07,1721199687560
0.75,-0.20,10.68,0.04,-0.02,0.16,1721199687570
-0.40,1.94,6.49,0.08,-0.28,0.05,1721199687580
-1.42,2.27,14.13,-0.08,0.06,0.07,1721199687590
-0.85,2.62,14.10,0.12,-0.15,0.14,1721199687600
1.02,2.44,9.07,0.11,-0.13,0.16,1721199687610
1.81,-0.90,10.24,-0.03,-0.26,0.26,1721199687620
-1.48,8.82,11.64,0.24,-0.37,0.06,1721199687630
0.27,3.76,5.71,0.13,-0.00,-0.10,1721199687640
-1.79,-4.36,7.49,-0.18,-0.28,0.04,1721199687650
-4.46,2.00,13.20,0.06,-0.27,0.20,1721199687660
1.20,-6.34,3.40,-0.19,-0.14,0.30,1721199687670
3.65,2.63,16.19,0.29,-0.33,0.08,1721199687685
3.74,6.79,8.79,0.41,-0.23,-0.02,1721199687689
2.12,-7.59,0.00,-0.31,-0.17,-0.28,1721199687699
-8.45,0.08,21.46,-0.09,-0.51,-0.12,1721199687709
-3.89,-5.00,12.78,-0.07,-0.01,0.04,1721199687719
0.55,-0.29,9.75,0.19,-0.24,0.36,1721199687729
3.52,0.85,2.61,-0.11,-0.03,0.18,1721199687739
3.17,1.47,15.21,-0.12,-0.18,-0.22,1721199687749
-0.75,-0.51,5.71,-0.04,-0.31,-0.50,1721199687759
-3.49,-3.92,15.00,-0.21,0.12,-0.28,1721199687769
0.38,-0.89,11.77,0.24,-0.10,0.42,1721199687779
4.52,-4.77,6.63,-0.42,0.04,0.25,1721199687789
2.20,7.51,12.20,0.06,-0.21,-0.19,1721199687799
5.35,-6.61,4.75,-0.34,0.21,-0.65,1721199687809
-1.54,-1.77,21.67,0.08,-0.20,-0.49,1721199687819
-4.07,-3.01,4.70,-0.18,-0.08,-0.00,1721199687829
-1.91,9.35,17.35,-0.00,0.14,0.11,1721199687839
4.16,2.73,7.58,0.07,0.09,-0.22,1721199687849
2.16,-5.38,3.07,-0.12,-0.11,-0.40,1721199687859
-2.32,-0.36,14.86,-0.10,0.02,-0.38,1721199687869
-2.75,1.74,12.41,0.00,0.11,-0.18,1721199687879
-1.50,2.42,13.20,0.00,-0.03,0.10,1721199687889
4.25,-1.15,11.99,-0.01,0.19,-0.14,1721199687899
2.03,1.58,4.16,0.06,-0.07,-0.58,1721199687909
-4.23,6.11,16.88,0.04,0.13,-0.69,1721199687919
-3.27,-0.62,9.69,0.22,0.12,-0.16,1721199687929
-1.68,3.79,9.56,0.18,0.17,0.24,1721199687939
4.34,3.03,11.46,0.07,0.24,-0.10,1721199687949
2.41,2.51,11.26,0.20,-0.09,-0.69,1721199687959
-1.94,-2.58,3.91,0.10,0.09,-0.57,1721199687969
-5.13,2.26,13.63,0.14,0.25,-0.26,1721199687979
-1.90,4.59,3.09,0.32,0.11,0.04,1721199687989
1.42,0.01,6.96,-0.18,0.25,-0.15,1721199687999
2.09,-3.22,17.68,-0.09,0.09,-0.28,1721199688009
0.17,2.89,10.94,0.12,0.24,-0.44,1721199688019
-0.80,2.26,5.13,0.02,0.17,-0.32,1721199688029
-1.36,3.34,17.47,-0.03,0.24,-0.35,1721199688039
-0.22,-2.61,7.55,0.06,0.01,-0.10,1721199688049
0.34,-0.58,6.26,-0.20,0.17,-0.25,1721199688059
0.98,3.58,14.29,-0.02,0.25,-0.41,1721199688069
-0.73,-2.41,4.07,-0.19,0.05,-0.49,1721199688079
-6.16,-2.62,10.68,-0.10,0.04,-0.35,1721199688089
-0.52,-2.04,7.92,0.04,0.46,-0.08,1721199688099
3.15,5.99,18.55,0.11,0.41,-0.02,1721199688109
2.40,2.97,10.38,0.10,-0.05,-0.45,1721199688119
-1.94,-5.69,9.50,-0.27,-0.07,-0.36,1721199688129
-5.19,4.57,8.71,0.24,0.12,-0.29,1721199688139
0.83,0.15,6.56,-0.13,0.43,-0.08,1721199688149
-0.35,-0.89,11.27,-0.04,-0.24,-0.17,1721199688159
-4.03,-5.66,2.47,-0.08,0.06,-0.19,1721199688169
-1.35,-0.98,14.03,0.00,0.60,-0.18,1721199688179
2.27,7.81,21.83,0.14,0.41,-0.15,1721199688189
-0.52,-2.41,7.45,0.05,-0.32,-0.17,1721199688199
-5.75,-5.29,8.46,-0.11,0.01,-0.16,1721199688209
-0.80,2.46,12.00,0.29,0.44,-0.13,1721199688219
1.91,2.66,8.15,0.04,0.12,0.00,1721199688229
-2.70,-1.38,9.17,-0.02,-0.16,-0.11,1721199688239
-1.41,1.16,11.55,0.12,0.45,-0.20,1721199688249
0.98,-4.47,8.27,0.09,0.17,-0.13,1721199688259
-1.66,5.06,16.38,0.01,0.13,-0.00,1721199688269
-0.52,6.65,5.59,0.30,0.00,-0.08,1721199688279
1.20,-3.96,9.05,-0.14,0.19,-0.19,1721199688289
-3.91,-0.50,4.64,0.20,-0.39,0.01,1721199688299
-0.58,-0.42,5.33,-0.20,0.49,-0.07,1721199688309
1.34,1.16,18.70,0.13,0.07,-0.13,1721199688319
-1.43,2.04,9.07,0.13,0.14,-0.06,1721199688329
-1.22,0.10,12.90,0.03,0.12,-0.04,1721199688339
-2.65,4.17,4.45,0.19,-0.13,-0.02,1721199688349
-0.81,5.50,13.06,-0.06,0.36,-0.08,1721199688359
0.09,-1.56,8.91,0.16,-0.08,-0.01,1721199688369
-0.74,0.99,5.79,0.01,0.17,0.08,1721199688379
0.47,-0.25,11.79,-0.12,0.09,-0.18,1721199688389
-1.83,9.11,15.45,0.30,-0.04,-0.07,1721199688399
0.51,0.29,-1.98,-0.02,0.15,-0.15,1721199688409
-3.39,-3.22,22.51,-0.15,0.18,-0.14,1721199688419
-2.57,0.82,13.25,0.25,-0.11,0.13,1721199688429
-1.13,4.50,11.29,0.03,0.14,0.12,1721199688439
-0.25,0.76,6.83,0.11,-0.09,0.01,1721199688449
-1.24,-2.14,9.87,-0.04,0.03,0.03,1721199688459
-3.62,3.62,6.04,0.16,-0.17,0.16,1721199688469
-1.36,-3.11,6.73,-0.27,0.14,0.28,1721199688479
1.38,-2.16,17.65,-0.08,-0.03,0.17,1721199688489
1.87,4.90,14.78,0.23,-0.08,0.08,1721199688499
0.91,-3.31,6.09,-0.24,0.08,-0.09,1721199688509
-2.73,-1.11,13.71,0.07,-0.26,0.09,1721199688519
-0.15,-5.39,7.75,-0.14,0.28,0.04,1721199688529
-0.51,-0.99,12.23,0.07,-0.18,0.30,1721199688539
0.45,3.03,9.82,-0.06,0.08,0.13,1721199688549
1.89,-1.37,5.11,0.03,-0.24,0.10,1721199688559
0.75,-6.04,15.06,-0.40,0.32,-0.08,1721199688569
-0.47,0.79,13.35,0.19,-0.27,0.01,1721199688579
0.32,5.35,3.95,-0.02,0.13,0.12,1721199688589
2.40,-1.79,14.31,-0.16,0.12,0.06,1721199688599
1.28,-1.47,9.09,0.07,-0.11,-0.03,1721199688609
0.73,0.11,5.19,-0.15,0.13,-0.03,1721199688619
-0.09,2.65,14.01,-0.05,0.08,-0.03,1721199688629
-0.02,5.67,14.88,0.01,0.16,-0.03,1721199688639
0.83,-0.62,4.48,0.01,-0.04,-0.01,1721199688649
-0.57,-3.29,11.26,-0.18,0.16,-0.23,1721199688659
-1.68,0.91,17.52,0.08,0.06,-0.10,1721199688669
0.69,1.04,11.94,0.13,0.02,0.38,1721199688679
2.70,-1.34,8.10,0.02,0.13,0.22,1721199688689
2.53,2.22,9.26,0.07,0.16,-0.27,1721199688699
-1.39,4.76,9.94,0.12,-0.04,-0.42,1721199688709
-2.81,-0.19,13.76,-0.03,0.17,-0.16,1721199688719
-2.21,-5.80,9.04,0.09,-0.02,0.17,1721199688729
0.58,5.64,11.10,0.25,0.31,0.22,1721199688739
6.31,1.23,8.52,0.14,0.18,-0.04,1721199688749
1.40,1.14,9.85,0.07,-0.11,-0.44,1721199688759
-4.91,7.30,12.90,0.35,0.08,-0.26,1721199688769
-1.46,-3.81,1.15,-0.01,0.25,0.03,1721199688779
-0.76,-4.13,11.78,-0.08,-0.02,0.06,1721199688789
0.15,1.25,13.23,-0.04,0.16,0.05,1721199688799
0.53,4.42,11.57,0.15,0.07,-0.17,1721199688809
-0.64,1.80,3.34,0.10,0.05,-0.12,1721199688819
-0.34,0.42,9.58,-0.17,0.34,-0.03,1721199688829
0.11,-0.20,15.66,-0.02,0.09,-0.09,1721199688839
-0.49,5.75,19.01,0.12,0.18,-0.17,1721199688849
-1.17,0.25,2.20,0.15,-0.04,-0.02,1721199688859
-3.89,1.46,1.13,-0.25,0.03,0.02,1721199688869
1.37,-2.57,18.81,-0.26,0.37,-0.17,1721199688879
1.42,2.49,14.17,0.24,-0.12,-0.18,1721199688889
-0.93,-1.81,7.93,-0.24,0.24,-0.20,1721199688899
-2.83,0.47,10.27,-0.01,-0.04,-0.06,1721199688909
-1.42,3.27,9.76,0.05,0.30,-0.06,1721199688919
2.21,-3.53,12.61,-0.23,0.22,-0.13,1721199688929
-0.28,0.43,9.60,0.08,-0.46,0.05,1721199688939
-1.40,3.65,11.44,-0.04,0.40,-0.13,1721199688949
-1.64,-1.93,12.51,-0.05,0.08,-0.18,1721199688959
-4.11,-5.88,0.50,-0.18,-0.34,0.17,1721199688969
0.88,-0.29,14.37,-0.15,0.65,0.12,1721199688979
4.56,2.86,16.29,0.08,0.15,-0.21,1721199688989
-1.98,-0.31,11.86,-0.11,-0.28,-0.19,1721199688999
-5.89,-2.04,5.60,-0.03,-0.19,0.03,1721199689009
-1.17,-2.58,15.59,-0.19,0.42,0.07,1721199689019
1.82,-1.76,8.47,0.03,-0.39,0.23,1721199689029
0.66,1.45,9.06,-0.14,0.30,-0.05,1721199689039
0.72,0.46,17.51,0.08,0.09,-0.37,1721199689049
-4.02,-0.17,5.56,-0.04,-0.33,-0.02,1721199689059
-3.21,3.44,13.06,-0.01,0.14,0.15,1721199689069
2.35,-0.77,9.95,-0.06,0.05,0.16,1721199689079
0.06,0.38,9.79,-0.01,-0.18,-0.19,1721199689089
-2.67,2.37,12.76,0.04,0.02,-0.23,1721199689099
-2.88,0.85,6.55,0.07,-0.12,0.04,1721199689109
-2.31,2.22,11.47,-0.01,-0.07,0.15,1721199689119
1.22,2.62,11.28,0.16,-0.01,0.06,1721199689129
2.54,-2.37,13.64,-0.06,0.06,-0.03,1721199689139
-1.36,1.30,6.07,0.23,-0.29,-0.17,1721199689149
-2.75,5.23,7.70,0.15,0.19,-0.09,1721199689159
0.85,1.40,9.80,0.12,0.08,0.16,1721199689169
3.28,1.59,18.35,0.14,-0.10,0.14,1721199689179
1.65,2.18,3.29,0.35,-0.21,-0.03,1721199689189
0.79,0.40,14.51,-0.16,0.23,-0.36,1721199689199
-2.01,5.99,17.54,0.34,-0.35,-0.12,1721199689209
-1.78,0.02,0.65,0.04,-0.09,0.13,1721199689219
-0.22,-0.14,11.85,-0.03,0.02,-0.04,1721199689229
1.88,-1.31,12.06,-0.02,-0.13,-0.07,1721199689239
-2.47,2.24,5.05,0.06,-0.32,-0.21,1721199689249
-3.19,-1.35,5.73,-0.12,0.09,-0.18,1721199689259
0.00,-2.40,17.25,-0.09,0.01,0.19,1721199689269
-1.98,4.38,8.19,0.12,-0.29,0.11,1721199689279
0.07,0.87,7.54,-0.16,0.24,-0.03,1721199689289
1.94,-5.05,15.32,-0.19,-0.17,-0.04,1721199689299
-1.61,3.09,11.33,0.10,-0.30,0.04,1721199689309
-0.88,0.59,5.82,-0.05,0.02,0.08,1721199689319
2.81,-5.73,12.21,-0.17,-0.02,0.09,1721199689329
0.03,2.94,15.42,0.11,-0.19,-0.06,1721199689339
1.70,1.55,11.49,-0.12,-0.00,-0.05,1721199689349
-1.60,-1.67,10.27,-0.14,-0.32,-0.12,1721199689359
-3.48,-3.94,4.33,-0.11,-0.24,-0.08,1721199689369
-0.17,-3.88,5.41,-0.21,0.17,-0.10,1721199689379
2.43,-1.88,17.01,-0.09,0.02,0.06,1721199689389
0.49,1.89,11.43,-0.06,-0.18,0.04,1721199689399
1.25,4.31,13.83,-0.02,0.18,-0.11,1721199689409
2.95,2.82,16.26,0.04,0.16,-0.40,1721199689419
-0.98,-4.68,5.89,-0.08,-0.39,-0.21,1721199689429
-5.13,1.86,8.67,-0.11,0.00,-0.23,1721199689439
0.10,-8.44,9.01,-0.09,0.08,0.08,1721199689449
0.46,2.29,16.52,0.03,0.14,0.19,1721199689459
2.51,3.33,2.88,0.08,-0.13,-0.01,1721199689469
0.75,0.46,15.67,-0.22,0.18,-0.32,1721199689479
-1.63,4.92,13.47,0.22,-0.07,-0.40,1721199689489
0.06,-1.48,5.56,0.10,0.07,-0.00,1721199689499
-0.02,-4.58,8.93,-0.02,0.03,-0.01,1721199689509
-0.06,-0.66,11.51,0.11,0.04,-0.05,1721199689519
0.21,5.51,11.18,0.11,0.06,-0.15,1721199689529
0.36,3.40,11.06,0.25,0.06,-0.16,1721199689539
1.62,-2.06,11.55,0.09,0.28,-0.21,1721199689549
-0.72,2.14,10.64,0.25,-0.05,-0.25,1721199689559
-2.84,1.31,5.36,0.15,-0.03,-0.20,1721199689569
-2.24,-1.31,7.98,0.04,0.13,-0.08,1721199689579
-0.05,-2.22,12.11,0.05,0.15,-0.08,1721199689589
0.57,4.96,9.46,0.24,0.02,-0.13,1721199689599
2.19,0.20,9.57,0.00,0.22,-0.18,1721199689609
-0.14,0.27,10.12,0.06,0.08,-0.23,1721199689619
-1.10,3.58,15.97,0.12,0.32,-0.14,1721199689629
1.06,0.90,3.22,0.12,0.02,-0.09,1721199689639
0.84,-7.50,6.11,-0.28,0.01,-0.09,1721199689649
-0.69,6.85,20.73,0.14,0.16,-0.32,1721199689659
-0.32,1.86,2.54,0.10,0.11,-0.43,1721199689669
-4.06,0.43,12.28,-0.08,0.19,-0.18,1721199689679
0.45,-7.11,3.27,-0.26,0.14,0.05,1721199689694
1.22,0.48,13.24,-0.22,0.35,-0.18,1721199689698
1.66,-1.41,11.93,-0.06,-0.14,-0.33,1721199689708
-4.86,1.79,8.95,-0.10,-0.12,-0.43,1721199689718
-4.33,0.83,11.25,0.15,0.27,-0.16,1721199689728
-0.18,-8.20,3.95,-0.23,0.12,0.13,1721199689738
-1.58,2.09,12.29,-0.06,-0.08,0.24,1721199689748
4.34,3.07,9.75,-0.00,0.51,-0.25,1721199689758
2.58,-2.39,14.29,-0.13,0.05,-0.44,1721199689768
-5.12,0.20,9.05,0.01,-0.15,-0.24,1721199689778
-3.91,1.61,9.73,-0.10,0.42,-0.03,1721199689788
2.63,-6.01,9.98,-0.22,0.05,0.26,1721199689798
-0.73,7.49,16.20,0.11,0.07,-0.06,1721199689808
1.75,5.12,6.16,0.08,0.14,-0.36,1721199689818
-1.65,-6.95,5.04,-0.28,-0.28,-0.01,1721199689828
-4.87,-0.30,15.17,-0.12,0.11,0.01,1721199689838
2.39,8.69,12.96,0.29,0.32,0.09,1721199689848
1.94,-3.62,-1.13,-0.18,-0.24,-0.13,1721199689858
-6.19,-1.39,19.14,-0.11,0.12,-0.20,1721199689868
-1.24,3.71,1.16,0.31,0.14,-0.04,1721199689878
1.60,-2.04,12.00,-0.26,0.35,-0.14,1721199689888
-2.84,0.84,20.22,0.16,-0.37,-0.00,1721199689898
-0.15,1.98,9.91,0.03,0.07,0.16,1721199689908
-1.02,-0.89,8.38,0.14,-0.01,-0.05,1721199689918
-0.20,-0.51,12.14,-0.01,0.39,-0.20,1721199689928
0.94,0.93,17.72,0.08,-0.03,-0.20,1721199689938
-3.00,4.21,4.39,0.17,-0.22,0.10,1721199689948
-2.43,2.56,4.58,0.10,0.18,0.19,1721199689958
3.47,-1.59,13.38,0.03,0.22,0.08,1721199689968
1.09,1.89,10.39,0.04,-0.18,-0.25,1721199689978
-3.99,1.72,11.07,0.00,0.05,-0.24,1721199689988
-1.58,2.57,16.34,0.12,0.27,0.06,1721199689998
0.26,1.19,3.50,0.11,-0.21,0.31,1721199690008
0.33,6.73,8.28,0.09,0.18,0.16,1721199690018
6.61,-4.38,13.51,-0.14,0.27,-0.17,1721199690028
-1.79,1.65,15.54,0.01,-0.33,-0.37,1721199690038
-7.36,3.19,4.73,-0.07,-0.08,-0.12,1721199690048
-3.90,1.14,13.03,-0.05,0.14,0.28,1721199690058
0.82,6.31,9.55,0.20,0.12,0.34,1721199690068
2.44,-5.02,4.00,-0.40,-0.08,0.01,1721199690078
-3.33,1.88,19.84,-0.06,-0.23,-0.24,1721199690088
-2.66,1.33,8.31,0.17,0.15,-0.02,1721199690098
-0.93,-1.66,12.53,-0.15,0.00,0.41,1721199690108
0.86,4.07,7.94,0.14,-0.43,0.44,1721199690118
3.50,-0.66,5.60,-0.11,0.11,-0.01,1721199690128
0.76,0.04,15.90,-0.07,-0.03,-0.36,1721199690138
-4.11,-0.05,10.74,-0.04,-0.25,0.01,1721199690148
-3.59,-3.00,9.34,-0.07,-0.07,0.38,1721199690158
0.51,-2.09,7.16,-0.03,-0.01,0.32,1721199690168
5.68,-0.23,12.68,-0.04,0.11,0.06,1721199690178
1.23,2.55,11.77,0.03,-0.12,-0.31,1721199690188
-4.60,-2.45,11.92,-0.04,-0.24,-0.16,1721199690198
-2.27,-2.83,11.80,-0.08,-0.03,0.25,1721199690208
1.31,2.77,5.89,0.19,-0.15,0.38,1721199690218
5.52,-2.93,12.14,-0.19,0.42,-0.06,1721199690228
1.59,-2.50,15.53,0.06,-0.35,-0.13,1721199690238
-5.19,-2.67,6.85,-0.18,-0.33,-0.09,1721199690248
-1.92,3.55,15.35,0.13,0.16,0.11,1721199690258
3.09,0.04,5.91,-0.02,-0.04,0.05,1721199690268
0.85,0.37,16.64,-0.03,-0.05,0.05,1721199690278
-0.54,-3.87,7.35,-0.00,-0.05,-0.31,1721199690288
-4.52,3.62,8.57,0.04,-0.00,-0.17,1721199690298
-0.96,0.85,11.28,-0.03,0.09,0.13,1721199690308
2.99,0.72,16.35,0.13,-0.07,0.35,1721199690318
4.86,6.24,10.26,0.27,0.09,-0.18,1721199690328
2.41,-7.65,1.03,-0.15,-0.13,-0.43,1721199690338
-6.78,7.89,19.98,0.14,-0.14,-0.36,1721199690348
-3.47,-2.61,2.21,0.02,0.04,-0.05,1721199690358
-3.08,0.00,10.15,0.02,-0.07,0.27,1721199690368
3.79,10.57,9.16,0.31,0.24,0.08,1721199690378
7.02,-2.11,10.48,-0.03,0.14,-0.30,1721199690388
-1.16,-2.27,16.40,0.03,-0.18,-0.46,1721199690398
-5.44,3.12,11.64,0.22,0.04,-0.32,1721199690408
-1.87,2.54,11.88,0.03,0.23,0.12,1721199690418
1.19,7.68,8.93,0.29,-0.15,0.19,1721199690428
3.07,-7.47,2.20,-0.34,0.07,-0.19,1721199690438
-1.26,0.11,19.38,-0.01,-0.09,-0.32,1721199690448
-2.63,2.35,2.83,0.08,0.14,-0.40,1721199690458
-3.12,1.29,10.06,-0.02,0.03,0.05,1721199690468
0.88,3.07,9.71,0.01,0.07,0.22,1721199690478
2.72,2.35,13.89,0.02,0.12,-0.09,1721199690488
1.35,-2.05,7.92,-0.12,-0.03,-0.42,1721199690498
-4.06,3.57,5.00,0.10,-0.08,-0.43,1721199690508
-1.35,-1.67,13.45,-0.19,0.42,-0.16,1721199690518
0.03,2.60,18.39,0.17,-0.13,0.12,1721199690528
1.06,-2.66,-1.29,-0.05,-0.28,0.07,1721199690538
0.70,-1.43,18.09,-0.17,0.38,-0.16,1721199690548
0.35,-4.65,8.93,-0.05,0.01,-0.54,1721199690558
-5.91,2.50,8.82,0.04,-0.30,-0.08,1721199690568
-0.52,-0.72,1.14,-0.00,0.30,0.26,1721199690578
1.86,0.71,11.15,-0.04,0.02,0.11,1721199690588
4.29,-3.93,13.20,-0.15,0.15,-0.30,1721199690598
-1.08,1.28,16.12,-0.09,-0.05,-0.47,1721199690608
-5.87,4.21,8.57,0.01,-0.07,-0.22,1721199690618
-2.11,-5.10,9.29,-0.11,0.12,0.19,1721199690628
-0.87,-0.50,12.01,-0.02,0.08,0.13,1721199690638
1.88,2.85,7.69,0.06,-0.04,0.10,1721199690648
4.42,3.71,16.54,-0.08,0.35,-0.32,1721199690658
0.08,-0.39,11.88,-0.05,-0.28,-0.32,1721199690668
-8.34,4.10,6.25,0.08,-0.11,-0.16,1721199690678
-1.27,-2.57,11.83,-0.05,0.38,0.11,1721199690688
1.41,4.17,13.95,0.17,-0.06,0.19,1721199690698
1.17,3.91,10.15,0.00,0.08,-0.20,1721199690708
-0.12,2.99,13.04,0.23,-0.04,-0.26,1721199690718
0.61,3.31,9.06,0.16,0.15,-0.00,1721199690728
1.76,3.28,11.38,0.17,0.02,-0.04,1721199690738
-0.01,-2.53,7.45,0.06,-0.18,-0.19,1721199690748
-2.62,0.72,10.35,0.19,-0.09,-0.28,1721199690758
-1.35,-2.16,6.81,0.08,0.08,0.03,1721199690768
-2.45,8.87,14.38,0.28,0.06,-0.04,1721199690778
0.43,-3.75,6.42,0.00,0.02,-0.08,1721199690788
-1.25,0.98,19.21,0.13,0.08,0.00,1721199690798
1.12,3.26,8.37,0.24,0.02,-0.00,1721199690808
0.79,0.14,7.87,-0.01,-0.03,0.08,1721199690818
0.79,-2.37,11.76,-0.03,-0.07,-0.09,1721199690828
-1.78,7.74,6.55,0.30,-0.09,-0.28,1721199690838
1.29,0.34,0.68,-0.23,0.19,-0.16,1721199690848
-3.74,-2.56,16.73,-0.21,-0.15,-0.28,1721199690858
-4.41,-1.11,8.08,0.14,-0.05,-0.05,1721199690868
-0.62,-2.28,6.45,-0.24,0.17,0.10,1721199690878
-0.24,2.95,13.95,0.05,-0.12,0.28,1721199690888
3.81,1.68,15.53,-0.16,0.31,-0.15,1721199690898
1.27,0.75,8.44,-0.01,-0.36,-0.35,1721199690908
-5.54,6.97,3.68,-0.01,0.07,-0.24,1721199690918
1.55,-9.93,11.59,-0.38,0.42,0.04,1721199690928
-0.95,4.17,14.07,0.12,-0.36,0.30,1721199690938
2.60,2.20,0.03,-0.19,0.20,-0.07,1721199690948
1.47,-5.04,11.97,-0.23,-0.15,-0.28,1721199690958
1.57,2.91,21.93,0.07,0.23,-0.06,1721199690968
-0.53,-1.81,1.77,-0.10,-0.15,-0.10,1721199690978
-4.54,-0.72,9.17,-0.26,0.02,-0.10,1721199690988
2.66,1.64,18.31,0.10,0.49,-0.14,1721199690998
2.92,-3.95,6.47,-0.07,-0.06,0.02,1721199691008
-4.73,8.99,11.81,0.12,-0.18,-0.21,1721199691018
3.03,-5.96,6.46,-0.16,0.41,-0.26,1721199691028
-2.41,1.13,19.21,0.13,-0.24,0.06,1721199691038
-1.45,1.81,4.83,0.17,0.37,-0.20,1721199691048
-0.90,1.24,9.91,0.15,0.07,-0.08,1721199691058
-0.93,-0.11,9.96,0.04,0.06,0.07,1721199691068
-0.90,2.46,12.03,0.17,0.07,-0.21,1721199691078
2.03,-0.61,7.25,0.14,0.20,-0.17,1721199691088
-0.26,2.04,11.71,0.16,-0.02,-0.02,1721199691098
-1.77,-0.33,9.49,0.11,0.16,0.02,1721199691108
-1.39,2.17,16.33,0.20,0.17,-0.09,1721199691118
1.38,-1.90,5.78,0.11,0.00,0.05,1721199691128
-2.16,5.97,7.94,0.00,0.18,-0.22,1721199691138
-2.09,-2.68,14.18,-0.03,0.16,-0.20,1721199691148
-1.04,-1.24,9.97,0.25,0.08,0.14,1721199691158
1.74,3.21,3.52,0.16,0.20,0.24,1721199691168
4.97,-2.02,8.45,-0.22,0.17,0.08,1721199691178
1.00,1.79,22.44,0.08,0.00,-0.42,1721199691188
-2.09,4.57,0.02,0.33,-0.05,-0.13,1721199691198
0.64,1.26,14.81,-0.25,0.58,-0.01,1721199691208
0.50,1.47,9.61,0.28,-0.05,0.14,1721199691218
0.58,-3.34,0.80,-0.28,0.07,-0.06,1721199691228
0.11,7.01,17.84,0.07,0.30,-0.11,1721199691238
0.84,-1.62,3.84,-0.08,0.13,-0.38,1721199691248
-4.98,-0.43,13.90,-0.15,-0.05,-0.09,1721199691258
-3.24,2.38,10.89,-0.09,0.21,0.25,1721199691268
1.44,1.60,9.56,-0.13,0.22,0.12,1721199691278
3.27,-0.69,4.47,-0.02,0.06,-0.13,1721199691288
1.71,-3.10,12.60,-0.28,0.33,-0.31,1721199691298
-2.29,4.88,19.88,0.11,-0.01,-0.34,1721199691308
-2.77,2.14,8.69,0.16,0.06,0.05,1721199691318
-1.16,-1.41,9.79,-0.02,0.17,0.11,1721199691328
0.35,5.58,7.67,0.09,-0.07,0.13,1721199691338
2.65,-0.87,10.07,-0.15,0.25,-0.15,1721199691348
-1.18,-8.85,9.28,-0.17,-0.08,-0.38,1721199691358
-4.41,3.49,12.28,0.23,0.17,-0.20,1721199691368
0.50,-2.08,3.94,-0.10,0.17,0.31,1721199691378
-1.50,3.17,15.34,0.06,-0.07,0.17,1721199691388
3.79,2.61,7.52,0.11,0.24,-0.11,1721199691398
2.96,-5.72,6.74,-0.16,-0.10,-0.32,1721199691408
-3.99,2.03,17.59,0.08,-0.01,-0.18,1721199691418
-2.44,-2.51,3.56,-0.06,0.20,-0.23,1721199691428
-5.24,1.82,10.16,0.04,-0.09,0.20,1721199691438
2.04,0.28,11.52,-0.10,0.50,0.32,1721199691448
2.34,0.46,12.08,0.01,-0.26,0.19,1721199691458
1.43,3.86,7.97,0.01,0.11,-0.22,1721199691468
0.99,-0.26,11.66,-0.20,0.13,-0.22,1721199691478
-5.93,-0.14,16.26,0.05,-0.27,-0.08,1721199691488
-2.71,0.06,1.51,0.09,0.00,0.27,1721199691498
0.84,-2.52,10.85,-0.26,0.15,0.20,1721199691508
0.49,4.28,13.46,0.15,-0.14,-0.09,1721199691518
0.98,-4.03,8.27,-0.09,0.09,-0.22,1721199691528
-3.11,1.15,10.51,0.08,-0.03,-0.04,1721199691538
-3.08,2.33,5.11,0.01,0.05,0.15,1721199691548
0.87,2.57,11.44,0.02,-0.04,0.27,1721199691558
4.50,1.72,14.84,0.02,0.28,-0.07,1721199691568
2.22,4.10,14.12,0.14,0.05,-0.27,1721199691578
-2.81,2.94,7.17,0.07,-0.27,-0.11,1721199691588
-3.92,0.18,11.47,-0.02,-0.12,0.07,1721199691598
-1.33,-0.72,11.62,0.12,-0.06,0.14,1721199691608
0.69,5.79,9.17,0.22,-0.00,0.02,1721199691618
-0.43,-1.78,4.72,-0.10,-0.05,-0.24,1721199691628
-5.57,0.77,10.29,0.10,-0.06,-0.16,1721199691638
-1.50,4.90,12.15,0.20,0.29,0.11,1721199691648
4.17,0.95,13.06,0.01,-0.04,0.42,1721199691658
1.10,2.75,11.51,-0.02,-0.36,0.04,1721199691668
-0.12,2.62,11.64,0.22,0.03,-0.18,1721199691678
0.99,1.21,6.79,-0.01,0.07,-0.06,1721199691688
0.41,4.32,14.47,0.14,0.20,0.12,1721199691703
-5.02,0.34,6.83,0.04,0.03,0.15,1721199691707
2.84,-5.46,14.30,-0.08,0.26,0.23,1721199691717
2.83,2.71,15.29,0.11,-0.17,-0.10,1721199691727
-1.24,2.53,8.71,0.01,-0.15,-0.12,1721199691737
-2.89,-2.84,10.78,-0.05,-0.05,0.03,1721199691747
-1.36,-3.18,12.05,0.01,-0.09,0.23,1721199691757
0.22,1.17,9.00,0.01,-0.09,0.27,1721199691767
2.88,5.02,8.14,0.00,0.02,0.02,1721199691777
2.25,-4.31,8.10,-0.20,-0.19,-0.19,1721199691787
-3.67,-1.85,9.64,-0.10,-0.19,-0.10,1721199691797
-3.67,1.22,10.13,-0.11,0.18,-0.00,1721199691807
1.45,-2.54,8.53,-0.12,-0.18,0.29,1721199691817
3.97,2.18,11.21,-0.04,-0.03,0.22,1721199691827
3.88,0.29,7.82,-0.20,-0.10,-0.17,1721199691837
-1.21,3.94,10.57,0.03,-0.17,-0.29,1721199691847
-2.36,-1.67,10.80,-0.20,0.12,-0.27,1721199691857
-1.33,-4.92,9.87,0.02,-0.17,0.16,1721199691867
-1.19,1.41,8.97,-0.18,0.10,-0.02,1721199691877
0.84,-1.58,14.61,-0.03,0.06,-0.09,1721199691887
0.93,3.61,12.28,0.07,0.03,-0.11,1721199691897
0.79,4.92,10.43,0.24,0.03,-0.01,1721199691907
1.07,1.26,12.60,-0.01,0.20,-0.28,1721199691917
-1.87,0.06,13.90,0.17,-0.26,-0.18,1721199691927
-3.27,-0.54,4.78,0.07,0.07,-0.04,1721199691937
-1.86,0.59,7.38,0.13,-0.04,0.09,1721199691947
3.55,1.64,14.68,0.03,0.23,0.03,1721199691957
1.58,4.95,13.00,0.22,-0.19,-0.11,1721199691967
-0.99,2.14,8.05,0.10,0.00,-0.18,1721199691977
-1.69,-1.42,8.62,0.04,0.10,-0.30,1721199691987
-1.13,4.94,10.52,0.29,0.08,-0.04,1721199691997
-1.28,0.91,3.83,-0.03,-0.00,0.07,1721199692007
0.17,4.00,18.26,0.21,0.10,0.08,1721199692017
6.00,-1.08,7.32,0.04,0.19,-0.28,1721199692027
-0.40,1.53,14.56,0.00,-0.31,-0.31,1721199692037
-5.29,4.88,7.63,0.12,-0.05,-0.24,1721199692047
-2.66,-1.69,5.84,-0.12,0.22,0.01,1721199692057
-0.83,-0.13,9.60,0.03,0.02,0.02,1721199692067
0.77,1.51,12.50,-0.13,0.19,-0.14,1721199692077
-0.58,0.68,12.83,0.04,-0.02,-0.19,1721199692087
-0.33,2.87,8.32,-0.02,0.19,-0.13,1721199692097
1.58,-3.39,9.84,-0.17,0.06,-0.01,1721199692107
1.32,3.32,11.60,0.17,-0.10,-0.11,1721199692117
3.07,-2.76,7.05,-0.22,0.36,-0.33,1721199692127
-3.24,4.34,14.84,0.01,-0.11,-0.48,1721199692137
-2.13,-3.87,5.76,-0.11,0.04,-0.26,1721199692147
-1.53,-1.97,10.20,-0.11,0.16,0.03,1721199692157
1.06,-1.60,2.92,-0.12,0.09,-0.05,1721199692167
1.27,3.60,14.84,-0.08,0.24,-0.27,1721199692177
1.75,-1.83,14.32,-0.14,0.25,-0.61,1721199692187
-5.73,1.23,7.56,-0.05,-0.19,-0.24,1721199692197
-6.14,1.41,9.17,-0.24,0.43,-0.10,1721199692207
1.21,-0.81,14.68,-0.04,0.13,0.17,1721199692217
2.16,2.04,12.22,-0.01,0.12,0.16,1721199692227
1.20,0.53,10.68,-0.03,0.02,-0.21,1721199692237
-1.34,-2.10,6.21,-0.07,-0.01,-0.31,1721199692247
-2.40,5.64,12.54,0.03,0.19,-0.17,1721199692257
-1.33,-2.56,11.11,-0.03,0.04,-0.15,1721199692267
-1.96,2.45,9.21,0.15,-0.01,-0.00,1721199692277
0.02,0.09,7.71,-0.05,0.24,-0.06,1721199692287
-1.63,2.21,13.73,0.19,-0.06,-0.07,1721199692297
1.92,-3.03,6.22,-0.04,0.31,0.05,1721199692307
0.45,-2.53,16.25,0.04,-0.15,-0.02,1721199692317
-1.86,5.83,13.07,0.18,0.15,-0.24,1721199692327
-0.65,6.20,8.20,0.23,0.00,-0.09,1721199692337
-1.92,-7.15,0.24,-0.06,-0.17,-0.07,1721199692347
-2.38,-0.30,17.01,0.05,0.47,-0.16,1721199692357
1.58,-0.59,7.35,0.23,0.02,-0.03,1721199692367
-0.53,-1.72,10.42,-0.12,0.16,-0.06,1721199692377
-0.33,4.68,16.08,0.21,0.04,-0.12,1721199692387
-0.68,-1.78,7.13,-0.05,-0.01,-0.11,1721199692397
-3.38,4.28,17.63,0.23,-0.03,-0.13,1721199692407
1.06,1.12,-0.25,0.14,0.03,0.10,1721199692417
-3.94,1.61,12.98,-0.07,-0.14,-0.03,1721199692427
-0.60,0.74,10.31,0.19,0.07,0.01,1721199692437
1.49,0.71,8.42,0.06,0.14,0.05,1721199692447
0.48,-4.51,6.63,-0.21,-0.06,-0.01,1721199692457
-2.94,4.03,13.72,0.07,-0.14,-0.04,1721199692467
1.08,5.07,8.06,0.20,0.26,0.05,1721199692477
2.63,3.31,8.77,0.05,0.04,-0.16,1721199692487
-1.62,-0.62,7.88,-0.01,-0.19,-0.11,1721199692497
-4.93,-0.01,7.11,-0.14,0.11,-0.03,1721199692507
-2.78,4.76,15.76,0.10,0.29,0.15,1721199692517
2.66,-9.00,5.70,-0.20,-0.02,0.17,1721199692527
-3.01,7.87,17.77,0.07,-0.21,0.00,1721199692537
2.34,-2.45,-1.18,-0.10,0.10,-0.06,1721199692547
-1.98,5.72,23.64,-0.09,0.20,-0.18,1721199692557
-0.92,0.05,1.33,0.09,-0.10,-0.22,1721199692567
-5.88,-5.77,11.87,-0.39,-0.11,-0.04,1721199692577
-0.73,1.31,12.19,0.30,0.12,0.31,1721199692587
3.68,3.36,20.61,-0.18,0.44,0.08,1721199692597
-1.12,-4.23,4.56,-0.07,-0.72,0.04,1721199692607
-3.02,-2.02,10.84,-0.01,0.39,-0.05,1721199692617
5.75,-2.14,4.91,0.00,0.15,0.01,1721199692627
-2.87,2.26,10.58,-0.09,-0.60,0.14,1721199692637
-0.47,-1.89,11.86,-0.01,0.16,0.24,1721199692647
4.38,0.90,9.06,0.10,0.13,0.18,1721199692657
3.85,4.52,8.81,-0.08,0.25,-0.27,1721199692667
-1.15,0.64,13.67,-0.07,-0.16,-0.38,1721199692677
-3.50,-4.37,11.15,0.03,-0.18,0.24,1721199692687
-0.22,8.70,11.66,0.21,0.31,0.29,1721199692697
4.15,-5.35,2.41,-0.12,-0.07,-0.01,1721199692707
-3.54,5.37,16.62,0.08,-0.24,-0.37,1721199692717
-1.45,-4.57,3.60,0.07,0.08,-0.13,1721199692727
-3.70,-2.42,8.56,-0.01,-0.03,0.33,1721199692737
1.57,4.05,14.30,0.12,0.28,0.16,1721199692747
4.73,0.09,7.05,0.12,-0.10,-0.09,1721199692757
-0.26,7.81,15.60,0.07,-0.05,-0.16,1721199692767
-0.28,-1.67,8.49,0.08,0.07,-0.33,1721199692777
-3.79,-9.13,6.53,-0.05,-0.04,-0.10,1721199692787
-3.98,1.91,13.49,0.02,0.01,0.21,1721199692797
1.34,7.72,9.02,0.12,0.06,0.24,1721199692807
2.83,-1.47,8.01,-0.06,-0.01,-0.12,1721199692817
1.03,-1.01,7.20,0.08,0.07,-0.17,1721199692827
-0.64,2.29,15.92,-0.06,0.20,-0.16,1721199692837
-1.56,4.00,13.87,0.31,0.02,-0.05,1721199692847
-1.90,2.78,4.65,0.11,0.02,0.13,1721199692857
0.48,-5.05,9.31,-0.17,0.06,0.16,1721199692867
0.31,1.30,13.41,0.12,-0.10,0.04,1721199692877
1.52,6.33,6.24,0.07,0.12,-0.02,1721199692887
1.32,-0.62,11.96,-0.15,-0.02,-0.22,1721199692897
-2.52,-5.49,7.10,-0.04,-0.19,-0.10,1721199692907
-4.41,8.32,12.19,0.09,0.29,0.01,1721199692917
2.91,-4.70,11.39,-0.22,0.22,0.12,1721199692927
1.54,2.18,15.74,0.09,-0.16,0.09,1721199692937
1.28,-0.82,13.67,-0.20,0.12,-0.26,1721199692947
-2.94,5.12,8.14,0.21,-0.29,-0.07,1721199692957
-0.26,3.89,11.19,-0.11,0.40,0.04,1721199692967
2.88,-6.05,10.48,-0.18,-0.17,0.05,1721199692977
-1.74,-0.51,13.13,-0.03,-0.22,-0.04,1721199692987
0.48,3.20,2.83,0.19,0.32,-0.13,1721199692997
1.63,-1.65,11.85,-0.18,0.13,-0.10,1721199693007
-2.83,-1.17,16.80,-0.09,-0.34,-0.03,1721199693017
-2.22,9.26,5.92,0.25,-0.06,0.12,1721199693027
4.89,-6.34,7.65,-0.29,0.31,-0.09,1721199693037
-1.11,-2.65,19.29,-0.06,-0.41,-0.21,1721199693047
-4.78,2.19,0.73,0.08,-0.02,-0.20,1721199693057
-1.83,5.35,12.97,0.06,0.34,-0.20,1721199693067
1.14,-3.91,7.49,0.00,-0.10,0.17,1721199693077
-0.69,-6.39,12.52,-0.18,0.06,0.15,1721199693087
2.63,3.41,19.03,0.08,0.16,-0.21,1721199693097
0.39,9.92,8.91,0.21,-0.12,-0.41,1721199693107
-1.87,-2.38,10.24,-0.16,-0.16,-0.20,1721199693117
-5.05,-4.26,6.52,0.08,-0.38,0.19,1721199693127
1.42,7.47,5.70,0.18,0.39,0.17,1721199693137
6.84,-0.34,15.27,-0.14,0.12,-0.17,1721199693147
-3.05,-2.35,3.89,0.01,-0.74,-0.44,1721199693157
-3.80,0.41,15.02,-0.03,0.64,-0.20,1721199693167
-0.38,6.29,13.77,0.31,-0.13,0.08,1721199693177
-2.50,3.91,4.94,-0.01,-0.27,0.21,1721199693187
3.91,-6.46,13.87,-0.12,0.20,0.04,1721199693197
1.98,-1.19,9.91,0.10,-0.26,-0.36,1721199693207
-4.99,5.16,12.46,0.10,-0.04,-0.54,1721199693217
-5.04,-1.78,4.57,0.13,-0.09,0.14,1721199693227
-2.18,2.06,15.78,0.05,0.23,0.34,1721199693237
7.65,3.07,12.35,0.37,-0.01,0.31,1721199693247
5.18,3.03,2.99,0.02,-0.11,-0.34,1721199693257
-0.91,3.08,13.65,0.08,-0.04,-0.69,1721199693267
-4.16,1.95,5.83,0.20,-0.14,-0.15,1721199693277
-0.88,-1.86,9.68,-0.02,0.06,0.32,1721199693287
1.52,-2.21,14.80,-0.01,-0.02,-0.04,1721199693297
-0.95,4.67,7.00,0.14,-0.35,-0.24,1721199693307
-3.19,0.51,5.42,-0.11,0.15,-0.31,1721199693317
-4.39,3.65,20.94,0.13,0.15,-0.02,1721199693327
-0.17,-3.54,5.72,-0.05,-0.13,0.32,1721199693337
-1.28,1.92,1.61,-0.11,-0.31,0.18,1721199693347
4.62,2.57,16.02,-0.09,0.49,-0.15,1721199693357
6.72,-1.01,25.44,-0.00,0.02,-0.31,1721199693367
-2.32,2.55,1.96,0.22,-0.80,0.06,1721199693377
-4.20,10.32,6.81,-0.07,0.58,-0.16,1721199693387
0.31,-2.81,7.73,-0.07,-0.09,-0.26,1721199693397
-2.35,-5.56,13.82,-0.25,-0.15,-0.03,1721199693407
-2.11,-2.30,6.47,0.01,-0.08,0.08,1721199693417
0.69,1.10,10.00,-0.09,0.08,0.08,1721199693427
2.00,2.72,10.92,-0.01,-0.06,-0.08,1721199693437
3.53,0.35,13.48,-0.00,0.08,-0.16,1721199693447
0.27,-3.43,5.91,-0.10,-0.11,-0.46,1721199693457
-6.53,-1.14,10.88,-0.19,0.01,-0.42,1721199693467
-3.88,0.90,12.83,0.18,0.09,0.14,1721199693477
4.31,-2.98,8.24,-0.15,0.30,0.32,1721199693487
3.49,2.58,14.54,0.08,-0.25,-0.19,1721199693497
3.54,1.77,9.65,0.00,0.21,-0.59,1721199693507
-1.34,-2.82,8.61,0.01,-0.06,-0.58,1721199693517
-7.10,1.12,15.53,0.02,0.19,-0.15,1721199693527
-3.36,0.73,4.17,0.10,0.16,0.23,1721199693537
1.02,4.58,4.52,0.05,0.13,0.04,1721199693547
5.43,-1.62,15.95,-0.15,0.30,-0.47,1721199693557
-1.98,-2.24,14.53,0.10,-0.13,-0.63,1721199693567
-6.24,1.71,7.62,0.13,0.06,-0.04,1721199693577
-0.84,-0.97,8.75,-0.05,0.26,0.36,1721199693587
2.87,2.70,10.76,0.26,0.03,0.04,1721199693597
3.19,-0.87,6.52,-0.08,0.19,-0.20,1721199693607
-1.33,2.49,15.33,0.11,-0.00,-0.25,1721199693617
-1.87,0.29,6.51,0.14,0.15,-0.08,1721199693627
-0.36,1.84,8.69,0.10,0.23,0.02,1721199693637
1.10,2.94,16.47,0.03,0.17,-0.04,1721199693647
-3.44,1.97,7.77,0.19,-0.46,0.19,1721199694177
1.57,-1.87,4.47,-0.01,-0.44,0.16,1721199694181
-3.33,4.06,13.55,-0.12,-0.03,0.03,1721199694191
0.90,-0.84,7.06,0.03,-0.05,0.07,1721199694201
-0.43,-7.91,6.90,-0.36,-0.20,0.07,1721199694211
-3.66,1.71,19.69,0.09,-0.09,0.07,1721199694221
0.47,-0.76,3.88,0.00,-0.03,0.25,1721199694231
-1.19,4.46,9.75,0.01,-0.25,0.08,1721199694241
2.82,-3.70,9.93,-0.17,0.15,0.01,1721199694251
0.56,-0.99,12.59,-0.09,-0.32,0.02,1721199694261
-2.47,4.56,16.80,0.11,-0.11,0.21,1721199694271
0.63,-7.73,-1.08,-0.22,-0.31,0.16,1721199694281
-4.67,-3.10,14.60,-0.29,-0.25,0.07,1721199694291
-3.22,4.20,12.95,0.08,-0.10,0.12,1721199694301
3.91,1.86,9.77,-0.01,-0.01,-0.02,1721199694311
3.07,-2.43,6.84,0.00,-0.35,0.11,1721199694321
-3.04,-0.21,16.26,-0.17,-0.13,-0.15,1721199694331
-1.73,3.06,8.67,0.15,-0.06,0.01,1721199694341
0.99,-0.40,12.70,-0.07,-0.12,0.18,1721199694351
3.96,-0.99,8.32,0.07,-0.19,0.43,1721199694361
4.17,8.28,13.91,0.13,0.12,-0.13,1721199694371
4.42,-10.48,7.64,-0.33,-0.17,-0.42,1721199694381
-7.81,11.46,19.42,0.25,-0.48,-0.24,1721199694391
0.13,-0.87,2.85,0.09,0.32,0.12,1721199694401
2.38,-1.90,11.36,0.08,-0.11,0.26,1721199694411
1.59,-1.99,6.23,-0.10,-0.17,-0.09,1721199694421
0.65,7.05,14.78,0.22,0.16,-0.44,1721199694431
1.13,-1.17,10.27,0.02,0.07,-0.40,1721199694441
-3.16,-5.81,13.26,-0.02,-0.31,-0.10,1721199694451
-0.89,1.47,3.06,0.17,-0.02,0.11,1721199694461
4.22,-0.46,7.33,-0.19,0.36,-0.18,1721199694471
2.32,5.67,23.66,0.26,-0.07,-0.47,1721199694481
-1.00,0.86,-0.39,0.28,-0.17,-0.40,1721199694491
-3.16,-3.28,5.33,-0.24,0.09,-0.04,1721199694501
-0.23,0.58,21.01,0.02,0.27,-0.06,1721199694511
2.47,7.07,9.99,0.30,-0.08,-0.23,1721199694521
0.38,2.05,-1.41,0.00,-0.07,-0.21,1721199694531
-2.05,1.62,13.24,-0.06,0.28,-0.31,1721199694541
-0.79,2.54,12.33,0.08,0.23,-0.36,1721199694551
-1.15,-1.47,10.39,-0.23,-0.04,-0.12,1721199694561
-1.57,4.50,17.82,0.12,-0.06,0.03,1721199694571
2.72,-0.31,7.56,-0.07,0.25,-0.26,1721199694581
-0.45,0.37,10.74,-0.05,-0.18,-0.25,1721199694591
-2.47,4.38,6.08,-0.00,-0.06,-0.31,1721199694601
0.72,-1.90,11.80,-0.08,0.37,-0.23,1721199694611
-0.62,-2.04,7.81,-0.04,-0.06,-0.22,1721199694621
-2.81,4.95,11.34,0.01,0.04,-0.22,1721199694631
2.12,0.33,12.34,-0.05,0.23,-0.14,1721199694641
-0.01,2.14,11.36,0.04,-0.11,-0.24,1721199694651
-1.47,-3.55,5.76,-0.15,-0.08,-0.22,1721199694661
0.74,-3.57,15.17,-0.05,0.24,-0.29,1721199694671
0.26,-0.48,9.63,0.04,0.02,-0.30,1721199694681
-3.60,1.28,1.56,-0.05,-0.15,-0.31,1721199694691
-3.67,4.07,10.37,-0.02,0.35,-0.37,1721199694701
-0.61,-2.57,10.71,-0.12,0.12,-0.14,1721199694711
0.78,-0.29,13.75,-0.09,0.14,0.04,1721199694721
3.30,5.00,9.58,0.11,0.10,-0.26,1721199694731
0.81,-3.93,11.21,-0.27,0.06,-0.42,1721199694741
-4.53,4.04,18.67,0.18,-0.11,-0.27,1721199694751
-2.62,-4.20,1.34,0.03,0.01,-0.01,1721199694761
-2.51,-5.82,10.35,-0.17,0.12,0.08,1721199694771
1.41,4.46,16.00,0.06,0.12,-0.11,1721199694781
1.24,6.99,3.86,0.25,-0.01,-0.18,1721199694791
-0.82,-5.46,7.59,-0.12,0.25,-0.29,1721199694801
-0.02,-5.82,16.88,-0.05,0.16,-0.22,1721199694811
-0.00,4.69,9.17,0.21,-0.06,-0.05,1721199694821
-0.44,5.46,13.03,-0.04,0.32,-0.09,1721199694831
-0.30,-1.47,11.86,0.10,-0.15,-0.27,1721199694841
-3.71,-1.10,1.03,0.15,-0.15,-0.16,1721199694851
-0.42,0.05,11.77,-0.13,0.58,-0.23,1721199694861
1.03,4.70,13.93,0.15,-0.02,-0.29,1721199694871
-1.31,-1.78,8.86,-0.12,0.22,-0.34,1721199694881
-5.40,-0.91,10.92,0.06,-0.02,-0.24,1721199694891
-2.57,-1.09,9.20,0.10,0.10,0.17,1721199694901
0.45,6.45,10.21,0.09,0.09,0.08,1721199694911
1.73,3.26,10.36,0.06,0.01,-0.29,1721199694921
0.99,-0.18,9.34,0.16,0.10,-0.33,1721199694931
-1.55,-2.48,5.73,0.04,-0.01,-0.25,1721199694941
-3.65,5.85,16.63,0.05,0.18,0.01,1721199694951
2.18,1.58,12.12,0.15,0.01,0.10,1721199694961
0.34,1.24,5.33,0.10,-0.13,-0.13,1721199694971
-0.86,4.00,8.58,0.16,0.13,-0.25,1721199694981
-1.18,-5.54,1.79,-0.14,-0.06,-0.09,1721199694991
-5.38,4.71,22.81,-0.05,0.24,-0.07,1721199695001
-0.08,6.81,11.95,0.38,0.19,-0.03,1721199695011
0.66,-5.52,6.66,-0.21,-0.05,0.00,1721199695021
-2.66,4.59,11.82,0.15,-0.05,0.01,1721199695031
1.25,-2.92,5.28,-0.26,0.21,0.01,1721199695041
-2.35,3.98,18.55,0.08,-0.16,-0.02,1721199695051
-0.32,-0.87,4.89,0.05,0.05,0.10,1721199695061
-0.09,-2.02,7.22,-0.09,-0.06,0.20,1721199695071
0.14,-0.88,12.67,-0.16,0.13,-0.04,1721199695081
0.88,-1.37,17.30,-0.10,0.20,-0.21,1721199695091
-2.35,-1.99,6.35,0.01,-0.23,-0.04,1721199695101
-2.45,2.86,10.70,0.07,0.04,0.19,1721199695111
3.39,-3.64,8.34,-0.17,0.14,0.16,1721199695121
1.99,2.80,14.64,-0.09,-0.04,0.14,1721199695131
1.34,7.26,11.09,0.09,0.21,-0.32,1721199695141
-0.19,-7.08,1.30,-0.21,-0.10,-0.11,1721199695151
-5.15,2.04,17.26,-0.04,-0.11,0.01,1721199695161
2.17,-4.50,0.75,-0.06,-0.00,0.15,1721199695171
0.71,3.64,16.28,-0.08,0.14,-0.14,1721199695181
3.22,-1.78,12.24,0.10,0.10,-0.10,1721199695191
0.24,-0.61,9.90,0.03,0.06,-0.02,1721199695201
-1.72,3.37,9.59,0.04,0.16,-0.05,1721199695211
-0.13,5.22,8.85,0.02,0.18,-0.15,1721199695221
-0.12,-3.55,10.19,0.02,-0.19,-0.09,1721199695231
0.73,-1.85,13.76,-0.00,0.26,0.06,1721199695241
-0.13,6.09,9.68,0.24,0.10,-0.02,1721199695251
-0.01,-2.80,8.14,-0.10,0.26,-0.13,1721199695261
-2.30,-0.36,10.74,0.18,-0.04,-0.14,1721199695271
-0.38,3.43,10.17,0.11,0.29,0.07,1721199695281
2.89,3.34,13.37,0.21,0.14,0.21,1721199695291
2.32,0.91,12.62,-0.00,0.10,-0.23,1721199695301
-0.27,-3.79,8.73,0.20,-0.09,-0.30,1721199695311
-1.42,-4.78,9.67,-0.06,0.31,-0.17,1721199695321
-2.58,6.00,11.71,0.34,0.01,0.05,1721199695331
0.90,5.31,7.16,0.16,0.33,0.09,1721199695341
2.47,-0.30,6.59,0.12,0.07,-0.03,1721199695351
0.45,-0.30,12.84,-0.01,0.14,-0.41,1721199695361
-2.87,4.82,13.75,0.28,0.09,-0.20,1721199695371
-2.58,-1.13,6.88,-0.13,0.21,0.18,1721199695381
-2.97,-0.46,13.24,0.04,-0.01,0.16,1721199695391
0.61,0.08,2.75,-0.02,0.12,0.10,1721199695401
2.85,6.47,13.72,-0.04,0.32,-0.08,1721199695411
2.83,0.32,8.82,0.02,0.14,-0.29,1721199695421
-4.24,0.80,12.09,0.02,0.02,-0.20,1721199695431
-3.30,2.40,9.64,-0.01,0.19,0.15,1721199695441
2.30,-0.12,7.61,-0.05,0.06,0.25,1721199695451
2.68,1.86,10.65,-0.08,0.03,0.01,1721199695461
0.93,0.52,12.02,-0.11,0.16,-0.17,1721199695471
-3.08,-4.63,8.55,-0.15,-0.18,-0.29,1721199695481
-4.58,2.94,11.65,0.09,0.11,-0.09,1721199695491
3.34,-1.15,10.37,-0.05,0.42,0.25,1721199695501
1.74,-1.25,11.80,-0.10,-0.12,0.04,1721199695511
-2.57,6.14,16.15,-0.01,0.10,-0.36,1721199695521
-1.83,-2.91,-0.77,0.08,-0.10,-0.17,1721199695531
-3.66,-3.17,10.17,-0.34,0.41,-0.02,1721199695541
-0.83,2.54,15.97,0.05,0.14,0.04,1721199695551
0.60,2.49,5.88,-0.08,0.02,0.06,1721199695561
1.55,-5.97,9.15,-0.27,0.03,-0.15,1721199695571
-1.19,3.81,13.89,0.13,0.15,-0.18,1721199695581
-0.11,1.80,9.68,-0.11,0.20,-0.06,1721199695591
-2.08,-2.42,11.35,-0.08,-0.20,-0.01,1721199695601
-3.11,1.24,10.49,-0.02,0.21,-0.00,1721199695611
1.03,-3.67,9.46,-0.14,0.11,-0.06,1721199695621
-0.55,2.31,11.31,-0.08,-0.19,-0.04,1721199695631
-0.51,-0.60,6.85,0.06,0.03,-0.13,1721199695641
-0.27,7.33,16.04,0.12,0.45,-0.07,1721199695651
-0.37,-4.98,5.66,-0.03,-0.24,-0.01,1721199695661
-4.69,-1.96,8.71,-0.08,-0.08,0.01,1721199695671
2.34,6.30,14.79,0.12,0.50,-0.11,1721199695681
4.16,-0.80,11.85,-0.04,-0.06,-0.04,1721199695691
-5.04,2.10,9.12,0.20,-0.35,-0.05,1721199695701
0.87,-3.77,7.36,-0.00,0.48,0.01,1721199695711
0.40,6.02,11.35,0.09,-0.33,0.06,1721199695721
-2.17,3.02,10.97,0.03,0.11,-0.16,1721199695731
-0.83,1.65,16.37,0.28,0.25,-0.11,1721199695741
0.01,0.37,6.30,0.15,-0.09,-0.06,1721199695751
-2.11,0.58,7.84,0.03,-0.10,0.14,1721199695761
0.79,1.24,11.06,0.12,0.13,0.04,1721199695771
1.47,0.34,14.01,0.13,0.05,-0.07,1721199695781
-1.72,3.16,10.88,0.18,-0.05,-0.15,1721199695791
-1.97,0.72,6.79,0.14,-0.07,0.01,1721199695801
-1.66,2.14,6.22,-0.05,0.00,0.15,1721199695811
1.49,1.37,16.62,0.01,0.14,-0.02,1721199695821
0.45,-0.41,11.35,0.15,0.00,-0.28,1721199695831
-3.75,-0.56,4.04,-0.06,-0.18,-0.11,1721199695841
-4.87,1.05,15.35,-0.05,0.02,0.18,1721199695851
-1.37,5.37,10.40,0.14,0.04,0.21,1721199695861
1.69,-1.66,5.75,-0.11,-0.14,0.16,1721199695871
0.27,-4.28,12.41,-0.19,-0.16,-0.02,1721199695881
-3.28,3.69,12.52,0.08,-0.10,0.00,1721199695891
-1.28,-0.26,6.17,-0.16,-0.00,0.21,1721199695901
-2.64,0.50,7.39,-0.06,-0.42,0.42,1721199695911
0.48,-0.52,6.17,-0.26,0.03,0.27,1721199695921
4.95,-4.47,19.85,-0.16,0.12,0.08,1721199695931
-0.11,0.68,15.12,0.05,-0.36,0.07,1721199695941
-5.18,-2.63,1.49,-0.29,-0.49,0.26,1721199695951
-0.77,1.63,8.10,-0.01,-0.02,0.55,1721199695961
7.56,-0.81,12.52,-0.15,0.17,0.15,1721199695971
5.15,-0.15,20.01,-0.07,-0.59,-0.08,1721199695981
-5.25,-3.51,6.02,-0.25,-0.37,-0.05,1721199695991
-5.04,2.49,12.20,-0.04,-0.04,0.25,1721199696001
4.98,-0.52,8.52,-0.01,0.05,0.35,1721199696011
4.34,6.52,12.62,0.21,-0.29,0.17,1721199696021
3.92,-6.14,5.46,-0.23,-0.04,-0.26,1721199696031
-4.10,1.92,16.19,-0.07,-0.33,-0.32,1721199696041
-1.49,3.35,9.55,-0.04,0.10,-0.03,1721199696051
0.74,-0.48,15.11,-0.04,-0.14,0.20,1721199696061
1.54,-1.41,8.90,0.12,-0.15,0.15,1721199696071
2.41,2.50,6.65,0.02,0.14,-0.03,1721199696081
0.25,6.50,11.70,0.04,-0.04,-0.43,1721199696091
-2.39,-3.50,12.55,-0.09,-0.19,-0.28,1721199696101
-2.74,-0.33,8.92,0.21,-0.30,0.26,1721199696111
5.10,-2.24,10.34,-0.02,0.28,0.26,1721199696121
4.70,2.09,11.32,0.16,-0.26,-0.24,1721199696131
-1.13,5.28,10.78,0.18,-0.02,-0.52,1721199696141
-2.74,2.38,10.66,0.18,0.07,-0.32,1721199696151
-2.51,-5.81,5.57,0.02,-0.17,0.08,1721199696161
-1.24,4.93,13.66,0.12,0.02,-0.05,1721199696171
1.04,8.89,8.17,0.10,0.25,-0.38,1721199696186
1.34,1.16,9.02,0.07,-0.03,-0.27,1721199696190
0.14,-2.89,8.93,-0.07,0.16,-0.25,1721199696200
-3.49,2.93,17.00,0.18,-0.13,-0.23,1721199696210
-0.81,-0.88,6.48,0.01,0.01,-0.08,1721199696220
-0.53,1.85,11.71,0.15,-0.06,0.01,1721199696230
0.90,9.16,13.51,0.12,0.25,-0.25,1721199696240
0.15,-1.32,8.44,0.05,-0.23,-0.27,1721199696250
-3.80,1.05,10.10,0.01,-0.11,-0.20,1721199696260
0.98,1.83,10.71,0.03,0.26,-0.18,1721199696270
-0.10,3.93,11.48,0.17,-0.13,-0.03,1721199696280
-0.35,-0.08,9.12,-0.01,0.09,-0.27,1721199696290
-1.93,2.04,9.83,0.12,-0.10,-0.26,1721199696300
-0.63,4.36,5.75,0.04,-0.00,-0.03,1721199696310
2.88,-0.06,12.04,0.04,0.19,-0.16,1721199696320
1.94,-5.40,9.49,-0.02,-0.06,-0.27,1721199696330
-4.63,2.18,9.02,-0.02,-0.26,-0.36,1721199696340
-3.17,0.94,9.01,-0.08,0.19,-0.25,1721199696350
1.30,0.32,16.04,0.04,0.17,-0.14,1721199696360
0.13,-2.56,11.53,0.01,-0.05,-0.09,1721199696370
-1.87,-1.21,8.58,-0.09,0.05,-0.27,1721199696380
1.04,-1.81,3.95,-0.03,-0.00,-0.32,1721199696390
2.09,-2.05,13.60,-0.14,0.14,-0.29,1721199696400
-0.64,3.26,7.61,0.11,0.02,-0.24,1721199696410
-1.75,-6.94,8.71,-0.42,0.14,-0.36,1721199696420
-3.16,0.21,20.37,-0.05,-0.11,-0.21,1721199696430
-1.16,-2.66,4.51,-0.11,-0.02,-0.05,1721199696440
-0.91,1.86,10.37,-0.18,0.23,-0.26,1721199696450
-1.16,-0.88,7.80,-0.04,0.02,-0.33,1721199696460
-0.72,-1.04,15.94,-0.23,0.21,-0.26,1721199696470
-0.97,1.87,7.21,0.06,-0.23,-0.16,1721199696480
-1.43,-2.55,11.37,-0.34,0.27,-0.34,1721199696490
-1.98,6.19,11.44,0.24,-0.07,-0.22,1721199696500
2.16,-4.04,12.98,-0.28,0.38,-0.19,1721199696510
-1.20,8.36,19.06,0.24,-0.43,0.02,1721199696520
-0.75,-7.28,-1.47,-0.12,0.02,-0.10,1721199696530
-1.51,12.22,19.75,0.30,0.39,-0.35,1721199696540
1.86,-5.29,5.70,0.06,-0.11,-0.18,1721199696550
-6.36,-0.69,7.03,0.03,-0.38,-0.20,1721199696560
-0.83,4.97,8.60,0.41,0.33,-0.10,1721199696570
2.98,-5.58,11.94,-0.15,0.24,-0.11,1721199696580
-2.58,5.29,17.50,0.21,-0.31,-0.18,1721199696590
-1.69,-0.51,4.04,0.14,0.22,-0.28,1721199696600
-2.72,-0.06,5.40,0.15,-0.12,0.03,1721199696610
1.73,2.19,15.99,0.04,0.44,-0.05,1721199696620
3.73,4.20,13.93,0.33,-0.21,-0.07,1721199696630
-0.55,2.61,5.67,0.04,0.10,-0.24,1721199696640
-2.50,-1.13,8.84,-0.02,-0.04,-0.24,1721199696650
-2.38,2.06,9.50,0.13,0.08,-0.18,1721199696660
0.68,2.12,13.35,0.03,0.31,-0.06,1721199696670
1.39,1.76,9.11,0.09,-0.08,-0.08,1721199696680
-1.14,-0.88,4.21,0.02,-0.13,-0.16,1721199696690
0.89,-5.32,13.18,-0.17,0.37,-0.11,1721199696700
-2.49,5.99,11.07,0.16,-0.12,-0.20,1721199696710
-1.25,4.49,7.65,-0.02,0.18,-0.12,1721199696720
0.55,-6.02,11.14,-0.13,-0.10,0.04,1721199696730
-3.45,0.24,6.76,0.10,-0.05,-0.04,1721199696740
0.42,2.82,10.99,-0.18,0.58,-0.19,1721199696750
-0.97,-4.21,10.60,-0.16,-0.33,0.00,1721199696760
-3.78,-3.91,8.49,-0.13,0.03,0.09,1721199696770
2.85,2.36,13.71,-0.03,0.30,0.21,1721199696780
3.94,2.51,6.04,-0.06,-0.29,0.08,1721199696790
1.71,0.23,11.01,-0.15,0.28,-0.37,1721199696800
1.12,-9.66,16.72,-0.23,0.11,-0.41,1721199696810
-8.42,1.24,7.86,0.08,-0.33,0.04,1721199696820
-2.79,-0.03,9.97,-0.20,0.50,0.33,1721199696830
3.49,4.70,10.45,0.12,-0.14,0.24,1721199696840
5.64,2.05,10.06,-0.14,0.20,-0.02,1721199696850
4.03,0.69,14.66,-0.05,0.15,-0.41,1721199696860
-2.08,0.22,9.61,0.00,-0.05,-0.55,1721199696870
-4.76,-3.62,8.09,-0.02,0.01,0.00,1721199696880
-0.66,2.05,12.12,0.07,0.35,0.19,1721199696890
4.77,3.56,12.81,0.14,0.27,0.14,1721199696900
2.31,-1.65,8.34,-0.13,-0.00,-0.31,1721199696910
-3.59,3.33,13.42,0.15,0.02,-0.59,1721199696920
-0.91,-1.86,11.67,0.03,0.43,-0.13,1721199696930
-1.67,1.78,11.93,0.27,-0.05,0.41,1721199696940
0.62,1.59,5.03,0.05,0.31,0.13,1721199696950
2.28,0.86,12.55,0.16,0.09,-0.25,1721199696960
2.92,-1.97,10.51,-0.04,0.25,-0.37,1721199696970
-3.76,1.54,16.54,0.20,-0.10,-0.20,1721199696980
-4.66,1.60,3.29,0.13,0.18,0.04,1721199696990
0.04,-2.38,12.00,0.06,0.30,0.13,1721199697000
2.05,8.48,15.35,0.32,0.14,0.03,1721199697010
2.47,-1.37,1.62,-0.00,0.02,-0.11,1721199697020
-2.89,-1.86,15.95,-0.06,0.04,-0.33,1721199697030
-2.73,3.22,9.00,0.33,0.08,-0.05,1721199697040
-0.27,-1.53,9.32,-0.07,0.29,0.11,1721199697050
-0.76,-0.75,12.42,0.10,0.01,0.05,1721199697060
-0.82,4.64,12.97,0.05,0.20,-0.14,1721199697070
-0.11,-2.10,2.35,0.04,-0.04,-0.11,1721199697080
-2.03,-3.65,13.98,-0.22,0.29,-0.10,1721199697090
-2.69,5.09,10.39,0.22,0.09,0.03,1721199697100
0.69,4.92,5.19,-0.02,0.19,0.13,1721199697110
2.63,0.29,11.67,-0.08,0.15,0.01,1721199697120
1.59,-1.63,13.48,-0.09,0.19,-0.25,1721199697130
-1.06,1.50,11.06,0.01,0.10,-0.23,1721199697140
-1.92,1.31,6.74,-0.07,0.11,-0.03,1721199697150
0.32,-1.59,16.96,-0.14,0.14,0.12,1721199697160
1.65,0.44,4.86,0.06,-0.15,0.04,1721199697170
1.51,3.00,10.40,-0.20,0.43,-0.39,1721199697180
-1.18,-0.48,11.84,-0.06,0.04,-0.39,1721199697190
-4.19,-0.23,9.12,-0.13,0.13,-0.02,1721199697200
-2.40,2.55,14.40,0.04,0.45,0.21,1721199697210
3.53,-0.05,10.80,-0.05,0.11,0.09,1721199697220
2.53,9.30,14.39,0.14,-0.03,-0.17,1721199697230
2.27,-1.20,4.62,0.01,0.14,-0.32,1721199697240
-5.62,-5.72,12.06,-0.28,-0.07,-0.30,1721199697250
-5.70,3.41,14.12,0.19,0.15,0.15,1721199697260
-0.34,0.08,5.20,-0.03,0.28,0.06,1721199697270
0.02,-1.45,15.06,-0.03,-0.10,0.13,1721199697280
0.86,0.27,7.55,0.09,0.20,0.06,1721199697290
-0.43,6.58,11.15,0.21,0.27,-0.24,1721199697300
-1.39,1.46,9.51,-0.01,0.02,-0.08,1721199697310
-1.61,-4.73,13.94,-0.09,-0.21,0.20,1721199697320
-0.83,0.25,6.37,0.06,0.03,0.11,1721199697330
1.82,3.50,11.64,0.04,0.46,-0.09,1721199697340
1.23,-2.97,10.06,-0.08,-0.05,-0.05,1721199697350
-3.17,0.77,9.85,-0.03,-0.10,-0.13,1721199697360
-1.93,0.65,7.63,0.09,0.14,0.08,1721199697370
1.25,4.15,17.57,0.01,0.45,0.24,1721199697380
2.02,3.05,8.92,0.12,-0.10,0.13,1721199697390
-0.62,-2.92,3.80,-0.18,-0.13,-0.16,1721199697400
-2.34,-0.74,15.37,0.06,0.07,-0.14,1721199697410
-1.83,2.55,8.00,0.14,0.15,0.04,1721199697420
-3.52,0.25,6.26,0.00,-0.12,0.18,1721199697430
-1.73,1.46,17.00,-0.01,0.17,0.24,1721199697440
1.89,-0.26,4.46,0.13,-0.18,0.21,1721199697450
2.86,0.95,10.54,0.03,0.15,-0.03,1721199697460
3.26,-4.29,13.04,-0.12,0.02,0.01,1721199697470
-5.10,13.97,11.44,0.40,-0.38,-0.02,1721199697480
-0.25,-1.82,2.49,-0.00,0.25,0.09,1721199697490
-3.33,-4.66,13.61,-0.19,-0.22,0.15,1721199697500
-3.95,4.48,12.49,0.18,-0.10,0.28,1721199697510
1.48,-0.64,9.89,-0.10,0.21,0.19,1721199697520
0.80,4.59,11.70,0.23,-0.33,0.22,1721199697530
1.46,6.09,4.44,0.05,0.11,0.14,1721199697540
0.66,-2.08,13.76,-0.18,-0.27,0.04,1721199697550
-2.64,1.48,15.36,0.08,-0.22,0.01,1721199697560
-0.92,1.04,3.90,0.04,-0.00,-0.01,1721199697570
-3.16,-2.32,5.17,-0.13,-0.29,0.18,1721199697580
-1.59,5.58,17.14,0.13,0.11,0.31,1721199697590
5.88,-3.80,3.58,-0.00,-0.18,0.23,1721199697600
0.91,1.28,14.37,-0.12,-0.21,-0.17,1721199697610
-0.31,-1.57,7.62,-0.01,-0.14,-0.27,1721199697620
-5.42,2.97,14.08,-0.03,-0.08,-0.22,1721199697630
-3.67,-7.65,5.88,-0.19,-0.18,0.24,1721199697640
-0.24,2.29,17.13,0.15,0.00,0.36,1721199697650
5.70,-1.87,5.86,-0.03,0.04,0.12,1721199697660
-1.41,4.43,17.88,-0.16,-0.37,-0.25,1721199697670
-1.74,-1.55,3.22,0.12,-0.32,-0.17,1721199697680
0.28,-7.75,11.67,-0.26,0.23,-0.02,1721199697690
-0.83,5.01,6.85,0.27,-0.32,0.20,1721199697700
2.32,-2.65,7.28,-0.34,0.23,0.09,1721199697710
0.70,1.51,18.32,0.07,-0.42,-0.08,1721199697720
3.59,-1.78,13.03,-0.12,0.30,-0.23,1721199697730
0.36,-1.01,12.59,0.19,-0.18,-0.14,1721199697740
-2.50,-0.24,4.27,-0.09,-0.03,-0.07,1721199697750
-0.69,4.69,16.81,0.09,0.14,-0.08,1721199697760
3.02,-6.19,0.29,0.05,-0.26,-0.01,1721199697770
-1.24,1.52,15.90,-0.08,0.19,-0.05,1721199697780
-0.58,-0.34,8.70,-0.03,-0.02,-0.16,1721199697790
-4.11,7.87,17.71,0.17,0.02,-0.20,1721199697800
0.67,-9.54,1.96,-0.13,-0.08,-0.05,1721199697810
-2.95,4.49,12.33,0.08,-0.26,0.22,1721199697820
4.93,6.50,9.05,0.16,0.59,0.06,1721199697830
2.79,-4.49,7.03,-0.08,-0.20,-0.16,1721199697840
-2.60,0.16,14.28,0.04,-0.19,-0.09,1721199697850
-0.46,2.65,12.49,0.25,0.22,0.01,1721199697860
3.10,4.22,9.02,0.19,0.21,0.17,1721199697870
1.21,4.72,5.62,0.17,-0.11,-0.18,1721199697880
-0.74,-4.19,15.33,-0.04,0.05,-0.38,1721199697890
-2.89,-0.27,8.10,0.30,-0.01,-0.15,1721199697900
-1.08,-2.34,3.16,-0.07,-0.00,0.17,1721199697910
0.36,4.91,19.30,0.04,0.18,0.08,1721199697920
1.31,3.96,9.20,0.34,-0.15,-0.11,1721199697930
-0.45,-9.18,2.66,-0.44,0.08,-0.21,1721199697940
-5.35,5.29,17.85,0.22,0.00,-0.07,1721199697950
0.58,0.35,4.56,-0.09,0.22,0.06,1721199697960
-0.30,5.20,18.46,0.12,-0.11,0.13,1721199697970
3.80,-1.78,3.79,-0.00,0.09,0.14,1721199697980
2.98,3.20,15.62,-0.02,0.10,-0.12,1721199697990
1.94,0.09,4.73,0.00,-0.21,-0.45,1721199698000
-3.62,0.77,13.17,-0.12,-0.03,-0.42,1721199698010
-3.02,0.79,12.16,0.20,0.09,-0.07,1721199698020
-0.55,-0.90,7.86,-0.06,0.15,0.11,1721199698030
-0.49,4.89,10.29,0.07,0.03,-0.24,1721199698040
1.49,-1.48,12.20,-0.18,0.13,-0.40,1721199698050
0.59,-2.96,8.62,0.17,-0.19,-0.09,1721199698060
1.15,-0.23,8.53,0.01,0.38,-0.18,1721199698070
-0.14,-2.40,10.32,-0.10,-0.18,-0.21,1721199698080
-3.32,-2.26,7.35,-0.06,-0.19,-0.18,1721199698090
0.12,-1.24,12.77,0.00,0.38,-0.16,1721199698100
0.04,-1.80,6.53,0.03,0.09,-0.22,1721199698110
-2.10,-1.54,17.77,-0.07,0.19,-0.22,1721199698120
0.24,-8.04,5.25,0.06,-0.23,0.09,1721199698130
-2.09,6.48,17.21,0.10,0.34,-0.25,1721199698140
0.86,-0.26,5.78,0.13,0.02,-0.30,1721199698150
-3.37,-6.62,8.99,-0.36,-0.08,0.00,1721199698160
-2.23,1.79,13.69,0.07,0.08,-0.04,1721199698170
1.77,-2.38,4.26,-0.10,0.07,-0.06,1721199698180
-0.85,-0.16,6.88,0.03,-0.33,-0.18,1721199698195
0.16,-2.87,4.87,-0.14,0.07,-0.19,1721199698199
-3.35,4.09,13.25,-0.05,0.03,-0.12,1721199698209
1.98,-7.93,9.76,-0.22,-0.03,0.09,1721199698219
-0.71,1.96,14.80,0.02,-0.15,0.07,1721199698229
2.41,6.77,12.44,0.17,0.40,-0.21,1721199698239
-1.66,1.52,4.71,-0.07,-0.27,-0.34,1721199698249
-7.13,2.88,4.89,0.01,0.01,-0.16,1721199698259
-0.15,1.78,17.97,0.01,0.60,0.10,1721199698269
-2.12,1.86,3.94,0.08,-0.31,0.17,1721199698279
0.51,4.70,10.92,-0.04,0.47,0.05,1721199698289
6.42,0.82,15.87,0.23,0.03,0.04,1721199698299
0.58,2.07,10.50,0.02,-0.08,-0.14,1721199698309
-3.08,4.77,12.00,0.22,-0.07,-0.25,1721199698319
-2.02,2.53,10.18,0.28,0.05,-0.06,1721199698329
0.69,0.45,11.67,0.14,0.18,0.11,1721199698339
0.68,3.23,7.42,0.31,-0.08,-0.06,1721199698349
0.98,1.15,11.86,0.03,0.22,-0.35,1721199698359
-1.89,3.74,14.47,0.47,-0.14,-0.28,1721199698369
-2.93,2.02,4.36,0.23,0.12,-0.11,1721199698379
-3.44,4.82,5.83,0.04,-0.01,0.05,1721199698389
-0.88,1.50,11.23,-0.14,0.04,-0.04,1721199698399
-0.75,3.55,14.81,0.17,0.06,-0.14,1721199698409
-1.37,-7.47,7.00,-0.25,0.01,-0.26,1721199698419
-6.98,2.40,13.38,0.23,-0.36,0.18,1721199698429
4.38,1.29,7.13,0.01,0.52,0.37,1721199698439
6.44,3.62,8.04,-0.04,-0.25,-0.05,1721199698449
1.43,-1.66,12.50,-0.16,-0.04,-0.50,1721199698459
-4.48,-5.31,19.20,0.01,-0.07,-0.38,1721199698469
-5.97,1.86,2.07,0.28,-0.05,0.16,1721199698479
2.38,0.21,8.88,-0.31,0.38,0.20,1721199698489
3.10,0.92,11.40,0.04,-0.37,-0.04,1721199698499
0.74,-6.71,10.69,-0.28,0.20,-0.43,1721199698509
-3.76,4.33,15.04,0.36,-0.11,-0.20,1721199698519
0.59,3.46,4.25,0.01,0.33,0.04,1721199698529
2.17,1.62,14.82,-0.16,-0.12,0.03,1721199698539
-1.29,-1.37,3.75,0.05,-0.37,-0.11,1721199698549
-2.73,6.23,10.09,0.07,0.51,-0.16,1721199698559
1.75,1.07,12.45,-0.22,0.26,-0.12,1721199698569
-2.58,-1.73,9.69,-0.06,-0.54,0.13,1721199698579
-2.26,-1.41,8.58,-0.08,0.38,0.19,1721199698589
3.56,3.11,13.42,0.13,0.23,0.08,1721199698599
5.01,-0.59,10.47,-0.08,-0.04,-0.21,1721199698609
-0.99,3.64,15.74,0.20,-0.09,-0.37,1721199698619
-3.01,4.04,5.49,0.08,0.22,-0.23,1721199698629
-3.50,1.64,6.26,-0.03,-0.13,0.00,1721199698639
-1.78,-2.96,7.30,-0.23,0.25,0.06,1721199698649
1.72,0.20,23.57,0.11,0.38,-0.03,1721199698659
2.57,-0.75,3.85,0.19,-0.10,-0.01,1721199698669
-2.30,4.98,9.55,-0.12,0.05,-0.17,1721199698679
0.45,3.02,7.32,0.10,0.06,-0.14,1721199698689
3.10,-1.23,13.84,-0.07,0.28,-0.12,1721199698699
-1.44,-1.76,9.03,0.02,-0.08,-0.18,1721199698709
-4.86,4.08,13.67,0.06,0.16,-0.12,1721199698719
0.08,-0.08,11.45,0.04,0.23,0.12,1721199698729
-1.33,-0.48,6.06,-0.04,-0.19,0.16,1721199698739
-0.84,-0.63,14.43,-0.03,0.19,-0.05,1721199698749
1.54,0.56,6.16,0.17,0.02,-0.11,1721199698759
0.50,1.07,11.43,-0.09,0.19,-0.13,1721199698769
-1.48,0.66,14.51,0.08,-0.03,-0.05,1721199698779
-2.44,1.01,8.63,0.16,-0.08,0.29,1721199698789
0.69,1.07,6.68,-0.18,0.29,0.02,1721199698799
-0.23,-4.59,11.22,-0.17,-0.27,-0.15,1721199698809
-2.81,-0.37,13.41,0.04,0.13,-0.08,1721199698819
0.61,1.96,8.82,0.08,0.20,0.07,1721199698829
-1.20,1.38,8.00,-0.04,-0.21,0.10,1721199698839
-0.47,0.63,14.43,-0.09,0.29,0.01,1721199698849
2.24,-0.93,7.47,0.03,0.00,0.01,1721199698859
0.01,5.82,11.83,-0.05,-0.03,-0.10,1721199698869
0.86,-4.19,6.90,-0.06,-0.11,-0.01,1721199698879
-4.09,5.51,15.12,0.10,0.04,-0.05,1721199698889
0.40,4.57,9.84,0.12,0.27,-0.04,1721199698899
0.52,-7.26,7.44,-0.44,-0.23,0.16,1721199698909
-3.38,8.01,18.19,0.18,-0.17,0.08,1721199698919
3.57,-2.43,-0.72,0.00,0.19,-0.07,1721199698929
0.27,4.18,14.53,-0.17,0.07,0.03,1721199698939
1.81,-2.15,7.99,0.15,-0.12,0.09,1721199698949
0.14,4.59,15.38,-0.06,0.21,-0.15,1721199698959
-0.86,4.66,0.52,0.19,-0.27,-0.06,1721199698969
-0.68,0.74,13.15,-0.26,0.50,-0.08,1721199698979
-0.02,-5.56,14.42,0.08,-0.50,0.09,1721199698989
-4.35,-1.59,10.91,-0.10,0.01,-0.09,1721199698999
-0.66,7.08,12.79,0.39,0.15,-0.09,1721199699009
2.04,2.76,9.93,-0.22,0.34,-0.05,1721199699019
-1.35,1.76,11.76,0.10,-0.46,0.16,1721199699029
0.30,-5.14,3.16,-0.21,0.06,-0.01,1721199699039
0.81,4.09,16.10,0.18,-0.06,0.01,1721199699049
3.09,3.25,5.69,0.07,0.24,-0.12,1721199699059
-0.27,-0.35,6.28,-0.16,-0.33,-0.09,1721199699069
-3.87,-2.57,16.36,-0.24,0.06,-0.23,1721199699079
-0.33,-2.08,12.04,0.24,0.16,-0.07,1721199699089
1.58,5.39,12.05,-0.10,0.31,-0.14,1721199699099
-2.37,0.26,4.41,0.07,-0.50,0.01,1721199699109
-3.73,0.53,12.03,-0.12,0.39,-0.18,1721199699119
3.74,-0.63,14.79,0.21,0.10,-0.03,1721199699129
1.73,-1.75,6.85,-0.19,-0.06,0.08,1721199699139
-3.01,10.07,13.49,0.21,0.04,-0.24,1721199699149
2.02,-1.83,8.97,-0.12,0.20,-0.38,1721199699159
-3.95,-0.54,8.62,0.14,-0.59,-0.02,1721199699169
-1.00,1.48,6.19,-0.03,0.65,0.08,1721199699179
3.11,-0.17,15.45,-0.01,0.02,-0.12,1721199699189
-0.61,3.87,15.00,0.01,-0.02,-0.32,1721199699199
-2.57,-0.60,-0.77,0.13,-0.20,-0.08,1721199699209
-2.26,-1.70,12.07,-0.19,0.45,-0.10,1721199699219
2.24,1.74,16.29,0.22,0.15,-0.00,1721199699229
2.25,2.83,8.96,-0.07,-0.03,-0.16,1721199699239
-2.26,5.20,10.05,0.24,-0.24,-0.39,1721199699249
-3.31,-4.16,3.93,-0.16,0.11,-0.27,1721199699259
-3.54,0.58,18.06,0.11,0.04,0.12,1721199699269
1.36,5.91,8.32,0.21,0.30,-0.02,1721199699279
0.13,-0.14,2.07,-0.08,-0.23,-0.16,1721199699289
-5.57,1.81,14.34,0.03,0.08,-0.03,1721199699299
0.91,0.44,13.96,0.14,0.37,0.14,1721199699309
2.25,3.62,8.95,0.14,-0.26,0.11,1721199699319
1.11,1.77,9.88,-0.09,0.12,-0.13,1721199699329
0.35,2.24,13.49,0.20,-0.07,-0.21,1721199699339
-3.55,-0.98,-0.31,0.00,-0.23,-0.02,1721199699349
-3.98,3.06,12.89,0.03,0.24,0.01,1721199699359
2.57,-1.30,11.11,0.01,0.20,0.12,1721199699369
0.39,1.34,14.04,-0.08,-0.14,0.01,1721199699379
-1.76,4.13,7.49,0.17,-0.02,-0.12,1721199699389
2.59,-2.65,11.71,-0.17,0.29,-0.06,1721199699399
-1.62,-0.45,12.34,0.10,-0.47,0.11,1721199699409
-3.55,4.04,1.22,0.15,-0.09,0.09,1721199699419
2.89,-1.12,13.04,-0.15,0.47,0.01,1721199699429
0.62,-0.23,11.71,0.01,-0.14,-0.03,1721199699439
-2.02,2.05,10.99,-0.08,0.07,-0.15,1721199699449
0.32,-2.34,13.98,-0.07,0.07,0.05,1721199699459
2.62,6.28,17.00,0.25,0.12,0.16,1721199699469
1.84,1.75,-0.08,0.01,-0.21,-0.07,1721199699479
-6.17,-0.20,8.38,-0.26,-0.14,-0.17,1721199699489
-2.56,-4.80,8.99,-0.15,0.09,0.03,1721199699499
2.03,-2.45,15.71,-0.03,0.22,0.22,1721199699509
4.00,3.77,15.30,0.08,0.22,-0.05,1721199699519
1.49,0.58,9.74,-0.05,-0.09,-0.21,1721199699529
-5.83,7.69,6.56,0.01,-0.22,-0.23,1721199699539
-1.40,-2.04,9.16,-0.22,0.35,-0.07,1721199699549
0.28,-6.06,17.96,-0.10,-0.06,0.32,1721199699559
0.05,4.78,10.68,0.25,-0.14,0.20,1721199699569
1.96,1.95,4.58,-0.08,0.07,-0.16,1721199699579
-2.23,3.62,9.10,0.08,-0.26,-0.17,1721199699589
1.35,-5.37,15.84,-0.31,0.50,-0.13,1721199699599
-1.26,-1.08,13.65,0.17,-0.43,0.13,1721199699609
-2.67,4.77,5.02,-0.02,0.15,0.07,1721199699619
0.62,6.43,12.78,0.20,0.12,-0.11,1721199699629
1.16,-0.98,7.33,-0.08,-0.07,0.02,1721199699639
