AccX,AccY,AccZ,GyrX,GyrY,GyrZ,Time
2.97,-3.14,10.96,0.02,-0.01,0.04,1721201560144
3.46,-2.78,11.33,0.07,0.05,-0.07,1721201560149
0.91,-1.22,10.22,-0.01,0.11,-0.16,1721201560159
-0.18,-2.67,12.75,-0.03,0.19,-0.26,1721201560169
-3.20,-4.62,13.05,0.07,0.03,-0.19,1721201560179
-4.73,-2.51,6.68,0.05,-0.01,0.05,1721201560189
-2.72,-2.62,11.12,0.01,0.25,0.16,1721201560199
-0.92,-6.05,8.66,-0.04,0.00,0.10,1721201560209
-0.86,-3.45,14.25,0.09,0.25,-0.08,1721201560219
-1.66,-3.19,9.81,0.16,-0.06,-0.07,1721201560229
-4.71,-3.38,7.62,-0.07,0.03,0.02,1721201560239
-3.19,-3.92,9.64,0.04,0.06,0.24,1721201560249
2.43,-3.45,15.83,0.09,0.31,0.36,1721201560259
1.75,-2.00,9.06,0.06,-0.15,0.17,1721201560269
0.23,-2.50,6.21,0.06,0.23,-0.17,1721201560279
0.27,-3.85,12.27,-0.02,0.22,-0.22,1721201560289
-1.87,-2.51,13.99,0.13,0.11,0.06,1721201560299
-0.78,-5.89,6.91,0.00,0.06,0.25,1721201560309
-0.91,1.46,9.01,0.09,0.16,0.12,1721201560319
1.80,-4.72,7.34,-0.08,0.12,0.00,1721201560329
-1.09,-2.42,15.41,-0.00,0.20,0.06,1721201560339
-1.49,-3.05,11.17,0.09,0.10,0.14,1721201560349
-3.55,0.43,8.61,-0.02,0.10,0.13,1721201560359
-3.27,-1.02,7.57,-0.09,0.03,0.18,1721201560369
-0.21,-0.10,13.29,-0.04,0.40,0.15,1721201560379
0.57,0.39,12.90,-0.03,-0.04,0.09,1721201560389
-4.64,2.58,7.10,-0.10,0.00,-0.04,1721201560399
-3.73,2.79,10.40,-0.06,0.24,0.10,1721201560409
-3.11,2.59,15.99,-0.07,0.15,0.34,1721201560419
-3.57,2.57,8.71,-0.02,-0.14,0.40,1721201560429
-2.21,5.46,10.97,0.00,0.15,0.34,1721201560439
-0.80,3.77,4.58,-0.06,-0.20,0.38,1721201560449
-0.28,2.61,11.32,-0.12,0.22,0.46,1721201560459
2.54,2.45,13.84,0.06,-0.08,0.41,1721201560469
1.42,6.17,7.31,0.03,0.04,0.35,1721201560479
3.47,6.84,7.84,-0.06,0.14,0.34,1721201560489
5.08,4.91,12.20,-0.04,0.16,0.28,1721201560499
4.85,4.18,9.90,-0.01,0.09,0.15,1721201560509
0.88,3.69,6.47,-0.18,0.01,0.03,1721201560519
-2.12,4.02,12.60,-0.10,0.29,-0.07,1721201560529
-2.64,1.44,13.01,-0.03,0.06,0.11,1721201560539
-5.26,0.49,6.96,-0.09,0.03,0.39,1721201560549
-2.24,-1.00,12.03,-0.13,0.33,0.55,1721201560559
-0.69,-0.07,8.20,0.01,-0.10,0.61,1721201560569
1.35,-0.38,9.47,-0.12,0.35,0.53,1721201560579
1.87,-1.84,10.85,-0.07,-0.03,0.41,1721201560589
0.28,-2.94,9.99,-0.13,0.20,0.34,1721201560599
1.19,-0.53,12.08,0.07,0.16,0.36,1721201560609
1.79,-1.81,7.04,-0.12,0.23,0.34,1721201560619
0.75,-1.49,13.50,-0.03,0.25,0.19,1721201560629
-0.49,-3.37,8.69,0.01,0.11,0.13,1721201560639
-4.41,-0.94,10.28,-0.09,0.18,0.14,1721201560649
-5.12,-0.81,9.11,-0.03,0.04,0.24,1721201560659
-5.29,-2.24,9.21,-0.11,0.14,0.43,1721201560669
-2.97,-0.34,13.46,0.06,0.18,0.53,1721201560679
-2.24,-0.46,5.97,-0.05,-0.09,0.46,1721201560689
-2.94,-2.14,9.86,-0.16,0.06,0.40,1721201560699
-1.74,-1.54,15.15,0.08,0.01,0.40,1721201560709
-2.11,0.68,9.50,0.02,-0.05,0.40,1721201560719
-2.44,1.83,7.97,-0.07,-0.10,0.42,1721201560729
-0.50,-1.14,11.05,-0.10,-0.00,0.41,1721201560739
-1.55,-0.61,9.91,-0.02,-0.19,0.29,1721201560749
-2.33,0.44,9.37,-0.03,-0.03,0.27,1721201560759
-2.16,-0.70,9.83,-0.12,-0.14,0.36,1721201560769
-3.00,-1.12,9.06,-0.09,-0.16,0.35,1721201560779
-2.53,-1.58,11.87,-0.03,-0.05,0.30,1721201560789
-3.52,0.62,9.53,0.03,-0.22,0.34,1721201560799
-3.10,-5.60,6.11,-0.11,-0.17,0.50,1721201560809
1.85,-1.95,11.10,0.12,0.13,0.78,1721201560819
6.59,2.42,12.36,-0.18,0.04,0.65,1721201560829
4.54,4.04,17.65,-0.01,-0.10,-0.08,1721201560839
0.20,-1.65,8.14,-0.07,-0.34,-0.27,1721201560849
-7.17,-0.47,6.38,-0.19,-0.13,0.25,1721201560859
-4.19,1.50,7.41,-0.03,-0.02,0.74,1721201560869
1.36,1.87,9.74,-0.15,0.08,0.64,1721201560879
3.31,0.31,15.67,-0.10,-0.10,0.30,1721201560889
-0.55,1.01,7.45,-0.10,-0.33,0.15,1721201560899
-1.90,1.90,12.13,-0.16,0.14,0.18,1721201560909
-0.06,-0.87,13.18,-0.12,-0.20,0.41,1721201560919
-0.54,-0.31,7.83,-0.02,-0.19,0.59,1721201560929
3.91,0.02,9.05,-0.09,0.13,0.39,1721201560939
3.50,1.12,11.95,-0.11,-0.19,0.03,1721201560949
-0.79,2.97,11.50,0.12,-0.06,-0.11,1721201560959
-0.87,-1.19,9.03,-0.09,-0.01,0.11,1721201560969
-2.72,1.83,10.27,0.13,-0.11,0.19,1721201560979
0.04,-0.45,8.44,-0.12,0.05,0.19,1721201560989
-2.66,0.20,10.45,-0.08,-0.25,0.10,1721201560999
-4.12,1.32,9.50,0.04,-0.06,0.11,1721201561009
-4.75,0.24,8.53,-0.12,-0.23,0.30,1721201561019
-4.93,-1.89,9.45,-0.14,-0.23,0.42,1721201561029
-2.38,0.43,13.98,0.02,-0.12,0.44,1721201561039
-0.40,1.25,8.49,-0.04,-0.32,0.42,1721201561049
-0.89,1.20,8.70,-0.21,-0.24,0.29,1721201561059
-0.34,2.43,12.69,-0.04,-0.20,0.22,1721201561069
1.89,2.57,10.51,-0.07,-0.15,0.26,1721201561079
0.83,3.76,8.44,-0.28,-0.30,0.13,1721201561089
1.46,2.83,13.78,-0.16,-0.23,0.34,1721201561099
5.82,3.72,11.27,-0.03,0.08,0.33,1721201561109
6.82,3.97,3.04,-0.35,-0.21,-0.17,1721201561119
-1.02,1.13,9.49,-0.26,-0.26,-0.72,1721201561129
-9.07,1.48,7.72,-0.08,-0.33,-0.51,1721201561139
-13.97,3.23,10.49,-0.19,-0.25,0.22,1721201561149
-10.98,2.48,11.90,-0.16,-0.37,1.12,1721201561159
0.50,1.46,16.15,-0.16,0.01,1.59,1721201561169
8.74,2.03,10.40,-0.04,-0.28,1.48,1721201561179
13.13,0.40,3.90,-0.10,0.04,0.78,1721201561189
11.88,3.92,7.76,-0.29,-0.23,-0.07,1721201561199
3.69,-0.73,9.09,-0.32,-0.58,-0.69,1721201561209
-0.08,0.04,16.44,-0.27,-0.25,-0.92,1721201561219
-10.90,-1.10,10.43,-0.11,-0.57,-0.33,1721201561229
-13.99,-2.79,7.27,-0.11,-0.16,0.50,1721201561239
-5.12,-3.65,11.86,-0.15,-0.04,1.15,1721201561249
1.36,-1.25,11.46,-0.09,-0.12,1.09,1721201561259
4.76,0.65,9.39,-0.04,-0.14,0.69,1721201561269
6.34,-2.49,7.34,-0.20,-0.26,0.29,1721201561279
3.64,-4.25,9.90,-0.26,-0.29,0.02,1721201561289
2.53,-2.26,11.95,-0.17,-0.16,-0.08,1721201561299
-2.27,-1.30,10.72,-0.13,-0.43,-0.09,1721201561309
-0.75,-3.15,8.41,-0.07,-0.16,0.12,1721201561319
-0.71,-2.82,11.58,-0.20,-0.18,0.26,1721201561329
-0.64,0.38,14.42,-0.01,-0.22,0.21,1721201561339
-0.08,-0.30,9.66,0.01,-0.19,0.15,1721201561349
0.57,-0.10,8.77,0.01,-0.10,0.17,1721201561359
2.26,-1.82,12.28,-0.03,-0.10,0.10,1721201561369
2.29,-1.40,12.90,0.12,-0.19,0.12,1721201561379
4.12,1.37,11.61,0.18,0.08,0.05,1721201561389
3.10,1.18,11.83,0.12,-0.14,-0.01,1721201561399
2.57,2.48,10.55,0.18,0.01,-0.23,1721201561409
2.19,0.41,11.93,0.18,-0.12,-0.33,1721201561419
0.43,-1.19,10.28,0.23,-0.06,-0.16,1721201561429
-0.00,-0.11,8.16,0.20,0.06,-0.13,1721201561439
1.08,2.04,11.75,0.18,0.08,-0.11,1721201561449
1.36,0.57,8.59,0.22,-0.02,-0.12,1721201561459
2.64,-0.25,8.61,0.11,0.13,-0.14,1721201561469
2.11,0.18,10.63,0.12,0.08,-0.25,1721201561479
0.65,-0.43,10.15,0.13,0.07,-0.33,1721201561489
-0.26,0.11,8.60,0.16,0.12,-0.28,1721201561499
-0.50,-0.44,11.09,0.03,0.20,-0.24,1721201561509
-1.04,0.29,13.91,0.10,0.10,-0.28,1721201561519
-0.09,0.73,9.04,0.15,0.11,-0.29,1721201561529
0.34,-1.30,7.09,-0.02,0.15,-0.30,1721201561539
-0.89,1.85,8.84,0.04,0.18,-0.44,1721201561549
-0.96,-2.04,8.20,-0.12,0.15,-0.52,1721201561559
-3.53,-0.54,10.63,-0.11,0.08,-0.41,1721201561569
-2.68,-0.84,9.27,-0.06,0.11,-0.26,1721201561579
-0.36,-0.94,12.36,-0.18,0.19,-0.16,1721201561589
0.93,-0.50,9.07,-0.07,0.04,-0.29,1721201561599
1.89,-0.46,9.55,-0.22,0.23,-0.48,1721201561609
0.24,1.41,11.54,-0.08,0.07,-0.61,1721201561619
-1.39,-2.39,7.40,-0.18,0.14,-0.60,1721201561629
-3.70,-1.72,10.70,-0.25,0.17,-0.51,1721201561639
-2.26,-2.38,11.12,-0.15,0.16,-0.40,1721201561649
-2.25,-1.18,10.87,-0.14,0.12,-0.27,1721201561659
-0.50,-0.14,10.46,-0.07,0.19,-0.31,1721201561669
-0.85,-1.24,11.03,-0.08,0.10,-0.31,1721201561679
-0.61,0.93,10.41,-0.05,0.13,-0.26,1721201561689
-0.51,-0.52,10.98,-0.06,0.10,-0.19,1721201561699
0.20,1.44,10.39,-0.01,0.11,-0.20,1721201561709
0.05,0.13,8.66,0.02,0.05,-0.19,1721201561719
1.20,-1.71,8.48,-0.06,0.18,-0.18,1721201561729
0.34,0.92,11.42,0.07,0.10,-0.21,1721201561739
-1.23,-0.70,9.41,0.10,0.07,-0.23,1721201561749
-1.69,-2.43,8.95,0.05,0.16,-0.19,1721201561759
-1.64,-0.53,11.02,0.07,0.18,-0.07,1721201561769
-1.26,-3.31,9.32,0.15,0.02,-0.05,1721201561779
-1.15,-0.04,10.28,0.16,0.20,-0.09,1721201561789
-0.32,-0.91,11.33,0.19,0.03,-0.11,1721201561799
-2.64,-0.62,10.06,0.11,0.07,-0.07,1721201561809
-1.76,-2.02,9.55,0.19,0.09,-0.10,1721201561819
-2.08,-2.45,8.89,0.09,0.03,0.01,1721201561829
-1.26,-1.20,9.50,0.12,0.15,-0.06,1721201561839
-0.98,0.56,12.76,0.17,0.15,-0.05,1721201561849
-0.17,-1.27,7.49,0.12,0.05,0.07,1721201561859
-0.91,-0.20,13.63,-0.09,0.19,-0.04,1721201561869
-0.54,1.52,14.00,0.27,-0.04,-0.14,1721201561879
-0.48,-1.79,6.17,0.06,0.09,-0.09,1721201561889
-0.72,-1.11,14.33,0.03,0.11,-0.04,1721201561899
-2.64,-2.22,10.03,0.25,-0.14,0.02,1721201561909
-2.11,-1.09,7.35,0.05,0.23,0.06,1721201561919
0.35,1.36,14.77,0.15,0.03,0.06,1721201561929
0.12,-0.63,7.63,0.19,-0.03,0.04,1721201561939
0.38,-0.17,8.69,0.12,0.12,-0.01,1721201561949
0.77,2.30,12.42,0.21,0.05,-0.09,1721201561959
-1.09,-0.25,8.46,0.17,-0.15,-0.06,1721201561969
-0.99,-0.66,11.11,0.13,0.17,-0.07,1721201561979
-1.51,-0.07,12.48,0.23,-0.10,0.00,1721201561989
-2.14,-0.15,5.93,0.21,-0.07,0.05,1721201561999
1.17,1.18,10.47,0.12,0.21,0.04,1721201562009
1.27,1.36,10.46,0.23,-0.13,-0.01,1721201562019
0.63,-1.15,7.02,0.09,0.05,-0.07,1721201562029
-0.05,1.51,11.73,0.07,0.02,-0.11,1721201562039
-0.94,0.37,6.81,0.08,-0.12,-0.03,1721201562049
-0.20,0.31,11.03,-0.08,0.13,0.02,1721201562059
-1.18,-1.31,10.10,0.06,-0.23,0.02,1721201562069
-0.98,-1.12,8.09,-0.05,0.14,0.02,1721201562079
-0.36,-0.65,11.36,-0.09,-0.06,0.08,1721201562089
-1.64,-0.74,10.53,-0.09,-0.07,0.08,1721201562099
-0.45,-0.28,11.38,-0.05,0.06,0.04,1721201562109
-1.38,-3.91,8.59,-0.16,-0.19,0.15,1721201562119
-1.54,-2.62,9.23,-0.17,0.07,0.20,1721201562129
2.11,-0.77,11.93,-0.14,0.07,0.11,1721201562139
1.26,-3.76,9.84,-0.28,-0.06,-0.17,1721201562154
-0.56,-4.02,9.18,-0.28,0.10,-0.13,1721201562158
-2.61,-1.37,11.09,-0.34,-0.02,-0.17,1721201562168
-2.75,-1.46,13.40,-0.36,0.05,-0.16,1721201562178
-3.51,-2.31,8.50,-0.31,-0.18,-0.02,1721201562188
-2.00,-4.07,6.55,-0.41,0.09,0.13,1721201562198
-1.02,1.45,10.60,-0.47,0.11,0.10,1721201562208
-1.46,1.74,12.01,-0.40,-0.08,-0.03,1721201562218
2.03,2.59,11.42,-0.29,-0.00,-0.08,1721201562228
0.99,-1.71,9.67,-0.27,-0.22,-0.03,1721201562238
-0.22,0.05,9.61,-0.22,0.15,-0.09,1721201562248
0.99,-0.51,11.94,-0.21,-0.04,-0.09,1721201562258
-0.35,0.60,10.29,-0.05,-0.04,-0.10,1721201562268
0.89,1.13,10.81,0.01,0.06,-0.11,1721201562278
1.89,1.77,12.77,0.04,0.05,-0.13,1721201562288
-0.20,-1.27,12.60,0.06,-0.01,-0.29,1721201562298
0.37,-0.04,10.88,0.21,0.07,-0.18,1721201562308
0.56,-3.15,8.31,0.25,-0.02,-0.04,1721201562318
-0.70,-1.08,11.56,0.23,0.16,-0.07,1721201562328
-0.36,1.50,11.39,0.33,0.09,-0.14,1721201562338
-0.49,-4.16,8.67,0.19,-0.07,-0.09,1721201562348
1.22,-0.40,13.09,0.18,0.29,-0.06,1721201562358
1.93,-1.03,10.88,0.27,-0.01,-0.01,1721201562368
-0.87,-0.76,8.12,0.22,0.09,-0.04,1721201562378
0.85,1.32,11.45,0.26,0.21,-0.11,1721201562388
1.91,-1.10,10.89,0.24,0.06,-0.03,1721201562398
0.37,1.92,9.28,0.26,0.21,-0.08,1721201562408
0.63,-0.96,9.32,0.33,0.11,-0.07,1721201562418
0.16,1.75,7.34,0.38,0.21,-0.11,1721201562428
0.17,-0.92,9.25,0.28,0.14,-0.13,1721201562438
-1.69,1.09,10.33,0.37,0.17,-0.16,1721201562448
-0.96,0.85,8.88,0.30,0.22,-0.15,1721201562458
-1.58,0.06,9.72,0.15,0.14,-0.02,1721201562468
-2.41,0.53,10.22,0.13,0.11,0.04,1721201562478
-0.46,1.26,9.22,0.15,0.21,0.06,1721201562488
0.45,-2.00,5.14,-0.01,0.17,0.06,1721201562498
1.57,-0.66,14.39,-0.10,0.32,-0.12,1721201562508
-1.21,0.26,10.40,0.18,-0.13,-0.19,1721201562518
-2.76,-0.74,6.17,-0.10,0.23,-0.10,1721201562528
-2.66,2.62,14.20,0.01,0.07,0.05,1721201562538
-0.38,2.31,8.21,-0.03,0.07,0.25,1721201562548
2.71,-2.96,9.67,-0.26,0.19,0.28,1721201562558
2.78,-2.31,11.27,-0.22,0.11,-0.00,1721201562568
2.02,0.88,10.48,-0.20,0.23,-0.30,1721201562578
-0.66,0.57,9.30,-0.23,-0.00,-0.17,1721201562588
-0.70,-0.34,9.80,-0.20,0.23,0.06,1721201562598
-0.29,-4.95,10.85,-0.31,0.14,0.14,1721201562608
-0.35,-0.23,13.31,-0.16,0.21,0.12,1721201562618
2.55,0.35,10.52,-0.02,0.20,0.01,1721201562628
0.39,-0.37,7.91,-0.26,0.16,-0.15,1721201562638
-1.54,-2.01,10.37,-0.14,0.03,-0.04,1721201562648
0.61,-1.28,12.80,-0.06,0.35,0.07,1721201562658
-1.10,2.08,10.78,0.01,-0.01,0.11,1721201562668
-0.30,-0.36,11.11,0.01,0.15,0.13,1721201562678
1.68,3.46,12.97,0.06,0.28,0.01,1721201562688
-1.33,-1.76,8.10,0.02,-0.08,0.03,1721201562698
-1.63,-3.99,9.07,-0.03,0.23,0.11,1721201562708
-0.63,-1.28,13.95,0.01,0.22,0.07,1721201562718
-1.74,-2.88,8.70,-0.03,0.04,0.12,1721201562728
-1.83,-5.19,10.73,-0.02,0.06,0.14,1721201562738
-1.76,-4.47,11.38,0.02,0.20,-0.00,1721201562748
-2.92,-1.32,8.20,0.10,-0.15,0.07,1721201562758
-2.72,-1.82,8.39,-0.02,0.21,0.09,1721201562768
-1.69,-0.23,10.10,0.14,-0.01,0.02,1721201562778
0.46,-2.37,8.05,0.06,0.07,0.08,1721201562788
-0.00,-0.57,12.34,-0.10,0.07,0.08,1721201562798
-1.61,3.56,10.57,0.21,-0.05,-0.06,1721201562808
-1.53,-0.87,6.72,-0.05,0.09,-0.09,1721201562818
-3.06,2.33,13.67,-0.09,0.01,-0.03,1721201562828
-2.74,0.89,10.05,0.16,-0.14,0.08,1721201562838
-2.35,-0.39,6.88,0.02,-0.01,0.13,1721201562848
0.52,1.71,11.06,0.12,0.03,0.13,1721201562858
2.04,0.84,9.69,0.07,0.00,0.00,1721201562868
0.73,5.73,12.49,0.08,-0.07,-0.27,1721201562878
-2.14,2.49,8.67,0.05,-0.30,-0.30,1721201562888
-5.42,0.90,10.12,-0.08,-0.07,-0.07,1721201562898
-4.67,0.53,10.85,-0.01,-0.12,0.13,1721201562908
-2.71,0.36,7.99,-0.03,-0.11,0.26,1721201562918
0.37,-0.22,13.17,-0.11,-0.05,0.31,1721201562928
0.60,1.47,12.24,0.09,-0.18,0.10,1721201562938
1.38,-2.23,9.49,-0.14,-0.10,0.09,1721201562948
-1.73,3.56,9.17,-0.03,-0.13,-0.07,1721201562958
0.05,-3.25,7.10,-0.21,-0.07,0.02,1721201562968
-3.26,-1.62,6.54,-0.22,-0.27,0.06,1721201562978
-3.37,-6.57,5.73,-0.25,-0.12,0.05,1721201562988
-1.36,-7.75,12.82,-0.47,0.06,0.15,1721201562998
-1.48,-3.69,19.53,-0.29,-0.26,0.27,1721201563008
-0.75,-1.76,15.46,-0.17,-0.24,0.41,1721201563018
2.89,-1.98,14.60,-0.29,0.12,0.31,1721201563028
1.93,0.44,10.75,-0.16,-0.37,0.21,1721201563038
-1.04,0.07,5.87,-0.01,-0.08,0.04,1721201563048
2.07,-1.71,10.10,-0.13,-0.04,0.07,1721201563058
1.70,0.41,11.88,0.02,-0.05,-0.02,1721201563068
1.47,-5.34,9.22,0.00,-0.33,0.08,1721201563078
-2.08,3.78,10.24,0.11,0.00,-0.04,1721201563088
2.94,-2.09,12.54,0.11,-0.06,0.08,1721201563098
0.84,-1.99,9.22,0.08,-0.06,-0.04,1721201563108
0.40,-2.51,9.16,0.28,-0.17,-0.08,1721201563118
-0.08,-3.94,11.21,0.13,0.06,-0.15,1721201563128
-1.27,1.90,12.87,0.29,-0.12,-0.01,1721201563138
0.97,1.09,8.14,0.25,0.11,0.13,1721201563148
3.24,2.09,11.41,0.23,0.08,0.13,1721201563158
2.80,1.36,9.67,0.25,-0.07,-0.07,1721201563168
2.34,-1.42,8.65,0.21,0.05,-0.25,1721201563178
-0.19,0.84,10.25,0.27,-0.04,-0.28,1721201563188
-1.26,0.18,6.31,0.37,0.01,-0.18,1721201563198
-2.68,-1.23,9.97,0.17,0.14,-0.17,1721201563208
-1.82,1.68,13.74,0.40,0.12,-0.01,1721201563218
-1.52,-3.29,9.46,0.15,0.01,0.12,1721201563228
-1.28,4.94,13.07,0.36,0.11,0.11,1721201563238
3.16,2.10,8.20,0.29,0.18,0.17,1721201563248
2.63,2.52,6.92,0.16,0.01,0.02,1721201563258
3.30,-2.38,8.34,0.03,0.16,-0.17,1721201563268
2.40,2.73,14.75,0.13,0.25,-0.33,1721201563278
0.95,0.49,4.14,0.15,-0.06,-0.21,1721201563288
0.73,1.30,10.02,-0.09,0.41,-0.32,1721201563298
0.89,-0.93,11.09,0.13,-0.07,-0.28,1721201563308
-0.68,-0.14,9.28,-0.18,0.36,-0.34,1721201563318
-1.46,1.46,17.35,0.00,0.12,-0.39,1721201563328
-4.21,0.04,5.62,0.03,-0.03,-0.27,1721201563338
-2.58,-2.78,5.43,-0.24,0.33,-0.20,1721201563348
-1.42,1.28,15.22,0.04,0.10,-0.14,1721201563358
-0.84,-3.64,4.10,-0.09,-0.01,-0.03,1721201563368
0.22,-0.98,15.95,-0.12,0.34,-0.13,1721201563378
-1.37,-4.29,6.20,-0.02,-0.19,-0.23,1721201563388
-2.02,0.14,8.48,-0.17,0.41,-0.37,1721201563398
-0.49,-2.87,12.41,0.02,-0.03,-0.25,1721201563408
-2.78,-8.72,4.13,-0.22,0.21,-0.15,1721201563418
-2.03,-2.47,16.75,-0.13,0.23,-0.06,1721201563428
-2.15,1.03,11.15,0.14,-0.07,-0.06,1721201563438
-1.17,-3.09,8.82,-0.11,0.17,-0.05,1721201563448
-1.06,-0.41,13.46,0.11,0.05,0.04,1721201563458
-1.12,-2.41,6.97,0.04,0.04,0.15,1721201563468
-3.39,0.91,10.99,0.08,-0.09,0.21,1721201563478
-0.35,-1.57,9.20,0.19,0.10,0.25,1721201563488
0.54,-1.75,9.38,0.10,-0.05,0.23,1721201563498
1.58,2.26,12.74,0.20,0.11,0.15,1721201563508
1.42,0.73,5.54,0.26,-0.20,0.10,1721201563518
1.18,9.90,16.24,0.10,0.35,-0.10,1721201563528
-1.84,8.82,10.04,0.33,-0.44,-0.11,1721201563538
-3.15,-6.92,2.74,-0.15,0.17,0.03,1721201563548
-2.37,-6.80,13.69,-0.03,0.05,0.21,1721201563558
0.26,4.05,12.52,0.36,0.09,0.20,1721201563568
1.24,6.01,8.60,0.19,-0.11,0.15,1721201563578
0.39,7.72,11.42,0.16,-0.01,-0.04,1721201563588
-0.16,3.66,7.05,0.07,-0.15,-0.15,1721201563598
-2.04,-3.77,13.07,-0.36,0.14,-0.18,1721201563608
-5.15,6.11,17.10,0.22,-0.17,0.04,1721201563618
-2.29,-0.49,1.91,0.10,-0.07,0.47,1721201563628
1.10,-1.30,8.05,-0.06,0.05,0.76,1721201563638
6.29,-3.27,9.11,0.02,-0.02,0.55,1721201563648
8.54,1.37,13.97,-0.14,0.16,-0.15,1721201563658
2.43,2.59,10.24,-0.01,-0.46,-0.68,1721201563668
-4.93,-2.38,6.05,-0.10,0.06,-0.75,1721201563678
-11.30,-1.73,8.27,-0.15,-0.15,-0.28,1721201563688
-8.19,-9.48,10.48,-0.20,-0.08,0.86,1721201563698
-3.01,6.51,11.92,0.04,0.23,0.77,1721201563708
5.57,0.85,7.16,-0.25,-0.17,0.40,1721201563718
4.57,-4.68,7.29,-0.18,-0.15,-0.06,1721201563728
3.48,-3.62,6.69,-0.14,0.04,-0.34,1721201563738
-4.75,-4.60,8.85,-0.44,-0.19,-0.36,1721201563748
-6.90,2.04,16.89,-0.08,-0.05,0.18,1721201563758
-0.70,-1.53,6.34,-0.07,-0.19,0.77,1721201563768
3.98,-1.45,7.52,-0.32,0.07,0.61,1721201563778
9.02,-0.21,14.91,-0.23,0.07,-0.04,1721201563788
0.54,-8.21,13.98,-0.55,-0.49,-0.67,1721201563798
-4.40,14.05,19.42,0.12,-0.11,-0.66,1721201563808
-5.07,-4.03,3.16,-0.06,-0.31,0.08,1721201563818
-5.32,-7.16,7.00,-0.42,0.07,0.62,1721201563828
3.22,-5.10,15.98,-0.14,0.22,0.49,1721201563838
3.88,1.30,15.79,-0.25,-0.01,0.05,1721201563848
2.21,10.46,18.54,0.04,-0.07,-0.23,1721201563858
1.48,-2.91,10.43,-0.06,-0.23,-0.28,1721201563868
-2.70,0.98,12.27,0.01,-0.06,-0.12,1721201563878
-0.86,3.45,11.29,0.25,0.02,0.10,1721201563888
0.24,-0.72,6.34,0.16,-0.06,0.16,1721201563898
1.88,1.87,8.67,0.29,0.02,0.02,1721201563908
2.54,2.20,8.62,0.22,-0.00,-0.18,1721201563918
-0.53,1.81,8.80,0.08,-0.11,-0.26,1721201563928
-0.47,-1.25,11.53,0.01,0.04,-0.15,1721201563938
-0.93,-0.17,14.28,0.12,-0.04,-0.02,1721201563948
0.47,-1.22,9.09,0.19,0.02,-0.01,1721201563958
0.58,0.88,9.31,0.08,0.06,-0.08,1721201563968
1.43,3.22,9.78,0.14,0.05,-0.09,1721201563978
1.11,-1.12,8.12,-0.00,0.09,-0.12,1721201563988
0.14,-1.29,8.58,0.07,-0.00,-0.13,1721201563998
1.85,-0.99,8.76,0.08,0.20,-0.14,1721201564008
-1.17,0.41,8.43,0.04,-0.07,-0.21,1721201564018
-1.16,1.99,8.72,0.08,0.20,-0.21,1721201564028
-0.26,-0.11,8.55,0.01,0.04,-0.07,1721201564038
-1.22,-0.27,9.48,-0.09,0.12,-0.06,1721201564048
-0.18,-1.78,16.22,-0.13,0.18,-0.16,1721201564058
-0.55,-1.34,17.41,-0.04,-0.03,-0.11,1721201564068
0.28,2.53,13.33,0.13,0.13,0.02,1721201564078
2.26,-0.23,6.48,-0.02,0.15,0.08,1721201564088
2.72,1.87,8.18,-0.04,0.27,-0.15,1721201564098
2.59,-3.08,6.85,-0.16,0.05,-0.35,1721201564108
-1.27,1.02,10.51,-0.06,0.18,-0.43,1721201564118
-1.17,-0.64,7.73,-0.07,0.13,-0.33,1721201564128
-3.33,-0.01,8.75,-0.13,0.09,-0.18,1721201564138
-2.62,1.14,12.17,-0.08,0.23,-0.20,1721201564148
-2.00,-0.52,13.54,-0.12,0.29,-0.06,1721201564163
-3.42,2.78,13.41,0.02,0.24,-0.03,1721201564167
-0.10,-1.76,9.24,-0.08,-0.04,0.15,1721201564177
0.05,2.22,10.47,-0.04,0.21,0.15,1721201564187
4.46,-0.37,9.88,-0.04,0.13,0.04,1721201564197
2.76,0.06,11.85,-0.28,0.16,-0.28,1721201564207
1.02,3.73,15.25,-0.05,0.11,-0.37,1721201564217
-1.54,0.73,7.43,-0.06,0.06,-0.29,1721201564227
-2.77,-0.88,7.95,-0.14,0.22,-0.13,1721201564237
0.03,-2.46,9.21,-0.08,0.16,0.02,1721201564247
-0.61,2.49,9.00,0.06,0.16,-0.09,1721201564257
0.63,-1.56,8.67,-0.03,0.16,-0.23,1721201564267
-1.18,-0.30,10.26,-0.06,0.12,-0.22,1721201564277
-0.51,2.21,13.63,-0.03,0.31,-0.23,1721201564287
-1.75,-0.80,10.65,-0.03,-0.02,-0.12,1721201564297
-1.73,-2.27,8.27,-0.07,0.30,-0.14,1721201564307
0.96,0.80,13.70,-0.01,0.19,-0.09,1721201564317
-1.58,0.22,11.29,0.08,0.07,-0.08,1721201564327
-1.48,0.89,12.84,-0.02,0.22,-0.18,1721201564337
-1.70,5.82,13.11,0.19,0.03,-0.14,1721201564347
-1.36,2.16,7.74,0.17,0.13,-0.01,1721201564357
-2.27,0.49,8.74,0.16,0.07,0.01,1721201564367
0.28,-0.07,7.21,0.25,0.21,-0.05,1721201564377
0.46,-2.50,7.05,0.15,0.13,-0.04,1721201564387
-2.37,-0.35,6.82,0.19,0.12,-0.12,1721201564397
-0.65,2.01,8.46,0.19,0.24,-0.17,1721201564407
-1.07,-0.38,10.08,0.10,0.01,-0.03,1721201564417
-2.89,0.59,8.20,0.14,0.16,-0.06,1721201564427
-1.07,-1.99,10.28,-0.08,0.18,-0.10,1721201564437
-2.09,-3.48,11.78,-0.04,-0.04,0.01,1721201564447
-1.07,-4.07,11.47,0.02,0.24,0.00,1721201564457
-2.71,-0.38,10.17,0.14,-0.05,0.03,1721201564467
-0.56,1.24,11.51,0.06,0.23,0.10,1721201564477
-1.52,-1.43,10.55,0.06,-0.12,0.16,1721201564487
-0.55,-0.23,11.54,0.06,0.18,0.19,1721201564497
-0.05,3.50,13.06,0.10,-0.12,0.15,1721201564507
-0.98,0.48,7.15,0.05,-0.05,0.12,1721201564517
0.51,1.85,17.12,-0.01,0.17,0.13,1721201564527
-2.02,0.63,8.36,0.18,-0.37,0.12,1721201564537
-0.74,-1.73,8.81,-0.08,0.29,0.18,1721201564547
-1.65,2.19,12.78,0.12,-0.27,0.22,1721201564557
0.08,1.30,8.48,0.13,0.08,0.25,1721201564567
0.75,-1.62,10.13,0.06,-0.14,0.28,1721201564577
-0.23,2.05,9.01,0.11,-0.04,0.15,1721201564587
1.69,1.65,15.04,0.09,0.10,0.08,1721201564597
-1.55,2.38,6.15,0.22,-0.43,0.23,1721201564607
-0.32,0.87,7.93,0.03,0.14,0.26,1721201564617
1.81,1.45,12.70,0.14,-0.20,0.28,1721201564627
1.61,1.99,6.73,0.15,-0.07,0.20,1721201564637
1.38,0.29,8.15,-0.09,-0.04,-0.02,1721201564647
-1.73,0.57,12.88,-0.02,-0.22,-0.09,1721201564657
-1.72,1.15,10.07,0.08,-0.02,0.03,1721201564667
-0.77,-3.58,9.10,-0.15,-0.19,0.27,1721201564677
-0.75,3.38,9.81,0.07,-0.05,0.34,1721201564687
4.26,-1.15,8.56,-0.10,0.01,0.21,1721201564697
0.70,2.41,10.63,-0.06,-0.23,-0.05,1721201564707
0.41,-1.52,5.50,0.02,-0.05,-0.09,1721201564717
-1.69,0.52,10.51,-0.15,-0.03,-0.06,1721201564727
-3.14,0.88,9.47,-0.02,-0.23,0.04,1721201564737
-3.38,-0.94,3.79,-0.15,-0.11,0.22,1721201564747
1.95,-1.46,14.90,-0.26,0.14,0.37,1721201564757
2.39,-5.30,10.55,-0.15,-0.44,0.31,1721201564767
1.28,-1.48,10.57,-0.27,0.13,-0.08,1721201564777
3.23,2.51,23.66,-0.16,0.03,-0.23,1721201564787
-3.97,1.65,2.97,0.02,-0.69,-0.03,1721201564797
-3.20,0.34,2.45,-0.43,0.37,0.07,1721201564807
1.68,-2.55,14.50,-0.35,-0.14,0.19,1721201564817
0.08,-3.60,10.32,-0.17,-0.14,0.02,1721201564827
0.49,2.59,11.96,-0.20,-0.04,-0.07,1721201564837
-0.78,1.94,10.79,-0.21,-0.26,-0.01,1721201564847
-0.46,2.20,10.35,-0.24,0.07,0.01,1721201564857
-0.17,-1.22,10.62,-0.27,-0.15,0.01,1721201564867
-1.01,-0.58,8.35,-0.10,-0.08,-0.12,1721201564877
-0.09,0.19,9.82,-0.17,-0.08,-0.12,1721201564887
0.02,2.71,12.83,-0.15,-0.08,-0.05,1721201564897
0.25,4.45,10.93,0.10,-0.06,-0.09,1721201564907
1.39,2.31,10.85,0.02,-0.07,-0.17,1721201564917
-0.01,3.51,11.84,0.17,-0.12,-0.10,1721201564927
0.60,-1.72,8.44,0.18,0.03,-0.19,1721201564937
0.21,2.88,11.81,0.13,0.03,-0.18,1721201564947
-1.21,0.78,10.18,0.30,-0.11,-0.13,1721201564957
-0.46,0.79,7.12,0.31,0.07,-0.21,1721201564967
0.93,-2.81,10.82,0.13,-0.02,-0.24,1721201564977
0.28,-0.49,11.10,0.25,-0.02,-0.19,1721201564987
1.59,0.17,9.45,0.24,0.07,-0.28,1721201564997
-0.06,1.14,9.84,0.21,0.01,-0.30,1721201565007
-1.26,-1.57,9.31,0.18,0.02,-0.36,1721201565017
-1.74,-1.30,9.56,0.17,0.07,-0.37,1721201565027
-3.06,-2.89,10.55,0.12,-0.01,-0.18,1721201565037
-2.17,3.65,10.62,0.24,0.13,-0.08,1721201565047
0.69,-1.20,8.32,0.14,-0.02,-0.04,1721201565057
2.15,-0.51,10.56,0.06,0.17,-0.08,1721201565067
0.98,-1.25,11.78,0.05,0.04,-0.35,1721201565077
-3.21,-0.49,7.79,0.10,-0.13,-0.30,1721201565087
-1.62,-0.76,10.35,0.05,0.31,-0.17,1721201565097
-0.64,-1.17,12.25,0.11,-0.10,0.06,1721201565107
-0.60,-0.71,7.15,0.11,0.11,-0.02,1721201565117
1.42,1.40,11.47,0.07,0.18,-0.12,1721201565127
0.65,3.79,14.89,0.09,0.06,-0.18,1721201565137
-1.25,0.85,6.45,0.14,-0.13,-0.13,1721201565147
-0.75,-1.99,11.09,-0.05,0.28,-0.12,1721201565157
-1.36,-0.38,9.66,0.18,-0.12,0.05,1721201565167
-0.34,-2.60,8.83,-0.08,0.31,-0.01,1721201565177
-0.71,1.51,14.62,0.14,-0.06,-0.03,1721201565187
-0.30,2.34,8.44,0.11,0.13,-0.01,1721201565197
-0.21,2.00,13.55,0.05,0.10,-0.01,1721201565207
-1.39,1.05,8.05,0.09,-0.11,0.04,1721201565217
-0.87,-1.10,9.01,-0.13,0.15,0.10,1721201565227
0.42,2.07,13.32,0.13,0.01,0.07,1721201565237
0.93,-0.20,2.93,-0.00,-0.01,0.08,1721201565247
0.67,0.52,10.33,-0.15,0.18,-0.04,1721201565257
0.96,1.32,14.09,0.03,-0.07,-0.11,1721201565267
-1.79,-1.28,5.46,-0.10,-0.14,0.03,1721201565277
-0.66,2.02,10.91,-0.12,0.20,0.03,1721201565287
0.91,-2.25,8.18,-0.16,-0.10,-0.02,1721201565297
-0.29,4.37,11.52,0.02,0.08,-0.05,1721201565307
2.46,-6.34,9.38,-0.29,-0.00,-0.08,1721201565317
-2.64,0.86,11.74,-0.04,-0.20,-0.12,1721201565327
2.23,-1.26,8.47,-0.02,0.29,-0.09,1721201565337
0.68,2.32,12.58,-0.08,-0.08,0.07,1721201565347
0.82,8.37,9.83,0.07,0.12,-0.11,1721201565357
-0.21,0.50,8.95,-0.17,-0.07,-0.25,1721201565367
-0.91,-8.83,13.32,-0.35,0.15,-0.19,1721201565377
-0.71,0.19,15.77,-0.10,0.00,0.02,1721201565387
-0.34,2.10,4.30,-0.01,-0.15,0.04,1721201565397
1.33,-2.32,8.30,-0.20,0.30,-0.15,1721201565407
0.03,-0.37,12.57,0.08,-0.06,-0.32,1721201565417
-2.78,-1.56,7.61,-0.04,0.04,-0.14,1721201565427
-2.07,2.38,11.82,0.03,0.12,0.08,1721201565437
0.84,-1.22,9.84,0.04,0.02,0.04,1721201565447
1.20,0.06,9.32,0.11,0.08,-0.02,1721201565457
1.91,-1.73,7.68,0.05,0.06,-0.16,1721201565467
-0.71,4.65,12.47,0.10,0.14,-0.30,1721201565477
-1.56,0.60,12.02,-0.01,-0.05,-0.19,1721201565487
-2.60,3.29,11.11,0.08,0.17,-0.11,1721201565497
-0.08,-4.28,10.08,-0.05,0.06,-0.09,1721201565507
-2.06,1.62,14.09,0.09,0.13,-0.03,1721201565517
0.33,1.20,6.09,0.24,-0.05,-0.01,1721201565527
1.07,-2.54,12.24,-0.20,0.25,-0.16,1721201565537
-0.75,5.33,15.63,0.35,-0.11,-0.15,1721201565547
-0.60,-3.91,3.04,-0.02,0.07,-0.16,1721201565557
-2.11,3.56,11.48,0.03,0.13,-0.01,1721201565567
3.10,-2.27,8.92,0.08,0.13,-0.02,1721201565577
-1.17,-5.99,4.20,-0.23,-0.06,-0.10,1721201565587
1.80,0.03,32.13,-0.19,0.60,-0.42,1721201565597
-3.62,1.61,15.93,0.26,-0.89,-0.19,1721201565607
-5.28,7.43,2.09,0.24,0.57,-0.10,1721201565617
1.62,-0.01,9.99,0.02,-0.10,0.06,1721201565627
-0.83,-1.31,7.71,0.07,-0.05,0.05,1721201565637
1.26,3.16,6.72,0.33,0.10,0.01,1721201565647
-1.24,-1.75,2.85,-0.18,-0.05,-0.32,1721201565657
-3.48,4.28,10.77,0.16,0.08,-0.31,1721201565667
1.36,0.70,9.94,0.05,0.20,-0.01,1721201565677
-4.30,1.76,2.30,0.07,-0.42,0.08,1721201565687
1.06,-1.89,6.72,-0.11,0.48,-0.06,1721201565697
1.78,-1.85,13.51,-0.16,-0.22,-0.05,1721201565707
0.50,-0.65,12.07,-0.05,0.21,-0.20,1721201565717
1.23,-1.17,15.73,-0.09,0.11,-0.22,1721201565727
-0.74,0.88,14.78,0.04,-0.04,-0.18,1721201565737
-0.73,0.32,7.79,0.16,0.00,-0.10,1721201565747
-0.96,-0.92,4.41,-0.05,0.08,-0.04,1721201565757
0.60,2.68,15.25,-0.09,0.25,-0.14,1721201565767
-1.04,-1.06,9.68,-0.02,-0.31,-0.14,1721201565777
-1.25,1.10,12.53,-0.09,0.35,-0.15,1721201565787
-0.31,0.72,13.84,-0.01,-0.05,-0.07,1721201565797
-2.25,1.29,13.05,-0.05,0.12,-0.03,1721201565807
-0.02,2.50,13.62,0.16,0.05,0.05,1721201565817
-0.45,2.25,6.69,0.18,-0.07,0.03,1721201565827
0.31,0.52,9.41,0.13,0.07,-0.04,1721201565837
-0.84,-0.97,9.95,0.21,-0.11,-0.10,1721201565847
-2.00,3.55,8.05,0.30,-0.01,-0.08,1721201565857
-0.39,3.73,11.11,0.27,0.11,-0.01,1721201565867
-2.13,6.77,9.26,0.25,-0.08,0.01,1721201565877
-0.80,-2.84,6.64,0.00,0.10,-0.03,1721201565887
-0.52,-6.39,10.96,-0.11,0.04,-0.09,1721201565897
-1.60,4.67,11.69,0.19,-0.04,-0.01,1721201565907
-0.33,-0.44,3.74,-0.02,-0.06,0.17,1721201565917
0.80,-1.72,10.07,-0.05,0.11,0.10,1721201565927
2.81,-3.30,10.05,-0.01,0.03,-0.17,1721201565937
-1.27,1.48,8.89,-0.13,-0.10,-0.41,1721201565947
-2.16,2.06,13.97,-0.03,0.01,-0.23,1721201565957
-3.61,-3.77,5.45,-0.05,-0.18,0.13,1721201565967
-1.99,-8.58,5.61,-0.24,0.23,0.17,1721201565977
2.26,3.62,18.12,-0.04,0.20,0.00,1721201565987
0.29,-1.78,3.66,-0.07,-0.49,-0.08,1721201565997
-0.24,1.67,14.25,-0.29,0.56,-0.22,1721201566007
0.01,-1.10,11.98,0.02,-0.36,-0.08,1721201566017
-2.34,0.10,8.56,-0.25,0.20,-0.09,1721201566027
-0.75,1.69,11.63,0.03,-0.15,0.04,1721201566037
1.35,-4.13,9.33,-0.28,0.20,0.06,1721201566047
-0.79,4.21,7.02,0.17,-0.17,0.11,1721201566057
3.87,-3.23,4.34,-0.14,0.31,-0.04,1721201566067
3.45,5.42,16.03,-0.01,0.07,-0.15,1721201566077
0.62,-2.83,7.00,-0.03,-0.16,-0.38,1721201566087
-6.00,2.18,7.19,-0.06,0.01,-0.25,1721201566097
0.25,-1.58,22.17,-0.26,0.38,-0.00,1721201566107
-2.51,-1.48,15.40,-0.02,-0.50,0.15,1721201566117
-0.18,5.44,8.51,0.22,0.38,0.01,1721201566127
3.15,-5.21,6.05,-0.14,-0.03,-0.04,1721201566137
-0.14,4.82,16.21,0.10,0.24,-0.30,1721201566147
1.24,-0.39,12.50,0.23,-0.13,-0.25,1721201566157
-2.54,0.97,11.76,0.08,-0.04,-0.20,1721201566172
-1.45,1.26,11.43,0.19,0.03,0.01,1721201566176
-0.31,1.42,9.82,0.11,0.06,0.15,1721201566186
-0.25,2.58,9.05,0.20,0.00,0.06,1721201566196
2.51,1.33,7.98,0.24,0.18,-0.07,1721201566206
0.55,-1.29,6.22,0.11,-0.06,-0.02,1721201566216
-0.27,4.84,11.39,0.18,0.30,-0.14,1721201566226
-0.25,-2.01,8.65,0.08,-0.10,-0.10,1721201566236
-1.73,1.45,11.18,0.11,0.19,0.07,1721201566246
0.97,-0.94,10.51,0.20,0.11,0.02,1721201566256
-1.08,-4.01,8.17,-0.08,-0.06,-0.02,1721201566266
-1.52,5.15,16.02,0.29,0.23,-0.06,1721201566276
1.79,-1.83,8.65,0.14,0.11,-0.09,1721201566286
-4.70,1.81,6.64,0.03,-0.16,0.02,1721201566296
-1.40,-2.20,7.39,0.06,0.23,0.09,1721201566306
2.01,2.23,13.47,0.04,0.17,0.09,1721201566316
1.71,0.19,7.39,-0.08,-0.12,0.09,1721201566326
-1.12,-1.36,9.71,-0.12,0.05,-0.18,1721201566336
2.05,1.25,15.35,0.08,0.26,-0.10,1721201566346
0.19,0.07,6.79,-0.09,-0.20,0.12,1721201566356
0.37,5.25,11.74,-0.05,0.34,-0.06,1721201566366
1.81,-2.66,9.54,-0.13,-0.13,-0.10,1721201566376
-2.52,-0.50,8.66,-0.10,0.06,-0.04,1721201566386
1.71,-0.72,11.65,-0.12,0.27,-0.01,1721201566396
-1.01,-0.90,12.33,-0.17,-0.14,-0.09,1721201566406
-0.42,1.92,11.00,0.05,0.19,-0.09,1721201566416
-0.47,-0.42,7.60,-0.11,-0.01,0.02,1721201566426
-1.08,0.19,8.44,-0.16,0.07,-0.00,1721201566436
2.17,-2.42,12.68,-0.18,0.19,-0.09,1721201566446
-0.89,-0.09,10.41,-0.12,-0.14,-0.12,1721201566456
-0.92,-0.30,10.34,-0.21,0.22,-0.19,1721201566466
-3.52,-1.62,7.84,-0.13,-0.18,-0.06,1721201566476
-1.59,-2.37,10.24,-0.22,0.32,0.07,1721201566486
0.84,1.94,12.52,-0.07,-0.08,0.19,1721201566496
1.73,0.42,7.79,-0.15,0.14,0.02,1721201566506
1.95,-1.48,10.92,-0.20,0.08,-0.22,1721201566516
-1.42,-2.02,9.17,-0.10,-0.05,-0.13,1721201566526
-1.35,1.32,11.23,-0.05,0.18,-0.11,1721201566536
-1.70,1.90,12.37,0.03,-0.11,-0.03,1721201566546
-1.12,4.49,11.47,0.06,0.16,0.01,1721201566556
-0.24,3.47,12.98,0.03,-0.02,0.01,1721201566566
-1.19,0.03,8.51,0.06,-0.04,0.02,1721201566576
0.05,-3.03,8.99,-0.07,0.17,-0.07,1721201566586
-0.55,-1.38,12.46,0.01,0.04,-0.17,1721201566596
-2.16,1.91,8.04,0.20,-0.00,-0.21,1721201566606
-0.98,-0.93,11.34,-0.10,0.12,-0.08,1721201566616
-1.96,3.02,14.32,0.19,-0.07,0.02,1721201566626
0.86,-1.86,6.24,0.15,0.03,-0.02,1721201566636
1.07,-2.21,11.04,0.04,0.13,-0.07,1721201566646
0.15,0.05,8.26,0.20,-0.08,-0.25,1721201566656
-1.83,-1.56,9.56,0.06,0.16,-0.34,1721201566666
-2.08,2.02,11.61,0.22,0.08,-0.19,1721201566676
-2.04,0.22,7.51,0.15,-0.07,-0.04,1721201566686
-0.28,0.21,10.47,0.12,0.17,0.05,1721201566696
2.12,-3.54,10.86,0.07,0.07,-0.06,1721201566706
0.12,3.43,13.35,0.08,0.10,-0.32,1721201566716
-0.50,0.34,7.75,0.15,-0.05,-0.34,1721201566726
-4.35,1.54,9.13,0.03,0.10,-0.23,1721201566736
-2.71,0.70,9.27,0.16,0.14,-0.08,1721201566746
-1.44,2.22,9.85,0.08,0.07,0.02,1721201566756
0.34,1.25,7.09,0.09,0.08,-0.03,1721201566766
2.07,-0.03,10.22,0.02,0.18,-0.10,1721201566776
1.35,-4.33,10.00,-0.16,-0.02,-0.20,1721201566786
0.58,4.59,13.82,0.17,0.18,-0.22,1721201566796
3.10,-0.01,10.35,0.01,0.23,-0.28,1721201566806
-1.80,2.87,12.43,0.06,-0.01,-0.30,1721201566816
-0.94,-1.17,5.58,0.02,0.17,-0.31,1721201566826
-0.44,5.50,16.05,0.00,0.35,-0.26,1721201566836
-2.35,0.02,6.98,0.11,-0.18,-0.10,1721201566846
-2.58,0.00,7.39,-0.10,0.45,-0.06,1721201566856
1.45,1.84,17.26,0.07,0.16,-0.07,1721201566866
-2.39,-0.09,3.40,0.05,-0.18,-0.09,1721201566876
-1.78,2.72,9.50,-0.07,0.49,-0.11,1721201566886
0.24,0.10,10.93,0.02,-0.04,-0.08,1721201566896
-2.63,-5.02,8.14,-0.19,0.06,-0.02,1721201566906
-2.46,-0.69,13.93,0.08,0.15,-0.04,1721201566916
-0.42,-1.22,10.87,-0.07,0.20,0.02,1721201566926
-3.12,4.44,11.75,0.01,0.03,0.08,1721201566936
-1.02,-2.38,6.29,-0.16,0.18,0.09,1721201566946
-2.10,-3.96,9.48,-0.24,0.07,0.11,1721201566956
-0.21,-1.23,12.91,-0.11,0.20,0.05,1721201566966
-1.59,-2.70,6.55,-0.11,-0.12,0.17,1721201566976
-1.80,1.92,12.56,-0.10,0.24,0.20,1721201566986
-0.79,-2.26,7.90,-0.07,-0.21,0.27,1721201566996
0.19,-0.82,10.43,-0.26,0.30,0.16,1721201567006
0.69,2.53,14.83,-0.10,-0.05,0.18,1721201567016
-1.99,0.09,9.31,-0.17,-0.14,0.26,1721201567026
-0.21,-0.68,12.00,-0.15,0.17,0.39,1721201567036
1.86,1.08,11.82,-0.10,-0.01,0.31,1721201567046
1.30,1.84,9.43,-0.05,0.03,0.22,1721201567056
2.12,1.48,10.33,-0.06,0.12,0.08,1721201567066
-0.97,-1.04,10.09,-0.09,-0.14,0.05,1721201567076
-2.01,2.92,12.11,0.07,0.02,0.17,1721201567086
0.52,-3.82,9.47,-0.05,0.06,0.24,1721201567096
-1.83,-1.01,10.99,0.07,-0.22,0.30,1721201567106
3.26,0.33,10.70,0.18,0.20,0.32,1721201567116
1.83,2.57,8.40,0.17,-0.13,0.20,1721201567126
1.45,0.32,11.00,0.04,0.07,0.06,1721201567136
0.40,0.24,11.76,0.13,-0.12,0.00,1721201567146
-1.65,-4.20,8.22,-0.01,-0.09,0.05,1721201567156
-1.99,-0.29,14.66,0.11,0.05,0.19,1721201567166
1.46,2.77,10.59,0.31,0.03,0.37,1721201567176
1.74,-3.92,3.62,0.03,-0.06,0.39,1721201567186
3.32,2.06,13.43,0.07,0.21,0.05,1721201567196
3.20,0.02,9.41,0.08,-0.12,-0.12,1721201567206
-2.00,-3.00,8.42,-0.14,-0.10,-0.02,1721201567216
-3.47,-2.00,10.60,0.07,-0.06,0.16,1721201567226
0.59,-4.48,11.33,-0.07,0.28,0.12,1721201567236
0.56,1.22,14.13,0.18,-0.19,0.27,1721201567246
1.36,-0.08,6.43,0.06,0.17,0.18,1721201567256
1.40,3.71,13.60,0.16,0.02,0.06,1721201567266
-1.12,-2.40,6.86,-0.02,-0.13,0.03,1721201567276
-2.73,2.13,14.49,0.08,0.16,0.01,1721201567286
0.56,-4.19,9.28,0.05,-0.06,0.19,1721201567296
-1.28,1.41,10.67,-0.02,0.00,0.25,1721201567306
1.28,2.01,7.25,0.16,-0.01,0.18,1721201567316
1.99,2.15,5.80,0.01,0.10,0.03,1721201567326
0.91,-2.30,9.78,-0.17,-0.05,-0.06,1721201567336
-3.17,-3.06,10.45,-0.15,-0.10,0.00,1721201567346
-2.76,0.39,14.00,0.02,0.03,0.05,1721201567356
-0.43,3.08,13.24,0.08,-0.09,0.14,1721201567366
-0.24,2.83,6.86,0.03,-0.18,0.29,1721201567376
2.17,3.68,9.27,-0.15,0.12,0.14,1721201567386
2.35,-3.19,12.28,-0.30,-0.13,-0.01,1721201567396
-1.47,-2.60,11.54,-0.18,-0.07,-0.15,1721201567406
-0.44,-0.84,9.39,-0.08,-0.04,-0.01,1721201567416
-1.20,-2.39,10.44,-0.20,-0.13,0.16,1721201567426
-0.70,3.34,11.70,0.01,-0.07,0.23,1721201567436
1.75,1.70,9.50,-0.03,-0.00,0.14,1721201567446
2.32,0.65,8.84,-0.17,-0.06,0.04,1721201567456
1.13,-2.61,8.47,-0.18,-0.12,0.01,1721201567466
1.04,0.98,14.67,-0.14,0.11,-0.15,1721201567476
-0.02,-3.79,9.73,-0.18,-0.29,-0.10,1721201567486
-2.24,0.73,10.91,-0.03,0.13,-0.16,1721201567496
1.37,-1.69,11.12,-0.12,-0.02,-0.11,1721201567506
-3.38,7.26,12.58,0.01,-0.17,0.06,1721201567516
0.78,-0.87,6.45,0.14,0.02,0.07,1721201567526
1.99,-2.59,6.56,-0.11,0.00,0.02,1721201567536
0.77,0.55,7.72,0.00,-0.09,-0.07,1721201567546
2.20,1.45,7.71,0.06,0.09,-0.19,1721201567556
-1.25,-0.56,4.64,-0.05,-0.23,-0.29,1721201567566
-2.47,-0.22,5.37,0.03,0.10,-0.28,1721201567576
1.81,-2.14,17.16,-0.17,0.26,-0.00,1721201567586
-1.97,0.18,17.51,-0.08,-0.21,-0.12,1721201567596
-1.12,0.45,12.69,0.01,0.18,-0.30,1721201567606
-2.59,0.40,10.62,-0.00,-0.07,-0.22,1721201567616
-3.16,-0.49,7.56,0.05,-0.02,-0.08,1721201567626
0.85,0.26,8.57,0.13,0.13,-0.03,1721201567636
1.34,-3.15,7.92,-0.06,-0.04,-0.13,1721201567646
-0.25,3.54,13.01,0.05,0.10,-0.49,1721201567656
-0.35,0.55,12.49,-0.04,-0.07,-0.45,1721201567666
-3.63,-4.15,10.95,-0.05,-0.02,-0.17,1721201567676
-1.82,0.70,13.10,0.20,0.24,-0.20,1721201567686
-2.12,2.78,8.21,0.18,-0.16,-0.17,1721201567696
-1.57,1.36,9.76,0.06,0.14,-0.24,1721201567706
0.04,0.02,13.98,0.23,-0.01,-0.23,1721201567716
-0.83,0.92,9.29,0.16,0.13,-0.28,1721201567726
-2.34,0.45,10.82,0.15,-0.05,-0.20,1721201567736
-2.16,1.69,10.39,0.23,0.07,-0.14,1721201567746
-0.01,1.33,11.64,0.22,0.09,-0.11,1721201567756
-1.27,3.73,6.90,0.23,-0.13,-0.17,1721201567766
-0.20,1.44,10.57,0.16,0.15,-0.23,1721201567776
-1.03,-1.09,8.25,0.14,-0.12,-0.20,1721201567786
-2.04,-1.87,9.51,0.14,0.07,-0.09,1721201567796
-0.40,2.08,11.46,0.24,0.03,-0.02,1721201567806
0.57,1.41,7.61,0.15,-0.04,0.02,1721201567816
0.88,1.02,10.22,0.01,0.10,-0.08,1721201567826
0.62,-0.69,11.39,0.03,0.04,-0.28,1721201567836
-0.70,-1.56,10.90,-0.01,-0.02,-0.13,1721201567846
-2.29,1.66,7.70,0.06,-0.04,0.02,1721201567856
-0.63,-0.57,7.36,-0.06,0.07,0.08,1721201567866
1.05,-2.47,12.36,-0.12,0.10,0.02,1721201567876
-0.55,0.84,12.19,0.04,-0.14,-0.11,1721201567886
-2.12,4.51,7.85,0.01,0.03,-0.09,1721201567896
-2.45,-3.21,7.81,-0.38,-0.13,0.02,1721201567906
-4.30,0.43,13.42,-0.08,-0.04,0.09,1721201567916
0.22,-4.19,8.71,-0.10,0.07,0.19,1721201567926
-1.96,-0.73,9.91,-0.23,-0.09,0.21,1721201567936
1.11,2.92,12.40,-0.11,0.13,0.24,1721201567946
1.74,1.64,6.85,-0.13,-0.27,0.15,1721201567956
1.44,-1.54,9.94,-0.29,0.06,-0.05,1721201567966
1.53,-2.88,14.93,-0.20,-0.05,-0.09,1721201567976
-1.41,1.43,7.93,-0.15,-0.13,-0.08,1721201567986
-3.27,-0.08,8.40,-0.23,-0.05,-0.03,1721201567996
-2.32,-0.16,10.49,-0.15,-0.03,0.12,1721201568006
0.29,1.13,9.89,-0.09,0.01,0.09,1721201568016
1.80,0.31,11.32,-0.09,-0.03,0.02,1721201568026
0.09,3.10,11.97,-0.10,-0.02,-0.11,1721201568036
-1.66,-2.02,7.67,-0.05,-0.19,-0.06,1721201568046
-2.28,-0.99,7.08,0.00,0.02,0.01,1721201568056
0.99,1.70,13.58,0.07,0.04,0.04,1721201568066
1.28,-0.51,11.13,-0.00,-0.17,0.03,1721201568076
0.57,2.65,11.76,0.06,0.08,-0.11,1721201568086
1.55,-1.64,10.83,-0.01,-0.08,-0.13,1721201568096
-2.58,-0.45,9.74,0.06,-0.20,-0.14,1721201568106
-0.56,2.66,9.22,0.30,0.03,-0.06,1721201568116
0.62,0.16,7.23,0.15,-0.11,0.05,1721201568126
1.35,2.78,12.67,0.16,0.10,0.03,1721201568136
2.66,-2.60,10.26,0.14,-0.11,-0.01,1721201568146
0.12,1.68,12.24,0.08,0.08,-0.16,1721201568156
1.41,-1.90,8.88,0.18,-0.08,-0.11,1721201568166
0.69,1.59,12.57,0.16,0.09,-0.15,1721201568181
0.30,1.39,10.01,0.23,-0.01,-0.16,1721201568185
0.31,-1.81,8.28,0.06,0.12,-0.21,1721201568195
0.65,2.04,15.01,0.15,0.17,-0.19,1721201568205
0.42,-0.71,6.77,0.20,-0.04,-0.13,1721201568215
0.18,0.09,8.64,0.04,0.28,-0.18,1721201568225
0.09,-0.65,12.21,0.10,0.03,-0.31,1721201568235
-0.17,1.42,11.92,0.17,0.23,-0.31,1721201568245
-0.25,0.60,7.79,0.19,0.16,-0.28,1721201568255
-2.14,-0.00,8.60,0.05,0.20,-0.31,1721201568265
-2.07,-0.05,11.95,0.14,0.18,-0.16,1721201568275
-0.74,-0.72,9.11,0.04,0.18,-0.07,1721201568285
-0.23,0.26,9.53,0.06,0.16,-0.07,1721201568295
0.49,0.37,11.46,0.04,0.21,-0.21,1721201568305
-1.04,3.07,7.41,0.14,0.02,-0.11,1721201568315
1.25,1.22,11.15,-0.11,0.41,-0.07,1721201568325
0.09,2.31,12.61,0.02,0.02,-0.11,1721201568335
-1.35,0.14,7.90,-0.13,0.19,-0.25,1721201568345
-1.93,0.73,9.70,-0.08,0.12,-0.08,1721201568355
0.20,-2.64,10.92,-0.20,0.22,0.05,1721201568365
0.06,2.71,12.51,0.08,0.05,0.09,1721201568375
2.52,2.73,6.69,0.07,0.21,0.01,1721201568385
1.38,-1.04,7.60,-0.27,0.10,-0.15,1721201568395
0.96,-1.45,12.97,-0.13,0.21,-0.27,1721201568405
-0.14,0.75,8.89,0.00,0.14,-0.21,1721201568415
-1.49,-1.30,8.19,-0.28,0.19,-0.14,1721201568425
-2.43,-2.05,12.24,-0.09,0.10,-0.05,1721201568435
-1.54,-2.24,10.79,-0.11,0.20,-0.08,1721201568445
-0.90,2.47,12.37,-0.03,0.19,-0.03,1721201568455
-0.54,0.20,9.34,-0.06,0.12,0.01,1721201568465
-2.05,-3.62,5.49,-0.08,0.05,-0.08,1721201568475
1.22,1.17,13.07,-0.03,0.42,-0.13,1721201568485
-0.35,-0.16,9.87,0.01,-0.12,-0.03,1721201568495
-1.17,0.62,9.92,-0.06,0.29,-0.04,1721201568505
-0.63,-0.14,11.86,-0.07,0.07,-0.05,1721201568515
-2.26,0.98,10.33,0.04,0.02,-0.01,1721201568525
-1.57,0.64,8.47,0.09,0.18,0.02,1721201568535
-0.99,-1.02,11.05,-0.08,0.07,0.01,1721201568545
-2.82,3.91,12.03,0.15,0.06,0.09,1721201568555
-1.36,3.47,11.64,0.16,0.11,0.06,1721201568565
-1.87,-3.69,10.21,0.00,-0.11,0.21,1721201568575
-0.98,-0.22,10.72,0.20,0.14,0.27,1721201568585
1.52,0.20,8.84,0.15,-0.02,0.18,1721201568595
-0.89,3.69,8.95,0.14,-0.02,0.04,1721201568605
-0.05,-1.07,11.71,0.04,0.06,0.02,1721201568615
-3.02,-1.73,10.62,0.09,-0.24,0.21,1721201568625
-3.02,-2.62,8.01,0.08,0.05,0.30,1721201568635
0.76,1.18,13.29,0.12,0.10,0.26,1721201568645
1.10,-1.23,10.17,0.11,-0.28,0.29,1721201568655
-1.38,-1.75,4.85,0.10,-0.13,0.22,1721201568665
2.02,2.06,13.46,0.01,0.20,0.09,1721201568675
-0.17,-1.78,9.09,-0.04,-0.46,0.15,1721201568685
-1.78,-3.21,9.87,-0.03,0.07,0.14,1721201568695
1.45,0.46,14.53,0.05,-0.06,0.22,1721201568705
-1.44,0.85,5.35,0.04,-0.36,0.18,1721201568715
-0.21,-0.36,7.62,-0.07,0.11,0.10,1721201568725
0.64,-0.85,13.31,-0.02,-0.16,0.05,1721201568735
-1.07,2.96,11.97,0.02,-0.12,0.02,1721201568745
-1.22,0.51,7.40,0.10,-0.25,0.11,1721201568755
-0.62,-1.39,8.90,-0.14,-0.01,0.08,1721201568765
-0.07,1.71,12.63,-0.05,-0.25,0.07,1721201568775
0.44,2.19,8.40,0.10,-0.15,0.09,1721201568785
2.03,1.74,7.96,-0.05,-0.04,-0.00,1721201568795
1.77,2.95,9.48,-0.04,-0.24,-0.02,1721201568805
1.49,0.94,12.91,-0.22,-0.02,-0.22,1721201568815
-0.46,3.15,13.54,0.05,-0.23,-0.29,1721201568825
-1.98,-1.67,5.00,-0.15,-0.17,-0.13,1721201568835
-3.41,-0.80,12.64,-0.17,-0.08,0.09,1721201568845
-1.89,2.49,12.73,0.05,-0.23,0.19,1721201568855
-0.48,3.21,10.18,-0.02,-0.16,0.18,1721201568865
1.24,2.60,9.47,0.04,-0.12,0.10,1721201568875
0.76,-1.19,8.09,-0.21,-0.14,-0.07,1721201568885
-2.55,3.26,11.61,-0.06,-0.25,-0.11,1721201568895
-1.39,-3.28,6.90,-0.04,-0.16,0.15,1721201568905
-0.66,-1.91,11.00,-0.08,-0.08,0.28,1721201568915
1.35,-1.17,10.44,-0.04,-0.21,0.15,1721201568925
0.94,2.05,12.33,-0.06,-0.14,-0.01,1721201568935
1.25,3.40,12.50,-0.04,-0.21,-0.06,1721201568945
0.57,-3.52,7.41,-0.11,-0.18,-0.08,1721201568955
-1.38,0.91,9.17,0.01,-0.09,-0.12,1721201568965
0.22,-0.78,10.56,-0.08,-0.15,-0.05,1721201568975
-0.94,-0.68,9.31,-0.03,-0.33,0.06,1721201568985
2.22,-1.75,10.05,-0.09,0.11,-0.05,1721201568995
1.06,2.14,11.48,0.03,-0.26,-0.10,1721201569005
1.15,0.58,8.74,-0.06,0.01,-0.22,1721201569015
1.63,-0.51,13.60,-0.03,-0.09,-0.29,1721201569025
0.55,-1.21,10.24,0.06,-0.09,-0.31,1721201569035
-1.02,1.15,9.57,0.04,-0.03,-0.26,1721201569045
0.43,-2.53,8.57,-0.02,0.04,-0.19,1721201569055
-0.94,-1.48,10.78,0.04,-0.14,-0.24,1721201569065
0.68,0.84,11.27,0.14,0.03,-0.27,1721201569075
1.66,0.95,9.93,0.07,0.07,-0.32,1721201569085
-1.24,-1.51,10.62,-0.03,-0.09,-0.35,1721201569095
-2.50,-0.77,11.89,0.09,0.01,-0.27,1721201569105
-1.68,-0.64,5.02,0.08,0.03,-0.14,1721201569115
0.15,-2.45,12.16,0.00,0.11,-0.01,1721201569125
0.88,-1.00,9.21,0.04,-0.11,-0.06,1721201569135
0.72,2.60,12.03,0.13,0.14,-0.29,1721201569145
2.44,1.41,11.51,0.14,0.13,-0.18,1721201569155
-0.32,0.30,10.88,0.01,-0.04,-0.20,1721201569165
-1.06,3.20,13.66,0.21,0.07,-0.23,1721201569175
0.93,0.90,8.61,0.19,0.08,-0.05,1721201569185
0.88,-1.70,7.89,0.03,0.14,-0.12,1721201569195
1.13,0.78,11.26,0.18,0.14,-0.29,1721201569205
0.03,1.41,9.57,0.22,0.05,-0.31,1721201569215
-1.46,0.70,8.37,0.13,0.08,-0.22,1721201569225
-1.76,1.75,13.14,0.16,0.21,-0.16,1721201569235
0.07,1.58,9.01,0.17,0.11,-0.14,1721201569245
-0.88,0.04,6.10,0.04,0.05,-0.12,1721201569255
0.92,-1.83,10.23,-0.08,0.22,-0.06,1721201569265
0.21,1.37,16.04,0.02,0.07,-0.31,1721201569275
-2.06,2.33,9.15,0.15,-0.10,-0.23,1721201569285
-2.93,1.92,5.39,-0.03,0.10,-0.06,1721201569295
-0.87,-1.46,10.94,-0.15,0.14,-0.04,1721201569305
0.35,-0.27,12.13,-0.00,-0.02,-0.04,1721201569315
-0.78,0.40,4.46,-0.03,-0.13,-0.05,1721201569325
1.24,-1.83,10.14,-0.17,0.26,-0.05,1721201569335
1.39,1.83,13.18,-0.11,0.02,-0.09,1721201569345
1.14,-0.86,9.58,-0.19,0.12,-0.19,1721201569355
0.26,0.79,9.70,-0.13,0.06,-0.29,1721201569365
-0.91,-6.71,7.24,-0.33,0.06,-0.25,1721201569375
-2.87,-2.06,13.27,-0.20,0.11,-0.20,1721201569385
0.18,4.99,13.52,0.05,0.19,-0.08,1721201569395
1.38,-3.19,7.06,-0.26,-0.06,0.10,1721201569405
0.43,-1.51,12.75,-0.23,0.22,-0.08,1721201569415
1.64,1.21,10.67,0.01,0.10,-0.24,1721201569425
0.05,0.38,7.49,-0.26,0.16,-0.31,1721201569435
-1.78,-0.41,12.98,-0.11,0.07,-0.27,1721201569445
-1.62,0.55,10.37,-0.00,0.09,-0.09,1721201569455
0.01,1.46,11.62,-0.16,0.22,0.09,1721201569465
0.75,4.83,12.27,0.03,0.13,-0.07,1721201569475
1.23,-2.70,7.31,-0.09,0.09,-0.23,1721201569485
0.03,-0.69,11.81,-0.08,0.25,-0.40,1721201569495
0.10,4.00,13.64,0.12,0.13,-0.36,1721201569505
-3.50,0.05,6.65,0.01,-0.06,-0.15,1721201569515
-1.76,-1.12,12.22,0.04,0.37,-0.12,1721201569525
1.63,-1.93,12.93,0.08,0.13,-0.08,1721201569535
-1.76,0.16,8.22,0.06,0.07,-0.30,1721201569545
0.14,0.71,11.02,0.14,0.31,-0.40,1721201569555
-1.76,0.02,12.42,0.10,0.06,-0.31,1721201569565
-3.27,1.06,9.40,0.22,0.14,-0.19,1721201569575
-1.07,0.89,10.59,0.15,0.24,-0.15,1721201569585
-1.36,-0.69,9.22,0.06,-0.01,-0.17,1721201569595
-0.18,-0.27,10.89,0.10,0.31,-0.28,1721201569605
-1.75,1.41,9.84,0.13,-0.01,-0.31,1721201569615
-2.90,-0.43,7.56,0.07,0.15,-0.25,1721201569625
-2.59,1.18,13.86,0.11,0.16,-0.18,1721201569635
-1.54,2.45,9.42,0.22,-0.01,-0.09,1721201569645
-1.41,0.23,5.34,0.09,0.12,-0.09,1721201569655
-0.53,-1.07,12.22,-0.05,0.10,-0.08,1721201569665
-0.76,-1.04,14.84,0.14,0.07,-0.05,1721201569675
-1.46,1.83,10.67,0.16,0.03,-0.03,1721201569685
-1.04,3.28,7.89,0.20,-0.00,0.08,1721201569695
0.93,1.82,9.60,0.15,0.16,0.08,1721201569705
0.90,-0.11,9.78,0.11,-0.04,-0.02,1721201569715
-0.65,0.15,8.10,0.10,0.02,-0.12,1721201569725
-0.94,0.19,10.70,0.03,0.07,-0.03,1721201569735
-2.18,2.38,10.86,0.11,-0.03,0.09,1721201569745
-0.75,-0.44,9.40,0.00,0.07,0.20,1721201569755
-0.00,-0.58,9.83,-0.02,-0.02,0.17,1721201569765
0.63,0.93,10.34,0.03,0.04,0.08,1721201569775
-0.05,-0.10,8.61,-0.11,-0.06,0.04,1721201569785
-2.18,1.15,10.69,-0.03,-0.12,0.11,1721201569795
-0.61,0.39,10.00,-0.01,0.01,0.21,1721201569805
-0.24,0.66,10.59,-0.08,-0.11,0.14,1721201569815
-0.15,-0.79,10.11,-0.12,-0.06,0.11,1721201569825
-1.11,1.33,11.02,-0.09,-0.03,0.11,1721201569835
-1.13,-0.45,8.39,-0.10,-0.12,0.14,1721201569845
0.49,-0.10,9.65,-0.13,0.00,0.22,1721201569855
1.30,-0.32,10.08,-0.12,-0.07,0.14,1721201569865
0.95,1.13,9.83,-0.15,-0.08,-0.01,1721201569875
-0.04,0.40,10.81,-0.16,-0.06,-0.10,1721201569885
-1.44,-2.02,8.46,-0.13,-0.15,-0.02,1721201569895
-1.61,-0.02,10.04,-0.14,-0.05,0.06,1721201569905
-1.00,2.50,11.42,-0.03,-0.16,0.16,1721201569915
0.05,1.59,9.24,-0.11,-0.06,0.19,1721201569925
0.24,-0.54,9.51,-0.14,-0.20,0.06,1721201569935
-0.03,-0.73,11.26,-0.08,-0.07,-0.01,1721201569945
-0.30,0.06,10.32,-0.04,-0.15,-0.05,1721201569955
-0.28,-1.13,8.87,0.06,-0.13,0.13,1721201569965
1.40,-0.77,10.87,0.05,0.03,0.10,1721201569975
2.42,2.99,13.93,0.12,-0.12,0.07,1721201569985
1.63,3.44,8.86,0.20,-0.09,-0.04,1721201569995
0.68,-1.80,8.45,-0.03,-0.07,-0.20,1721201570005
0.50,1.09,13.91,0.11,0.01,-0.25,1721201570015
-0.55,-2.15,7.61,0.15,-0.26,-0.10,1721201570025
-0.17,-0.19,9.55,0.08,0.11,0.02,1721201570035
2.50,1.76,14.83,0.22,0.07,-0.04,1721201570045
1.13,2.07,8.60,0.20,-0.15,-0.18,1721201570055
1.54,-0.07,7.34,0.10,0.14,-0.29,1721201570065
-0.18,-0.49,12.18,0.10,-0.02,-0.40,1721201570075
-2.31,-1.51,9.72,0.12,-0.07,-0.27,1721201570085
-1.39,0.46,9.91,0.18,0.13,-0.10,1721201570095
1.51,0.20,8.34,0.18,0.10,-0.03,1721201570105
2.66,0.27,9.79,0.10,0.15,-0.18,1721201570115
0.81,1.45,10.05,0.12,0.03,-0.45,1721201570125
0.34,-0.71,8.56,-0.14,0.10,0.29,1721201570692
1.40,-2.10,10.49,-0.23,-0.07,0.08,1721201570697
1.48,3.46,12.67,-0.05,0.07,-0.09,1721201570706
-2.11,-0.68,4.11,-0.17,-0.33,0.02,1721201570716
-3.33,-7.04,16.47,-0.58,0.21,0.13,1721201570726
-1.77,2.41,27.90,-0.04,-0.21,0.17,1721201570736
-2.62,4.48,9.45,0.16,-0.26,0.20,1721201570745
-0.62,1.67,-0.19,-0.27,0.05,0.39,1721201570755
1.33,2.66,12.15,-0.23,0.09,0.41,1721201570764
2.51,5.02,10.26,0.19,-0.19,0.26,1721201570774
4.34,-9.90,-0.79,-0.13,-0.08,0.06,1721201570783
2.06,-1.24,15.53,-0.49,0.21,-0.24,1721201570793
3.48,15.90,11.60,0.12,-0.42,-0.27,1721201570803
1.15,-1.32,11.88,-0.27,0.30,-0.02,1721201570813
-5.38,0.45,12.51,-0.05,-0.54,0.38,1721201570823
0.47,-10.96,-0.36,-0.07,0.36,0.24,1721201570833
0.84,-1.27,9.69,-0.34,-0.20,-0.02,1721201570842
-3.90,7.83,7.20,-0.06,-0.31,-0.13,1721201570852
3.03,2.67,15.04,0.03,0.14,0.18,1721201570862
-0.20,-3.81,8.92,-0.35,-0.19,-0.00,1721201570872
-1.44,2.85,16.62,-0.17,0.01,-0.28,1721201570882
-0.53,-2.53,11.39,-0.08,-0.25,-0.07,1721201570892
-2.93,3.34,5.42,0.07,-0.12,0.31,1721201570902
3.03,-5.01,8.02,-0.03,0.20,0.35,1721201570912
1.19,-2.25,12.57,-0.18,-0.08,-0.12,1721201570922
2.39,16.95,12.91,0.36,-0.00,-0.26,1721201570932
1.32,-14.48,3.07,-0.22,-0.34,-0.17,1721201570942
-3.25,-5.41,18.05,-0.23,0.15,-0.23,1721201570952
-0.45,9.51,24.73,0.16,-0.22,-0.17,1721201570962
-1.62,-1.24,9.35,0.00,-0.04,0.05,1721201570972
0.40,1.49,7.59,0.16,0.23,0.06,1721201570982
0.97,-4.76,10.04,0.04,-0.04,-0.23,1721201570992
-7.99,3.90,3.92,0.11,-0.37,0.05,1721201571002
3.73,-0.49,15.65,0.06,0.74,0.22,1721201571012
2.86,0.63,12.07,0.22,-0.48,0.29,1721201571022
0.83,-0.04,2.73,0.11,0.22,0.04,1721201571032
5.59,6.30,19.00,0.20,0.32,-0.29,1721201571042
0.03,0.21,7.40,0.28,-0.52,-0.17,1721201571052
-2.00,-4.51,4.73,0.01,0.39,-0.07,1721201571062
1.95,0.71,20.40,0.27,0.30,0.00,1721201571072
-0.50,6.09,6.49,0.29,-0.11,-0.23,1721201571082
-2.41,-1.03,-1.11,-0.17,-0.03,-0.14,1721201571092
1.52,-4.21,14.85,-0.04,0.50,0.02,1721201571102
3.08,1.86,9.93,0.15,-0.08,-0.13,1721201571112
-4.07,-0.90,5.17,-0.20,-0.14,-0.37,1721201571122
-4.55,5.11,19.28,0.07,0.24,-0.30,1721201571132
0.47,-0.15,7.98,0.00,0.11,0.18,1721201571142
-1.14,-0.20,6.23,-0.21,0.08,0.14,1721201571152
2.76,-4.92,17.30,-0.36,0.31,-0.29,1721201571162
0.40,0.26,23.82,-0.01,-0.21,-0.36,1721201571172
-3.93,8.36,1.55,0.46,-0.03,-0.06,1721201571182
-1.76,1.99,6.77,-0.37,0.45,-0.11,1721201571192
-2.90,4.28,17.88,-0.01,-0.14,-0.02,1721201571202
1.59,0.17,-0.23,0.41,0.08,0.16,1721201571212
3.86,-3.37,-1.06,-0.28,0.12,0.06,1721201571222
-2.21,-1.09,11.17,-0.11,0.38,-0.38,1721201571232
1.73,-2.38,18.00,-0.03,0.08,-0.56,1721201571242
-4.74,-1.27,6.18,-0.19,-0.30,-0.33,1721201571252
-4.51,0.70,11.08,-0.10,0.34,-0.02,1721201571262
0.79,-3.49,16.94,-0.20,0.16,0.25,1721201571272
-0.34,1.12,16.07,-0.10,0.02,0.13,1721201571282
0.15,3.28,5.64,0.19,-0.04,-0.04,1721201571292
1.41,-1.99,3.65,-0.07,0.16,-0.12,1721201571302
1.19,-0.19,9.95,-0.01,0.11,-0.14,1721201571312
0.55,-0.06,11.30,0.01,0.09,-0.17,1721201571322
-1.15,1.74,9.80,-0.07,0.04,-0.16,1721201571332
-2.19,0.47,11.10,-0.06,0.10,-0.14,1721201571342
-2.70,-2.72,10.01,-0.07,0.02,-0.08,1721201571352
-2.03,0.24,11.23,0.04,0.10,-0.03,1721201571362
-0.37,0.12,9.51,0.04,0.09,-0.09,1721201571372
-1.13,-1.09,11.04,-0.05,0.08,-0.05,1721201571382
-1.76,-1.42,10.88,0.01,0.00,-0.06,1721201571392
-0.68,-1.11,9.06,0.01,0.02,-0.07,1721201571402
0.56,2.88,12.90,0.08,0.10,-0.10,1721201571412
-1.72,0.41,8.51,0.13,-0.21,-0.04,1721201571422
-2.35,-1.94,9.38,-0.01,0.23,-0.11,1721201571432
0.31,-0.68,13.38,0.02,0.05,-0.10,1721201571442
-2.15,3.64,8.99,0.08,-0.15,-0.10,1721201571452
-1.41,2.13,9.48,0.09,0.10,-0.11,1721201571462
-1.63,-1.75,9.85,0.09,-0.16,0.05,1721201571472
-2.44,0.81,9.03,0.11,0.05,0.10,1721201571482
0.57,1.25,12.21,0.00,0.12,-0.03,1721201571492
-1.49,2.14,11.59,0.09,-0.24,-0.10,1721201571502
-1.55,0.08,9.19,0.11,0.03,-0.06,1721201571512
-1.95,-0.35,10.27,0.10,-0.15,0.12,1721201571522
-1.56,2.43,10.11,0.13,0.01,0.12,1721201571532
1.18,0.57,11.42,0.08,-0.02,0.12,1721201571542
0.67,2.95,10.28,0.18,-0.14,0.12,1721201571552
2.27,-2.10,7.64,0.09,-0.02,0.11,1721201571562
2.95,0.91,13.58,0.11,0.05,-0.02,1721201571572
1.79,5.83,9.15,0.29,-0.11,-0.22,1721201571582
-0.78,1.91,8.49,-0.05,-0.01,-0.25,1721201571592
-4.01,1.05,13.59,0.09,-0.21,-0.11,1721201571602
-2.44,-2.00,6.98,0.05,-0.00,0.11,1721201571612
-1.34,-1.27,8.44,-0.09,-0.08,0.26,1721201571622
-1.29,1.79,10.94,-0.03,-0.05,0.01,1721201571632
-1.40,0.87,9.61,0.03,-0.14,0.07,1721201571642
-1.14,0.39,8.11,-0.09,0.01,0.19,1721201571652
1.01,-1.63,9.79,-0.16,-0.13,0.25,1721201571662
2.17,-3.28,13.73,-0.21,0.01,0.08,1721201571672
1.13,0.33,13.80,-0.04,-0.19,-0.02,1721201571682
-1.60,-0.59,6.16,-0.03,-0.19,0.02,1721201571692
0.28,0.12,8.49,-0.09,0.12,0.02,1721201571702
1.17,-3.41,7.45,-0.04,-0.24,0.04,1721201571712
-0.90,-0.17,9.73,-0.11,0.01,-0.07,1721201571722
-0.90,-1.26,12.04,-0.11,-0.05,-0.05,1721201571732
-2.67,-0.14,10.61,-0.11,-0.13,0.00,1721201571742
0.26,-1.95,9.79,-0.09,-0.13,0.15,1721201571752
2.97,2.53,10.37,-0.03,0.11,0.17,1721201571762
2.40,2.15,8.49,-0.10,-0.10,-0.05,1721201571772
0.95,-2.93,9.12,-0.18,-0.05,-0.22,1721201571782
-0.73,-0.50,12.46,-0.06,0.01,-0.33,1721201571792
-0.23,-0.23,12.31,-0.06,-0.06,-0.17,1721201571802
-1.23,3.60,10.66,0.02,-0.05,0.06,1721201571812
0.06,-1.02,9.01,0.01,-0.01,0.04,1721201571822
1.95,-1.24,12.12,-0.02,0.14,-0.13,1721201571832
-0.44,1.27,12.14,0.11,-0.16,-0.28,1721201571842
-1.18,2.36,10.22,0.15,0.07,-0.11,1721201571852
-1.12,1.03,8.53,0.07,-0.06,-0.02,1721201571862
-0.21,0.46,11.03,0.18,0.09,0.02,1721201571872
1.80,-0.23,9.00,0.16,0.04,0.02,1721201571882
0.16,0.36,8.18,0.18,-0.14,-0.08,1721201571892
1.45,-0.07,11.88,0.14,0.23,-0.08,1721201571902
0.68,1.93,12.03,0.16,-0.12,-0.05,1721201571912
-0.37,-1.79,8.27,0.10,-0.01,0.01,1721201571922
0.69,1.90,11.60,0.16,0.14,-0.00,1721201571932
2.16,-0.64,9.61,0.24,-0.01,-0.08,1721201571942
1.50,-2.14,9.28,0.13,0.09,-0.04,1721201571952
-0.68,2.03,12.62,0.21,0.02,-0.17,1721201571962
-0.17,1.00,9.50,0.26,0.09,-0.19,1721201571972
-0.54,0.80,9.34,0.17,0.02,-0.05,1721201571982
-0.69,0.02,10.07,0.10,0.10,-0.06,1721201571992
0.08,2.86,10.02,0.15,0.15,-0.13,1721201572002
0.20,0.29,7.84,0.03,0.07,-0.17,1721201572012
-0.18,-3.01,9.28,-0.13,0.09,-0.20,1721201572022
-0.90,0.61,9.99,0.13,0.02,-0.13,1721201572032
0.53,2.08,7.05,-0.06,0.28,-0.13,1721201572042
0.08,2.49,10.62,-0.09,-0.01,-0.15,1721201572052
0.17,1.25,9.75,-0.09,0.09,-0.23,1721201572062
2.14,-1.13,11.38,-0.19,0.22,-0.33,1721201572072
-0.21,0.08,11.47,-0.13,0.01,-0.26,1721201572082
-1.70,-0.67,8.49,-0.16,0.21,-0.26,1721201572092
-1.37,-0.57,10.30,-0.18,0.16,-0.23,1721201572102
-2.13,-0.49,7.63,-0.07,-0.02,-0.14,1721201572112
1.07,-0.67,9.65,-0.21,0.34,-0.20,1721201572122
-0.17,0.06,13.41,-0.18,0.02,-0.23,1721201572132
-1.43,-1.63,9.60,-0.14,0.15,-0.29,1721201572142
-1.18,-0.27,11.77,-0.19,0.21,-0.25,1721201572152
-2.50,-1.89,9.53,-0.15,0.01,-0.18,1721201572162
-0.41,-0.04,12.17,-0.12,0.31,-0.14,1721201572172
-0.62,-0.40,12.15,-0.13,-0.06,-0.10,1721201572182
-2.38,3.06,10.52,-0.04,0.21,-0.18,1721201572192
0.50,1.32,11.88,-0.04,0.20,-0.15,1721201572202
-1.36,0.40,7.62,-0.01,-0.02,-0.15,1721201572212
-0.91,1.79,10.80,0.05,0.21,-0.15,1721201572222
-0.66,-0.28,9.26,0.03,0.05,-0.05,1721201572232
-3.42,2.37,10.01,0.05,0.10,-0.12,1721201572242
0.22,-0.24,11.98,0.03,0.25,-0.21,1721201572252
-1.50,-1.24,12.90,0.05,-0.05,-0.08,1721201572262
-1.46,-0.66,9.81,0.19,0.10,0.02,1721201572272
-0.19,1.61,10.86,0.19,0.14,0.01,1721201572282
-0.51,2.18,10.14,0.16,-0.03,-0.10,1721201572292
-0.34,-0.57,7.47,0.09,0.19,-0.25,1721201572302
-2.06,-1.95,10.77,0.14,-0.01,-0.21,1721201572312
-1.92,0.70,12.55,0.18,0.20,-0.12,1721201572322
-2.80,-0.22,9.34,0.19,-0.14,0.03,1721201572332
-1.73,-0.68,9.20,0.13,0.20,0.04,1721201572342
0.69,0.38,11.57,0.16,0.05,-0.07,1721201572352
-1.48,2.77,8.81,0.24,-0.11,-0.16,1721201572362
-1.65,0.19,7.43,0.09,0.09,-0.11,1721201572372
-2.55,2.37,12.79,-0.01,-0.02,-0.14,1721201572382
-3.45,0.52,9.50,0.10,-0.11,-0.03,1721201572392
-1.96,-2.57,9.12,-0.08,0.06,0.11,1721201572402
-2.29,-0.44,10.84,0.11,-0.16,0.09,1721201572412
-0.07,0.82,7.83,0.17,-0.03,0.15,1721201572422
-0.19,0.01,6.64,0.10,-0.12,0.11,1721201572432
0.19,1.73,11.43,-0.02,-0.01,0.05,1721201572442
1.36,2.55,15.21,-0.04,-0.07,0.04,1721201572452
-1.36,0.55,7.74,0.06,-0.36,0.04,1721201572462
-1.06,-0.54,7.35,-0.06,-0.02,0.10,1721201572472
-0.68,0.52,9.83,-0.05,-0.10,0.13,1721201572482
-1.36,2.15,9.21,-0.03,-0.12,0.15,1721201572492
-2.03,1.05,6.76,-0.05,-0.26,0.25,1721201572502
1.02,-0.88,10.08,-0.14,-0.01,0.35,1721201572512
2.59,-0.16,10.86,-0.15,-0.19,0.22,1721201572522
1.21,-0.62,10.84,-0.28,-0.16,0.08,1721201572532
-0.64,-0.30,10.99,-0.18,-0.21,0.07,1721201572542
0.11,-1.94,9.68,-0.19,-0.15,0.21,1721201572552
0.42,-2.31,12.49,-0.27,-0.14,0.22,1721201572562
-0.27,1.35,14.48,-0.22,-0.12,0.01,1721201572572
-1.51,0.22,13.49,-0.18,-0.23,-0.11,1721201572582
-2.72,-0.51,6.63,-0.11,-0.29,0.13,1721201572592
-0.09,-0.36,8.00,-0.20,-0.00,0.24,1721201572602
0.86,-0.04,12.32,-0.08,-0.18,0.14,1721201572612
1.79,3.51,11.80,0.03,-0.12,0.00,1721201572622
0.92,-0.29,8.53,-0.10,-0.30,-0.10,1721201572632
-0.13,1.99,11.44,-0.02,-0.10,-0.03,1721201572642
2.47,1.84,10.90,0.08,-0.05,0.05,1721201572652
0.55,-1.30,7.26,-0.00,-0.25,-0.04,1721201572662
1.01,5.49,11.45,0.15,0.07,-0.27,1721201572672
1.83,0.63,9.52,0.11,-0.22,-0.28,1721201572682
0.02,0.23,14.90,0.06,-0.19,-0.27,1721201572697
1.20,0.33,13.26,0.20,-0.04,-0.13,1721201572701
-0.59,-1.78,7.23,0.09,-0.06,-0.23,1721201572711
-0.32,3.08,12.25,0.13,0.10,-0.29,1721201572721
0.34,-2.04,8.89,0.14,-0.24,-0.24,1721201572731
0.01,-2.99,10.58,0.10,0.12,-0.19,1721201572741
0.78,1.52,12.25,0.29,0.04,-0.19,1721201572751
-0.90,-2.24,6.47,0.12,-0.06,-0.18,1721201572761
0.51,0.91,12.85,0.11,0.25,-0.32,1721201572771
-0.26,0.34,9.77,0.24,-0.22,-0.20,1721201572781
-0.04,2.00,6.41,0.09,0.28,-0.15,1721201572791
0.78,-4.47,12.17,-0.03,-0.00,-0.15,1721201572801
-1.49,-0.49,8.58,0.15,-0.04,-0.15,1721201572811
2.11,-1.85,7.71,-0.02,0.31,-0.16,1721201572821
0.53,-0.04,13.78,-0.04,-0.05,-0.18,1721201572831
1.01,0.99,10.95,0.17,0.14,-0.17,1721201572841
1.40,-1.47,6.62,0.07,0.13,-0.19,1721201572851
0.01,-1.93,8.31,-0.07,0.18,-0.32,1721201572861
-1.46,-0.41,13.44,-0.06,0.18,-0.38,1721201572871
-2.77,2.24,12.98,0.10,0.13,-0.23,1721201572881
-1.28,0.57,7.46,0.01,0.18,-0.00,1721201572891
0.04,0.98,9.52,-0.12,0.18,-0.09,1721201572901
1.64,1.35,11.61,-0.05,0.18,-0.21,1721201572911
0.44,0.93,8.32,-0.14,0.19,-0.38,1721201572921
-2.35,1.01,8.38,-0.11,0.08,-0.33,1721201572931
-1.39,0.96,11.02,-0.18,0.28,-0.13,1721201572941
-0.18,1.02,12.70,-0.10,0.08,-0.13,1721201572951
0.49,-0.33,8.17,-0.16,0.05,-0.16,1721201572961
1.06,-0.69,11.95,-0.28,0.27,-0.32,1721201572971
-0.11,1.23,13.93,-0.13,0.06,-0.40,1721201572981
-2.66,1.30,9.67,-0.13,0.13,-0.35,1721201572991
-1.98,-0.10,11.31,-0.19,0.22,-0.23,1721201573001
-1.31,-0.34,12.50,-0.14,0.14,-0.09,1721201573011
-0.57,-0.81,9.19,-0.08,0.16,-0.05,1721201573021
1.14,1.32,9.87,-0.07,0.28,-0.19,1721201573031
0.63,-2.61,8.61,-0.01,0.04,-0.25,1721201573041
0.57,2.45,10.26,0.03,0.32,-0.25,1721201573051
-1.02,-1.85,8.96,0.02,-0.00,-0.24,1721201573061
-2.89,-0.04,10.24,0.00,0.27,-0.26,1721201573071
-0.39,0.12,13.85,0.01,0.24,-0.19,1721201573081
-2.30,-0.54,8.35,0.08,-0.03,-0.17,1721201573091
-1.52,3.40,10.23,0.14,0.38,-0.17,1721201573101
0.23,-1.49,11.92,0.02,0.10,-0.05,1721201573111
-3.05,2.50,11.37,0.10,0.16,-0.08,1721201573121
0.53,-1.16,8.37,0.16,0.24,-0.19,1721201573131
-1.95,-2.30,7.20,0.05,0.04,-0.17,1721201573141
-0.47,-1.42,11.14,0.16,0.32,-0.10,1721201573151
0.09,3.56,11.79,0.38,0.11,-0.09,1721201573161
-2.45,1.43,7.18,0.14,0.06,-0.13,1721201573171
-0.39,1.42,13.66,0.09,0.33,-0.23,1721201573181
-1.40,-0.55,11.03,0.20,-0.18,-0.09,1721201573191
-3.34,-2.64,3.99,0.14,0.23,-0.11,1721201573201
0.14,0.58,13.24,0.07,0.35,-0.07,1721201573211
-1.96,1.05,12.33,0.17,-0.14,-0.10,1721201573221
-0.73,2.77,8.47,0.22,0.26,-0.14,1721201573231
-0.07,-1.60,9.72,0.13,0.03,-0.02,1721201573241
-2.04,0.95,7.21,0.16,0.15,-0.10,1721201573251
-0.62,1.27,10.91,0.13,0.21,-0.11,1721201573261
-2.51,-0.17,6.60,0.15,-0.15,-0.17,1721201573271
-0.91,-0.07,11.60,0.11,0.30,-0.04,1721201573281
-0.56,1.35,12.46,0.18,-0.03,0.03,1721201573291
-1.96,2.37,9.13,0.13,-0.01,-0.00,1721201573301
-0.00,2.21,11.55,0.17,0.20,-0.06,1721201573311
-0.00,-1.13,9.43,0.15,-0.06,0.03,1721201573321
-1.32,1.69,8.83,0.12,0.07,0.10,1721201573331
1.76,2.51,11.30,0.13,0.17,0.02,1721201573341
0.84,0.96,8.24,0.07,-0.05,-0.13,1721201573351
-0.42,0.43,9.10,0.04,0.11,-0.21,1721201573361
-3.37,-0.71,7.17,0.04,-0.15,-0.14,1721201573371
-4.05,0.86,11.64,-0.02,0.18,0.07,1721201573381
-2.04,2.66,14.70,0.09,-0.06,0.27,1721201573391
-1.32,1.17,6.45,0.02,-0.10,0.26,1721201573401
0.36,-1.00,9.16,-0.14,0.05,0.21,1721201573411
-0.34,-1.23,8.85,-0.05,-0.14,0.18,1721201573421
-0.60,3.45,11.91,-0.11,0.08,0.27,1721201573431
-0.02,5.73,8.88,0.02,-0.24,0.34,1721201573441
2.94,-6.45,6.68,-0.37,0.14,0.21,1721201573451
2.46,-6.32,14.57,-0.33,-0.10,0.09,1721201573461
-0.55,-1.96,10.18,-0.11,-0.11,-0.06,1721201573471
-3.23,3.30,12.52,-0.04,-0.04,0.06,1721201573481
-2.87,0.96,8.73,0.04,-0.20,0.36,1721201573491
1.23,-2.42,8.58,-0.32,0.17,0.35,1721201573501
1.88,-1.54,17.40,-0.32,-0.10,0.12,1721201573511
-1.45,2.41,8.52,0.04,-0.27,-0.01,1721201573521
-0.30,-2.57,5.18,-0.22,0.12,0.06,1721201573531
-0.50,-0.80,10.89,-0.09,-0.16,0.17,1721201573541
1.55,-1.00,9.30,-0.08,-0.03,0.14,1721201573551
0.61,1.33,11.96,-0.11,-0.09,0.06,1721201573561
-0.40,-1.05,11.77,0.00,-0.17,-0.04,1721201573571
-0.41,-3.17,5.33,0.14,-0.16,0.09,1721201573581
0.83,-3.90,6.62,0.03,0.01,0.14,1721201573591
1.82,3.03,15.36,0.19,0.01,0.05,1721201573601
1.60,5.88,11.22,0.31,-0.14,0.09,1721201573611
3.82,-1.38,16.10,-0.18,0.22,-0.08,1721201573621
-0.48,2.45,22.17,0.25,-0.45,-0.06,1721201573631
0.29,0.32,-0.27,0.45,-0.00,0.15,1721201573641
0.97,1.63,4.73,-0.05,0.27,0.12,1721201573651
-1.64,4.24,12.27,0.30,-0.22,-0.02,1721201573661
3.68,-5.74,7.09,0.18,0.11,-0.09,1721201573671
1.46,2.67,16.23,0.06,0.17,-0.19,1721201573681
0.55,3.22,14.04,0.31,-0.00,-0.12,1721201573691
-0.08,-2.44,7.53,0.20,0.04,-0.07,1721201573701
0.80,-2.31,10.43,0.20,0.20,-0.01,1721201573711
3.00,1.63,16.09,0.32,0.21,0.04,1721201573721
1.44,5.81,11.88,0.43,-0.04,-0.26,1721201573731
-0.62,-1.21,2.53,0.30,-0.00,-0.30,1721201573741
-1.10,0.67,9.24,0.18,0.38,-0.30,1721201573751
-2.15,4.64,4.15,0.42,-0.07,-0.12,1721201573761
-2.04,0.25,-4.14,0.12,0.24,0.03,1721201573771
0.24,-0.73,8.85,-0.22,0.28,0.05,1721201573781
1.62,0.88,11.84,-0.07,-0.10,-0.12,1721201573791
-0.62,-1.34,10.29,-0.03,0.10,-0.27,1721201573801
-2.43,0.25,11.09,-0.09,0.08,-0.19,1721201573811
-0.09,-1.92,8.06,-0.14,0.16,-0.09,1721201573821
1.48,1.77,8.94,-0.07,0.13,-0.04,1721201573831
3.90,-0.58,8.19,-0.31,0.33,-0.17,1721201573841
0.99,2.55,22.24,-0.35,0.21,-0.51,1721201573851
-2.25,-1.95,14.68,-0.14,-0.07,-0.39,1721201573861
-3.49,-1.58,8.37,-0.34,0.24,-0.04,1721201573871
-0.13,1.34,13.19,-0.26,0.24,0.03,1721201573881
0.66,-2.70,9.15,-0.20,0.05,-0.09,1721201573891
-0.39,-3.30,3.07,-0.16,0.09,-0.16,1721201573901
0.66,-5.66,10.98,-0.44,0.37,-0.23,1721201573911
-3.49,0.87,16.85,-0.05,-0.00,-0.28,1721201573921
-3.78,6.72,6.16,0.15,0.22,-0.15,1721201573931
-0.90,1.47,7.91,-0.22,0.10,0.08,1721201573941
0.62,-1.26,10.90,-0.13,0.13,0.10,1721201573951
2.51,-0.91,6.46,-0.06,0.20,-0.20,1721201573961
-0.20,-4.35,10.51,-0.29,0.00,-0.36,1721201573971
-5.72,-2.11,9.13,-0.09,-0.01,-0.43,1721201573981
-3.50,5.18,18.93,-0.03,0.42,0.04,1721201573991
-2.30,4.48,16.05,0.08,-0.13,0.31,1721201574001
-2.43,-6.53,1.07,-0.31,-0.01,0.16,1721201574011
2.72,2.71,17.70,0.01,0.54,0.07,1721201574021
3.57,-5.67,7.78,-0.22,-0.20,-0.03,1721201574031
-5.27,-4.33,20.51,-0.36,0.02,-0.35,1721201574041
-0.74,8.32,22.67,0.33,0.11,-0.19,1721201574051
1.57,1.38,5.68,0.15,0.10,0.28,1721201574061
1.30,2.90,15.26,0.06,0.16,0.19,1721201574071
-0.30,1.41,2.45,0.36,-0.22,-0.23,1721201574081
-0.09,6.72,5.83,0.24,0.41,-0.42,1721201574091
-1.66,-2.02,1.98,0.08,-0.32,-0.16,1721201574101
-6.78,-3.71,7.79,0.02,0.31,-0.12,1721201574111
-2.47,-0.30,13.31,0.09,0.14,-0.07,1721201574121
-4.46,-0.31,8.26,0.24,-0.20,-0.04,1721201574131
-2.13,1.18,8.62,0.18,0.25,-0.01,1721201574141
-1.91,0.63,9.01,0.23,-0.14,0.11,1721201574151
-1.71,-0.96,5.91,0.16,0.05,0.07,1721201574161
0.41,0.99,16.05,0.25,0.03,0.07,1721201574171
-1.19,3.96,8.71,0.54,-0.31,0.14,1721201574181
-0.28,7.75,8.05,0.18,0.11,0.15,1721201574191
1.71,9.75,17.58,0.08,-0.05,0.09,1721201574201
1.43,-6.17,8.47,-0.25,-0.15,-0.11,1721201574211
-2.67,-4.32,13.04,-0.20,0.01,-0.23,1721201574221
-5.30,3.16,12.11,0.18,-0.29,-0.01,1721201574231
-4.33,-1.77,4.89,-0.03,-0.03,0.50,1721201574241
0.23,4.88,11.97,0.16,-0.04,0.75,1721201574251
5.98,4.71,8.26,0.13,-0.05,0.39,1721201574261
2.44,-1.57,6.76,-0.31,-0.33,-0.07,1721201574271
1.12,0.44,15.67,-0.03,0.06,-0.15,1721201574281
-1.00,-1.64,9.10,0.09,-0.17,0.11,1721201574291
-4.29,-4.94,1.89,-0.13,-0.29,0.47,1721201574301
0.82,2.86,15.63,-0.06,0.24,0.35,1721201574311
4.08,13.02,14.16,0.12,-0.31,0.15,1721201574321
0.97,1.19,-3.72,-0.21,-0.24,-0.04,1721201574331
-1.17,-13.97,2.87,-0.58,-0.04,-0.13,1721201574341
-4.04,-5.26,9.42,-0.08,-0.31,-0.01,1721201574351
-3.78,4.58,1.36,-0.02,-0.11,0.40,1721201574361
1.17,2.63,1.93,-0.20,-0.10,0.56,1721201574371
5.24,-12.75,34.20,-1.07,0.20,0.21,1721201574381
4.87,5.87,46.59,0.02,-0.56,-0.11,1721201574391
-2.50,-3.73,-5.05,0.65,-0.81,-0.20,1721201574401
-0.72,1.01,-13.57,-0.51,0.42,0.18,1721201574411
3.73,-1.73,17.23,-0.20,-0.26,0.51,1721201574421
1.48,12.44,-8.46,0.30,-0.12,0.05,1721201574431
4.68,3.07,11.93,0.01,0.70,-0.20,1721201574441
0.93,0.55,16.77,-0.32,-0.72,-0.25,1721201574451
-2.52,3.41,12.13,0.08,-0.05,-0.29,1721201574461
1.48,-0.41,9.80,0.17,0.09,-0.11,1721201574471
0.28,-2.86,8.94,0.04,-0.10,-0.04,1721201574481
-0.05,-1.52,9.17,0.12,-0.09,-0.19,1721201574491
-0.38,2.90,15.38,0.08,0.17,-0.30,1721201574501
-0.58,8.52,14.89,0.28,-0.04,-0.03,1721201574511
1.86,-2.96,6.64,0.23,0.05,0.14,1721201574521
2.13,-6.18,5.88,0.09,0.06,-0.13,1721201574531
1.64,3.65,13.05,0.21,0.07,-0.39,1721201574541
-0.27,4.80,10.20,0.26,-0.05,-0.29,1721201574551
-0.87,-1.98,8.40,0.22,0.04,-0.03,1721201574561
2.51,-0.90,6.83,0.30,0.24,0.01,1721201574571
2.45,-1.97,9.32,0.03,0.09,-0.35,1721201574581
-2.09,2.30,14.34,0.10,0.03,-0.62,1721201574591
-4.90,2.85,9.82,0.26,0.05,-0.30,1721201574601
-3.54,-2.35,5.69,0.04,0.14,0.24,1721201574611
0.03,1.02,11.81,0.02,0.22,0.23,1721201574621
3.70,1.37,9.68,0.08,0.07,-0.08,1721201574631
2.54,2.54,6.80,-0.06,0.14,-0.34,1721201574641
-0.39,0.38,8.88,-0.15,0.09,-0.35,1721201574651
-1.69,1.21,12.97,0.00,0.20,-0.23,1721201574661
-0.49,-2.57,6.81,0.02,0.08,-0.00,1721201574671
2.08,2.55,11.44,-0.07,0.36,-0.11,1721201574681
2.04,1.93,18.04,-0.10,0.02,-0.35,1721201574691
-1.43,3.25,8.10,0.14,-0.09,-0.27,1721201574706
-0.93,4.00,6.72,0.07,0.28,-0.26,1721201574710
-1.48,-2.82,8.57,-0.25,0.07,-0.11,1721201574720
-0.59,-1.83,13.45,-0.12,0.22,-0.22,1721201574730
-0.89,-0.34,7.54,0.13,0.07,-0.27,1721201574740
-2.09,0.71,5.74,-0.16,0.25,-0.27,1721201574750
-2.15,-1.57,11.63,-0.06,0.07,-0.15,1721201574760
-0.74,-1.05,6.64,-0.02,0.09,-0.04,1721201574770
1.08,0.01,10.60,-0.16,0.30,-0.15,1721201574780
-0.19,-4.25,10.60,-0.13,-0.02,-0.38,1721201574790
-1.44,-1.97,10.76,-0.06,0.27,-0.35,1721201574800
-1.45,-0.49,11.07,-0.05,0.23,-0.23,1721201574810
-4.02,1.10,9.59,-0.03,0.01,-0.12,1721201574820
-2.92,-1.89,9.22,-0.07,0.16,-0.06,1721201574830
-1.11,-1.65,14.91,-0.08,0.14,-0.01,1721201574840
-0.36,1.85,12.37,0.16,0.05,-0.06,1721201574850
-0.28,-0.17,5.92,-0.00,0.07,-0.03,1721201574860
-0.82,-1.71,9.49,-0.07,0.20,-0.11,1721201574870
0.14,-2.57,11.90,0.00,0.07,-0.13,1721201574880
-2.21,-0.94,13.76,0.01,0.10,-0.17,1721201574890
-1.41,2.38,16.48,0.11,0.17,-0.15,1721201574900
-2.31,2.98,12.31,0.27,-0.10,0.00,1721201574910
-1.59,0.78,2.30,0.15,0.15,0.15,1721201574920
1.44,0.79,11.87,0.09,0.27,0.03,1721201574930
1.06,0.30,10.73,0.20,-0.09,-0.20,1721201574940
-0.11,1.39,8.34,0.04,0.18,-0.24,1721201574950
-1.47,1.57,16.60,0.01,0.10,-0.24,1721201574960
-4.06,-0.73,11.09,0.12,-0.11,-0.13,1721201574970
-3.36,-2.33,4.51,0.14,0.05,0.12,1721201574980
-0.44,-1.67,7.28,0.08,0.11,0.21,1721201574990
-1.55,5.27,11.59,0.27,-0.03,-0.01,1721201575000
0.30,6.80,5.12,0.27,0.10,-0.05,1721201575010
-0.19,-1.91,7.37,-0.14,0.01,-0.03,1721201575020
-1.06,-2.39,12.12,-0.03,0.03,0.05,1721201575030
0.34,-0.56,6.97,0.06,-0.03,0.14,1721201575040
0.68,0.86,13.30,-0.15,0.16,0.04,1721201575050
1.26,4.17,14.36,0.22,-0.06,0.02,1721201575060
0.79,1.73,2.77,-0.01,0.01,-0.10,1721201575070
-0.19,-0.08,12.88,-0.27,0.14,-0.11,1721201575080
-1.19,-1.71,14.86,-0.09,-0.03,-0.11,1721201575090
-2.62,3.37,10.78,0.02,-0.02,-0.00,1721201575100
-2.36,2.27,7.64,-0.10,-0.05,0.11,1721201575110
-1.75,0.22,12.34,-0.18,0.01,0.19,1721201575120
-0.55,1.77,14.23,-0.10,0.01,0.02,1721201575130
-0.45,-0.78,11.04,-0.08,-0.11,-0.00,1721201575140
-1.13,-0.94,9.53,-0.09,0.02,0.13,1721201575150
-1.21,0.37,6.92,0.03,-0.10,0.24,1721201575160
1.33,4.02,5.88,0.02,0.13,0.18,1721201575170
1.46,-1.74,4.01,-0.25,-0.15,0.01,1721201575180
-1.36,-2.55,13.22,-0.23,0.03,-0.18,1721201575190
-1.00,-2.11,16.30,-0.08,-0.07,-0.05,1721201575200
-4.30,1.15,11.79,-0.10,-0.21,0.25,1721201575210
-1.89,2.95,10.73,-0.05,0.08,0.32,1721201575220
2.67,-0.23,8.88,-0.05,-0.02,0.29,1721201575230
2.36,-4.44,8.47,-0.19,-0.07,0.02,1721201575240
-0.21,2.45,12.00,0.05,-0.05,-0.15,1721201575250
-0.64,0.23,8.35,0.03,-0.19,0.04,1721201575260
-0.20,0.20,11.43,-0.05,0.03,0.22,1721201575270
1.64,1.30,11.59,0.09,-0.03,0.09,1721201575280
1.05,-2.90,8.12,-0.02,-0.11,0.03,1721201575290
0.32,1.99,10.29,0.07,0.06,-0.07,1721201575300
0.86,0.14,11.89,0.07,-0.00,-0.03,1721201575310
-1.11,1.07,12.41,0.07,-0.14,-0.00,1721201575320
-0.53,-0.98,7.81,0.09,-0.04,-0.02,1721201575330
1.30,1.77,13.33,0.09,0.16,-0.02,1721201575340
-1.04,0.96,9.56,0.15,-0.25,0.07,1721201575350
-1.16,-0.28,10.24,0.13,0.08,0.10,1721201575360
1.95,1.33,11.06,0.26,0.08,0.09,1721201575370
0.46,-2.09,7.40,0.11,-0.18,0.17,1721201575380
1.00,1.70,12.38,0.11,0.15,0.02,1721201575390
1.37,-0.02,12.57,0.22,-0.14,0.02,1721201575400
-0.45,-1.06,5.63,0.20,-0.07,0.14,1721201575410
1.71,0.03,11.09,0.16,0.18,0.03,1721201575420
1.57,3.61,12.63,0.32,-0.11,-0.03,1721201575430
0.92,1.43,7.66,0.14,0.07,-0.06,1721201575440
-0.19,-3.27,10.50,0.02,-0.03,-0.04,1721201575450
-0.06,-0.11,12.71,0.16,0.11,-0.04,1721201575460
0.00,1.64,8.19,0.15,-0.03,-0.07,1721201575470
-2.07,2.91,5.61,0.06,-0.09,-0.03,1721201575480
0.06,3.21,11.14,0.06,0.19,-0.03,1721201575490
1.82,-0.44,7.99,-0.00,-0.03,0.02,1721201575500
0.31,-1.43,8.54,-0.16,0.03,-0.05,1721201575510
0.99,-1.42,11.43,-0.11,0.07,-0.20,1721201575520
-0.94,1.91,11.53,-0.06,-0.08,-0.15,1721201575530
-1.06,1.92,9.43,-0.03,0.04,-0.04,1721201575540
-0.40,2.02,9.23,-0.10,0.03,-0.00,1721201575550
1.58,-1.22,9.72,-0.13,0.09,-0.11,1721201575560
0.91,-0.90,12.36,-0.18,0.06,-0.23,1721201575570
-1.42,1.97,11.73,-0.07,-0.07,-0.26,1721201575580
-2.47,1.41,8.27,-0.09,-0.10,-0.07,1721201575590
-2.50,-3.00,8.09,-0.12,0.07,0.04,1721201575600
0.50,-5.94,7.94,-0.20,0.07,0.05,1721201575610
0.68,-4.16,9.84,-0.03,0.02,-0.02,1721201575620
1.29,7.19,13.30,0.13,0.15,-0.25,1721201575630
-0.35,25.96,17.80,0.26,-0.07,-0.25,1721201575640
-3.33,0.95,4.56,0.01,-0.30,-0.14,1721201575650
0.52,-32.23,1.84,-0.65,0.22,0.05,1721201575660
0.46,9.56,19.94,-0.03,0.13,0.01,1721201575670
7.38,4.47,-15.10,-0.18,-0.64,-0.50,1721201575680
4.55,0.27,16.38,-0.33,0.47,-0.51,1721201575690
-2.61,1.83,10.03,0.08,-0.51,0.00,1721201575700
-2.04,-5.27,6.62,-0.41,0.47,0.19,1721201575710
4.48,-0.47,20.76,-0.34,0.06,-0.05,1721201575720
0.07,0.80,8.93,0.03,-0.27,-0.45,1721201575730
-5.07,-2.55,4.28,-0.22,0.03,-0.46,1721201575740
-3.61,-2.73,12.11,-0.15,0.11,-0.03,1721201575750
-1.21,-3.03,11.15,-0.15,-0.02,0.25,1721201575760
0.36,4.55,11.91,-0.08,0.13,-0.01,1721201575770
2.32,0.00,6.93,-0.04,-0.11,-0.24,1721201575780
-1.01,-1.44,-0.24,0.11,-0.13,-0.19,1721201575790
-0.84,4.59,-7.78,0.29,0.08,-0.05,1721201575800
1.28,-8.30,3.25,-0.87,0.18,-0.10,1721201575810
5.16,-14.47,53.50,-0.89,1.08,-0.93,1721201575820
-1.79,33.01,52.97,0.53,-0.24,-0.86,1721201575830
-10.52,-5.50,-21.13,0.76,-0.85,-0.02,1721201575840
-10.97,-3.01,-3.92,-1.45,0.72,0.61,1721201575850
14.38,17.08,13.87,-0.18,0.54,0.46,1721201575860
14.86,7.35,-4.74,0.80,-0.33,0.21,1721201575870
3.07,5.77,-1.20,-0.31,0.43,-0.55,1721201575880
2.51,10.48,26.55,0.06,-0.07,-0.76,1721201575890
-4.77,7.47,14.51,0.48,-0.72,-0.60,1721201575900
-9.01,-2.89,-2.02,0.34,0.03,-0.25,1721201575910
-7.27,-3.61,10.58,0.35,0.09,0.47,1721201575920
-0.72,-0.15,9.86,0.53,-0.04,0.85,1721201575930
4.83,5.63,10.78,0.54,0.16,0.57,1721201575940
6.61,3.74,9.44,0.45,-0.17,0.04,1721201575950
2.95,1.86,6.34,0.34,-0.15,-0.45,1721201575960
-0.44,-1.92,6.45,0.26,-0.03,-0.52,1721201575970
-5.09,-3.40,3.27,0.29,-0.20,-0.20,1721201575980
-4.63,-4.70,6.76,0.19,0.09,0.17,1721201575990
0.03,2.45,16.69,0.37,0.03,0.36,1721201576000
2.70,7.55,11.72,0.34,-0.18,0.25,1721201576010
2.70,-5.39,7.88,-0.48,0.09,-0.21,1721201576020
-0.91,5.17,29.94,-0.24,0.10,-0.68,1721201576030
-5.49,6.94,9.01,0.62,-0.50,-0.41,1721201576040
-7.14,-19.92,-21.23,-0.24,-0.02,0.32,1721201576050
-5.14,-9.50,11.82,-0.47,0.73,0.63,1721201576060
-8.06,7.35,19.28,0.02,-0.17,0.29,1721201576070
7.16,5.20,9.86,0.20,-0.37,-0.09,1721201576080
3.80,3.05,4.86,-0.31,-0.14,-0.40,1721201576090
2.77,-1.09,7.39,-0.18,0.15,-0.60,1721201576100
-2.11,-3.94,4.91,-0.11,-0.06,-0.57,1721201576110
-5.65,-3.93,6.61,-0.28,0.00,-0.24,1721201576120
-4.46,0.69,12.74,-0.10,0.01,0.18,1721201576130
0.50,-3.00,9.33,-0.17,0.06,0.33,1721201576140
2.92,0.85,10.30,-0.14,-0.06,0.15,1721201576150
4.67,2.02,6.74,-0.08,0.05,-0.15,1721201576160
0.98,-2.09,1.83,-0.32,-0.11,-0.36,1721201576170
-1.77,-4.71,13.01,-0.47,0.20,-0.35,1721201576180
-1.08,-4.09,29.63,-0.23,0.11,-0.27,1721201576190
-4.22,0.13,14.56,0.20,-0.36,0.12,1721201576200
0.99,-3.94,14.45,-0.46,0.49,0.23,1721201576210
2.47,6.27,30.66,0.24,-0.13,0.06,1721201576220
2.47,7.67,-7.20,0.65,-0.09,-0.08,1721201576230
2.98,-3.91,1.29,-0.41,0.47,-0.23,1721201576240
-0.58,4.59,27.98,0.05,-0.03,-0.35,1721201576250
-5.78,-0.31,18.65,0.35,-0.55,-0.01,1721201576260
-1.38,3.80,5.52,0.12,0.36,0.19,1721201576270
2.79,5.49,15.74,0.36,0.13,0.11,1721201576280
4.93,2.56,6.74,0.19,0.09,-0.25,1721201576290
0.79,1.31,11.28,0.14,0.07,-0.57,1721201576300
-3.36,0.57,7.65,0.16,0.04,-0.48,1721201576310
-4.57,2.12,9.11,0.12,0.21,-0.11,1721201576320
-1.56,1.34,10.36,0.14,0.20,0.10,1721201576330
1.69,-0.49,10.74,0.04,0.22,0.05,1721201576340
1.81,0.92,8.08,0.11,0.12,-0.18,1721201576350
1.53,-0.06,6.68,-0.04,0.26,-0.32,1721201576360
-0.48,-1.89,10.64,-0.17,0.09,-0.28,1721201576370
-1.51,1.76,13.06,0.08,0.21,-0.19,1721201576380
0.52,-1.26,6.97,0.01,0.22,-0.07,1721201576390
0.43,-1.41,10.09,-0.16,0.22,-0.19,1721201576400
1.01,-0.92,9.73,-0.04,0.25,-0.38,1721201576410
-0.62,-2.44,9.49,-0.16,0.19,-0.42,1721201576420
-3.43,2.07,13.64,-0.02,0.19,-0.30,1721201576430
-4.08,-1.86,7.79,-0.04,0.17,-0.12,1721201576440
-2.60,-3.40,7.13,-0.25,0.16,0.14,1721201576450
1.68,1.18,15.40,-0.09,0.38,0.06,1721201576460
2.80,1.74,10.05,0.01,0.06,-0.16,1721201576470
-0.39,0.33,8.02,-0.16,0.13,-0.35,1721201576480
-2.12,-1.84,11.59,-0.15,0.10,-0.24,1721201576490
-2.59,0.49,9.65,0.07,0.16,-0.03,1721201576500
-1.19,-0.67,9.72,-0.16,0.19,0.03,1721201576510
-1.00,2.29,12.36,-0.03,0.07,-0.14,1721201576520
-0.24,0.57,4.91,0.09,0.04,-0.11,1721201576530
-0.95,0.20,13.08,-0.11,0.32,-0.08,1721201576540
-1.60,0.70,13.57,0.05,0.09,-0.13,1721201576550
-2.02,-1.64,12.45,-0.01,0.06,-0.03,1721201576560
-2.74,-1.03,7.69,0.15,0.01,-0.03,1721201576570
-0.42,0.04,11.27,0.09,0.30,0.11,1721201576580
-0.08,3.44,13.20,0.22,0.06,0.02,1721201576590
0.11,4.02,7.32,0.18,-0.03,-0.02,1721201576600
0.96,-2.04,10.80,-0.01,0.24,-0.06,1721201576610
-1.50,-2.04,11.97,0.12,-0.13,-0.10,1721201576620
-1.39,0.66,11.22,0.18,0.21,-0.20,1721201576630
-2.02,0.44,6.71,0.17,-0.11,-0.11,1721201576640
-3.64,1.51,9.50,0.15,0.12,-0.02,1721201576650
-1.11,1.19,10.36,0.24,0.15,-0.01,1721201576660
-1.55,-0.12,7.12,0.14,-0.07,-0.03,1721201576670
-0.85,2.68,13.13,0.10,0.21,-0.19,1721201576680
-1.08,3.00,13.54,0.26,-0.05,-0.14,1721201576690
-4.80,-0.76,3.59,0.10,-0.21,-0.02,1721201576700
-1.27,3.20,8.76,0.23,-0.22,0.46,1721201576715
2.24,0.36,9.31,0.20,0.03,0.35,1721201576719
4.78,1.03,9.88,0.08,0.11,0.16,1721201576729
3.51,2.76,8.74,0.09,-0.20,-0.18,1721201576739
-1.16,3.26,5.60,0.01,-0.06,-0.44,1721201576749
-1.84,-0.94,12.28,-0.12,0.12,-0.34,1721201576759
-5.82,-0.76,10.56,-0.03,-0.18,0.07,1721201576769
-5.77,1.25,8.26,-0.07,0.01,0.37,1721201576779
-1.25,0.03,10.81,-0.11,0.03,0.47,1721201576789
0.79,-1.30,10.45,-0.19,-0.18,0.42,1721201576799
3.50,2.23,12.39,-0.04,0.08,0.12,1721201576809
4.26,-2.39,8.69,-0.17,-0.21,-0.02,1721201576819
-3.09,-0.10,6.25,-0.29,-0.28,-0.26,1721201576829
-3.14,-3.34,8.90,-0.24,0.01,-0.15,1721201576839
-2.48,-3.14,9.68,-0.23,0.02,0.20,1721201576849
-2.03,-1.41,10.50,-0.31,-0.03,0.32,1721201576859
0.12,-0.17,15.11,-0.19,0.03,0.24,1721201576869
1.96,-2.49,9.75,-0.14,-0.25,0.24,1721201576879
1.33,-0.04,11.07,-0.27,0.02,0.20,1721201576889
2.30,2.58,13.65,-0.09,-0.08,0.10,1721201576899
2.61,-1.36,9.73,-0.20,-0.22,0.03,1721201576909
0.43,2.74,16.18,-0.24,-0.04,-0.12,1721201576919
-0.68,0.45,11.03,0.01,-0.21,-0.06,1721201576929
-1.80,-1.08,4.82,-0.11,-0.03,0.00,1721201576939
1.10,0.34,12.45,-0.01,0.08,0.14,1721201576949
2.38,4.47,11.53,0.13,-0.04,0.04,1721201576959
1.37,-0.86,11.31,0.01,-0.15,-0.07,1721201576969
0.22,-0.27,11.71,0.11,-0.01,-0.07,1721201576979
1.72,0.55,12.56,0.17,0.04,0.03,1721201576989
1.29,0.77,12.14,0.21,-0.10,0.10,1721201576999
0.19,0.58,7.24,0.25,-0.18,-0.05,1721201577009
1.65,0.43,9.71,0.23,0.20,-0.16,1721201577019
0.42,2.12,13.15,0.26,-0.08,-0.16,1721201577029
-0.82,-1.20,9.60,0.27,0.07,-0.09,1721201577039
-1.09,2.85,11.90,0.33,0.03,0.04,1721201577049
1.27,-0.66,6.59,0.31,0.03,0.18,1721201577059
2.76,2.53,11.03,0.22,0.13,0.05,1721201577069
3.07,-1.46,12.98,0.25,-0.02,-0.19,1721201577079
0.54,-0.74,6.71,0.30,-0.13,-0.17,1721201577089
0.02,-0.83,5.00,0.24,0.18,-0.11,1721201577099
0.55,0.13,7.95,0.13,0.11,-0.14,1721201577109
-1.42,2.07,9.87,0.11,-0.02,-0.16,1721201577119
-2.28,-1.78,10.45,0.09,0.07,-0.14,1721201577129
-1.70,0.57,9.65,0.14,0.16,-0.03,1721201577139
0.48,-0.02,8.56,-0.08,0.19,0.12,1721201577149
2.21,2.41,14.63,-0.00,0.11,-0.01,1721201577159
2.00,2.07,5.66,0.09,-0.01,-0.21,1721201577169
1.38,-0.39,7.61,-0.17,0.29,-0.23,1721201577179
-0.22,-0.71,13.87,-0.19,0.09,-0.21,1721201577189
-1.41,1.72,14.13,-0.07,0.12,-0.22,1721201577199
-0.96,4.79,8.16,0.11,0.04,-0.07,1721201577209
0.57,-4.28,6.14,-0.37,0.24,-0.05,1721201577219
-0.99,2.38,16.97,-0.13,0.10,-0.28,1721201577229
0.79,1.26,9.11,0.02,0.12,-0.24,1721201577239
-3.01,0.55,9.00,-0.24,0.08,-0.24,1721201577249
-3.07,3.02,13.18,0.01,0.13,-0.17,1721201577259
-0.62,-1.20,4.92,-0.08,0.02,0.06,1721201577269
-1.37,2.25,9.47,-0.13,0.14,-0.02,1721201577279
1.58,0.77,12.59,-0.13,0.27,-0.30,1721201577289
-0.67,-1.00,11.05,-0.12,-0.14,-0.24,1721201577299
-1.63,1.67,8.45,-0.03,0.22,-0.19,1721201577309
0.02,-3.86,11.12,-0.14,0.29,-0.09,1721201577319
-2.37,2.71,10.01,0.02,-0.05,-0.15,1721201577329
0.09,-1.52,9.33,-0.07,0.19,-0.08,1721201577339
0.15,-0.73,13.04,-0.08,0.14,-0.20,1721201577349
-2.58,0.37,10.93,0.05,-0.07,-0.14,1721201577359
-2.35,-0.54,8.02,-0.02,0.20,-0.09,1721201577369
-1.86,-0.85,10.56,-0.03,-0.00,0.01,1721201577379
-1.71,-2.20,10.20,0.02,0.06,0.05,1721201577389
-0.51,0.71,10.22,0.04,0.18,0.01,1721201577399
0.31,-1.56,10.69,0.02,0.01,-0.07,1721201577409
-1.87,-1.73,6.83,-0.06,-0.07,-0.01,1721201577419
-0.89,2.43,15.34,0.06,0.32,-0.19,1721201577429
0.34,0.03,12.74,0.00,-0.02,-0.09,1721201577439
-1.79,3.28,10.91,0.00,0.04,0.04,1721201577449
0.11,-3.41,9.29,-0.09,0.10,0.04,1721201577459
-1.77,0.42,9.67,0.08,-0.17,-0.06,1721201577469
0.21,2.10,6.57,0.05,0.11,-0.02,1721201577479
-0.01,1.36,13.69,-0.03,0.05,-0.06,1721201577489
-3.77,2.23,9.85,0.10,-0.22,-0.16,1721201577499
-1.99,-0.31,9.87,0.00,0.24,-0.13,1721201577509
-1.40,0.56,11.96,0.02,-0.13,0.09,1721201577519
-2.65,4.93,9.39,0.18,-0.15,0.21,1721201577529
1.89,3.88,7.01,0.28,0.02,0.34,1721201577539
4.45,-0.87,8.92,-0.03,-0.02,0.17,1721201577549
2.66,0.89,14.68,-0.02,-0.09,-0.19,1721201577559
-0.31,3.14,9.53,0.18,-0.10,-0.37,1721201577569
-3.79,-0.20,8.38,-0.04,-0.03,-0.12,1721201577579
-4.22,1.41,12.84,0.17,-0.09,0.31,1721201577589
0.21,2.34,5.99,0.22,-0.01,0.44,1721201577599
3.37,0.20,9.29,-0.13,-0.00,0.28,1721201577609
1.53,2.51,13.81,0.05,-0.20,-0.07,1721201577619
-0.93,-0.64,7.71,-0.02,-0.13,-0.24,1721201577629
-4.19,-2.42,10.05,-0.09,-0.24,0.07,1721201577639
-2.80,0.39,11.66,-0.05,-0.01,0.47,1721201577649
1.21,3.64,11.77,0.04,-0.12,0.38,1721201577659
3.14,1.85,8.78,-0.08,-0.08,0.13,1721201577669
1.73,-4.75,6.41,-0.23,-0.12,-0.12,1721201577679
-1.57,-1.88,11.32,-0.07,-0.10,-0.20,1721201577689
-2.73,3.71,8.73,0.10,-0.12,0.03,1721201577699
-1.88,-2.71,7.90,-0.24,-0.14,0.28,1721201577709
0.39,-1.86,14.04,-0.05,-0.14,0.34,1721201577719
3.49,-0.69,10.38,-0.03,-0.03,0.10,1721201577729
0.48,3.47,7.91,-0.04,-0.26,-0.14,1721201577739
-0.35,-0.15,4.81,-0.03,-0.06,-0.21,1721201577749
0.49,-4.72,9.67,-0.07,-0.02,0.06,1721201577759
-1.30,2.97,11.32,0.05,-0.05,-0.00,1721201577769
2.54,-2.88,10.01,-0.12,-0.07,0.00,1721201577779
0.72,-0.83,13.49,-0.07,-0.20,0.04,1721201577789
0.06,2.42,11.82,-0.03,-0.03,-0.14,1721201577799
1.72,-0.80,11.70,-0.01,0.01,-0.14,1721201577809
0.31,-4.30,6.95,-0.04,-0.13,-0.13,1721201577819
-1.70,-1.87,9.74,-0.05,0.03,-0.13,1721201577829
-2.04,1.91,13.30,0.09,-0.03,-0.08,1721201577839
0.35,-1.42,12.46,0.02,-0.12,0.15,1721201577849
1.57,5.94,11.27,0.18,0.10,0.04,1721201577859
3.45,-3.33,6.50,0.02,-0.01,-0.10,1721201577869
-1.00,-1.31,12.15,-0.09,-0.04,-0.32,1721201577879
-1.42,2.96,13.51,0.26,-0.01,-0.21,1721201577889
0.59,3.09,6.23,0.25,0.16,0.09,1721201577899
1.98,-1.05,9.59,0.07,0.02,0.08,1721201577909
2.73,-0.92,10.39,0.14,0.10,-0.28,1721201577919
0.79,1.55,10.28,0.17,-0.00,-0.49,1721201577929
-2.69,0.03,9.14,0.13,-0.04,-0.27,1721201577939
-2.70,1.83,12.78,0.15,0.21,-0.11,1721201577949
-0.55,1.50,10.10,0.25,0.03,0.03,1721201577959
1.10,1.72,9.44,0.01,0.20,0.02,1721201577969
2.50,-0.05,13.37,-0.02,0.16,-0.30,1721201577979
1.42,-0.45,10.07,0.12,0.05,-0.42,1721201577989
-1.60,-1.65,3.37,-0.00,0.04,-0.40,1721201577999
-3.07,1.11,10.02,-0.00,0.20,-0.31,1721201578009
-1.51,3.45,14.37,0.11,0.14,-0.17,1721201578019
0.21,3.36,7.93,0.11,0.14,-0.09,1721201578029
0.74,0.79,8.27,-0.21,0.26,-0.17,1721201578039
0.55,-2.19,12.99,-0.12,0.07,-0.25,1721201578049
0.48,-0.06,6.28,0.01,0.09,-0.28,1721201578059
0.56,-0.06,6.85,-0.13,0.23,-0.21,1721201578069
-1.69,0.55,12.73,-0.15,0.03,-0.32,1721201578079
-2.60,-1.88,12.81,-0.11,0.14,-0.27,1721201578089
-1.53,1.60,10.69,-0.00,0.21,-0.09,1721201578099
-0.08,-2.59,5.57,-0.11,0.16,-0.03,1721201578109
-0.83,0.11,10.65,-0.12,0.21,-0.22,1721201578119
-0.65,1.13,8.16,0.06,0.01,-0.26,1721201578129
-0.05,-0.86,15.44,-0.25,0.45,-0.28,1721201578139
-1.28,3.05,21.01,-0.04,0.00,-0.24,1721201578149
-3.40,-3.16,3.93,-0.09,-0.04,-0.23,1721201578159
-3.73,2.94,11.04,-0.07,0.29,-0.03,1721201578169
-0.38,-2.96,5.22,0.15,-0.06,-0.01,1721201578179
-0.34,0.21,8.67,-0.05,0.24,0.03,1721201578189
1.16,1.27,11.46,0.08,0.01,-0.15,1721201578199
-1.13,-1.58,6.63,-0.06,0.02,-0.19,1721201578209
-1.98,-2.27,19.51,-0.22,0.39,-0.32,1721201578219
-3.19,1.42,12.63,0.19,-0.30,-0.06,1721201578229
-2.63,-2.78,5.30,0.15,0.30,0.14,1721201578239
0.30,-1.86,10.98,0.08,0.10,0.17,1721201578249
0.70,0.82,8.15,0.25,-0.06,-0.05,1721201578259
1.79,3.47,11.92,0.14,0.26,-0.16,1721201578269
-2.30,0.89,11.14,0.06,-0.20,-0.28,1721201578279
-3.52,1.26,9.16,0.12,0.21,-0.15,1721201578289
0.17,-5.09,10.44,-0.00,0.12,-0.01,1721201578299
-3.35,2.21,11.29,0.07,-0.16,-0.03,1721201578309
-1.25,3.84,9.67,0.15,0.20,-0.08,1721201578319
-1.62,-2.02,7.95,0.11,-0.26,-0.07,1721201578329
-1.41,-2.48,10.67,-0.04,0.06,0.04,1721201578339
-1.19,-0.26,8.54,0.15,-0.14,0.01,1721201578349
-1.22,5.42,2.97,0.26,0.00,-0.00,1721201578359
2.47,-1.44,10.87,-0.04,0.21,0.07,1721201578369
-0.16,1.32,17.65,0.08,-0.21,0.03,1721201578379
-1.28,4.63,9.27,0.21,-0.09,0.10,1721201578389
-0.58,2.81,5.77,-0.14,0.03,0.07,1721201578399
0.94,-0.36,13.96,-0.16,-0.00,0.11,1721201578409
-0.48,-2.10,5.41,0.14,-0.32,0.20,1721201578419
1.42,1.60,3.60,-0.08,0.18,0.20,1721201578429
2.24,3.17,11.08,-0.17,-0.09,0.07,1721201578439
-0.56,-2.61,9.44,-0.37,-0.13,-0.06,1721201578449
-2.30,0.12,20.74,-0.26,-0.02,-0.02,1721201578459
-3.74,-5.93,7.10,-0.10,-0.44,0.29,1721201578469
-3.12,-1.14,11.10,-0.34,0.28,0.35,1721201578479
5.15,-1.70,19.09,-0.14,-0.14,0.35,1721201578489
0.67,6.18,8.06,0.09,-0.27,0.11,1721201578499
0.39,-2.27,4.20,-0.27,-0.04,-0.07,1721201578509
-1.28,-2.73,12.90,-0.29,-0.13,-0.08,1721201578519
-0.93,3.78,11.15,-0.03,-0.10,-0.11,1721201578529
-2.39,1.04,8.34,-0.10,-0.15,0.01,1721201578539
-1.45,-3.99,10.01,-0.23,-0.09,0.18,1721201578549
0.80,-1.58,12.29,-0.17,-0.08,0.20,1721201578559
1.07,4.60,12.53,-0.01,0.01,0.15,1721201578569
3.75,-1.30,9.87,-0.01,-0.06,0.07,1721201578579
0.41,3.78,9.68,-0.04,-0.03,-0.18,1721201578589
0.16,4.04,11.62,0.05,-0.10,-0.28,1721201578599
1.65,-12.21,10.90,-0.16,-0.17,-0.02,1721201578609
-1.28,5.20,11.52,0.17,-0.06,-0.01,1721201578619
4.07,-1.75,8.86,0.20,0.12,-0.00,1721201578629
1.62,2.17,12.24,0.10,-0.01,-0.12,1721201578639
2.09,4.26,11.59,0.27,0.14,-0.34,1721201578649
1.26,-2.69,6.12,0.18,-0.09,-0.07,1721201578659
-1.22,-2.34,7.23,-0.04,0.21,-0.18,1721201578669
-0.24,0.58,14.87,0.22,-0.07,-0.07,1721201578679
2.72,6.24,6.41,0.31,0.24,0.07,1721201578689
3.55,-5.47,9.60,-0.11,0.19,-0.13,1721201578699
1.04,1.14,15.67,0.08,0.01,-0.35,1721201578709
-0.91,-2.85,4.42,0.10,0.25,-0.38,1721201578724
-1.34,-4.44,6.59,-0.02,0.12,-0.38,1721201578728
-2.03,5.77,16.44,0.25,0.25,-0.40,1721201578738
1.64,0.27,10.24,0.43,0.31,-0.29,1721201578748
0.66,2.76,7.69,0.21,0.32,-0.36,1721201578758
-0.84,0.15,9.01,0.09,0.37,-0.48,1721201578768
-1.83,-0.28,10.68,0.15,0.31,-0.54,1721201578778
-1.65,0.46,9.28,0.26,0.39,-0.31,1721201578788
-0.53,-0.29,8.05,0.03,0.35,-0.15,1721201578798
-1.35,6.49,15.45,0.17,0.30,-0.24,1721201578808
0.74,0.13,5.61,0.05,0.40,-0.47,1721201578818
-2.07,-3.73,5.16,-0.29,0.26,-0.47,1721201578828
-3.34,1.52,15.56,-0.02,0.48,-0.33,1721201578838
-2.09,-1.00,6.72,0.17,0.30,-0.18,1721201578848
-1.81,-0.69,8.53,-0.26,0.43,-0.09,1721201578858
-1.56,3.12,17.12,-0.01,0.21,-0.15,1721201578868
2.44,1.29,10.87,0.01,0.32,-0.11,1721201578878
1.21,-1.55,11.24,-0.13,0.26,-0.08,1721201578888
-2.33,1.48,8.84,0.04,0.26,-0.27,1721201578898
-0.66,-1.92,5.42,-0.16,0.46,-0.28,1721201578908
-2.01,-1.45,12.49,-0.11,0.31,-0.20,1721201578918
-1.76,-0.10,10.54,-0.03,0.35,-0.05,1721201578928
-1.76,-4.04,8.48,-0.12,0.30,0.03,1721201578938
-0.81,-1.11,12.27,-0.12,0.44,-0.06,1721201578948
0.80,5.82,12.82,0.11,0.32,-0.08,1721201578958
-0.58,-0.74,7.26,-0.10,0.14,-0.04,1721201578968
-1.93,-1.31,11.38,-0.11,0.34,-0.09,1721201578978
-1.47,-0.79,11.41,0.01,0.28,-0.06,1721201578988
-2.15,1.17,11.50,-0.01,0.36,-0.12,1721201578998
-1.78,-2.87,9.20,0.05,0.06,0.17,1721201579008
-1.90,-0.25,9.16,0.05,0.38,0.19,1721201579018
0.29,3.29,12.62,0.07,0.35,0.01,1721201579028
-1.20,-1.44,6.93,0.14,-0.03,0.01,1721201579038
-0.14,4.52,7.65,0.13,0.47,0.09,1721201579048
-0.76,-6.95,9.87,-0.21,-0.09,0.15,1721201579058
-6.31,0.82,14.64,0.14,0.05,0.10,1721201579068
0.39,-2.37,3.75,0.27,0.13,0.23,1721201579078
0.08,-4.23,6.13,-0.21,0.21,0.43,1721201579088
0.36,5.15,19.46,0.18,0.23,0.14,1721201579098
0.35,2.75,8.72,0.21,0.03,-0.05,1721201579108
-3.12,2.12,6.73,-0.02,0.13,-0.07,1721201579118
-3.80,-1.47,11.55,-0.04,0.02,0.18,1721201579128
-2.12,-3.45,10.58,-0.07,0.02,0.45,1721201579138
-2.04,-0.23,10.76,0.09,-0.07,0.35,1721201579148
-1.72,0.09,7.06,0.09,-0.04,0.21,1721201579158
-1.11,4.29,15.24,0.04,0.09,0.27,1721201579168
-0.34,1.24,7.18,0.08,-0.23,0.41,1721201579178
1.68,1.31,6.86,-0.01,0.25,0.46,1721201579188
5.37,-1.23,15.49,-0.11,0.05,0.26,1721201579198
0.11,4.18,13.68,0.15,-0.34,0.02,1721201579208
-0.70,3.64,4.33,0.13,0.03,0.08,1721201579218
-0.99,1.00,10.51,-0.15,-0.07,0.21,1721201579228
-2.62,0.91,13.02,0.01,-0.21,0.21,1721201579238
-1.36,4.77,9.31,0.12,-0.02,0.29,1721201579248
0.06,1.40,7.90,-0.08,-0.12,0.37,1721201579258
-0.36,-1.25,9.66,-0.20,-0.11,0.24,1721201579268
-2.43,-3.81,7.92,-0.19,-0.30,0.17,1721201579278
-3.47,-0.74,9.88,-0.18,-0.10,0.33,1721201579288
-1.68,0.18,18.80,-0.16,-0.07,0.54,1721201579298
0.11,-0.57,13.30,0.02,-0.38,0.70,1721201579308
2.25,-0.13,3.30,-0.23,-0.14,0.49,1721201579318
3.22,1.99,13.56,-0.26,-0.12,0.09,1721201579328
-1.16,-1.81,10.95,-0.14,-0.51,0.01,1721201579338
-3.26,-8.38,7.13,-0.25,-0.25,0.37,1721201579348
-3.13,1.49,11.27,-0.08,-0.29,0.56,1721201579358
0.72,6.33,9.47,-0.02,-0.16,0.58,1721201579368
3.77,0.20,9.40,-0.19,-0.24,0.41,1721201579378
3.15,-5.87,11.11,-0.15,-0.40,0.21,1721201579388
0.76,2.64,9.46,0.10,-0.30,0.11,1721201579398
0.20,-2.92,2.45,-0.12,-0.31,0.24,1721201579408
0.65,2.24,19.00,-0.16,-0.06,0.32,1721201579418
3.55,-3.82,14.10,0.10,-0.45,0.40,1721201579428
3.43,-0.19,8.22,-0.02,-0.17,0.14,1721201579438
4.66,-1.62,11.22,-0.00,-0.26,-0.02,1721201579448
1.47,-0.29,10.50,-0.01,-0.19,-0.17,1721201579458
-0.90,2.43,15.51,0.11,-0.14,-0.25,1721201579468
-1.59,2.81,8.20,0.20,-0.34,-0.01,1721201579478
-1.77,-6.81,6.22,-0.14,-0.22,0.21,1721201579488
2.11,-1.98,17.47,0.01,0.20,0.09,1721201579498
1.81,2.77,7.77,0.30,-0.47,-0.11,1721201579508
1.32,3.82,9.31,0.03,0.06,-0.08,1721201579518
0.48,-0.53,10.16,0.12,-0.22,-0.17,1721201579528
-1.06,-6.41,14.52,-0.14,-0.01,-0.22,1721201579538
-2.90,2.28,13.76,0.14,-0.27,0.01,1721201579548
-0.50,2.94,4.24,0.27,-0.08,0.24,1721201579558
4.97,-0.40,9.31,0.05,0.15,0.12,1721201579568
4.46,1.07,11.69,0.14,-0.21,-0.24,1721201579578
0.13,2.05,7.12,0.10,-0.09,-0.60,1721201579588
-4.24,2.19,12.90,0.04,-0.14,-0.46,1721201579598
-5.09,-1.06,10.29,0.09,-0.14,0.06,1721201579608
-1.64,0.77,9.65,-0.00,0.02,0.32,1721201579618
2.44,-0.04,8.23,0.02,-0.07,0.11,1721201579628
2.81,3.65,8.56,-0.05,0.00,-0.29,1721201579638
1.20,-1.66,11.22,-0.11,-0.09,-0.42,1721201579648
-3.53,2.22,13.77,-0.01,-0.18,-0.30,1721201579658
-3.22,2.22,10.62,0.12,-0.10,0.02,1721201579668
-0.45,-0.62,4.98,-0.08,-0.20,0.23,1721201579678
1.95,0.19,10.22,-0.18,0.04,-0.00,1721201579688
2.97,0.78,12.56,-0.01,-0.11,-0.25,1721201579698
-0.09,-1.41,8.28,-0.09,-0.25,-0.33,1721201579708
-2.57,1.62,8.56,-0.04,-0.12,-0.22,1721201579718
-2.03,-1.27,11.26,-0.18,0.07,-0.11,1721201579728
-1.19,2.08,15.81,-0.07,-0.16,0.04,1721201579738
0.95,-1.77,8.12,-0.01,-0.16,0.09,1721201579748
1.50,0.69,6.59,-0.11,-0.10,-0.02,1721201579758
1.45,-1.63,12.11,-0.16,-0.07,-0.28,1721201579768
-0.27,0.52,12.16,0.01,-0.18,-0.24,1721201579778
-1.49,-2.06,6.41,-0.08,-0.18,-0.06,1721201579788
-0.84,-3.42,9.84,-0.19,-0.05,-0.01,1721201579798
1.45,0.61,14.19,0.10,-0.09,-0.01,1721201579808
1.48,1.61,8.48,0.15,-0.18,-0.18,1721201579818
-1.48,0.42,6.71,-0.04,-0.17,-0.30,1721201579828
-1.14,-2.61,10.67,-0.04,-0.07,-0.22,1721201579838
-0.72,-2.92,12.62,-0.03,-0.09,-0.09,1721201579848
-2.62,2.21,13.26,0.08,-0.19,-0.21,1721201579858
-1.40,2.69,6.84,0.15,-0.29,-0.08,1721201579868
1.07,0.50,8.70,-0.10,0.02,-0.07,1721201579878
0.89,9.82,18.89,-0.17,-0.09,-0.24,1721201579888
-0.94,14.52,14.73,-0.18,-0.33,-0.48,1721201579898
-3.56,-19.02,3.39,-0.62,-0.45,-0.41,1721201579908
-4.09,-15.96,9.46,-0.40,0.09,-0.12,1721201579918
1.82,3.98,11.07,0.02,-0.10,-0.06,1721201579928
1.01,0.38,8.89,-0.09,-0.06,-0.32,1721201579938
-0.91,13.56,18.17,0.29,-0.37,-0.15,1721201579948
-2.63,5.75,1.30,0.27,-0.31,-0.20,1721201579958
0.48,-8.54,5.88,-0.42,0.14,-0.26,1721201579968
1.23,0.90,20.05,0.15,-0.40,-0.08,1721201579978
0.24,1.22,-0.06,0.37,-0.31,-0.17,1721201579988
-1.15,0.79,5.66,0.05,-0.07,-0.36,1721201579998
-2.75,-5.01,8.96,0.14,-0.53,-0.11,1721201580008
-2.52,3.95,10.31,0.00,-0.01,-0.08,1721201580018
0.10,0.97,12.54,-0.02,-0.33,-0.15,1721201580028
-1.26,-4.62,15.33,0.01,-0.15,-0.16,1721201580038
-1.10,0.27,9.12,0.43,-0.28,-0.01,1721201580048
-1.14,-12.33,5.19,-0.40,-0.17,-0.03,1721201580058
-1.76,-14.46,40.05,-0.61,-0.27,-0.12,1721201580068
0.17,57.02,44.06,0.87,-0.35,-0.51,1721201580078
-2.21,20.63,-17.78,1.90,-1.15,-0.15,1721201580088
-8.31,-28.68,-23.06,0.45,0.68,0.30,1721201580098
0.66,-15.17,19.08,-1.42,0.02,-0.31,1721201580108
-8.75,12.89,28.41,0.86,0.33,-1.03,1721201580118
14.97,8.37,-39.69,0.51,-1.76,-1.09,1721201580128
4.63,7.56,-14.76,0.12,1.07,-0.36,1721201580138
20.30,-6.96,19.17,-0.08,-0.04,-0.05,1721201580148
-0.83,-12.28,7.43,0.06,-1.77,-0.26,1721201580158
-4.47,-6.12,-7.05,0.59,0.70,-0.61,1721201580168
-3.11,-4.95,-2.67,0.31,-0.28,0.06,1721201580178
-0.14,3.58,2.56,-0.09,0.10,0.57,1721201580188
3.17,1.64,21.72,-0.12,0.87,0.11,1721201580198
9.19,9.83,23.60,-0.02,-0.44,-0.67,1721201580208
1.88,-7.88,-4.47,-0.07,-0.54,-1.13,1721201580218
-4.42,-5.95,6.81,-0.31,0.10,-0.95,1721201580228
-4.86,-3.66,8.44,0.27,-0.17,-0.26,1721201580238
-1.18,2.57,-9.85,-0.02,0.19,0.29,1721201580248
4.22,-19.92,40.16,-1.50,0.47,-0.20,1721201580258
-4.83,18.32,66.81,0.62,-1.62,-0.17,1721201580268
-3.85,1.19,-16.97,1.61,-0.20,-0.37,1721201580278
-9.56,12.94,-22.00,0.09,0.58,-0.06,1721201580288
-8.09,-26.13,3.11,-1.60,-0.25,-0.30,1721201580298
8.01,-4.44,29.02,-0.56,1.22,-0.81,1721201580308
1.23,-6.69,39.04,0.20,1.62,-0.35,1721201580318
-5.98,-4.08,23.48,-0.10,-0.19,-0.51,1721201580328
-6.42,2.94,12.63,-0.42,-0.48,-0.39,1721201580338
3.36,-0.35,8.95,0.08,0.96,-0.49,1721201580348
2.35,-10.50,-4.64,-0.09,-0.32,-0.46,1721201580358
-0.69,8.29,14.74,-0.32,0.74,-0.71,1721201580368
2.72,10.26,17.56,0.22,-0.23,-0.53,1721201580378
4.17,4.99,0.14,0.19,0.37,0.04,1721201580388
4.58,0.43,5.48,0.09,0.42,-0.15,1721201580398
2.99,-5.09,8.40,-0.15,0.12,-0.69,1721201580408
-5.38,2.21,10.95,0.04,0.04,-0.81,1721201580418
-2.90,4.11,15.67,0.15,0.61,-0.44,1721201580428
-2.08,0.17,10.42,-0.02,0.06,0.03,1721201580438
-1.53,0.51,9.73,-0.12,0.24,-0.00,1721201580448
4.00,5.64,13.22,0.18,0.46,-0.52,1721201580458
4.16,4.57,9.84,-0.02,0.31,-0.67,1721201580468
-5.30,-1.06,4.32,-0.16,-0.17,-0.59,1721201580478
-6.16,0.76,8.52,0.10,0.55,-0.34,1721201580488
3.44,-2.72,15.41,-0.09,0.58,0.05,1721201580498
0.72,-1.24,13.93,-0.09,-0.23,-0.01,1721201580508
-0.41,5.68,5.83,0.24,0.29,-0.39,1721201580518
3.46,1.02,8.85,0.00,0.50,-0.53,1721201580528
-0.89,-2.32,4.40,-0.08,0.09,-0.42,1721201580538
-1.19,-7.37,13.01,-0.25,0.68,-0.36,1721201580548
-1.45,0.22,13.78,0.21,0.21,-0.41,1721201580558
-0.49,-0.91,8.27,-0.07,0.41,-0.12,1721201580568
-1.68,6.23,14.99,0.11,0.21,-0.15,1721201580578
0.15,1.67,6.16,0.15,0.15,-0.15,1721201580588
0.04,-5.20,4.35,-0.21,0.40,-0.33,1721201580598
-1.22,-0.86,12.80,0.02,0.34,-0.41,1721201580608
-1.87,-4.65,11.19,-0.13,0.28,-0.36,1721201580618
-5.40,0.19,8.15,-0.06,0.10,-0.19,1721201580628
-2.66,-0.50,8.46,-0.05,0.43,-0.20,1721201580638
-0.20,-3.63,16.45,-0.27,0.39,-0.05,1721201580648
-0.14,3.09,11.68,0.03,0.11,-0.02,1721201580658
-0.45,-0.68,4.29,-0.20,0.22,-0.24,1721201580668
1.70,2.96,14.85,0.25,0.05,-0.24,1721201581229
0.71,3.62,10.31,0.30,0.28,-0.22,1721201581233
-1.06,1.34,8.78,0.11,0.11,-0.22,1721201581243
-2.98,-1.91,10.60,0.03,0.10,-0.16,1721201581253
-2.34,-0.18,12.33,0.15,0.21,-0.04,1721201581263
-0.48,4.05,10.58,0.24,0.18,0.08,1721201581273
1.93,2.25,9.37,0.18,0.26,0.14,1721201581283
2.62,0.04,9.43,0.17,0.07,0.02,1721201581293
2.60,0.60,10.11,0.10,0.25,-0.23,1721201581303
-0.38,2.00,11.04,0.13,0.08,-0.31,1721201581313
-1.83,-2.24,8.64,0.13,0.12,-0.12,1721201581323
-0.26,-0.91,9.64,0.22,0.31,-0.02,1721201581333
-0.56,0.29,8.90,0.16,0.09,-0.02,1721201581342
-1.96,1.90,3.63,0.24,0.06,-0.04,1721201581352
1.11,-3.00,11.60,-0.13,0.44,-0.10,1721201581362
0.11,-0.98,14.52,0.14,-0.07,-0.15,1721201581372
-2.33,-1.93,3.06,0.16,0.16,-0.06,1721201581382
-0.94,0.11,12.31,-0.14,0.37,-0.09,1721201581392
-0.96,-0.57,12.17,0.16,-0.11,-0.01,1721201581402
-2.09,-2.79,5.08,-0.01,0.23,-0.07,1721201581412
-0.63,-3.38,11.85,-0.11,0.23,-0.13,1721201581422
-1.23,0.55,12.42,0.09,0.04,-0.04,1721201581432
-2.97,-2.49,9.06,-0.09,0.08,-0.01,1721201581442
-3.32,-0.69,11.02,-0.06,0.09,-0.01,1721201581452
-0.05,1.53,11.77,0.10,0.16,0.10,1721201581462
-1.18,-3.72,3.79,-0.12,-0.11,0.11,1721201581472
-1.00,2.78,16.65,-0.11,0.33,0.04,1721201581482
0.13,4.71,11.37,0.12,-0.24,-0.03,1721201581492
-2.71,-2.00,1.83,-0.07,0.05,0.01,1721201581502
-1.01,-4.11,15.51,-0.22,0.32,-0.01,1721201581512
-3.01,0.75,10.15,0.12,-0.38,0.21,1721201581522
-1.68,2.37,10.14,-0.01,0.32,0.14,1721201581532
1.05,2.03,16.79,0.07,-0.09,0.20,1721201581542
-0.93,-1.87,6.99,0.08,-0.17,0.18,1721201581552
-0.12,0.19,9.03,0.03,0.07,0.13,1721201581562
0.35,5.32,10.24,0.23,-0.09,0.16,1721201581572
1.02,1.55,10.07,0.12,-0.01,0.23,1721201581582
0.23,1.50,8.36,0.19,-0.28,0.23,1721201581592
1.11,1.03,7.63,0.03,0.05,0.07,1721201581602
1.11,0.91,15.36,-0.01,-0.02,-0.08,1721201581612
-2.29,1.30,9.49,0.06,-0.27,-0.10,1721201581622
-3.27,3.25,9.30,0.09,-0.05,0.11,1721201581632
-2.07,-2.51,9.00,0.01,-0.20,0.32,1721201581642
0.34,2.68,11.91,0.11,-0.02,0.35,1721201581652
2.96,1.34,6.72,0.04,-0.18,0.08,1721201581662
0.57,2.60,11.98,-0.15,0.01,-0.16,1721201581672
-2.32,0.33,11.81,0.04,-0.37,-0.13,1721201581682
-1.88,-1.98,8.77,-0.07,0.06,0.13,1721201581692
-1.60,0.41,9.22,-0.01,-0.22,0.23,1721201581702
-0.23,-0.52,4.28,-0.15,-0.16,0.21,1721201581712
0.91,0.01,14.30,-0.24,-0.00,0.00,1721201581722
-0.46,-0.28,10.71,0.06,-0.38,0.06,1721201581732
-1.12,-0.22,7.15,-0.19,0.03,0.05,1721201581742
-0.13,-1.65,12.79,-0.20,-0.25,0.14,1721201581752
-3.46,-1.21,12.74,-0.16,-0.24,-0.02,1721201581762
-1.91,-2.65,7.61,-0.01,-0.21,0.23,1721201581772
0.87,-0.53,7.99,-0.09,-0.06,0.33,1721201581782
1.15,1.98,9.41,-0.04,-0.31,0.22,1721201581792
3.22,-0.59,12.20,-0.12,-0.09,0.03,1721201581802
2.86,-1.60,13.32,-0.03,-0.19,0.04,1721201581812
-0.83,2.29,7.83,-0.02,-0.20,-0.11,1721201581822
-0.41,3.00,13.81,-0.07,-0.10,0.06,1721201581832
0.16,-1.05,12.26,0.01,-0.33,0.19,1721201581842
0.39,-8.23,5.43,-0.11,-0.15,0.09,1721201581852
-0.71,3.35,15.73,-0.02,-0.07,-0.07,1721201581862
1.59,4.65,12.30,0.20,-0.36,0.32,1721201581872
1.24,2.55,3.83,0.01,-0.10,0.24,1721201581882
3.59,-6.08,12.82,-0.12,-0.04,-0.02,1721201581892
2.34,1.41,16.37,0.11,-0.16,-0.21,1721201581902
-0.96,2.37,9.25,0.12,-0.29,-0.10,1721201581912
-2.22,0.53,6.29,0.17,-0.09,0.13,1721201581922
1.86,-1.33,9.29,0.17,-0.01,0.23,1721201581932
4.07,-1.82,7.57,0.11,-0.15,0.09,1721201581942
3.87,6.41,10.99,0.17,0.01,-0.34,1721201581952
2.51,-2.07,11.30,0.03,-0.15,-0.46,1721201581962
-4.08,-3.80,8.07,0.12,-0.38,-0.24,1721201581972
-1.91,-1.29,6.97,0.22,0.15,-0.12,1721201581982
1.02,1.15,9.29,0.06,-0.03,0.07,1721201581992
1.00,2.50,17.79,0.02,-0.04,-0.17,1721201582002
1.00,-0.13,14.20,0.21,-0.10,-0.38,1721201582012
-1.13,3.45,2.77,0.18,-0.18,-0.14,1721201582022
0.20,-0.24,5.66,-0.15,0.19,-0.13,1721201582032
1.63,-1.02,14.61,-0.12,-0.01,-0.37,1721201582042
-0.73,1.94,7.25,0.12,-0.11,-0.34,1721201582052
-1.22,0.44,2.94,-0.04,0.11,-0.27,1721201582062
1.19,-0.41,17.04,-0.21,0.27,-0.27,1721201582072
0.47,2.29,16.45,0.08,-0.24,-0.17,1721201582082
-1.88,3.16,4.76,0.03,-0.04,-0.23,1721201582092
0.69,-0.03,9.21,-0.15,0.19,-0.35,1721201582102
-0.12,-1.66,11.41,-0.04,-0.07,-0.36,1721201582112
-1.44,0.42,11.71,-0.10,0.08,-0.31,1721201582122
-2.01,1.05,8.27,0.08,-0.06,-0.28,1721201582132
0.91,-0.92,11.41,-0.12,0.31,-0.17,1721201582142
-0.24,1.87,14.20,0.11,-0.06,-0.17,1721201582152
0.27,-0.16,5.17,-0.05,0.03,-0.31,1721201582162
0.00,1.08,11.81,-0.06,0.13,-0.44,1721201582172
-1.58,-5.65,6.75,-0.10,-0.05,-0.37,1721201582182
-2.24,-1.35,18.97,-0.12,0.40,-0.48,1721201582192
-1.61,-0.10,12.17,0.17,-0.26,-0.32,1721201582202
-5.69,0.35,4.54,-0.04,0.11,-0.26,1721201582212
0.01,2.62,16.70,0.04,0.31,-0.21,1721201582222
0.40,1.10,7.36,0.11,-0.21,-0.15,1721201582232
-2.24,-3.14,6.72,-0.09,0.12,-0.26,1721201582242
0.23,-4.18,15.64,-0.05,0.21,-0.38,1721201582252
-1.54,-0.17,9.44,0.08,-0.17,-0.20,1721201582262
-3.74,0.39,7.09,0.07,0.07,-0.09,1721201582272
0.34,-1.61,9.83,-0.00,0.19,-0.06,1721201582282
0.56,-0.84,10.07,0.04,-0.09,-0.13,1721201582292
0.03,2.01,12.06,0.04,0.13,-0.35,1721201582302
0.08,3.00,12.29,0.05,0.02,-0.38,1721201582312
-3.04,-2.30,10.75,-0.09,-0.02,-0.23,1721201582322
-4.48,-2.87,11.22,0.07,0.04,-0.09,1721201582332
0.05,1.72,12.06,0.06,0.22,0.05,1721201582342
1.54,3.81,12.81,0.07,-0.04,-0.09,1721201582352
0.48,-0.52,8.15,0.12,-0.06,-0.33,1721201582362
0.29,1.17,9.03,0.09,0.17,-0.37,1721201582372
-1.30,0.47,10.70,0.05,0.05,-0.36,1721201582382
-4.70,0.48,8.26,0.16,-0.10,-0.31,1721201582392
-1.58,4.80,11.21,0.22,0.34,-0.08,1721201582402
-0.64,1.13,10.30,0.09,-0.14,-0.00,1721201582412
-1.47,2.16,8.15,0.12,0.05,-0.14,1721201582422
2.53,0.88,9.63,0.09,0.24,-0.19,1721201582432
0.58,1.51,10.41,-0.02,-0.03,-0.35,1721201582442
-2.86,1.27,8.56,0.15,-0.03,-0.31,1721201582452
-2.22,0.54,8.43,0.04,0.20,-0.11,1721201582462
-1.67,0.09,11.02,-0.04,-0.02,0.02,1721201582472
-0.50,0.08,9.34,0.04,0.03,-0.02,1721201582482
-0.07,-2.62,8.89,-0.10,0.09,-0.14,1721201582492
-2.89,5.95,13.28,0.04,-0.07,-0.14,1721201582502
-1.02,7.44,10.87,0.10,0.04,0.04,1721201582512
0.65,-3.06,5.51,-0.24,0.04,0.02,1721201582522
-1.31,-3.23,12.70,-0.18,0.09,-0.18,1721201582532
-1.76,0.92,8.01,-0.05,-0.13,-0.13,1721201582542
-2.49,0.87,6.90,-0.06,0.04,0.15,1721201582552
-0.77,-2.78,9.55,-0.17,0.09,0.10,1721201582562
0.83,0.54,14.00,-0.02,-0.07,0.07,1721201582572
2.25,1.94,9.03,-0.08,0.06,-0.04,1721201582582
1.41,2.00,15.10,-0.13,0.08,-0.20,1721201582592
-0.36,-2.75,12.94,0.03,-0.20,-0.13,1721201582602
0.81,-2.46,5.08,0.09,0.18,0.01,1721201582612
0.87,-1.47,5.91,-0.06,0.09,-0.11,1721201582622
0.37,1.62,11.21,-0.13,0.15,-0.18,1721201582632
0.86,-0.39,6.33,-0.02,0.11,-0.30,1721201582642
0.76,-1.49,12.80,-0.11,0.25,-0.31,1721201582652
0.85,2.09,1.86,0.17,-0.06,-0.14,1721201582662
-0.73,-2.93,0.38,-0.37,0.35,-0.26,1721201582672
-0.64,-8.90,27.38,-0.63,0.45,-0.49,1721201582682
0.41,3.09,31.42,0.08,-0.19,-0.18,1721201582692
-2.66,4.18,-0.39,0.30,0.03,-0.09,1721201582702
0.64,1.24,9.16,-0.23,0.58,-0.24,1721201582712
-0.65,1.08,14.46,0.07,-0.03,-0.31,1721201582722
-0.60,0.45,5.38,0.12,0.35,-0.35,1721201582732
-0.65,-1.49,8.35,-0.10,0.13,-0.02,1721201582742
-1.92,1.35,10.99,-0.01,0.09,0.06,1721201582752
3.31,5.31,15.41,0.08,0.43,-0.06,1721201582762
2.97,0.52,7.88,0.17,-0.00,-0.10,1721201582772
1.25,-5.40,7.67,-0.10,0.40,-0.45,1721201582782
-2.25,2.88,17.01,0.10,0.17,-0.42,1721201582792
-3.68,4.53,8.01,0.28,0.35,-0.14,1721201582802
-1.31,3.22,12.35,0.10,0.41,0.14,1721201582812
0.44,2.42,9.49,0.26,0.02,0.25,1721201582822
3.15,-1.01,3.54,0.08,0.47,-0.03,1721201582832
3.25,2.81,11.88,-0.00,0.39,-0.43,1721201582842
-1.70,0.20,10.80,0.01,0.09,-0.52,1721201582852
-4.39,-0.56,9.75,0.06,0.17,-0.08,1721201582862
-1.66,-1.33,6.94,0.10,0.37,0.19,1721201582872
1.72,0.23,11.88,-0.03,0.49,0.07,1721201582882
1.08,6.31,12.94,0.21,0.20,-0.18,1721201582892
-0.22,1.15,4.89,0.03,0.23,-0.17,1721201582902
-1.76,-2.11,13.76,-0.14,0.39,-0.14,1721201582912
-0.28,1.81,13.65,0.24,0.20,0.09,1721201582922
0.76,-0.60,9.67,-0.06,0.39,-0.01,1721201582932
-0.94,2.32,17.74,0.08,0.13,-0.19,1721201582942
-2.49,1.32,8.10,0.38,0.15,-0.14,1721201582952
-3.98,0.17,-0.11,0.06,0.28,0.07,1721201582962
-2.04,0.68,10.73,0.10,0.45,0.13,1721201582972
0.95,-2.32,5.11,0.09,0.09,0.28,1721201582982
1.17,-5.91,3.79,-0.15,0.42,0.09,1721201582992
3.28,4.84,23.42,0.03,0.48,-0.22,1721201583002
-0.26,-2.62,11.60,0.14,-0.30,-0.20,1721201583012
-5.37,-0.26,3.88,0.01,0.30,-0.05,1721201583022
-1.25,-0.22,14.52,-0.05,0.40,0.02,1721201583032
-2.78,-5.34,7.09,0.02,-0.20,0.19,1721201583042
-1.58,-7.16,4.38,-0.08,0.34,0.21,1721201583052
-0.07,13.55,19.55,0.08,0.23,0.07,1721201583062
0.96,10.54,8.05,0.07,-0.09,-0.02,1721201583072
0.70,-22.48,3.69,-0.59,0.19,-0.05,1721201583082
-2.06,-10.77,17.70,-0.27,0.26,-0.05,1721201583092
-11.84,11.21,17.00,0.17,0.00,-0.15,1721201583102
-0.56,5.73,11.40,-0.07,0.33,-0.05,1721201583112
-2.30,5.13,9.83,0.14,-0.25,0.04,1721201583122
0.27,-4.65,5.03,-0.16,0.42,0.19,1721201583132
0.62,-4.43,13.31,-0.22,0.19,-0.06,1721201583142
-1.59,8.18,12.06,0.18,0.03,-0.16,1721201583152
-2.79,3.00,3.24,0.06,0.06,-0.03,1721201583162
-2.66,-1.06,12.46,-0.04,0.27,0.15,1721201583172
-1.11,1.27,11.21,0.18,-0.06,0.21,1721201583182
-0.48,2.52,5.93,-0.01,0.09,0.13,1721201583192
-0.24,2.20,15.42,0.03,0.07,-0.01,1721201583202
-0.70,-0.00,8.97,0.28,-0.01,-0.04,1721201583212
-1.21,3.87,-4.45,0.33,0.09,0.25,1721201583222
-5.24,-14.88,33.68,-0.86,0.84,-0.10,1721201583237
-1.97,1.24,46.61,-0.12,0.21,-0.14,1721201583241
-3.78,24.52,18.61,1.12,-0.32,-0.33,1721201583251
-5.46,-6.93,-24.34,0.03,0.02,0.22,1721201583261
-2.22,1.82,21.14,-0.35,0.22,0.85,1721201583271
-7.12,-2.53,10.01,0.54,-0.55,0.17,1721201583281
5.54,3.17,10.34,0.11,0.60,-0.36,1721201583291
-1.54,-2.18,12.40,-0.13,-0.44,-0.37,1721201583301
-5.34,-0.39,12.19,0.06,0.16,-0.16,1721201583311
-4.66,3.91,11.44,0.10,0.19,0.15,1721201583321
-3.77,0.90,3.69,0.09,-0.12,0.52,1721201583331
-0.56,-6.68,4.01,-0.17,0.16,0.58,1721201583341
3.22,2.34,14.93,0.06,0.25,0.21,1721201583351
4.21,2.04,10.24,-0.00,-0.20,-0.02,1721201583361
-1.03,0.74,12.42,-0.28,0.02,-0.12,1721201583371
-4.11,-0.74,8.98,0.04,-0.07,0.00,1721201583381
-3.60,-3.40,7.26,-0.20,0.18,0.30,1721201583391
-1.80,-2.32,8.54,-0.03,-0.21,0.64,1721201583401
3.23,3.22,8.58,0.03,0.28,0.48,1721201583411
4.12,-0.81,12.81,-0.17,-0.19,0.16,1721201583421
0.59,2.42,8.83,-0.03,-0.08,0.07,1721201583431
0.93,-8.18,7.23,-0.24,0.13,-0.01,1721201583441
-3.09,-9.57,16.41,-0.24,-0.07,-0.03,1721201583451
-3.74,2.27,13.35,0.22,-0.10,0.28,1721201583461
-0.17,11.78,13.28,0.18,0.23,0.53,1721201583471
2.30,11.90,7.66,0.07,-0.17,0.61,1721201583481
5.08,-20.81,0.30,-0.39,0.11,0.15,1721201583491
3.19,-8.50,17.96,-0.32,0.27,-0.58,1721201583501
-2.39,10.90,3.63,0.16,-0.33,-0.30,1721201583511
1.85,-0.75,3.62,-0.08,0.11,0.30,1721201583521
2.20,-2.67,15.57,-0.10,0.20,0.49,1721201583531
3.90,-5.28,12.87,0.06,-0.00,0.16,1721201583541
1.06,3.14,13.41,0.01,0.07,-0.27,1721201583551
-2.32,8.12,14.45,0.29,-0.05,-0.10,1721201583561
-1.30,-1.19,4.34,0.28,0.05,0.37,1721201583571
1.92,-2.32,7.43,0.09,0.20,0.37,1721201583581
4.28,2.19,9.68,0.10,0.04,0.12,1721201583591
3.27,4.16,12.84,0.01,0.21,-0.19,1721201583601
-1.61,4.64,10.99,0.24,-0.12,-0.22,1721201583611
-1.11,0.66,-1.74,0.29,0.11,0.08,1721201583621
1.99,-1.27,-3.87,-0.15,0.29,0.26,1721201583631
3.07,-6.62,14.72,-0.78,0.32,-0.09,1721201583641
-4.89,-0.17,44.52,-0.38,-0.15,-0.74,1721201583651
-7.79,6.71,11.59,1.11,-0.21,-0.34,1721201583661
-4.12,0.62,-21.71,-0.09,0.50,0.65,1721201583671
4.68,-7.03,20.56,-0.77,0.12,0.83,1721201583681
-7.93,-8.30,34.09,0.17,0.81,0.20,1721201583691
6.89,-0.80,13.12,0.37,-0.13,-0.34,1721201583701
-1.58,2.84,-0.20,-0.25,-0.10,-0.38,1721201583711
-5.11,-1.71,18.04,-0.28,0.41,-0.13,1721201583721
-1.59,3.90,19.19,0.08,0.03,-0.11,1721201583731
-0.65,-1.28,3.49,0.02,0.06,0.10,1721201583741
-1.25,-2.54,7.31,-0.11,0.26,0.11,1721201583751
-1.24,-0.17,12.78,0.05,0.05,0.01,1721201583761
-0.66,3.60,12.01,-0.00,0.26,-0.16,1721201583771
-3.44,-1.84,7.46,-0.03,-0.16,-0.02,1721201583781
-3.21,-2.15,13.46,-0.09,0.44,0.01,1721201583791
-1.47,-2.09,12.02,0.15,-0.09,0.21,1721201583801
0.05,-4.46,6.45,-0.10,0.25,0.19,1721201583811
-0.68,4.52,13.64,0.15,-0.02,-0.02,1721201583821
0.74,0.26,6.26,0.05,0.07,-0.05,1721201583831
-1.77,-5.12,11.98,-0.24,0.09,0.04,1721201583841
-4.19,-2.99,13.93,0.12,-0.12,0.05,1721201583851
-0.05,1.86,10.47,0.09,0.35,0.21,1721201583861
-0.42,-4.26,8.50,-0.11,-0.16,0.31,1721201583871
-3.05,0.41,10.94,0.00,0.07,0.14,1721201583881
2.77,-1.76,11.28,0.02,0.13,0.12,1721201583891
-0.06,1.02,11.32,-0.08,-0.03,0.09,1721201583901
-1.80,0.35,11.46,0.07,-0.09,0.11,1721201583911
-0.46,1.34,8.48,0.06,0.17,0.05,1721201583921
-1.62,-1.15,10.36,-0.04,-0.14,0.16,1721201583931
-2.64,0.59,7.76,0.08,-0.13,0.22,1721201583941
-0.11,2.18,10.47,0.09,0.28,0.12,1721201583951
-0.25,-0.17,14.01,-0.10,-0.06,-0.07,1721201583961
-5.72,-0.52,5.74,0.24,-0.40,0.07,1721201583971
-3.04,-7.53,0.87,-0.14,0.24,0.23,1721201583981
-0.07,18.19,23.14,0.10,0.17,0.37,1721201583991
0.80,16.43,7.63,0.66,-0.62,0.45,1721201584001
-0.36,-22.05,-6.24,-0.64,0.03,0.23,1721201584011
6.75,1.07,24.10,-0.53,0.29,-0.08,1721201584021
12.15,8.93,-5.54,0.42,-0.70,-0.19,1721201584031
-2.50,-10.42,0.88,-0.27,0.16,0.46,1721201584041
-0.36,0.76,18.54,0.18,-0.24,0.81,1721201584051
5.91,4.64,5.83,0.03,-0.11,0.49,1721201584061
3.97,9.59,16.39,-0.20,-0.16,-0.04,1721201584071
0.49,2.26,10.66,0.06,-0.26,-0.25,1721201584081
-6.74,-4.24,1.53,-0.27,-0.35,0.03,1721201584091
-6.35,-1.66,13.86,-0.17,0.02,0.56,1721201584101
-0.19,-3.48,11.51,-0.17,-0.31,0.71,1721201584111
0.34,3.70,13.13,-0.10,-0.24,0.48,1721201584121
1.64,0.44,5.69,-0.04,-0.41,0.31,1721201584131
1.52,-0.61,8.06,-0.23,-0.07,0.24,1721201584141
-0.32,6.53,-3.14,0.21,-0.56,0.21,1721201584151
0.95,-27.09,-0.65,-1.38,-0.12,0.21,1721201584161
-11.08,-1.94,68.75,-0.07,-0.32,-0.30,1721201584171
-1.02,22.84,29.44,1.13,-0.46,0.06,1721201584181
-1.68,-19.40,-29.77,0.87,-0.84,0.81,1721201584191
-0.41,-21.35,6.25,-1.66,0.51,0.76,1721201584201
0.76,14.33,49.96,0.14,-0.38,0.44,1721201584211
-3.90,-0.23,-0.87,0.03,-1.59,-0.01,1721201584221
-1.98,-3.92,2.83,-0.61,0.34,-0.22,1721201584231
7.06,8.86,12.09,0.16,-0.59,-0.11,1721201584241
-0.12,-0.76,8.85,-0.02,-0.46,0.20,1721201584251
-1.16,4.30,3.03,0.12,-0.12,0.26,1721201584261
3.85,-1.44,1.57,0.09,0.01,0.24,1721201584271
4.33,-4.23,9.50,-0.26,-0.04,-0.22,1721201584281
-6.20,4.50,15.27,0.25,-0.46,-0.38,1721201584291
-0.55,-3.39,2.92,0.16,0.07,-0.00,1721201584301
-1.75,-2.30,15.72,-0.15,-0.20,0.21,1721201584311
2.49,4.26,14.93,0.25,-0.22,0.10,1721201584321
2.26,-2.32,4.82,-0.06,-0.09,-0.25,1721201584331
2.44,-0.51,21.04,-0.10,0.18,-0.27,1721201584341
-0.72,1.19,16.51,0.42,-0.24,-0.23,1721201584351
0.35,-0.29,-0.13,0.30,0.08,0.04,1721201584361
1.75,0.84,7.95,-0.08,0.24,-0.11,1721201584371
0.77,4.74,12.26,0.19,-0.21,-0.15,1721201584381
0.93,1.19,8.40,0.04,0.09,-0.02,1721201584391
2.37,1.72,15.27,0.16,0.01,-0.12,1721201584401
1.17,5.27,1.58,0.14,-0.11,-0.10,1721201584411
0.91,0.68,6.79,-0.32,0.35,-0.47,1721201584421
-1.21,-7.69,19.51,-0.20,-0.16,-0.60,1721201584431
-5.34,-1.12,8.73,0.00,-0.06,-0.42,1721201584441
-5.20,3.96,11.38,0.03,0.25,-0.04,1721201584451
-2.60,0.71,8.83,-0.04,0.07,0.23,1721201584461
1.19,-0.74,4.50,-0.13,0.10,0.12,1721201584471
4.63,-1.07,7.94,-0.24,0.20,-0.24,1721201584481
1.81,-2.95,9.26,-0.28,-0.08,-0.37,1721201584491
-2.46,0.06,10.47,-0.13,-0.03,-0.40,1721201584501
-1.23,2.78,12.56,0.05,0.20,-0.29,1721201584511
-1.08,1.64,9.93,-0.16,-0.07,-0.06,1721201584521
-1.59,-2.06,10.32,-0.20,0.07,-0.10,1721201584531
-0.86,-3.06,14.49,-0.20,0.25,-0.27,1721201584541
-2.47,-2.82,10.88,-0.07,-0.11,-0.30,1721201584551
-4.30,-2.00,11.14,-0.16,0.08,-0.04,1721201584561
-2.25,5.49,19.13,0.01,0.18,0.03,1721201584571
-1.01,-2.98,9.79,-0.04,-0.23,0.07,1721201584581
-0.18,3.06,18.22,-0.01,0.30,-0.01,1721201584591
1.34,1.64,7.01,0.26,-0.40,0.12,1721201584601
1.24,0.43,7.11,0.05,0.31,0.00,1721201584611
1.15,-2.48,17.16,-0.02,-0.13,-0.21,1721201584621
-3.49,6.53,9.67,0.39,-0.19,-0.30,1721201584631
-1.81,2.21,4.63,0.45,0.15,0.00,1721201584641
-1.51,-5.48,6.92,-0.00,-0.05,0.13,1721201584651
-2.79,4.73,6.06,0.51,-0.05,0.21,1721201584661
3.18,-1.97,0.14,0.29,0.16,-0.04,1721201584671
2.48,-3.68,6.44,-0.19,-0.11,-0.08,1721201584681
3.09,2.46,18.20,0.07,0.15,-0.19,1721201584691
-1.19,1.80,10.82,0.11,-0.23,-0.21,1721201584701
-3.98,1.59,7.24,0.08,0.01,-0.11,1721201584711
-0.30,-1.01,6.65,-0.05,-0.02,0.19,1721201584721
-1.07,-7.48,5.83,-0.23,-0.11,-0.02,1721201584731
0.78,-1.47,18.13,0.09,0.17,-0.25,1721201584741
-2.17,0.57,6.11,0.19,-0.35,-0.31,1721201584751
-5.49,4.81,12.16,0.06,0.08,-0.25,1721201584761
-2.54,3.79,11.56,0.36,-0.17,0.08,1721201584771
0.08,-1.90,4.80,-0.10,-0.02,0.25,1721201584781
2.19,4.83,14.77,0.17,-0.04,0.09,1721201584791
2.14,-0.78,7.37,0.07,-0.28,-0.26,1721201584801
-3.10,10.13,8.03,0.29,-0.04,-0.37,1721201584811
0.28,-0.75,5.11,-0.06,0.03,-0.14,1721201584821
-3.53,-3.28,17.84,-0.36,-0.05,-0.05,1721201584831
-3.67,3.17,14.06,0.35,-0.28,0.03,1721201584841
2.04,-0.83,3.75,-0.01,0.04,0.16,1721201584851
0.74,1.01,11.85,-0.15,-0.13,0.11,1721201584861
0.52,1.10,10.38,-0.04,-0.07,-0.15,1721201584871
-0.38,-0.34,12.81,-0.24,-0.11,-0.22,1721201584881
-4.45,-3.47,9.48,-0.09,-0.38,-0.01,1721201584891
-1.84,-3.12,3.40,-0.17,0.11,0.22,1721201584901
0.91,0.96,10.64,-0.26,-0.09,0.19,1721201584911
2.97,-4.06,8.33,-0.24,-0.17,0.06,1721201584921
1.20,-5.71,11.45,-0.25,-0.10,-0.20,1721201584931
-3.36,-2.35,8.24,0.01,-0.31,-0.14,1721201584941
-1.40,-7.36,2.90,-0.31,0.07,0.18,1721201584951
0.30,2.95,17.72,-0.20,0.14,0.14,1721201584961
1.48,10.64,18.11,-0.01,-0.20,-0.07,1721201584971
3.25,-0.55,8.69,-0.32,-0.12,-0.17,1721201584981
-1.56,-14.31,14.77,-0.64,-0.20,-0.32,1721201584991
-3.31,-2.17,15.26,0.14,-0.28,-0.11,1721201585001
1.01,6.14,2.88,0.23,0.03,0.27,1721201585011
2.88,1.30,8.51,-0.21,-0.03,0.31,1721201585021
0.06,3.00,21.39,-0.27,0.00,-0.15,1721201585031
3.74,-0.71,20.77,0.00,-0.07,-0.33,1721201585041
-1.21,0.50,5.63,0.17,-0.27,-0.36,1721201585051
-0.46,3.40,6.92,0.24,0.16,0.02,1721201585061
-0.77,0.91,3.12,0.34,-0.24,0.24,1721201585071
2.06,-3.40,4.41,0.11,0.28,-0.02,1721201585081
-0.02,7.86,13.92,0.20,0.03,-0.33,1721201585091
3.90,2.33,5.89,0.21,-0.08,-0.24,1721201585101
2.72,6.52,9.48,0.17,0.20,-0.29,1721201585111
2.27,-2.98,6.51,0.21,-0.10,-0.38,1721201585121
-1.45,-10.46,2.14,-0.25,0.08,-0.42,1721201585131
-4.61,-6.04,30.46,-0.28,0.10,-0.59,1721201585141
-4.42,15.59,27.79,0.71,-0.11,-0.13,1721201585151
-1.97,-2.96,-15.09,0.47,0.07,0.46,1721201585161
3.30,-0.24,9.56,-0.31,0.59,0.15,1721201585171
6.02,-0.32,16.12,0.49,0.18,-0.42,1721201585181
1.54,-0.42,16.12,-0.05,-0.40,-0.44,1721201585191
-6.21,2.20,4.50,0.04,-0.12,-0.30,1721201585201
-4.65,2.32,4.58,0.24,0.22,0.18,1721201585211
3.09,0.27,10.55,-0.08,0.36,0.14,1721201585221
2.98,2.57,16.09,-0.00,-0.01,-0.25,1721201585231
0.22,2.61,6.83,-0.02,0.13,-0.25,1721201585246
-1.19,0.01,10.34,-0.13,0.44,-0.22,1721201585250
-1.06,3.41,16.81,0.10,0.04,-0.17,1721201585260
-1.74,1.85,3.06,0.21,-0.09,-0.04,1721201585270
1.64,-4.84,7.29,-0.25,0.28,-0.01,1721201585280
1.84,1.73,15.08,0.03,0.01,-0.25,1721201585290
0.51,1.71,4.93,0.14,0.05,-0.41,1721201585300
-1.31,1.18,12.75,-0.12,0.29,-0.49,1721201585310
-3.96,0.06,11.41,0.05,-0.19,-0.27,1721201585320
-5.66,-6.11,3.85,-0.12,-0.00,0.05,1721201585330
0.12,-3.62,15.58,-0.11,0.35,0.25,1721201585340
1.83,3.05,12.53,0.17,-0.03,0.09,1721201585350
-0.10,0.67,3.80,-0.03,-0.04,-0.14,1721201585360
-0.54,-6.52,14.12,-0.24,0.14,-0.04,1721201585370
-2.09,0.88,15.95,0.04,-0.11,0.03,1721201585380
-1.58,-0.84,6.84,0.11,-0.03,0.09,1721201585390
0.34,0.59,7.14,-0.00,0.10,0.12,1721201585400
-0.46,-2.35,8.38,-0.11,-0.08,0.11,1721201585410
-2.91,-6.12,11.98,-0.14,-0.22,-0.02,1721201585420
-1.40,-1.90,8.99,0.12,-0.05,0.08,1721201585430
1.27,1.84,9.66,0.01,0.11,0.20,1721201585440
0.51,1.85,7.98,0.03,-0.37,0.12,1721201585450
-2.05,0.66,9.67,-0.11,0.02,0.00,1721201585460
0.45,2.59,15.93,0.04,-0.04,0.00,1721201585470
-0.37,-4.31,6.24,-0.13,-0.31,0.09,1721201585480
-3.56,-0.76,13.66,-0.12,-0.05,0.07,1721201585490
0.41,6.16,11.88,0.25,-0.21,0.20,1721201585500
0.47,1.81,5.37,0.02,-0.22,0.19,1721201585510
-0.09,-2.73,8.76,-0.11,-0.29,0.05,1721201585520
4.33,-2.29,16.20,-0.01,0.09,0.09,1721201585530
0.46,4.45,9.82,0.14,-0.40,-0.17,1721201585540
-2.82,0.95,4.02,0.10,-0.23,-0.13,1721201585550
-1.62,0.52,10.65,0.04,-0.03,0.19,1721201585560
1.78,0.86,14.40,0.11,-0.24,0.15,1721201585570
1.78,2.69,8.36,0.13,-0.30,-0.04,1721201585580
0.25,0.63,6.18,-0.13,-0.18,-0.12,1721201585590
0.22,3.10,18.60,-0.06,-0.11,-0.26,1721201585600
0.00,-1.08,11.41,0.23,-0.39,0.06,1721201585610
0.22,0.49,3.73,-0.10,-0.01,0.07,1721201585620
1.26,4.56,16.94,-0.07,-0.16,-0.13,1721201585630
2.06,1.60,9.30,0.06,-0.23,-0.28,1721201585640
0.28,-1.86,6.79,-0.15,-0.14,-0.31,1721201585650
-1.75,-1.52,8.89,-0.04,-0.20,-0.33,1721201585660
-0.84,-0.45,9.34,-0.18,0.07,-0.20,1721201585670
-0.46,3.78,15.47,-0.09,-0.20,-0.13,1721201585680
0.10,2.44,8.79,0.12,-0.13,-0.16,1721201585690
0.39,-5.33,2.93,-0.24,-0.02,-0.24,1721201585700
-0.53,-2.78,13.94,-0.26,0.15,-0.39,1721201585710
-1.10,5.80,19.42,0.02,-0.10,-0.36,1721201585720
-1.77,-2.40,10.02,-0.05,-0.19,-0.05,1721201585730
-2.32,3.38,5.83,0.08,-0.09,-0.10,1721201585740
3.73,-2.76,10.52,-0.17,0.25,-0.26,1721201585750
2.15,2.55,14.95,-0.03,-0.24,-0.40,1721201585760
-0.78,-3.02,4.23,-0.05,-0.15,-0.52,1721201585770
-2.59,-2.90,8.37,-0.10,0.09,-0.40,1721201585780
-0.64,-4.93,11.11,-0.11,0.01,-0.10,1721201585790
0.50,-0.07,16.59,-0.13,0.23,-0.25,1721201585800
1.84,6.42,13.23,0.17,-0.06,-0.43,1721201585810
1.39,-3.38,5.80,-0.12,0.14,-0.46,1721201585820
-2.57,-2.18,10.98,-0.14,-0.02,-0.59,1721201585830
-2.13,2.29,12.71,-0.01,0.22,-0.43,1721201585840
-2.11,0.47,10.36,-0.09,-0.06,-0.24,1721201585850
-3.47,-6.23,9.24,-0.12,0.12,-0.29,1721201585860
0.99,1.10,9.90,0.05,0.39,-0.17,1721201585870
0.95,1.93,8.62,-0.17,0.00,-0.27,1721201585880
-1.31,0.89,13.60,-0.03,0.21,-0.35,1721201585890
1.63,-3.09,7.24,0.07,0.25,-0.37,1721201585900
-0.71,1.01,9.39,-0.06,0.17,-0.42,1721201585910
0.60,4.25,16.93,0.15,0.30,-0.30,1721201585920
-0.99,-0.15,9.21,0.07,0.05,-0.35,1721201585930
-3.81,3.12,10.35,0.09,0.27,-0.41,1721201585940
-0.01,-0.72,8.23,0.14,0.18,-0.20,1721201585950
0.57,1.69,10.59,0.03,0.35,-0.26,1721201585960
0.13,1.01,11.40,0.08,0.25,-0.48,1721201585970
-2.60,4.78,10.27,0.20,0.19,-0.37,1721201585980
-0.89,-4.02,7.99,0.08,0.37,-0.27,1721201585990
-0.71,-2.43,10.85,-0.00,0.24,-0.20,1721201586000
-0.06,4.70,12.96,0.10,0.28,-0.18,1721201586010
-1.96,0.85,12.61,-0.03,0.21,-0.47,1721201586020
-4.63,5.56,7.74,0.40,0.01,-0.22,1721201586030
0.51,-4.70,0.67,0.01,0.47,0.03,1721201586040
-0.39,-1.17,14.42,-0.16,0.22,-0.08,1721201586050
-1.08,3.60,15.98,0.20,0.21,-0.37,1721201586060
-1.86,3.24,4.02,0.22,0.23,-0.31,1721201586070
-3.20,-2.12,4.08,-0.10,0.22,-0.12,1721201586080
-2.32,0.95,13.90,-0.01,0.32,0.09,1721201586090
0.60,-1.23,9.14,0.09,0.20,0.01,1721201586100
0.55,-3.55,5.05,-0.10,0.15,0.06,1721201586110
1.71,-0.20,11.90,-0.07,0.37,-0.03,1721201586120
1.59,-0.60,13.00,-0.07,0.08,-0.08,1721201586130
-0.60,0.30,12.79,0.01,0.17,-0.08,1721201586140
-0.32,2.19,7.81,0.10,0.26,-0.03,1721201586150
-0.65,-1.99,10.78,-0.14,0.19,-0.02,1721201586160
-1.55,-0.68,9.58,-0.06,0.11,0.02,1721201586170
1.63,1.08,11.61,-0.02,0.41,-0.07,1721201586180
1.45,1.59,9.18,0.09,0.09,-0.07,1721201586190
-0.86,-2.05,6.71,-0.12,0.16,-0.04,1721201586200
-1.53,-6.41,11.80,-0.21,0.05,0.08,1721201586210
-1.02,7.11,15.53,0.10,0.29,0.10,1721201586220
2.90,1.04,8.58,0.08,0.20,-0.05,1721201586230
-1.55,-4.96,3.47,-0.12,-0.04,-0.16,1721201586240
-1.17,2.88,15.05,0.14,0.50,-0.12,1721201586250
0.34,1.14,12.10,0.08,0.10,0.02,1721201586260
-1.53,1.75,12.05,0.02,0.07,0.07,1721201586270
0.28,-0.49,8.58,0.14,-0.00,0.10,1721201586280
0.03,-1.41,7.29,0.05,0.25,0.01,1721201586290
0.78,1.74,12.30,0.03,0.14,-0.08,1721201586300
-1.57,1.02,11.57,0.07,0.01,-0.05,1721201586310
-1.30,0.66,10.53,0.14,0.26,-0.07,1721201586320
0.74,-0.50,9.79,0.01,0.16,0.12,1721201586330
-1.81,0.82,8.73,-0.04,-0.18,0.23,1721201586340
1.27,2.67,12.78,0.07,0.27,-0.02,1721201586350
1.23,1.72,10.33,0.18,-0.02,-0.23,1721201586360
-3.36,-6.18,3.11,-0.08,-0.19,0.06,1721201586370
-2.40,-0.91,9.73,0.06,0.26,0.17,1721201586380
4.80,1.59,13.97,0.11,0.23,0.07,1721201586390
0.15,-2.37,10.18,-0.07,-0.31,-0.04,1721201586400
-2.08,2.20,10.69,0.08,0.20,-0.26,1721201586410
-0.29,-0.28,11.44,0.01,0.12,0.01,1721201586420
-4.64,-2.83,5.64,-0.07,-0.29,0.20,1721201586430
-1.30,-1.93,6.19,-0.08,0.20,0.17,1721201586440
2.85,1.62,17.14,-0.06,0.20,0.08,1721201586450
0.38,3.55,9.74,0.14,-0.21,0.05,1721201586460
-1.26,-5.86,2.29,-0.27,0.00,0.08,1721201586470
2.39,1.42,23.23,-0.09,0.38,0.01,1721201586480
0.83,3.45,12.01,0.29,-0.41,-0.18,1721201586490
-4.36,0.93,-1.63,0.03,-0.06,-0.15,1721201586500
-0.41,-0.01,16.97,-0.14,0.30,0.07,1721201586510
-0.61,4.78,14.32,0.11,-0.24,0.04,1721201586520
0.15,0.62,8.01,0.06,0.04,-0.07,1721201586530
-1.46,-1.19,8.08,0.07,-0.10,-0.08,1721201586540
-3.17,2.97,9.83,0.14,0.02,0.06,1721201586550
-0.37,4.21,13.13,0.20,-0.04,0.21,1721201586560
1.08,-4.58,6.66,0.03,-0.12,0.20,1721201586570
1.94,-2.07,12.36,-0.07,0.06,-0.08,1721201586580
0.67,1.75,10.57,0.16,-0.33,-0.03,1721201586590
-0.09,3.92,3.67,0.16,-0.09,0.02,1721201586600
3.58,-2.83,10.63,-0.13,0.14,-0.01,1721201586610
1.75,-0.74,17.79,-0.15,0.05,-0.57,1721201586620
-5.64,5.23,13.79,0.11,-0.36,-0.65,1721201586630
-10.51,1.31,3.51,0.08,-0.09,-0.08,1721201586640
-6.27,-1.75,9.46,-0.04,0.06,0.69,1721201586650
