AccX,AccY,AccZ,GyrX,GyrY,GyrZ,Time
-0.45,-1.07,7.41,-0.04,-0.06,-0.17,1721201621148
-0.14,-4.23,7.95,-0.20,-0.08,-0.07,1721201621153
-2.35,-1.07,20.16,0.12,-0.02,0.11,1721201621163
0.88,-1.89,3.08,0.11,-0.09,0.36,1721201621173
2.87,-1.70,8.34,-0.26,0.17,0.20,1721201621183
2.61,-3.12,12.66,-0.02,-0.08,-0.08,1721201621193
0.20,-1.05,11.28,0.06,0.05,-0.08,1721201621203
0.30,-1.17,6.97,0.01,0.03,0.08,1721201621213
0.58,-3.40,12.46,-0.19,0.11,0.00,1721201621223
-0.87,-2.25,9.17,0.04,-0.23,-0.01,1721201621233
-0.00,-2.16,9.41,-0.09,0.20,0.19,1721201621243
3.03,-2.44,13.18,0.00,0.13,0.16,1721201621253
2.11,-3.05,8.97,0.06,-0.10,-0.10,1721201621263
1.72,-3.53,11.16,-0.07,0.12,-0.02,1721201621273
0.86,-2.07,9.35,0.01,0.08,0.15,1721201621283
0.94,-1.02,14.42,0.01,0.24,-0.06,1721201621293
2.81,-5.22,10.51,0.06,-0.07,-0.13,1721201621303
0.47,-2.97,5.28,0.02,-0.03,0.11,1721201621313
1.73,-0.87,9.15,0.00,0.41,0.08,1721201621323
3.77,-2.77,12.64,0.03,0.18,-0.23,1721201621333
0.67,-2.67,9.50,0.07,-0.05,-0.37,1721201621343
-2.61,-2.88,10.09,0.00,0.20,-0.22,1721201621353
-2.51,-1.86,12.97,0.02,0.26,-0.02,1721201621363
-2.09,-1.68,8.14,-0.10,-0.02,-0.07,1721201621373
-4.49,0.07,11.78,-0.03,-0.06,-0.20,1721201621383
-2.99,-4.55,10.20,-0.01,0.09,0.01,1721201621393
-2.34,-2.14,11.95,0.00,-0.04,0.24,1721201621403
-2.02,-1.49,3.09,-0.13,-0.26,0.14,1721201621413
-1.70,-1.48,17.09,-0.11,0.02,-0.05,1721201621423
-0.15,-1.78,10.22,0.16,-0.19,0.02,1721201621433
-1.03,0.23,7.69,-0.16,-0.08,0.03,1721201621443
-2.36,-0.32,9.34,-0.05,-0.27,-0.11,1721201621453
-2.93,-2.97,11.56,0.01,-0.08,-0.05,1721201621463
-1.87,-0.84,6.62,0.13,-0.25,0.20,1721201621473
-0.76,0.57,4.76,-0.06,-0.17,0.21,1721201621483
0.45,-1.74,16.19,-0.05,-0.15,-0.09,1721201621493
-1.17,-1.69,14.95,0.09,-0.44,-0.15,1721201621503
-3.64,2.44,10.26,0.07,-0.42,0.12,1721201621513
-1.84,1.44,3.51,-0.02,-0.30,0.32,1721201621523
1.43,-2.23,7.37,-0.15,-0.22,0.23,1721201621533
2.28,-0.71,11.36,0.09,-0.38,0.12,1721201621543
2.45,-0.14,9.39,0.04,-0.25,0.15,1721201621553
3.44,1.16,12.03,0.14,-0.24,0.15,1721201621563
4.48,1.38,6.41,0.03,-0.19,0.08,1721201621573
6.17,-2.21,11.30,-0.10,-0.06,0.11,1721201621583
7.25,-2.21,12.17,0.17,-0.04,0.06,1721201621593
7.31,-0.28,9.49,0.23,0.11,-0.21,1721201621603
5.60,1.09,8.38,0.17,0.11,-0.54,1721201621613
3.08,-1.04,12.37,0.04,0.12,-0.60,1721201621623
-1.00,1.42,13.05,0.18,0.02,-0.34,1721201621633
-2.18,0.23,10.04,0.09,0.15,0.02,1721201621643
0.45,-0.76,13.17,0.04,0.10,0.17,1721201621653
1.17,1.62,7.33,0.13,-0.10,0.13,1721201621663
1.18,1.99,11.32,-0.06,0.19,-0.03,1721201621673
0.53,0.99,12.52,0.10,-0.14,-0.04,1721201621683
-1.87,2.75,5.37,0.07,-0.06,0.10,1721201621693
-1.86,1.41,8.13,-0.08,0.13,0.20,1721201621703
-2.07,1.60,11.82,0.06,-0.07,0.16,1721201621713
0.53,-0.49,13.13,0.04,0.08,0.28,1721201621723
1.78,-0.09,11.37,0.09,-0.08,0.41,1721201621733
-0.70,-0.36,8.68,-0.07,-0.09,0.25,1721201621743
-1.41,-0.73,7.89,-0.09,-0.31,0.11,1721201621753
-0.52,-0.96,10.48,0.01,-0.17,0.27,1721201621763
0.21,-3.37,9.34,-0.07,-0.17,0.46,1721201621773
-0.82,1.45,16.72,0.13,-0.29,0.54,1721201621783
3.49,-1.61,8.09,0.11,-0.18,0.69,1721201621793
5.26,-1.34,10.60,-0.09,-0.14,0.72,1721201621803
4.35,0.50,12.82,0.11,-0.35,0.49,1721201621813
5.26,-1.00,7.46,0.02,-0.25,0.42,1721201621823
5.91,-0.23,8.88,-0.05,-0.21,0.48,1721201621833
5.45,-0.19,9.48,0.02,-0.06,0.32,1721201621843
4.93,0.04,11.50,0.05,-0.06,0.19,1721201621853
4.63,2.88,11.84,0.20,-0.06,0.27,1721201621863
6.13,1.07,9.19,-0.00,0.09,0.22,1721201621873
4.56,-0.49,8.72,-0.12,-0.27,0.05,1721201621883
1.33,-1.83,12.14,-0.10,-0.21,-0.04,1721201621893
1.51,-1.06,6.90,0.06,-0.15,0.15,1721201621903
1.07,2.22,5.65,-0.04,0.03,0.26,1721201621913
1.74,1.88,10.27,0.05,0.10,0.05,1721201621923
3.82,-1.33,12.69,0.13,0.07,0.00,1721201621933
3.89,-0.18,12.92,0.19,0.13,0.10,1721201621943
4.96,-1.60,11.15,0.09,0.11,0.03,1721201621953
3.79,1.82,9.08,0.18,-0.07,-0.18,1721201621963
2.59,4.13,7.08,0.06,0.17,-0.31,1721201621973
1.89,8.23,10.25,0.00,0.07,-0.20,1721201621983
0.55,9.80,6.45,-0.19,0.17,-0.26,1721201621993
-0.11,3.95,12.16,-0.24,0.32,-0.55,1721201622003
-1.24,-5.58,10.43,-0.25,0.09,-0.59,1721201622013
-3.98,-5.60,17.77,-0.07,0.06,-0.36,1721201622023
-5.26,4.72,7.43,0.26,-0.09,-0.05,1721201622033
-2.99,5.20,4.09,-0.19,0.21,0.09,1721201622043
-0.33,-0.54,14.68,-0.16,-0.03,0.16,1721201622053
1.60,-4.32,12.06,0.05,-0.07,0.28,1721201622063
3.73,8.28,11.80,0.25,0.15,0.27,1721201622073
8.33,5.55,4.11,0.08,0.29,0.06,1721201622083
9.90,-2.42,13.10,-0.27,0.25,-0.31,1721201622093
6.54,-2.93,12.57,0.08,-0.10,-0.66,1721201622103
1.65,-0.13,6.70,-0.01,0.18,-0.77,1721201622113
-1.80,1.07,15.99,0.17,0.19,-0.75,1721201622123
-5.27,-3.01,4.74,0.29,-0.11,-0.38,1721201622133
-6.00,-4.61,7.02,0.11,0.21,0.06,1721201622143
-2.68,3.28,14.74,0.40,0.18,0.25,1721201622153
2.54,6.53,6.78,0.14,0.14,0.19,1721201622163
3.24,9.98,17.41,-0.12,0.21,0.05,1721201622173
4.32,4.85,8.15,-0.09,0.06,-0.13,1721201622183
3.32,-5.37,6.75,-0.56,0.23,-0.38,1721201622193
-0.49,-0.18,18.90,0.05,-0.08,-0.51,1721201622203
-1.79,1.81,2.07,0.22,0.10,-0.26,1721201622213
-1.07,0.63,3.31,-0.35,0.42,-0.07,1721201622223
-1.25,-2.34,18.81,-0.08,-0.01,-0.18,1721201622233
-3.73,-0.19,10.73,0.11,-0.10,-0.01,1721201622243
-3.30,0.42,6.01,-0.17,0.06,0.63,1721201622253
3.89,-0.52,14.83,-0.06,0.37,0.93,1721201622263
10.01,0.22,8.47,0.10,0.09,0.42,1721201622273
9.88,0.61,7.11,-0.24,0.23,-0.10,1721201622283
8.75,3.42,15.67,0.04,0.23,-0.47,1721201622293
4.66,1.19,7.45,0.01,0.15,-0.67,1721201622303
0.50,0.34,10.28,-0.17,0.21,-0.55,1721201622313
-4.62,0.58,6.65,0.04,-0.01,-0.28,1721201622323
-1.85,-2.78,4.03,-0.14,0.53,-0.02,1721201622333
1.28,3.10,13.10,0.02,0.10,-0.01,1721201622343
1.25,6.34,-1.24,-0.15,0.25,-0.13,1721201622353
1.13,-0.18,9.51,-0.51,0.37,-0.47,1721201622363
-1.73,-8.11,13.05,-0.13,-0.03,-0.58,1721201622373
-5.86,-5.26,5.44,-0.16,-0.04,-0.15,1721201622383
-3.67,-4.64,30.59,-0.03,0.39,0.08,1721201622393
2.15,5.46,36.19,1.02,0.12,-0.02,1721201622403
5.89,5.86,-13.53,0.43,0.30,0.07,1721201622413
7.23,0.65,9.00,-0.59,0.80,-0.19,1721201622423
1.33,3.07,13.83,0.30,0.01,-0.74,1721201622433
2.60,-5.12,6.38,-0.08,0.11,-1.17,1721201622443
-11.67,4.28,14.61,0.36,-0.32,-0.91,1721201622453
-7.21,-4.24,-16.28,-0.43,0.39,-0.53,1721201622463
-3.15,-14.09,41.72,-0.44,0.57,-0.41,1721201622473
-1.62,15.49,26.55,1.33,-0.39,-0.13,1721201622483
-3.59,-2.58,-34.43,0.15,0.25,0.50,1721201622493
8.25,-20.12,18.30,-1.66,1.23,0.11,1721201622503
-12.33,-3.72,54.83,0.57,-1.16,-0.91,1721201622513
-6.82,1.09,-17.01,0.48,-0.36,-0.84,1721201622523
-5.47,1.76,-0.12,-1.09,0.54,-0.33,1721201622533
-2.82,2.74,12.36,-0.11,-0.28,-0.71,1721201622543
-5.17,-4.55,-15.01,-0.12,0.10,-0.43,1721201622553
-1.41,-6.40,28.40,-1.02,0.73,-0.06,1721201622563
1.07,8.71,59.85,0.43,0.10,-0.59,1721201622573
-2.60,-4.48,8.54,0.83,-0.37,-0.69,1721201622583
-4.41,13.77,10.89,0.32,0.32,-0.29,1721201622593
8.55,6.26,1.00,0.44,0.36,0.11,1721201622603
6.89,-2.78,-5.02,-0.35,0.13,-0.31,1721201622613
8.60,1.64,20.26,0.07,0.36,-1.47,1721201622623
-0.35,0.86,19.01,0.28,-0.05,-1.64,1721201622633
-11.69,-3.59,-1.52,0.02,0.12,-0.66,1721201622643
-4.02,-1.67,15.28,-0.22,0.31,-0.01,1721201622653
-0.47,3.11,15.72,0.45,-0.02,0.04,1721201622663
3.58,0.91,-0.11,0.26,0.29,-0.11,1721201622673
5.88,0.71,6.11,-0.23,0.19,-0.28,1721201622683
0.34,-1.08,14.52,-0.26,-0.05,-0.53,1721201622693
-0.82,1.80,19.11,0.16,0.27,-0.48,1721201622703
1.89,-2.31,-0.50,0.28,0.12,-0.07,1721201622713
2.28,-3.76,6.09,-0.32,0.34,-0.07,1721201622723
1.54,5.03,21.01,0.10,0.31,-0.46,1721201622733
1.26,5.64,9.33,0.33,0.12,-0.52,1721201622743
-0.49,-2.24,-1.68,-0.15,0.27,-0.35,1721201622753
-2.63,-5.85,5.01,-0.23,0.27,-0.26,1721201622763
-2.47,0.94,10.93,0.16,0.21,-0.36,1721201622773
-2.72,-8.91,1.36,-0.30,0.22,-0.20,1721201622783
-5.19,3.84,33.17,0.02,0.19,-0.11,1721201622793
-0.91,7.58,14.57,0.56,0.14,0.13,1721201622803
1.05,4.92,1.50,-0.11,0.34,0.37,1721201622813
4.23,-1.46,5.66,-0.22,0.39,0.14,1721201622823
5.68,-2.51,10.13,-0.15,0.39,-0.31,1721201622833
2.21,1.32,7.10,0.15,0.15,-0.55,1721201622843
-1.74,-2.18,10.08,-0.24,0.31,-0.36,1721201622853
-4.04,6.36,15.12,0.10,0.11,-0.05,1721201622863
-0.21,-3.80,7.39,-0.25,0.43,0.18,1721201622873
2.59,2.87,17.63,-0.05,0.26,0.20,1721201622883
3.64,2.16,6.18,0.06,0.28,-0.11,1721201622893
1.22,-10.43,4.07,-0.16,0.43,-0.56,1721201622903
-9.50,-4.37,2.40,0.02,0.03,-0.99,1721201622913
-12.22,-5.92,7.71,-0.38,-0.01,-0.21,1721201622923
-9.17,-4.16,30.59,-0.52,0.04,0.85,1721201622933
3.71,10.42,25.66,0.34,0.46,1.31,1721201622943
8.47,1.52,-6.26,0.17,0.15,0.93,1721201622953
11.30,7.56,9.90,-0.40,0.82,-0.21,1721201622963
14.28,10.01,8.42,-0.02,-0.12,-1.10,1721201622973
-3.00,-6.67,-4.98,0.13,0.24,-1.21,1721201622983
-13.64,-4.96,14.44,-0.47,-0.26,-0.16,1721201622993
-7.75,7.83,24.56,0.05,0.30,0.73,1721201623003
-2.24,2.06,2.69,0.26,0.34,1.26,1721201623013
7.57,-1.19,7.84,-0.06,0.61,1.15,1721201623023
9.58,7.15,14.20,0.04,0.49,0.49,1721201623033
5.03,-6.98,3.30,0.06,-0.45,-0.57,1721201623043
-1.08,0.90,1.61,-0.04,-0.31,-0.90,1721201623053
-10.29,-11.65,12.92,-0.57,-0.19,0.19,1721201623063
-0.80,-2.85,22.97,0.13,0.20,1.28,1721201623073
7.00,4.77,5.44,0.66,0.37,1.20,1721201623083
8.86,4.09,-3.45,-0.23,0.21,0.02,1721201623093
2.11,0.46,18.10,-0.60,-0.15,-1.04,1721201623103
-5.21,2.38,18.73,0.05,-0.87,-0.98,1721201623113
-13.28,-11.16,-0.88,-0.06,0.13,0.03,1721201623123
-3.70,-1.25,18.41,-0.35,0.22,1.22,1721201623133
-0.23,6.36,10.99,0.24,0.10,1.36,1721201623143
9.10,1.71,8.54,-0.27,0.42,0.77,1721201623158
8.76,4.44,11.57,-0.38,0.37,0.24,1721201623162
6.78,4.19,13.68,-0.17,-0.27,-0.31,1721201623172
1.94,-4.27,6.22,-0.25,-0.43,-0.78,1721201623182
-6.17,-7.62,12.35,-0.66,-0.10,-0.69,1721201623192
-6.83,9.34,21.74,-0.11,-0.11,-0.25,1721201623202
-8.56,-0.74,8.20,0.31,-0.16,0.44,1721201623212
-3.98,-1.98,6.34,0.08,0.18,0.93,1721201623222
3.18,-0.63,15.00,0.25,0.03,0.96,1721201623232
5.04,1.74,8.57,0.39,-0.01,0.64,1721201623242
5.68,3.85,6.31,0.30,-0.02,0.17,1721201623252
6.01,2.73,12.86,0.18,-0.04,-0.33,1721201623262
1.79,-1.47,7.37,0.31,-0.31,-0.45,1721201623272
-2.08,-2.17,7.09,0.11,0.15,-0.47,1721201623282
-6.39,-2.50,16.89,0.03,-0.26,-0.10,1721201623292
-6.76,4.35,11.64,0.55,-0.12,0.29,1721201623302
-1.51,-2.94,2.26,0.23,0.08,0.68,1721201623312
1.19,0.09,8.90,-0.01,-0.01,0.51,1721201623322
3.74,-5.62,8.54,0.01,-0.11,0.02,1721201623332
2.38,0.98,14.50,-0.03,0.02,-0.31,1721201623342
-1.44,-0.01,7.75,0.23,-0.30,-0.32,1721201623352
-3.20,-3.36,8.79,-0.10,0.07,-0.06,1721201623362
-2.32,-0.45,15.66,0.14,-0.17,0.23,1721201623372
-0.42,-0.31,3.74,0.14,-0.14,0.23,1721201623382
2.80,0.23,9.98,-0.07,0.12,0.02,1721201623392
2.31,-1.98,10.83,0.08,-0.25,-0.18,1721201623402
-0.98,-1.40,8.95,-0.02,-0.02,-0.26,1721201623412
-1.83,0.73,6.85,0.17,-0.19,-0.28,1721201623422
-2.41,-3.58,5.86,-0.22,-0.07,-0.26,1721201623432
-2.50,6.02,17.62,0.14,-0.15,-0.12,1721201623442
-2.31,2.90,2.60,0.34,-0.27,0.00,1721201623452
-1.39,-3.62,6.71,-0.55,0.05,-0.03,1721201623462
-2.07,7.16,25.85,-0.14,-0.34,-0.15,1721201623472
-2.09,2.32,6.24,0.25,-0.38,0.01,1721201623482
-0.60,-1.43,2.68,-0.49,0.01,0.19,1721201623492
1.40,4.22,15.38,-0.22,-0.28,0.22,1721201623502
3.66,-1.52,9.29,-0.26,-0.09,-0.12,1721201623512
2.12,6.46,12.48,-0.11,-0.13,-0.36,1721201623522
-0.32,-4.56,5.80,-0.18,-0.33,-0.44,1721201623532
-4.92,-3.67,13.91,-0.49,-0.18,-0.40,1721201623542
-5.22,8.99,16.64,0.06,-0.42,-0.21,1721201623552
-4.13,-4.62,5.04,0.11,-0.16,0.28,1721201623562
-0.35,-1.15,10.15,-0.18,-0.20,0.52,1721201623572
1.33,0.45,13.04,-0.01,-0.21,0.25,1721201623582
3.99,1.49,8.94,0.09,-0.21,0.01,1721201623592
0.45,-0.52,5.40,-0.06,-0.33,-0.26,1721201623602
-1.82,-1.54,9.28,-0.10,-0.30,-0.29,1721201623612
-1.59,-1.67,10.43,0.06,-0.30,-0.07,1721201623622
-1.47,-1.09,6.58,-0.00,-0.27,0.16,1721201623632
1.60,-1.29,9.16,-0.13,-0.16,0.21,1721201623642
2.58,1.53,13.32,0.00,-0.14,-0.02,1721201623652
2.58,0.32,11.15,0.04,-0.30,-0.20,1721201623662
1.92,-4.71,7.79,-0.20,-0.21,-0.37,1721201623672
1.03,2.28,12.56,-0.04,-0.22,-0.44,1721201623682
0.32,-6.22,9.16,-0.04,-0.27,-0.31,1721201623692
-0.90,-1.84,12.70,-0.10,-0.18,-0.20,1721201623702
-0.23,3.30,11.78,0.05,-0.19,-0.29,1721201623712
1.54,0.14,10.57,0.07,-0.20,-0.26,1721201623722
1.70,-0.87,9.21,0.05,-0.12,-0.39,1721201623732
-0.13,-1.08,12.91,0.09,-0.08,-0.54,1721201623742
-1.78,1.47,7.02,0.27,-0.20,-0.44,1721201623752
-2.87,-5.96,-0.11,0.03,-0.15,-0.30,1721201623762
-0.07,-1.17,11.20,-0.07,-0.01,-0.25,1721201623772
2.45,-2.37,10.68,0.04,-0.16,-0.32,1721201623782
2.54,0.51,5.13,0.05,-0.10,-0.41,1721201623792
1.93,-6.39,6.83,-0.28,0.04,-0.67,1721201623802
-1.30,-0.95,21.56,-0.28,-0.12,-0.92,1721201623812
-3.17,-2.14,17.56,0.02,-0.22,-0.73,1721201623822
-1.94,-1.32,7.99,-0.01,0.01,-0.41,1721201623832
0.74,1.29,15.12,-0.10,0.07,-0.42,1721201623842
2.28,1.80,11.43,0.14,-0.08,-0.54,1721201623852
1.72,-2.52,7.26,0.03,0.08,-0.72,1721201623862
0.62,2.24,11.13,0.14,0.03,-0.77,1721201623872
-1.13,0.41,8.69,0.12,-0.03,-0.74,1721201623882
-2.56,3.45,14.31,0.11,0.09,-0.71,1721201623892
-1.91,1.03,9.60,0.29,0.00,-0.57,1721201623902
-0.72,-3.37,9.18,0.01,0.08,-0.42,1721201623912
0.75,4.34,16.87,0.19,0.10,-0.41,1721201623922
2.01,2.58,6.97,0.25,0.07,-0.50,1721201623932
1.53,2.81,8.00,0.13,0.13,-0.63,1721201623942
2.23,-0.76,11.31,0.06,0.17,-0.74,1721201623952
0.22,1.86,12.12,0.14,0.08,-0.78,1721201623962
-1.20,3.18,6.13,0.10,0.12,-0.77,1721201623972
-1.18,1.32,12.02,-0.12,0.28,-0.76,1721201623982
-1.16,3.10,11.90,0.12,0.06,-0.67,1721201623992
-0.49,-1.42,5.31,-0.20,0.27,-0.65,1721201624002
0.24,4.74,15.45,-0.11,0.22,-0.70,1721201624012
0.59,-2.34,6.71,-0.07,0.11,-0.75,1721201624022
-0.53,-0.50,9.67,-0.22,0.27,-0.83,1721201624032
0.47,0.63,11.41,-0.13,0.24,-0.78,1721201624042
-0.87,-2.65,6.14,-0.18,0.19,-0.74,1721201624052
-0.18,-3.43,11.81,-0.32,0.33,-0.78,1721201624062
1.80,1.42,12.58,-0.01,0.30,-0.74,1721201624072
1.72,-3.58,7.12,-0.22,0.37,-0.89,1721201624082
-0.85,0.23,13.78,-0.18,0.34,-1.07,1721201624092
-2.69,-3.96,7.24,-0.02,0.30,-1.00,1721201624102
-4.50,-1.82,8.74,-0.24,0.45,-0.75,1721201624112
-3.38,-1.64,12.18,-0.22,0.30,-0.63,1721201624122
-0.15,0.98,11.99,-0.09,0.42,-0.64,1721201624132
0.45,-5.57,8.11,-0.21,0.30,-0.80,1721201624142
-1.43,0.35,12.11,-0.22,0.43,-0.97,1721201624152
-1.29,4.58,12.36,0.00,0.35,-0.95,1721201624162
-3.47,-3.11,5.37,-0.15,0.34,-0.86,1721201624172
-4.84,-0.79,11.98,-0.11,0.37,-0.68,1721201624182
-2.34,-3.69,8.44,0.03,0.37,-0.50,1721201624192
-0.21,1.29,9.68,-0.05,0.62,-0.43,1721201624202
-0.15,0.16,12.20,-0.03,0.44,-0.63,1721201624212
-2.23,1.62,10.16,0.06,0.36,-0.84,1721201624222
-3.38,-3.29,8.66,0.01,0.33,-0.78,1721201624232
-3.30,-0.59,12.68,-0.04,0.40,-0.51,1721201624242
-1.55,1.94,13.54,0.16,0.41,-0.45,1721201624252
-0.59,-2.97,7.97,0.11,0.43,-0.55,1721201624262
-0.89,-1.32,9.95,0.03,0.50,-0.62,1721201624272
-3.09,-0.25,11.79,0.15,0.28,-0.69,1721201624282
-3.89,3.88,9.92,0.21,0.44,-0.65,1721201624292
-1.72,2.19,10.16,0.19,0.36,-0.40,1721201624302
-2.99,-3.84,9.68,0.04,0.28,-0.35,1721201624312
-2.39,5.43,11.72,0.42,0.40,-0.33,1721201624322
-1.59,-5.26,4.87,0.17,0.30,-0.39,1721201624332
-4.13,2.60,14.48,0.02,0.50,-0.43,1721201624342
-3.23,4.09,13.14,0.47,0.09,-0.26,1721201624352
-4.15,-3.86,4.10,0.07,0.32,-0.08,1721201624362
-1.86,1.79,15.36,0.07,0.38,-0.04,1721201624372
1.41,1.75,9.38,0.37,0.09,0.02,1721201624382
-0.31,-0.70,6.45,0.11,0.32,-0.01,1721201624392
-0.85,0.36,11.49,0.14,0.19,-0.08,1721201624402
-0.95,2.58,8.08,0.27,0.21,0.05,1721201624412
-1.32,-0.79,8.72,-0.03,0.28,0.19,1721201624422
-2.39,1.67,13.49,0.05,0.10,0.16,1721201624432
-0.91,0.64,9.15,0.12,0.15,0.22,1721201624442
-0.70,0.47,8.75,-0.01,0.12,0.19,1721201624452
-1.62,2.12,12.80,-0.07,0.17,0.20,1721201624462
-3.03,2.86,10.40,0.01,0.02,0.31,1721201624472
-3.71,-2.98,5.49,-0.12,0.02,0.48,1721201624482
-1.43,-2.03,13.29,-0.25,0.28,0.53,1721201624492
0.87,-2.24,11.80,-0.04,-0.05,0.55,1721201624502
0.63,-0.66,6.30,-0.16,0.09,0.48,1721201624512
0.86,-3.84,10.59,-0.30,0.02,0.35,1721201624522
-0.11,2.71,14.17,-0.05,-0.01,0.34,1721201624532
-1.29,-4.11,5.23,-0.09,-0.14,0.37,1721201624542
-2.83,-4.54,10.36,-0.36,-0.05,0.44,1721201624552
-0.99,0.38,12.32,-0.07,-0.06,0.60,1721201624562
-0.26,-6.05,4.37,-0.08,-0.04,0.67,1721201624572
-0.67,-1.76,11.77,-0.33,0.01,0.43,1721201624582
-0.60,-1.38,12.69,-0.09,-0.27,0.38,1721201624592
0.20,-1.76,10.07,-0.19,-0.01,0.44,1721201624602
-0.40,8.07,12.19,-0.12,-0.19,0.57,1721201624612
0.25,-0.27,8.93,0.00,-0.09,0.52,1721201624622
1.36,-8.05,7.44,-0.32,-0.09,0.41,1721201624632
-0.44,-3.92,11.46,-0.13,-0.25,0.37,1721201624642
0.58,-0.25,9.62,-0.03,-0.09,0.39,1721201624652
1.39,3.29,11.53,0.05,-0.14,0.53,1721201624662
1.59,-0.20,10.96,0.01,-0.20,0.43,1721201624672
0.28,-1.66,11.60,-0.07,-0.17,0.27,1721201624682
-0.65,3.76,12.66,0.12,-0.27,0.23,1721201624692
0.66,-8.14,6.08,0.01,-0.28,0.47,1721201624702
1.72,-0.57,12.28,-0.06,0.05,0.43,1721201624712
1.98,5.50,13.45,0.31,-0.25,0.41,1721201624722
2.56,-2.48,8.36,0.10,-0.05,0.27,1721201624732
1.18,-2.44,13.68,-0.10,-0.25,0.16,1721201624742
-0.04,1.95,10.86,0.16,-0.20,0.22,1721201624752
-0.25,-1.08,7.35,0.16,-0.16,0.23,1721201624762
1.55,-0.86,11.42,0.13,-0.09,0.36,1721201624772
2.85,0.01,11.16,0.18,-0.12,0.28,1721201624782
1.59,0.95,10.21,0.23,-0.12,0.18,1721201624792
1.35,4.17,10.44,0.25,-0.04,0.08,1721201624802
1.73,-0.04,9.55,0.21,-0.17,0.15,1721201624812
2.03,2.96,10.98,0.22,0.00,0.12,1721201624822
2.38,1.26,8.60,0.16,-0.06,0.00,1721201624832
1.77,-1.85,9.81,0.02,-0.02,-0.09,1721201624842
0.78,2.28,10.78,0.15,-0.10,-0.09,1721201624852
0.83,-1.58,7.14,-0.01,0.06,-0.12,1721201624862
-1.61,2.72,10.22,0.08,-0.11,-0.21,1721201624872
-0.89,-3.48,5.79,-0.09,-0.02,-0.08,1721201624882
-0.90,2.31,11.91,-0.08,0.03,-0.08,1721201624892
0.03,-3.16,9.09,-0.12,-0.07,-0.03,1721201624902
-0.02,2.04,9.57,-0.07,-0.00,-0.08,1721201624912
2.22,-4.76,9.12,-0.32,0.06,-0.13,1721201624922
0.92,0.40,15.93,-0.11,-0.05,-0.13,1721201624932
1.44,-2.31,7.50,-0.09,0.01,-0.05,1721201624942
0.24,-1.98,8.47,-0.25,0.05,-0.19,1721201624952
-0.64,1.53,10.90,-0.12,-0.09,-0.21,1721201624962
-1.21,-3.30,9.20,-0.26,0.02,-0.18,1721201624972
-0.59,0.92,14.12,-0.17,-0.02,-0.02,1721201624982
-1.13,-2.66,9.98,-0.13,0.01,0.00,1721201624992
0.30,-0.82,10.25,-0.22,0.06,0.03,1721201625002
0.71,-1.54,10.87,-0.21,0.00,-0.21,1721201625012
-1.75,-0.89,10.88,-0.04,-0.09,-0.28,1721201625022
-2.42,-3.47,6.91,-0.06,-0.02,-0.15,1721201625032
-1.22,-0.92,12.76,-0.09,0.05,-0.03,1721201625042
-0.80,-0.72,12.06,0.04,-0.08,-0.04,1721201625052
-1.14,-1.86,9.66,-0.01,-0.01,-0.04,1721201625062
-0.75,-2.93,9.71,-0.00,-0.06,-0.08,1721201625072
-1.23,-1.41,11.27,-0.00,-0.08,-0.12,1721201625082
-0.53,-3.79,10.65,0.08,-0.09,-0.01,1721201625092
0.11,-2.30,10.47,-0.02,0.03,0.00,1721201625102
-0.38,1.88,12.85,0.09,-0.13,-0.00,1721201625112
0.60,2.38,11.62,0.11,-0.05,-0.01,1721201625122
1.01,-1.99,9.33,0.15,0.05,-0.10,1721201625132
0.50,-3.62,9.77,-0.01,-0.11,-0.09,1721201625142
-1.64,4.43,10.32,0.23,-0.06,-0.19,1721201625152
-1.60,-1.13,6.78,0.08,0.03,-0.10,1721201625167
-0.47,-0.61,10.16,0.05,-0.08,-0.19,1721201625171
-0.30,4.41,12.05,0.20,-0.06,-0.15,1721201625181
-0.95,-0.08,7.15,0.15,-0.10,-0.16,1721201625191
-1.05,5.49,10.62,0.19,0.06,-0.11,1721201625201
2.41,-0.37,8.73,0.21,-0.17,0.02,1721201625211
0.41,-1.74,8.15,0.09,0.01,-0.17,1721201625221
-0.45,5.15,13.17,0.14,-0.06,-0.35,1721201625231
1.42,3.26,9.70,0.13,-0.01,-0.39,1721201625241
0.96,-1.55,10.81,-0.13,-0.03,-0.32,1721201625251
-1.52,3.94,14.46,0.03,-0.05,-0.32,1721201625261
-2.53,2.01,8.94,-0.02,-0.10,-0.38,1721201625271
4.57,-1.13,17.40,-0.15,0.02,0.55,1721201625281
0.21,6.13,4.47,0.27,0.19,0.07,1721201625291
7.84,-1.80,0.28,-0.24,0.07,-0.42,1721201625301
-3.01,-0.28,7.54,-0.43,-0.18,-1.34,1721201625311
-6.10,2.11,9.94,0.05,-0.24,-1.54,1721201625321
-19.15,-2.06,6.38,-0.02,-0.04,-0.78,1721201625331
-15.56,-2.18,14.88,-0.17,0.17,0.80,1721201625341
-0.18,-5.47,14.82,0.03,0.36,1.81,1721201625351
9.61,2.34,11.30,0.10,0.84,1.71,1721201625361
17.64,4.66,7.28,0.14,0.16,0.87,1721201625371
20.30,1.75,7.84,-0.20,-0.07,-0.93,1721201625381
4.78,-0.70,7.77,-0.39,-0.38,-2.21,1721201625391
1.24,-2.53,16.80,-0.26,-0.79,-2.73,1721201625401
-22.02,0.48,11.02,0.06,-0.18,-1.64,1721201625411
-19.34,-6.73,10.22,0.02,0.50,0.11,1721201625421
-11.78,-4.42,11.75,-0.13,0.08,1.36,1721201625431
3.06,-1.69,12.60,0.19,0.75,1.32,1721201625441
9.44,-3.46,5.35,0.09,0.28,0.87,1721201625451
11.13,4.27,9.43,-0.11,0.44,-0.16,1721201625461
9.87,4.49,12.25,0.00,-0.10,-1.05,1721201625471
2.34,-0.34,7.79,-0.11,-0.50,-1.43,1721201625481
-2.21,-4.66,10.61,-0.20,0.17,-1.63,1721201625491
-12.04,-0.62,13.92,-0.08,-0.24,-0.87,1721201625501
-13.27,-2.45,8.65,0.06,0.25,0.19,1721201625511
-2.98,-3.36,8.61,0.05,0.35,0.78,1721201625521
1.20,-0.94,9.31,0.03,0.22,0.61,1721201625531
5.34,0.75,12.65,-0.05,0.34,0.08,1721201625541
4.86,5.76,13.80,0.08,0.02,-0.40,1721201625551
2.07,1.64,7.11,0.10,-0.16,-0.60,1721201625561
-0.69,-1.84,7.76,-0.08,0.08,-0.63,1721201625571
-3.83,0.54,13.45,-0.06,-0.05,-0.50,1721201625581
-5.37,4.13,11.06,0.16,0.01,-0.14,1721201625591
-1.37,-4.60,9.41,-0.04,0.16,0.14,1721201625601
-0.51,3.78,12.34,0.33,0.08,0.22,1721201625611
0.35,-2.95,5.55,0.11,0.17,0.01,1721201625621
0.96,5.39,16.76,0.09,0.11,-0.24,1721201625631
-1.26,1.90,11.58,0.42,-0.26,-0.34,1721201625641
-1.66,-2.39,6.83,0.21,0.13,-0.28,1721201625651
-2.28,2.55,16.26,0.39,0.07,0.01,1721201625661
-1.05,-3.57,8.86,0.39,0.07,0.14,1721201625671
0.25,6.24,15.76,0.44,0.13,0.06,1721201625681
2.53,2.75,7.63,0.58,-0.01,0.05,1721201625691
2.51,-0.27,7.46,0.22,0.17,-0.10,1721201625701
2.30,1.71,16.22,0.43,0.07,-0.25,1721201625711
1.49,-3.25,3.37,0.33,-0.03,-0.13,1721201625721
0.09,1.80,9.11,0.17,0.22,-0.09,1721201625731
1.01,0.46,10.02,0.28,0.14,-0.17,1721201625741
0.70,0.23,12.18,0.16,0.15,-0.21,1721201625751
0.51,0.85,8.85,0.16,0.10,-0.05,1721201625761
0.74,2.05,6.21,-0.05,0.26,-0.00,1721201625771
1.42,1.51,13.76,0.01,0.26,-0.21,1721201625781
1.56,0.66,8.94,0.11,0.15,-0.21,1721201625791
0.92,1.88,10.33,-0.08,0.31,-0.10,1721201625801
-0.22,3.27,9.93,0.10,0.12,-0.14,1721201625811
-0.32,-0.48,6.47,-0.18,0.31,-0.16,1721201625821
-1.25,1.99,12.98,0.00,0.15,-0.14,1721201625831
-1.43,0.28,10.65,0.02,0.26,-0.06,1721201625841
-1.68,3.10,10.69,0.05,0.18,-0.03,1721201625851
-1.78,3.54,7.84,-0.03,0.19,-0.01,1721201625861
-1.05,-0.40,12.42,-0.19,0.26,0.03,1721201625871
-1.64,0.72,9.85,0.05,0.08,0.08,1721201625881
-1.20,2.27,8.09,-0.02,0.16,0.02,1721201625891
-3.15,1.75,8.99,-0.12,-0.02,-0.07,1721201625901
-4.48,-0.60,14.85,-0.09,0.05,0.05,1721201625911
-5.15,2.60,8.48,0.08,-0.12,0.25,1721201625921
-4.25,1.42,7.12,-0.15,0.03,0.28,1721201625931
-5.33,1.71,6.90,-0.06,-0.28,0.22,1721201625941
-5.37,-5.24,11.65,-0.25,-0.13,0.36,1721201625951
-4.84,-1.10,15.15,0.13,-0.36,0.62,1721201625961
-3.99,1.57,7.11,0.06,-0.38,0.61,1721201625971
-3.09,2.22,8.32,-0.04,-0.45,0.59,1721201625981
-1.08,-3.34,8.23,-0.14,-0.45,0.82,1721201625991
2.29,-1.71,13.18,0.04,-0.32,0.93,1721201626001
4.53,0.79,10.44,0.13,-0.48,0.58,1721201626011
2.81,2.63,7.04,-0.05,-0.59,0.25,1721201626021
0.40,-2.77,11.19,-0.21,-0.52,0.35,1721201626031
-0.40,-2.39,13.72,0.00,-0.53,0.59,1721201626041
0.57,0.29,11.30,0.10,-0.51,0.56,1721201626051
0.18,1.66,8.78,0.04,-0.70,0.47,1721201626061
-0.60,-0.19,7.78,-0.10,-0.67,0.57,1721201626071
-0.60,0.69,12.01,-0.04,-0.66,0.76,1721201626081
0.64,1.14,2.25,-0.07,-0.69,0.84,1721201626091
5.53,-3.30,15.03,-0.09,-0.37,0.85,1721201626101
9.33,-3.17,11.78,0.11,-0.53,0.96,1721201626111
10.43,1.63,9.01,0.07,-0.26,0.85,1721201626121
12.99,-0.93,12.41,-0.00,-0.17,0.51,1721201626131
12.84,-1.90,9.00,-0.07,-0.39,0.29,1721201626141
12.62,-2.39,9.79,-0.01,-0.07,0.07,1721201626151
14.09,-3.34,13.72,0.13,0.11,-0.19,1721201626161
10.20,-1.33,6.73,0.01,-0.09,-0.47,1721201626171
4.12,0.81,9.45,-0.05,-0.06,-0.67,1721201626181
4.13,-4.06,13.52,0.08,0.21,-0.60,1721201626191
5.27,-4.50,11.90,0.12,0.37,-0.41,1721201626201
3.17,0.55,6.33,0.11,0.29,-0.41,1721201626211
2.21,-1.31,10.81,-0.11,0.51,-0.64,1721201626221
2.29,-5.34,15.67,0.03,0.34,-0.75,1721201626231
-0.04,-3.28,9.83,0.17,0.30,-0.69,1721201626241
-1.55,0.44,4.51,0.03,0.47,-0.53,1721201626251
0.45,-6.16,10.90,-0.28,0.70,-0.52,1721201626261
0.26,-7.79,11.68,0.11,0.29,-0.67,1721201626271
0.22,-3.96,8.93,0.22,0.58,-0.79,1721201626281
-0.63,0.82,8.51,0.09,0.64,-0.85,1721201626291
-0.91,-1.78,9.75,-0.11,0.66,-0.96,1721201626301
-0.18,-10.16,19.27,-0.01,0.59,-0.89,1721201626311
-3.83,-2.99,14.79,0.34,0.57,-0.93,1721201626321
-3.25,-1.02,4.60,0.14,0.64,-0.90,1721201626331
-3.77,-0.78,4.58,-0.04,0.56,-0.97,1721201626341
-7.47,-4.61,8.65,-0.16,0.51,-1.05,1721201626351
-9.67,-3.83,13.13,0.13,0.48,-1.02,1721201626361
-10.03,-4.47,4.87,0.08,0.40,-0.75,1721201626371
-9.41,0.17,13.07,0.01,0.54,-0.40,1721201626381
-7.06,-1.27,7.95,-0.06,0.40,-0.37,1721201626391
-6.26,0.29,12.54,-0.05,0.30,-0.53,1721201626401
-6.45,-2.28,10.10,0.09,0.12,-0.50,1721201626411
-8.28,1.94,8.54,0.12,0.25,-0.37,1721201626421
-6.18,1.08,8.04,-0.06,0.30,-0.27,1721201626431
-5.61,0.30,12.10,-0.07,0.11,-0.31,1721201626441
-6.36,-2.06,9.06,0.07,-0.05,-0.25,1721201626451
-6.18,-2.30,14.21,0.02,0.07,-0.02,1721201626461
-4.51,0.73,8.10,0.08,-0.15,0.25,1721201626471
-1.85,8.76,7.09,0.16,-0.01,0.28,1721201626481
2.91,1.73,5.46,-0.17,0.17,0.10,1721201626491
2.45,-0.99,13.23,-0.20,-0.08,-0.15,1721201626501
-1.88,2.06,11.12,0.12,-0.27,-0.12,1721201626511
-1.71,2.44,9.85,-0.02,0.10,0.14,1721201626521
-0.59,1.83,9.85,-0.04,-0.05,0.27,1721201626531
1.45,2.54,8.62,-0.01,-0.06,0.39,1721201626541
4.86,3.43,10.79,-0.00,0.08,0.37,1721201626551
6.42,0.16,10.31,-0.06,0.07,0.13,1721201626561
4.11,1.84,11.88,0.00,0.06,-0.09,1721201626571
2.54,3.35,12.05,0.11,0.08,-0.09,1721201626581
1.60,0.80,6.42,-0.05,0.04,-0.00,1721201626591
1.06,0.02,12.03,-0.04,0.12,0.02,1721201626601
2.45,1.57,13.35,0.15,0.19,0.05,1721201626611
3.45,2.22,8.47,0.06,0.16,0.08,1721201626621
2.76,5.34,8.84,-0.06,0.14,-0.21,1721201626631
1.61,-1.50,8.88,-0.15,0.04,-0.44,1721201626641
-2.09,-0.31,14.40,-0.10,0.16,-0.39,1721201626651
-4.10,6.36,10.29,0.12,0.04,-0.20,1721201626661
-3.91,0.35,1.13,-0.41,0.22,-0.12,1721201626671
-2.47,2.60,18.61,-0.17,0.17,-0.20,1721201626681
-0.80,-1.40,7.13,-0.09,0.17,-0.25,1721201626691
-3.42,2.35,12.67,-0.21,0.16,-0.16,1721201626701
-4.20,2.22,6.51,-0.12,0.15,-0.16,1721201626711
-3.11,2.92,7.98,-0.12,0.16,0.03,1721201626721
-0.91,0.18,5.42,-0.14,0.12,0.07,1721201626731
1.46,1.72,13.56,-0.14,0.22,-0.02,1721201626741
4.27,2.82,17.26,-0.01,0.19,-0.01,1721201626751
1.62,2.09,10.68,-0.03,0.16,-0.34,1721201626761
-1.88,-0.39,10.47,-0.14,0.12,-0.50,1721201626771
-4.81,4.11,7.67,0.06,0.09,-0.32,1721201626781
-2.66,-2.55,6.30,-0.10,0.26,-0.02,1721201626791
-0.88,1.08,13.93,0.02,0.12,0.11,1721201626801
1.31,1.69,9.76,0.02,0.18,-0.03,1721201626811
1.77,-2.08,9.71,-0.08,0.13,-0.16,1721201626821
-0.72,0.52,10.40,-0.06,0.15,-0.40,1721201626831
-1.80,2.84,12.46,-0.00,0.12,-0.36,1721201626841
-2.50,-1.25,10.96,0.01,0.16,-0.11,1721201626851
-1.17,-1.94,8.20,0.04,0.24,0.03,1721201626861
-0.73,-2.70,6.85,-0.01,0.17,0.05,1721201626871
-0.46,1.85,13.90,-0.03,0.25,-0.02,1721201626881
-0.11,-1.75,12.12,0.05,0.06,0.01,1721201626891
-0.61,0.08,9.44,0.02,0.25,-0.07,1721201626901
-0.75,-4.21,8.13,0.05,0.10,0.02,1721201626911
-1.79,1.04,14.24,-0.03,0.29,-0.03,1721201626921
-1.00,5.66,13.43,0.36,0.01,0.06,1721201626931
0.79,-5.50,2.66,0.04,0.27,0.17,1721201626941
1.12,2.27,11.51,0.12,0.20,0.11,1721201626951
0.49,-2.03,9.61,0.04,0.13,0.01,1721201626961
-1.93,-1.22,12.32,0.03,0.12,-0.09,1721201626971
-2.41,1.62,10.56,0.25,0.14,0.08,1721201626981
-0.72,-1.86,7.73,0.12,0.11,0.29,1721201626991
-1.04,2.42,10.50,0.18,0.17,0.33,1721201627001
0.50,-0.44,10.69,-0.02,0.21,0.23,1721201627011
-0.49,-3.31,8.35,0.03,-0.04,0.18,1721201627021
-1.18,3.16,12.01,0.06,0.20,0.22,1721201627031
0.41,2.19,9.65,0.05,0.12,0.24,1721201627041
-0.98,-4.22,9.78,-0.14,-0.04,0.33,1721201627051
-0.20,0.44,12.81,0.13,0.23,0.35,1721201627061
1.30,-6.04,7.16,-0.07,-0.02,0.39,1721201627071
-2.50,5.86,10.59,0.20,-0.10,0.38,1721201627081
1.17,0.31,13.30,-0.06,0.29,0.31,1721201627091
0.74,-3.95,9.53,0.09,-0.31,0.51,1721201627101
-1.03,2.77,10.36,-0.09,0.16,0.38,1721201627111
1.58,2.28,13.83,0.04,-0.03,0.45,1721201627121
0.82,0.18,6.35,-0.11,-0.02,0.36,1721201627131
1.36,-0.11,10.47,-0.16,0.05,0.30,1721201627141
0.38,-2.74,10.35,-0.04,-0.14,0.25,1721201627151
0.09,2.95,11.09,-0.02,0.02,0.28,1721201627161
-0.95,7.51,8.59,0.09,-0.13,0.20,1721201627176
0.21,4.58,5.03,0.03,-0.11,0.37,1721201627180
1.21,0.76,7.71,-0.21,0.09,0.36,1721201627190
3.26,-5.27,15.58,-0.33,-0.01,0.21,1721201627200
2.83,2.37,14.80,-0.07,-0.12,0.02,1721201627210
1.23,0.80,7.72,-0.03,0.06,0.01,1721201627220
-1.54,-1.54,10.69,-0.27,0.04,0.05,1721201627230
-0.34,-1.70,11.75,-0.02,-0.18,0.17,1721201627240
1.63,-0.30,11.69,-0.15,0.18,0.16,1721201627250
0.96,3.96,8.24,-0.01,-0.07,0.05,1721201627260
1.06,-0.90,11.40,-0.32,0.14,-0.20,1721201627270
-0.54,-2.58,13.36,-0.04,-0.21,-0.19,1721201627280
-2.41,-1.41,5.55,0.04,-0.01,0.05,1721201627290
-0.79,0.59,6.39,-0.06,0.16,0.13,1721201627300
0.77,-0.45,16.56,-0.22,0.14,0.01,1721201627310
0.37,6.18,13.65,0.09,-0.13,-0.10,1721201627320
-0.12,-5.12,3.14,-0.20,0.03,-0.23,1721201627330
-1.24,-2.17,14.56,-0.31,0.18,-0.25,1721201627340
-1.30,3.01,13.23,0.19,-0.14,-0.06,1721201627350
-2.02,-0.93,4.71,-0.04,0.04,0.17,1721201627360
-0.18,5.61,12.22,0.08,0.15,0.14,1721201627370
1.71,-3.69,9.79,-0.08,0.04,-0.08,1721201627380
-0.31,5.76,11.38,0.08,0.06,-0.07,1721201627390
1.90,2.36,13.91,-0.16,0.22,-0.09,1721201627400
-1.86,4.29,14.01,0.05,-0.25,-0.09,1721201627410
-2.27,1.09,2.11,0.19,-0.01,-0.02,1721201627420
0.88,-2.93,10.62,-0.07,0.20,0.11,1721201627430
-0.47,4.23,10.96,0.19,-0.23,0.11,1721201627440
-0.15,2.15,7.07,0.10,0.12,-0.13,1721201627450
-0.79,-1.36,11.28,0.00,0.03,-0.13,1721201627460
-1.96,-2.06,11.04,0.06,-0.07,-0.00,1721201627470
-0.27,0.72,10.90,0.11,0.18,0.12,1721201627480
-0.54,-0.40,11.31,-0.04,-0.05,-0.12,1721201627490
-2.93,1.28,9.02,0.13,-0.16,-0.10,1721201627500
-0.29,-7.26,7.98,-0.05,0.20,0.07,1721201627510
-0.33,-1.41,15.22,0.07,-0.03,0.12,1721201627520
-0.65,1.94,8.17,0.18,-0.07,0.12,1721201627530
0.02,2.40,10.33,-0.05,0.16,0.05,1721201627540
0.18,1.81,12.19,0.21,-0.17,0.00,1721201627550
-0.48,-11.43,4.03,-0.17,0.05,0.03,1721201627560
-1.79,7.58,14.96,0.13,-0.06,0.14,1721201627570
1.43,0.45,8.26,0.10,-0.01,0.15,1721201627580
0.60,-3.04,9.79,-0.21,0.05,-0.02,1721201627590
-1.02,-1.27,8.78,0.10,-0.07,-0.21,1721201627600
0.03,-0.45,14.65,-0.22,0.24,-0.08,1721201627610
-2.21,5.16,14.76,0.28,-0.27,0.14,1721201627620
-1.39,0.21,3.25,0.10,0.09,0.17,1721201627630
1.40,-0.38,9.91,-0.01,0.04,0.27,1721201627640
1.38,2.86,12.44,0.08,-0.00,0.00,1721201627650
3.43,2.21,11.65,0.12,0.02,-0.18,1721201627660
-0.63,-2.73,5.12,-0.03,-0.13,-0.24,1721201627670
-3.07,4.92,15.46,0.08,0.25,-0.24,1721201627680
0.10,-4.21,5.46,0.22,-0.12,0.05,1721201627690
-1.52,3.35,6.76,-0.00,0.23,0.06,1721201627700
1.33,-3.82,10.15,-0.19,0.06,-0.13,1721201627710
-1.00,2.88,16.04,0.04,0.05,-0.24,1721201627720
-0.28,-1.73,6.65,0.04,0.04,-0.08,1721201627730
-1.25,1.60,12.25,-0.14,0.09,-0.03,1721201627740
-0.11,-0.75,10.26,-0.03,0.01,-0.13,1721201627750
-1.41,4.09,14.09,0.04,0.23,-0.11,1721201627760
-1.01,5.00,7.30,0.10,-0.13,0.01,1721201627770
-0.70,-2.86,5.63,-0.26,0.08,0.10,1721201627780
-1.52,-1.34,12.85,-0.12,0.06,-0.04,1721201627790
-1.88,-0.77,9.25,0.02,-0.07,-0.06,1721201627800
-0.87,-1.23,12.93,-0.10,0.07,0.23,1721201627810
-0.35,9.06,11.70,0.23,0.03,0.22,1721201627820
1.54,7.53,9.14,0.05,0.15,0.02,1721201627830
0.40,-7.76,7.04,-0.26,-0.14,0.00,1721201627840
-2.93,2.48,11.51,-0.14,0.13,-0.08,1721201627850
-1.44,-2.15,7.55,-0.06,-0.09,0.17,1721201627860
-0.29,1.50,10.59,-0.07,0.09,0.41,1721201627870
2.79,-7.81,7.31,-0.17,0.04,0.18,1721201627880
0.72,8.61,12.01,-0.00,0.01,-0.21,1721201627890
0.21,-4.47,8.77,-0.30,-0.03,-0.21,1721201627900
-4.09,0.37,14.78,-0.17,-0.03,-0.05,1721201627910
-4.64,-1.00,6.36,-0.05,-0.05,0.12,1721201627920
-1.65,-1.64,10.15,-0.25,0.07,0.29,1721201627930
1.14,1.55,8.22,0.03,-0.07,0.27,1721201627940
3.20,-2.68,7.40,-0.20,0.13,0.02,1721201627950
0.45,0.74,15.16,-0.25,-0.08,-0.09,1721201627960
-2.13,2.46,12.46,-0.08,-0.18,-0.16,1721201627970
-2.90,-0.40,7.91,-0.06,-0.03,0.02,1721201627980
-0.53,-3.55,10.70,-0.16,0.10,0.24,1721201627990
0.60,5.08,15.66,0.03,0.07,0.32,1721201628000
1.99,3.17,13.36,0.25,0.04,0.38,1721201628010
3.11,3.05,4.97,0.22,0.05,0.16,1721201628020
1.86,-3.41,7.56,-0.11,-0.10,-0.03,1721201628030
-0.21,0.12,12.91,-0.01,-0.10,-0.35,1721201628040
-0.94,6.66,10.00,0.36,-0.20,-0.23,1721201628050
-0.76,-3.70,5.08,0.17,-0.02,0.10,1721201628060
-0.62,-5.02,14.43,-0.08,0.10,0.27,1721201628070
-2.43,4.91,16.72,0.19,-0.03,-0.01,1721201628080
-2.16,0.39,11.78,0.13,-0.09,0.03,1721201628090
-0.02,3.50,7.50,0.28,-0.01,0.26,1721201628100
1.55,-2.22,3.50,0.15,0.05,0.18,1721201628110
1.75,-2.64,6.81,0.04,-0.03,-0.03,1721201628120
-0.20,-4.69,11.23,-0.11,-0.08,-0.15,1721201628130
-1.74,5.80,14.53,0.17,-0.14,-0.05,1721201628140
0.28,-2.72,9.84,0.02,0.02,0.12,1721201628150
-0.87,-1.48,7.56,0.18,-0.19,0.21,1721201628160
1.41,-1.22,9.74,0.01,0.31,0.02,1721201628170
-0.12,1.07,16.35,0.15,-0.22,-0.03,1721201628180
-1.44,2.26,5.54,0.15,-0.02,0.18,1721201628190
0.39,-5.04,7.38,-0.19,0.11,0.29,1721201628200
0.72,0.11,14.81,0.07,-0.07,0.18,1721201628210
1.95,-1.32,8.18,0.07,-0.04,0.14,1721201628220
1.56,3.32,11.73,0.11,-0.02,0.08,1721201628230
1.40,-0.02,8.92,0.09,0.02,-0.05,1721201628240
-1.54,2.69,8.65,0.21,-0.06,-0.05,1721201628250
-0.56,-3.25,8.28,-0.10,0.03,0.08,1721201628260
-2.00,1.42,16.71,0.00,-0.07,0.03,1721201628270
-2.18,1.68,6.06,0.17,-0.11,0.03,1721201628280
-0.66,-1.13,9.08,-0.19,0.08,0.10,1721201628290
-0.85,-1.79,13.53,-0.07,-0.15,0.13,1721201628300
-0.08,4.30,11.57,-0.03,0.05,-0.03,1721201628310
0.55,1.86,9.73,0.10,-0.09,-0.01,1721201628320
-0.48,-1.76,3.14,-0.11,-0.09,-0.00,1721201628330
0.08,2.49,12.83,-0.15,-0.03,0.04,1721201628340
1.40,-1.46,12.36,-0.03,-0.02,-0.01,1721201628350
0.80,0.34,8.09,-0.00,-0.08,-0.10,1721201628360
0.51,0.13,11.69,-0.17,-0.01,-0.18,1721201628370
0.86,1.07,9.79,0.07,-0.05,-0.07,1721201628380
1.23,-3.18,8.73,-0.19,0.11,-0.13,1721201628390
-1.19,3.61,16.47,-0.03,-0.07,-0.27,1721201628400
-1.55,3.86,9.09,0.26,-0.07,-0.20,1721201628410
-1.20,-6.14,-0.06,-0.14,-0.08,0.07,1721201628420
-0.34,-0.47,11.67,-0.16,0.12,0.02,1721201628430
2.13,0.67,14.79,0.07,0.10,-0.28,1721201628440
-0.02,1.20,10.83,0.10,-0.17,-0.26,1721201628450
-2.39,3.25,9.05,-0.11,-0.02,-0.17,1721201628460
-2.16,-0.35,11.99,-0.07,-0.00,-0.04,1721201628470
0.41,-2.38,10.11,-0.03,0.04,0.08,1721201628480
1.32,1.76,9.17,-0.04,0.01,-0.11,1721201628490
0.02,-1.46,9.45,-0.03,-0.10,-0.26,1721201628500
-1.23,1.20,11.84,-0.09,0.08,-0.24,1721201628510
-0.87,3.84,14.28,0.03,0.00,-0.18,1721201628520
-0.95,0.66,7.48,0.12,-0.07,-0.10,1721201628530
-0.59,-1.89,7.33,-0.03,0.03,-0.01,1721201628540
0.76,2.97,12.06,0.19,0.06,-0.02,1721201628550
1.51,-2.22,7.01,0.13,0.15,-0.16,1721201628560
-1.19,4.06,13.12,0.03,0.04,-0.34,1721201628570
-3.27,0.68,7.18,0.07,-0.13,-0.32,1721201628580
-2.39,1.64,14.90,-0.11,0.24,-0.08,1721201628590
-1.61,-2.42,8.67,0.20,-0.23,0.04,1721201628600
-1.37,-3.90,3.04,-0.03,0.16,0.05,1721201628610
1.60,-0.70,9.30,-0.09,0.08,-0.11,1721201628620
0.33,-5.61,10.82,-0.18,-0.16,-0.17,1721201628630
-1.79,4.75,14.18,0.12,0.15,-0.21,1721201628640
0.56,-4.42,4.76,-0.11,0.07,-0.16,1721201628650
-3.90,-1.11,7.60,-0.10,-0.12,-0.06,1721201628660
1.52,-6.43,14.84,-0.26,0.29,-0.06,1721201628670
0.11,3.75,18.12,0.11,-0.15,-0.05,1721201628680
-1.94,1.58,3.96,0.11,-0.11,-0.08,1721201628690
-2.00,1.40,12.82,-0.30,0.21,-0.16,1721201628700
-1.56,-7.58,12.89,-0.25,-0.31,-0.15,1721201628710
-3.99,5.96,14.67,0.08,0.11,-0.16,1721201628720
-0.57,-4.06,6.66,-0.07,-0.09,0.01,1721201628730
-3.11,3.10,12.33,-0.12,-0.02,0.13,1721201628740
1.24,2.38,10.47,0.15,0.00,0.07,1721201628750
1.79,1.52,10.09,-0.01,-0.00,0.01,1721201628760
0.06,5.96,11.93,0.06,-0.12,-0.14,1721201628770
-1.75,-2.71,10.66,-0.05,-0.12,-0.29,1721201628780
-3.40,0.67,15.74,0.06,0.04,-0.12,1721201628790
-3.74,1.57,12.65,0.24,-0.14,0.03,1721201628800
-3.24,2.38,9.75,0.21,-0.17,0.21,1721201628810
0.82,3.68,10.28,0.35,-0.05,0.27,1721201628820
2.50,2.12,7.25,0.30,-0.10,0.16,1721201628830
1.95,1.57,7.92,0.15,-0.10,-0.13,1721201628840
1.42,-1.28,10.53,0.16,-0.07,-0.21,1721201628850
-0.93,1.66,9.18,0.20,-0.16,-0.07,1721201628860
0.25,2.26,9.63,0.20,-0.05,0.15,1721201628870
2.12,1.02,8.16,0.20,-0.02,0.10,1721201628880
2.23,-0.46,7.36,-0.00,-0.12,-0.07,1721201628890
-0.40,0.38,9.65,-0.07,-0.03,-0.27,1721201628900
-2.73,-0.85,10.85,-0.05,-0.13,-0.21,1721201628910
-2.68,0.12,12.23,0.07,-0.05,0.17,1721201628920
-0.34,-0.50,11.74,-0.00,-0.04,0.28,1721201628930
0.50,0.51,8.68,0.05,-0.15,0.20,1721201628940
1.53,-1.30,8.84,-0.19,-0.01,0.00,1721201628950
0.12,1.61,10.94,-0.01,-0.20,0.02,1721201628960
-0.30,-0.71,7.09,-0.09,-0.03,0.04,1721201628970
0.24,-2.32,10.81,-0.15,-0.06,0.18,1721201628980
1.65,-3.07,11.01,-0.20,-0.08,0.20,1721201628990
2.20,3.38,12.88,-0.15,-0.13,0.15,1721201629000
1.86,-0.55,9.29,-0.13,-0.07,-0.04,1721201629010
-0.16,0.20,9.59,-0.19,-0.04,-0.21,1721201629020
-1.41,-3.92,9.82,-0.22,-0.14,-0.13,1721201629030
-2.32,-1.45,11.01,-0.17,-0.04,0.02,1721201629040
-0.59,1.55,12.54,-0.07,-0.00,0.10,1721201629050
1.51,-2.70,8.40,-0.08,-0.12,0.15,1721201629060
2.78,2.31,12.08,-0.05,0.06,0.07,1721201629070
2.72,-3.81,7.07,-0.08,-0.02,-0.03,1721201629080
2.25,-1.19,13.26,-0.20,0.11,-0.27,1721201629090
1.09,-1.60,10.58,-0.04,-0.18,-0.31,1721201629100
-0.48,3.17,10.98,-0.01,0.06,-0.24,1721201629110
0.37,4.18,8.68,0.08,0.07,-0.13,1721201629120
0.84,-1.36,10.67,-0.23,0.15,-0.21,1721201629130
-0.96,-2.32,11.24,-0.10,-0.11,-0.25,1721201629140
-1.26,-2.54,7.92,-0.11,0.17,-0.20,1721201629150
-0.87,1.55,9.56,0.02,0.00,-0.08,1721201629160
-0.72,-0.23,11.77,-0.05,0.09,-0.10,1721201629170
0.03,0.13,10.11,-0.07,0.14,-0.22,1721201629185
-0.55,-0.01,9.77,-0.11,-0.02,-0.22,1721201629189
-0.44,-3.31,11.04,-0.09,0.12,-0.21,1721201629199
-0.13,-0.84,12.29,0.01,0.06,-0.07,1721201629209
-1.46,2.88,7.96,0.12,0.09,-0.06,1721201629219
-0.93,1.24,9.40,0.02,0.14,-0.26,1721201629229
0.77,2.82,11.98,0.18,-0.01,-0.30,1721201629239
1.26,0.09,10.69,0.14,0.16,-0.17,1721201629249
-0.34,-1.59,10.69,0.11,0.09,-0.11,1721201629259
-1.12,4.24,11.82,0.20,0.17,-0.25,1721201629269
-0.50,-0.56,9.19,0.17,0.01,-0.13,1721201629279
0.25,3.06,11.75,0.11,0.15,-0.09,1721201629289
1.46,2.72,8.54,0.26,0.09,-0.21,1721201629299
0.68,-4.39,5.72,0.14,0.13,-0.26,1721201629309
-0.36,-0.69,11.76,0.08,0.15,-0.26,1721201629319
-1.23,1.80,14.57,0.24,0.09,-0.35,1721201629329
-1.37,2.37,12.96,0.33,0.14,-0.17,1721201629339
-0.65,1.52,8.53,0.31,0.17,-0.09,1721201629349
0.06,1.39,8.68,0.27,0.17,-0.20,1721201629359
0.68,-1.48,8.32,0.22,0.16,-0.34,1721201629369
-1.51,2.55,7.53,0.23,0.08,-0.32,1721201629379
-3.11,-2.02,6.69,0.01,0.11,-0.27,1721201629389
-3.09,0.75,15.59,0.13,0.17,-0.09,1721201629399
-1.97,-1.02,5.74,0.08,0.04,0.01,1721201629409
-0.76,2.05,13.82,-0.14,0.19,-0.06,1721201629419
1.39,-0.16,12.58,0.14,0.07,-0.17,1721201629429
-0.57,-0.45,6.10,-0.04,0.11,-0.26,1721201629439
-2.37,0.68,8.66,-0.08,0.07,-0.24,1721201629449
-1.43,-1.26,9.23,-0.12,0.15,-0.07,1721201629459
-0.35,-0.50,12.13,-0.04,0.10,-0.01,1721201629469
-0.34,3.75,11.07,-0.03,0.11,-0.19,1721201629479
-1.41,-0.44,10.97,-0.09,0.08,-0.17,1721201629489
-2.09,-0.10,8.79,-0.09,0.09,-0.03,1721201629499
0.24,0.53,13.34,-0.14,0.19,0.07,1721201629509
1.56,3.63,11.01,0.11,0.02,0.03,1721201629519
0.86,-0.18,4.51,-0.16,0.15,-0.20,1721201629529
-1.93,0.17,11.83,-0.21,0.06,-0.43,1721201629539
-3.65,-1.15,10.59,-0.08,-0.06,-0.19,1721201629549
-2.46,-1.21,10.56,-0.15,0.16,0.14,1721201629559
-0.20,-2.06,8.16,-0.04,0.01,0.22,1721201629569
1.73,-2.04,8.76,-0.10,0.16,-0.02,1721201629579
3.25,0.40,14.72,-0.08,0.10,-0.11,1721201629589
1.57,0.08,10.55,-0.00,0.02,-0.18,1721201629599
-0.17,2.44,9.43,-0.11,0.13,-0.28,1721201629609
-1.05,-1.29,8.99,-0.09,0.02,-0.27,1721201629619
-0.27,-4.42,12.02,-0.13,0.18,-0.06,1721201629629
0.13,-1.14,12.17,-0.06,0.10,0.00,1721201629639
-1.28,5.21,8.90,0.19,0.07,-0.20,1721201629649
-0.83,-1.66,5.34,-0.08,0.09,-0.21,1721201629659
-2.26,-0.84,12.91,-0.05,0.07,-0.14,1721201629669
-0.34,-1.72,10.47,0.17,0.10,0.02,1721201629679
-0.50,1.46,10.72,-0.08,0.15,0.07,1721201629689
-1.26,5.32,12.08,0.08,-0.04,-0.12,1721201629699
-0.54,-1.19,7.82,0.04,-0.02,-0.18,1721201629709
-1.63,-3.24,6.90,-0.04,0.06,-0.07,1721201629719
-1.99,-2.47,12.70,-0.07,0.11,0.04,1721201629729
-1.59,2.36,14.18,0.10,-0.01,-0.02,1721201629739
-0.79,3.06,10.47,0.09,0.04,-0.12,1721201629749
-1.47,2.99,11.44,0.15,-0.00,-0.03,1721201629759
-1.76,-2.86,5.91,0.12,-0.06,0.04,1721201629769
0.29,-1.26,10.51,0.07,0.14,0.13,1721201629779
1.07,4.14,11.00,0.26,-0.08,-0.00,1721201629789
1.06,-0.56,7.65,0.09,0.01,-0.17,1721201629799
-0.35,-0.82,10.73,0.01,0.00,-0.21,1721201629809
-1.00,2.25,12.22,0.18,-0.00,-0.19,1721201629819
-0.18,-0.28,11.07,0.05,0.07,-0.13,1721201629829
-1.41,0.85,11.49,0.14,-0.09,-0.11,1721201629839
-1.83,3.31,7.24,0.21,0.07,-0.15,1721201629849
-0.87,-0.40,8.49,0.07,0.04,-0.12,1721201629859
-0.11,0.17,13.60,0.09,-0.01,0.00,1721201629869
-0.40,1.15,10.16,0.16,0.04,0.02,1721201629879
0.38,-1.41,8.03,0.05,0.02,-0.00,1721201629889
2.30,0.33,11.65,0.11,0.09,-0.06,1721201629899
3.06,-0.62,11.67,0.12,0.04,-0.22,1721201629909
-0.14,1.29,8.69,0.11,-0.03,-0.31,1721201629919
-1.81,1.45,8.87,0.06,0.15,-0.40,1721201629929
-2.91,1.07,11.36,0.07,0.08,-0.23,1721201629939
-3.73,0.61,10.05,0.03,0.07,0.03,1721201629949
-2.79,-1.71,7.94,-0.03,-0.03,0.14,1721201629959
-0.51,-0.33,10.94,-0.03,0.15,0.11,1721201629969
1.15,-0.41,9.96,-0.01,-0.03,-0.01,1721201629979
-0.13,3.85,11.00,0.04,-0.01,-0.12,1721201629989
-1.02,-1.51,9.88,-0.12,0.02,-0.13,1721201629999
-3.11,-1.07,11.82,-0.05,-0.11,-0.00,1721201630009
-1.94,3.22,8.11,0.02,0.03,0.10,1721201630019
1.12,-0.37,7.77,-0.20,0.12,0.24,1721201630029
1.05,-3.84,12.55,-0.21,-0.09,0.09,1721201630039
-0.58,1.05,11.34,0.00,-0.05,-0.08,1721201630049
-0.48,-0.84,5.06,-0.11,0.03,-0.06,1721201630059
-1.46,0.36,12.82,-0.30,0.04,0.03,1721201630069
-1.70,1.55,12.30,-0.10,-0.13,0.09,1721201630079
-0.23,-1.87,4.29,-0.12,0.03,0.11,1721201630089
-0.40,-2.20,7.98,-0.31,-0.01,0.08,1721201630099
-1.64,-0.81,13.22,-0.32,-0.13,-0.02,1721201630109
-1.63,5.91,13.35,-0.10,-0.10,0.01,1721201630119
-1.30,-2.66,4.84,-0.22,-0.16,0.15,1721201630129
-0.93,-1.40,8.62,-0.32,-0.06,0.17,1721201630139
1.30,-1.40,13.25,-0.27,-0.01,0.02,1721201630149
0.10,4.58,13.94,-0.18,-0.22,0.02,1721201630159
-0.83,1.72,8.03,0.01,-0.09,0.07,1721201630169
-0.53,-2.68,8.09,-0.17,-0.07,0.07,1721201630179
-0.21,1.44,13.61,-0.12,-0.20,-0.00,1721201630189
0.97,0.53,11.59,0.06,-0.19,0.06,1721201630199
0.86,0.71,8.52,0.06,-0.06,0.09,1721201630209
0.09,2.14,12.45,0.05,-0.11,0.08,1721201630219
0.52,0.05,12.53,0.08,-0.13,0.01,1721201630229
0.95,-1.01,10.08,0.06,-0.13,-0.02,1721201630239
-0.46,2.32,10.57,0.20,-0.08,-0.03,1721201630249
0.42,-0.37,10.19,0.18,-0.06,-0.03,1721201630259
-0.64,-1.02,10.74,0.15,-0.18,0.07,1721201630269
0.75,2.08,11.88,0.19,-0.03,0.04,1721201630279
2.29,-0.97,9.87,0.18,-0.15,0.06,1721201630289
1.50,-1.71,7.64,0.11,-0.06,-0.05,1721201630299
1.08,-0.75,9.28,0.17,-0.04,-0.20,1721201630309
-0.32,-0.40,10.75,0.20,-0.08,-0.15,1721201630319
0.68,0.96,14.25,0.15,0.04,0.01,1721201630329
-0.35,5.08,9.42,0.30,-0.14,-0.00,1721201630339
1.22,-2.38,7.52,0.10,0.12,-0.16,1721201630349
1.89,-1.10,13.44,0.09,-0.07,-0.20,1721201630359
0.46,-0.63,7.38,0.20,-0.10,-0.11,1721201630369
-0.23,-0.49,6.54,0.09,0.11,-0.18,1721201630379
0.22,-0.37,10.09,0.07,0.01,-0.18,1721201630389
0.19,1.46,11.26,0.10,0.01,-0.15,1721201630399
-0.05,0.36,11.79,0.08,0.09,-0.27,1721201630409
-0.17,-3.16,9.11,0.08,-0.04,-0.21,1721201630419
-1.02,0.94,9.73,0.07,0.12,-0.17,1721201630429
-0.27,-1.15,12.33,0.04,0.08,-0.21,1721201630439
-1.00,2.08,9.48,0.20,0.01,-0.18,1721201630449
-0.66,-0.75,5.03,0.03,0.12,-0.20,1721201630459
-0.67,-0.42,14.23,-0.09,0.13,-0.28,1721201630469
-2.14,-0.17,9.50,0.07,-0.13,-0.22,1721201630479
-2.22,2.86,9.16,-0.03,0.16,-0.08,1721201630489
-0.05,1.33,11.07,-0.02,0.05,-0.09,1721201630499
-0.06,-0.48,8.65,-0.02,-0.04,-0.14,1721201630509
0.15,1.47,7.87,-0.17,0.11,-0.23,1721201630519
-0.09,0.44,15.77,-0.13,0.06,-0.24,1721201630529
-1.39,-2.43,11.00,-0.07,-0.05,-0.18,1721201630539
-1.82,2.71,9.39,-0.01,0.07,-0.11,1721201630549
0.74,1.46,8.24,-0.05,0.07,-0.02,1721201630559
0.69,3.09,9.93,-0.01,0.02,-0.05,1721201630569
1.52,0.67,9.91,-0.05,0.11,-0.15,1721201630579
0.97,-1.48,10.05,-0.13,0.05,-0.22,1721201630589
-0.57,2.02,12.19,-0.04,0.07,-0.30,1721201630599
0.40,-0.62,9.02,-0.08,0.08,-0.25,1721201630609
0.69,-0.94,12.69,-0.09,0.10,-0.21,1721201630619
-0.68,0.90,9.03,0.03,-0.00,-0.29,1721201630629
-1.62,-0.00,9.47,-0.07,0.15,-0.30,1721201630639
-1.32,-1.89,11.48,-0.08,0.12,-0.20,1721201630649
-0.74,2.20,12.22,-0.01,0.17,-0.11,1721201630659
-0.06,1.41,8.02,0.02,0.11,-0.23,1721201630669
0.44,-1.50,9.99,-0.08,0.09,-0.23,1721201630679
-0.24,-2.73,10.36,-0.08,0.08,-0.18,1721201630689
-0.60,-0.17,12.41,-0.02,0.17,-0.24,1721201630699
0.05,0.53,11.06,0.04,0.19,-0.27,1721201630709
-1.07,-1.04,8.35,0.05,0.10,-0.28,1721201630719
-1.79,0.86,11.04,0.03,0.15,-0.29,1721201630729
-0.87,5.08,12.06,0.17,0.17,-0.27,1721201630739
0.20,-0.78,7.98,0.06,0.18,-0.18,1721201630749
-0.91,-3.32,9.51,-0.08,0.14,-0.32,1721201630759
-2.00,-1.97,12.22,0.05,0.09,-0.36,1721201630769
-2.07,1.07,10.50,0.11,0.26,-0.30,1721201630779
-1.58,0.13,9.56,0.08,0.17,-0.22,1721201630789
-1.75,0.31,11.84,0.07,0.12,-0.17,1721201630799
-1.08,0.31,8.79,0.07,0.16,-0.19,1721201630809
-0.60,-1.39,10.46,-0.03,0.22,-0.22,1721201630819
-0.38,1.58,12.68,0.09,0.13,-0.30,1721201630829
-0.95,-0.21,9.02,0.11,0.09,-0.17,1721201630839
-2.41,-0.68,9.09,0.01,0.20,-0.08,1721201630849
-1.57,1.32,12.23,0.13,0.17,-0.10,1721201630859
-0.55,2.62,8.39,0.15,0.10,-0.06,1721201630869
0.50,-0.48,8.71,0.06,0.21,-0.04,1721201630879
0.41,0.09,11.54,0.07,0.10,-0.07,1721201630889
-0.19,3.84,8.36,0.23,0.13,-0.09,1721201630899
-0.38,0.25,5.63,0.06,0.19,-0.13,1721201630909
-1.46,1.69,13.53,-0.01,0.21,-0.11,1721201630919
-1.26,-0.67,11.54,0.11,0.14,-0.05,1721201630929
-0.52,0.85,10.39,0.10,0.18,0.03,1721201630939
-0.05,1.69,8.28,0.18,0.14,0.01,1721201630949
-0.30,2.19,8.37,0.10,0.18,-0.05,1721201630959
-0.40,-0.44,10.58,0.02,0.16,-0.05,1721201630969
-1.59,1.59,10.43,0.15,0.05,-0.06,1721201630979
-0.72,-0.16,9.24,0.02,0.20,-0.04,1721201630989
-0.74,-0.33,13.57,0.03,0.10,-0.09,1721201630999
-1.77,-0.04,7.73,0.10,-0.04,-0.06,1721201631009
-2.29,2.91,10.38,0.02,0.22,-0.09,1721201631019
-1.09,-1.96,11.16,-0.02,0.05,-0.02,1721201631029
-1.77,-1.86,11.80,-0.02,0.02,0.06,1721201631039
-1.41,3.95,9.87,0.10,0.03,0.08,1721201631049
0.81,-0.55,9.71,-0.10,0.19,-0.04,1721201631059
-1.19,-1.09,11.93,-0.05,-0.05,-0.07,1721201631069
-2.07,-0.47,7.70,-0.02,0.02,0.04,1721201631079
-1.26,-0.07,8.03,-0.13,0.03,0.13,1721201631089
0.45,-1.47,9.99,-0.07,0.01,0.19,1721201631099
2.21,-0.19,12.02,-0.03,0.15,0.06,1721201631109
2.30,2.34,9.90,0.05,-0.06,-0.01,1721201631119
0.48,0.21,8.65,-0.14,0.14,-0.16,1721201631129
-0.87,4.66,14.75,0.07,0.06,-0.18,1721201631682
-2.74,4.87,9.00,0.16,-0.13,-0.00,1721201631688
-1.08,1.15,9.53,-0.08,0.21,0.03,1721201631697
-1.12,1.02,11.80,0.02,-0.11,0.02,1721201631707
0.12,-2.04,8.21,-0.15,0.07,0.00,1721201631716
0.27,0.02,11.75,0.02,-0.03,0.12,1721201631726
0.19,-4.53,6.42,-0.09,0.06,0.04,1721201631735
-1.75,4.33,12.65,0.08,-0.00,-0.08,1721201631745
-0.65,1.60,6.68,0.01,-0.09,-0.05,1721201631754
-0.77,3.89,12.82,-0.03,0.05,0.05,1721201631764
2.15,-2.92,11.73,-0.07,0.03,0.09,1721201631773
-0.86,1.36,9.79,0.04,-0.05,0.00,1721201631783
-0.04,-2.66,7.27,-0.11,0.04,-0.05,1721201631792
-1.39,5.09,13.20,0.15,-0.01,-0.05,1721201631802
-0.31,-0.20,5.66,-0.01,-0.07,0.07,1721201631811
-0.07,-0.33,14.24,-0.13,0.15,0.04,1721201631821
0.96,-0.61,12.24,0.11,-0.05,0.00,1721201631830
-0.33,1.94,5.81,0.06,0.04,0.02,1721201631840
0.49,2.13,14.98,-0.16,0.18,-0.19,1721201631849
-1.21,1.85,15.64,0.18,-0.27,-0.09,1721201631859
-2.29,1.63,2.63,0.17,0.04,0.06,1721201631868
0.56,-0.31,10.71,-0.08,0.22,0.12,1721201631878
-0.82,0.42,11.22,0.07,-0.21,0.03,1721201631887
0.22,2.56,11.08,0.15,0.21,0.02,1721201631897
1.77,-2.10,8.50,0.10,-0.03,0.06,1721201631906
-0.89,5.95,10.78,0.12,-0.06,-0.07,1721201631916
-0.26,3.54,7.15,0.14,-0.09,-0.10,1721201631926
-0.33,0.75,7.70,0.01,0.05,-0.02,1721201631936
0.12,-3.48,8.59,-0.05,0.09,-0.06,1721201631945
-1.93,-2.83,9.93,-0.06,-0.07,-0.08,1721201631955
-1.69,1.25,13.35,0.02,0.13,-0.07,1721201631964
-0.21,-4.32,11.52,-0.05,-0.06,0.12,1721201631974
-1.13,5.34,13.89,0.24,0.02,0.15,1721201631983
2.61,2.08,6.38,0.14,0.08,0.06,1721201631993
0.43,-0.54,6.70,-0.10,-0.11,-0.02,1721201632002
-1.14,0.82,11.44,-0.07,0.07,-0.31,1721201632012
-1.52,2.56,12.64,0.13,-0.04,-0.25,1721201632021
-3.38,-1.93,4.17,-0.02,-0.07,0.17,1721201632031
-2.43,-4.03,12.43,-0.18,0.07,0.28,1721201632041
0.42,2.90,16.28,0.26,-0.03,0.21,1721201632051
3.78,4.02,4.17,0.11,0.06,0.14,1721201632061
2.85,4.47,9.48,-0.10,0.01,-0.16,1721201632071
0.02,-0.56,9.59,0.05,-0.15,-0.34,1721201632081
-3.34,-2.56,6.96,-0.05,0.03,-0.21,1721201632091
-3.74,-0.41,12.28,-0.13,-0.03,0.07,1721201632101
-0.81,2.87,14.19,0.12,0.06,0.30,1721201632111
1.92,-5.27,8.81,-0.19,0.03,0.22,1721201632121
1.24,5.49,15.44,0.17,-0.06,-0.05,1721201632131
1.79,-1.27,3.84,0.05,-0.05,-0.24,1721201632141
-1.90,7.54,15.44,0.06,-0.06,-0.17,1721201632151
-3.46,1.51,3.62,0.15,-0.20,-0.04,1721201632161
-2.95,-1.30,8.59,-0.05,0.16,0.18,1721201632171
0.49,-2.10,10.57,-0.03,-0.02,0.18,1721201632181
1.20,4.66,12.75,0.05,-0.02,-0.00,1721201632191
1.56,-0.95,8.15,-0.06,-0.15,-0.13,1721201632201
-3.13,-1.57,11.24,-0.11,-0.02,-0.10,1721201632211
-2.41,-1.41,14.02,-0.05,0.09,-0.10,1721201632221
-0.42,-1.71,13.25,-0.01,-0.17,0.08,1721201632231
-1.37,4.86,3.42,0.19,-0.24,0.18,1721201632241
2.83,0.88,7.12,-0.25,0.30,0.03,1721201632251
1.40,1.76,12.37,-0.06,-0.30,-0.20,1721201632261
-1.09,-2.12,8.96,-0.09,-0.07,-0.31,1721201632271
-1.50,-1.24,15.38,-0.13,0.02,-0.10,1721201632281
-2.26,-0.48,7.77,-0.07,-0.18,0.15,1721201632291
-0.52,3.53,12.68,-0.11,0.13,-0.00,1721201632301
2.22,-1.97,5.88,0.07,-0.25,-0.10,1721201632311
-0.27,-0.43,7.72,-0.16,0.07,-0.23,1721201632321
-0.85,2.52,14.90,-0.08,-0.02,-0.25,1721201632331
-2.53,0.72,8.53,-0.08,-0.11,-0.16,1721201632341
-2.38,-2.77,7.63,-0.28,-0.03,-0.09,1721201632351
-1.51,-2.44,11.27,-0.12,-0.03,-0.01,1721201632361
0.60,0.90,11.39,-0.17,0.05,-0.04,1721201632371
0.85,1.70,11.99,-0.16,-0.10,0.02,1721201632381
1.10,6.10,11.47,-0.02,0.06,-0.14,1721201632391
1.62,2.29,10.78,-0.06,-0.04,-0.17,1721201632401
-1.03,2.03,10.17,-0.18,-0.13,-0.12,1721201632411
-3.50,2.13,7.49,-0.13,-0.13,-0.12,1721201632421
-2.49,3.73,10.25,-0.03,-0.02,-0.04,1721201632431
0.61,-1.03,10.82,-0.03,-0.05,0.20,1721201632441
0.51,0.41,8.89,-0.00,-0.12,0.09,1721201632451
0.32,4.18,8.81,0.01,-0.08,-0.03,1721201632461
0.75,4.21,13.23,-0.00,0.04,-0.04,1721201632471
-0.51,-1.62,11.36,-0.08,-0.13,-0.11,1721201632481
0.33,-0.39,13.24,0.18,0.08,0.37,1721201632491
2.77,3.11,2.33,-0.01,-0.15,0.11,1721201632501
5.37,-7.10,11.85,-0.38,0.22,-0.22,1721201632511
-2.13,4.32,19.79,-0.07,-0.28,-0.72,1721201632521
-7.58,-0.81,6.77,0.09,-0.25,-0.29,1721201632531
-9.35,-2.79,6.00,-0.05,0.14,0.32,1721201632541
-1.95,-2.90,12.06,0.00,-0.05,0.91,1721201632551
3.39,3.85,6.97,0.17,0.04,0.84,1721201632561
7.81,-3.35,12.12,-0.14,0.11,0.40,1721201632571
7.82,-0.87,11.81,-0.13,-0.08,-0.09,1721201632581
3.39,1.91,8.48,-0.07,-0.18,-0.70,1721201632591
-1.04,-2.59,10.75,-0.20,-0.19,-0.86,1721201632601
-7.36,-0.58,13.73,-0.09,-0.25,-0.52,1721201632611
-5.81,-0.59,11.44,0.13,0.09,0.28,1721201632621
-2.28,-5.74,6.78,-0.11,0.06,0.62,1721201632631
1.62,3.91,15.56,-0.03,0.05,0.47,1721201632641
3.58,4.54,8.40,0.17,-0.08,0.14,1721201632651
4.41,-1.37,5.08,-0.03,-0.02,-0.16,1721201632661
2.11,0.05,12.57,-0.04,-0.04,-0.43,1721201632671
-1.17,2.72,12.33,-0.02,-0.21,-0.43,1721201632681
-3.98,-0.43,8.66,0.02,-0.03,-0.18,1721201632691
-2.61,-3.62,13.48,-0.00,0.06,0.11,1721201632701
-0.84,-2.19,8.76,0.08,-0.16,0.34,1721201632711
0.71,4.06,9.71,0.05,0.07,0.10,1721201632721
3.38,5.11,12.83,0.23,0.03,0.04,1721201632731
1.58,-0.84,7.36,0.08,-0.10,-0.14,1721201632741
-2.40,2.56,11.19,0.08,-0.10,-0.29,1721201632751
-1.52,-1.94,7.08,0.11,-0.08,0.00,1721201632761
-1.81,0.61,13.80,0.05,-0.02,0.06,1721201632771
1.40,-0.73,9.51,0.15,-0.13,0.27,1721201632781
2.21,1.57,7.96,-0.03,0.02,0.17,1721201632791
1.86,2.01,12.39,0.07,-0.09,-0.19,1721201632801
0.09,-0.20,8.58,0.11,-0.11,-0.17,1721201632811
-0.58,-1.36,11.53,-0.06,0.04,-0.06,1721201632821
-0.88,0.78,11.75,0.08,-0.14,-0.02,1721201632831
0.54,2.97,5.75,0.11,0.02,0.10,1721201632841
3.83,-3.36,11.54,-0.07,0.12,-0.03,1721201632851
1.43,0.59,11.14,0.06,-0.18,-0.21,1721201632861
-0.29,2.75,9.01,-0.01,0.07,-0.24,1721201632871
0.06,2.24,14.10,0.04,0.01,-0.26,1721201632881
0.01,-0.25,7.19,0.14,-0.07,-0.08,1721201632891
1.68,-1.92,6.09,-0.04,0.11,-0.03,1721201632901
2.44,0.49,13.50,-0.06,0.07,-0.22,1721201632911
1.36,1.12,12.07,0.02,-0.00,-0.44,1721201632921
-0.93,-1.18,10.01,-0.07,0.06,-0.49,1721201632931
-2.73,-2.23,8.74,-0.08,0.02,-0.30,1721201632941
-2.52,-0.51,7.93,-0.02,0.11,-0.08,1721201632951
1.77,-1.39,10.99,-0.06,0.25,-0.05,1721201632961
3.17,2.39,11.86,0.04,0.06,-0.23,1721201632971
1.55,-2.94,9.72,-0.12,0.13,-0.46,1721201632981
-1.49,1.21,10.11,-0.02,0.07,-0.50,1721201632991
-2.38,-0.79,9.05,-0.13,0.17,-0.34,1721201633001
-1.62,2.26,13.42,0.03,0.17,-0.28,1721201633011
-0.19,-2.73,5.93,0.02,0.11,-0.14,1721201633021
-0.30,0.11,12.12,-0.16,0.30,-0.22,1721201633031
-0.51,2.12,11.57,-0.02,0.14,-0.39,1721201633041
-1.03,1.77,9.20,-0.04,0.20,-0.36,1721201633051
-0.96,-1.07,9.95,-0.08,0.16,-0.30,1721201633061
-1.72,-1.49,9.38,-0.04,0.19,-0.27,1721201633071
-1.23,0.39,12.09,-0.11,0.17,-0.21,1721201633081
-1.03,2.20,10.69,0.00,0.12,-0.22,1721201633091
-0.23,-0.68,8.93,0.01,0.17,-0.24,1721201633101
-0.45,-3.11,9.76,0.03,0.22,-0.21,1721201633111
-0.94,0.18,10.52,0.04,0.25,-0.26,1721201633121
-1.66,-0.17,9.83,0.01,0.11,-0.26,1721201633131
-1.70,2.96,12.06,0.01,0.12,-0.23,1721201633141
-1.55,1.02,10.01,0.09,0.15,-0.15,1721201633151
-1.97,-3.35,8.03,-0.04,0.13,-0.02,1721201633161
-2.11,1.33,10.79,-0.01,0.19,-0.14,1721201633171
-1.05,-2.30,8.52,0.01,0.11,-0.15,1721201633181
-2.19,0.42,9.75,-0.07,0.14,-0.12,1721201633191
-0.79,3.96,12.11,0.06,0.13,-0.01,1721201633201
-0.95,-5.04,9.54,-0.08,0.07,-0.02,1721201633211
-1.02,2.23,9.93,-0.03,0.12,-0.01,1721201633221
0.70,4.05,10.37,0.05,0.13,-0.00,1721201633231
0.78,-5.35,8.73,-0.14,0.15,-0.05,1721201633241
0.56,-2.22,12.68,0.05,0.19,-0.08,1721201633251
-0.38,4.13,9.97,0.10,-0.02,-0.04,1721201633261
-1.31,4.98,9.14,0.09,0.12,-0.04,1721201633271
-0.22,-2.22,11.76,0.06,0.13,-0.06,1721201633281
-1.26,-0.08,7.17,0.25,-0.02,0.06,1721201633291
-0.28,-2.23,7.09,0.01,0.19,0.17,1721201633301
1.89,3.07,16.00,-0.00,0.23,0.04,1721201633311
1.31,5.92,13.39,0.16,0.04,-0.15,1721201633321
0.37,-2.41,7.16,0.15,0.07,-0.14,1721201633331
-1.79,-1.56,6.38,0.01,0.15,-0.17,1721201633341
-1.62,3.37,10.04,0.10,0.09,-0.07,1721201633351
0.23,2.20,13.20,0.08,0.22,-0.03,1721201633361
0.76,-0.26,8.90,0.13,0.01,0.07,1721201633371
0.50,-1.02,6.01,0.10,0.15,-0.08,1721201633381
1.55,0.79,12.67,-0.09,0.22,-0.25,1721201633391
1.38,6.30,18.10,0.06,0.10,-0.25,1721201633401
-2.30,0.86,5.23,0.20,-0.07,-0.20,1721201633411
-2.94,-5.35,4.59,0.02,0.28,-0.17,1721201633421
-2.48,1.90,15.33,-0.11,0.13,-0.07,1721201633431
-2.04,6.73,10.27,0.22,0.01,0.04,1721201633441
0.02,-7.37,5.08,-0.08,0.20,0.05,1721201633451
-0.86,-5.41,9.18,-0.15,0.11,0.12,1721201633461
-0.23,9.18,13.40,0.17,0.31,-0.15,1721201633471
0.22,-2.38,6.83,-0.08,-0.07,-0.20,1721201633481
-2.83,-1.94,11.69,-0.07,0.07,-0.05,1721201633491
-1.44,-1.71,9.82,0.11,0.18,0.08,1721201633501
-1.38,-0.58,10.87,-0.07,0.06,0.21,1721201633511
-1.65,1.10,10.48,-0.05,-0.01,0.01,1721201633521
-0.39,-2.27,8.71,0.03,0.06,-0.06,1721201633531
-0.89,-0.43,10.05,-0.03,0.12,0.08,1721201633541
-0.09,5.16,14.98,0.15,0.18,0.24,1721201633551
1.64,-4.38,5.73,-0.08,-0.03,0.19,1721201633561
-0.16,2.99,13.71,-0.14,0.21,-0.04,1721201633571
1.86,-3.62,11.53,0.02,-0.02,-0.08,1721201633581
-1.11,-0.36,6.93,-0.16,0.03,-0.07,1721201633591
-1.51,4.18,14.50,0.00,0.11,0.02,1721201633601
-0.90,1.76,12.68,0.06,0.05,0.12,1721201633611
-0.75,-2.22,9.75,-0.14,0.06,0.05,1721201633621
-1.30,0.90,10.55,0.02,0.05,-0.06,1721201633631
1.30,1.06,13.58,-0.11,0.23,0.08,1721201633641
-1.40,-3.16,7.59,0.22,-0.17,0.19,1721201633651
-0.57,-1.04,6.14,0.18,0.32,0.17,1721201633661
1.58,2.27,12.79,0.07,0.07,0.08,1721201633671
0.83,10.83,12.29,0.29,0.01,0.17,1721201633686
2.23,1.55,7.72,0.32,0.12,0.14,1721201633690
1.26,-7.67,3.90,0.08,0.03,-0.02,1721201633700
-0.57,0.89,12.65,0.08,0.07,-0.01,1721201633710
-1.73,0.47,9.14,0.18,0.04,-0.01,1721201633720
-1.02,0.01,13.42,-0.02,0.23,0.01,1721201633730
-0.64,-2.08,7.19,0.13,-0.14,0.29,1721201633740
-1.70,2.03,5.73,0.07,0.10,0.21,1721201633750
2.10,-1.93,11.60,-0.00,0.17,0.07,1721201633760
1.78,-3.94,12.01,0.01,0.03,0.02,1721201633770
-1.09,4.22,14.59,0.06,0.01,0.03,1721201633780
-1.08,1.62,5.09,0.15,-0.03,0.17,1721201633790
1.48,-4.49,13.37,-0.26,0.24,0.12,1721201633800
-0.07,3.43,16.82,0.18,-0.09,-0.15,1721201633810
-1.73,2.58,4.05,0.14,0.02,-0.01,1721201633820
-0.22,1.71,12.14,0.02,0.09,0.07,1721201633830
-0.35,-1.52,11.92,0.17,-0.02,0.11,1721201633840
0.63,-2.41,8.68,0.08,0.11,0.12,1721201633850
-0.27,5.54,10.96,0.24,-0.05,-0.01,1721201633860
-1.34,2.75,5.86,0.19,0.01,-0.10,1721201633870
-2.38,-0.12,12.44,-0.00,0.08,-0.10,1721201633880
-3.65,-0.00,12.49,0.24,-0.18,0.09,1721201633890
-1.86,-1.46,5.79,0.08,0.11,0.37,1721201633900
0.62,0.73,11.63,-0.01,0.02,0.32,1721201633910
0.96,2.68,10.95,0.09,-0.11,0.13,1721201633920
1.41,-1.37,7.53,-0.01,-0.02,0.09,1721201633930
-0.91,2.79,12.75,0.07,-0.15,-0.01,1721201633940
-0.67,2.32,11.12,0.04,0.02,0.09,1721201633950
-0.50,1.28,6.70,-0.03,-0.19,0.28,1721201633960
0.22,-0.64,8.39,-0.27,-0.07,0.21,1721201633970
2.88,-4.55,18.45,-0.07,-0.00,0.04,1721201633980
0.74,1.54,5.84,0.18,-0.20,-0.07,1721201633990
-0.97,1.90,3.47,-0.32,0.04,0.10,1721201634000
0.15,1.49,22.77,-0.12,0.06,-0.02,1721201634010
0.42,-2.19,7.05,0.18,-0.28,0.07,1721201634020
-0.03,-2.35,4.93,-0.31,0.10,0.11,1721201634030
1.23,0.62,17.17,-0.19,0.01,0.08,1721201634040
1.95,-1.93,11.37,-0.09,-0.11,-0.08,1721201634050
-1.61,3.60,9.50,0.00,-0.13,-0.29,1721201634060
-1.93,-7.62,3.93,-0.17,-0.08,0.02,1721201634070
-1.01,0.07,18.44,-0.23,0.12,0.20,1721201634080
1.09,4.14,10.57,0.12,-0.25,0.05,1721201634090
0.58,-1.22,2.88,-0.26,0.04,-0.15,1721201634100
-0.03,2.04,16.02,-0.13,0.04,-0.33,1721201634110
-0.86,-0.58,13.44,-0.02,-0.19,-0.18,1721201634120
-1.96,1.32,6.19,-0.20,-0.08,0.11,1721201634130
-0.89,1.57,10.88,-0.13,0.07,-0.15,1721201634140
1.03,-1.56,10.58,-0.08,0.00,-0.29,1721201634150
-1.55,1.09,9.67,-0.05,-0.16,-0.19,1721201634160
-2.25,2.65,11.01,0.01,-0.00,-0.14,1721201634170
0.66,-2.05,10.69,-0.08,0.07,-0.03,1721201634180
0.64,1.18,14.69,-0.03,-0.06,-0.06,1721201634190
0.15,4.53,9.39,0.17,-0.05,-0.31,1721201634200
0.64,-2.23,8.67,-0.06,0.10,-0.34,1721201634210
-2.55,1.75,13.05,0.15,-0.13,-0.28,1721201634220
-2.03,-0.45,5.66,0.11,0.00,-0.15,1721201634230
-0.58,2.09,15.34,0.02,0.08,-0.13,1721201634240
0.62,2.77,13.09,0.22,-0.16,-0.05,1721201634250
0.76,4.74,6.00,0.25,0.12,-0.16,1721201634260
-0.03,-0.63,7.39,0.15,0.03,-0.38,1721201634270
-1.25,-4.01,13.48,0.04,0.07,-0.28,1721201634280
-1.97,3.89,14.22,0.25,0.04,-0.12,1721201634290
-1.47,-0.45,7.23,0.10,0.01,-0.14,1721201634300
-1.17,0.79,7.37,0.15,0.04,-0.14,1721201634310
2.82,-4.28,14.49,0.19,0.32,-0.18,1721201634320
0.69,2.28,12.46,0.25,-0.04,-0.28,1721201634330
-2.43,6.13,4.06,0.22,-0.04,-0.28,1721201634340
-1.68,-2.50,11.11,-0.05,0.22,-0.29,1721201634350
-2.61,0.77,13.50,0.33,-0.07,-0.21,1721201634360
-1.35,-3.16,2.96,0.05,0.14,-0.11,1721201634370
-1.06,3.00,13.79,-0.05,0.12,-0.15,1721201634380
-1.43,-5.30,11.16,-0.01,-0.04,-0.26,1721201634390
-3.03,1.84,8.98,0.13,-0.01,-0.07,1721201634400
0.81,3.73,9.94,0.12,0.31,-0.03,1721201634410
1.34,-1.48,8.48,-0.12,-0.04,-0.17,1721201634420
-1.53,-3.50,9.66,-0.18,-0.07,-0.20,1721201634430
-3.24,1.31,5.49,-0.01,-0.06,-0.12,1721201634440
-1.71,-2.46,10.26,-0.28,0.23,-0.05,1721201634450
-0.22,3.00,21.77,0.02,0.01,-0.00,1721201634460
-0.62,4.86,5.22,0.27,-0.11,0.15,1721201634470
-0.81,-4.46,2.58,-0.48,0.12,0.02,1721201634480
0.03,4.22,21.03,-0.08,-0.17,-0.05,1721201634490
0.10,2.33,6.05,0.15,-0.02,-0.11,1721201634500
-0.91,2.52,7.95,-0.18,0.08,-0.10,1721201634510
-2.14,-1.89,7.78,-0.09,-0.18,0.01,1721201634520
-3.99,1.49,8.63,-0.10,-0.01,-0.00,1721201634530
-1.45,3.93,12.24,-0.01,-0.09,0.11,1721201634540
0.19,0.37,10.18,-0.18,0.07,0.17,1721201634550
0.25,-0.55,10.97,-0.10,-0.19,0.13,1721201634560
0.41,-1.24,10.85,-0.22,-0.03,-0.07,1721201634570
0.15,4.18,13.97,-0.01,-0.11,-0.11,1721201634580
-1.00,1.14,6.65,-0.01,-0.12,0.02,1721201634590
-1.19,-2.28,9.57,-0.14,-0.03,0.05,1721201634600
-2.56,-3.39,9.48,-0.07,-0.25,0.01,1721201634610
-1.91,2.00,10.26,-0.09,-0.01,0.10,1721201634620
0.21,-1.45,10.83,-0.07,-0.17,0.16,1721201634630
-0.31,-0.59,11.36,-0.02,-0.14,0.28,1721201634640
1.40,0.96,9.93,-0.02,-0.07,0.17,1721201634650
1.35,1.19,8.64,-0.16,-0.14,-0.15,1721201634660
1.33,-0.27,12.78,-0.12,-0.08,-0.13,1721201634670
0.58,-0.94,14.16,-0.11,-0.08,-0.06,1721201634680
-1.71,-2.38,9.06,-0.02,-0.31,0.05,1721201634690
-2.00,-4.00,0.15,-0.01,-0.06,0.12,1721201634700
3.09,4.68,16.01,-0.07,0.22,-0.02,1721201634710
4.18,-3.43,16.40,0.03,-0.21,-0.03,1721201634720
0.19,4.13,6.96,0.11,-0.17,-0.09,1721201634730
-1.45,1.81,8.56,-0.09,0.08,-0.32,1721201634740
-0.91,-2.72,17.18,-0.09,-0.14,-0.23,1721201634750
0.23,1.95,9.09,0.16,-0.23,0.05,1721201634760
0.99,-3.67,6.89,0.01,0.09,0.11,1721201634770
2.62,0.64,15.02,0.03,0.06,0.02,1721201634780
1.94,4.98,7.92,0.17,-0.15,-0.21,1721201634790
-0.82,1.55,11.46,0.09,0.02,-0.35,1721201634800
-1.64,0.64,10.88,0.17,0.08,-0.24,1721201634810
-3.20,-5.14,6.67,-0.04,-0.08,-0.17,1721201634820
-1.86,3.25,10.93,0.12,-0.00,0.11,1721201634830
2.92,1.93,11.67,0.17,0.17,0.13,1721201634840
3.59,1.43,13.52,0.23,-0.02,-0.09,1721201634850
2.90,-1.68,7.41,0.15,0.07,-0.32,1721201634860
-0.19,-0.41,6.72,-0.04,-0.03,-0.45,1721201634870
-2.57,1.45,15.36,0.07,0.14,-0.42,1721201634880
-2.09,-0.41,14.02,0.30,0.08,-0.15,1721201634890
-1.26,1.17,4.79,0.28,0.02,0.08,1721201634900
1.27,0.91,7.01,0.15,0.20,-0.07,1721201634910
2.44,2.72,11.60,0.08,0.14,-0.24,1721201634920
-0.97,-0.40,9.73,0.05,0.03,-0.49,1721201634930
-4.04,-0.60,10.35,0.06,0.09,-0.40,1721201634940
-3.18,-1.52,9.06,0.02,0.09,-0.03,1721201634950
-0.44,-2.26,9.21,-0.12,0.05,0.17,1721201634960
2.41,3.92,14.37,-0.03,0.23,-0.01,1721201634970
2.47,2.70,6.77,0.20,0.00,-0.26,1721201634980
0.21,-7.06,4.48,-0.26,0.15,-0.39,1721201634990
-2.78,2.72,15.32,-0.07,-0.00,-0.36,1721201635000
-2.39,4.26,8.11,0.11,0.14,-0.11,1721201635010
0.73,-5.20,10.16,-0.28,0.16,-0.02,1721201635020
0.34,1.56,13.62,0.05,-0.03,-0.09,1721201635030
0.61,3.05,5.27,0.03,0.13,-0.20,1721201635040
0.78,-1.82,12.91,-0.24,0.28,-0.31,1721201635050
-0.43,-0.93,12.77,-0.05,0.00,-0.27,1721201635060
-2.48,3.56,8.60,0.03,0.18,-0.26,1721201635070
-1.57,-4.31,6.00,-0.12,0.11,-0.11,1721201635080
-0.83,2.78,12.61,-0.02,0.18,0.01,1721201635090
1.17,-2.27,9.57,-0.03,0.14,-0.13,1721201635100
0.51,0.12,14.52,-0.10,0.18,-0.35,1721201635110
-0.95,2.42,10.28,0.10,-0.06,-0.19,1721201635120
-1.60,0.18,9.97,-0.06,0.28,-0.13,1721201635130
-1.76,1.36,15.05,0.04,0.06,-0.20,1721201635140
-2.27,2.66,8.67,0.14,0.03,-0.13,1721201635150
0.02,-0.45,7.96,-0.02,0.27,0.00,1721201635160
0.23,-1.94,14.08,0.01,0.11,-0.15,1721201635170
-1.69,4.20,9.49,0.27,-0.00,-0.18,1721201635180
-1.23,-2.27,1.44,0.03,0.17,-0.15,1721201635190
-1.19,-2.07,14.85,-0.15,0.16,-0.13,1721201635200
-1.64,0.06,12.72,0.18,-0.05,-0.13,1721201635210
-0.63,0.17,7.25,0.03,0.20,0.03,1721201635220
-0.29,-0.13,11.24,0.08,0.10,-0.12,1721201635230
-0.96,-0.47,8.43,0.10,0.06,-0.20,1721201635240
-2.35,-0.55,8.24,-0.03,0.01,-0.01,1721201635250
-0.80,4.07,15.86,0.17,0.14,0.10,1721201635260
0.87,-4.15,7.18,0.06,0.00,-0.04,1721201635270
-0.79,2.47,13.23,-0.00,0.06,-0.12,1721201635280
-0.20,0.12,11.41,0.11,-0.03,-0.09,1721201635290
-2.44,0.01,4.59,-0.02,-0.02,-0.10,1721201635300
-1.23,0.36,11.13,-0.02,0.11,-0.02,1721201635310
-0.10,-2.77,10.78,0.01,0.03,0.08,1721201635320
-0.77,0.16,7.95,0.01,-0.03,0.02,1721201635330
0.36,-4.15,10.30,-0.21,0.15,-0.10,1721201635340
0.68,3.96,21.46,0.09,0.03,-0.09,1721201635350
-1.39,4.19,8.68,0.28,-0.08,-0.03,1721201635360
-1.96,-4.71,3.45,-0.09,0.00,0.03,1721201635370
-1.44,-1.36,13.35,-0.07,0.06,0.06,1721201635380
0.90,6.05,12.59,0.18,-0.00,-0.03,1721201635390
0.94,2.32,8.26,0.15,-0.11,-0.05,1721201635400
-1.83,-3.49,3.83,0.03,-0.10,0.04,1721201635410
-0.75,-0.17,10.67,0.04,0.19,0.04,1721201635420
0.92,0.67,10.22,0.04,-0.03,0.02,1721201635430
0.00,3.91,13.51,-0.04,0.01,-0.06,1721201635440
-0.11,2.68,12.56,0.19,-0.15,-0.10,1721201635450
-0.24,-6.10,1.98,-0.04,-0.09,0.01,1721201635460
-0.69,-0.08,12.20,-0.18,0.16,-0.06,1721201635470
0.72,1.16,13.40,0.08,-0.17,-0.00,1721201635480
0.52,-2.09,7.88,-0.04,-0.04,0.05,1721201635490
-0.10,0.14,12.21,0.12,-0.07,-0.03,1721201635500
-1.26,1.26,11.08,0.00,-0.00,-0.09,1721201635510
-1.39,6.16,12.45,0.12,-0.07,-0.10,1721201635520
-0.87,-7.17,6.28,-0.13,-0.08,-0.03,1721201635530
-2.74,3.04,10.27,0.05,-0.19,0.23,1721201635540
0.94,16.49,12.73,0.32,0.21,0.13,1721201635550
3.55,-3.98,8.03,-0.20,-0.10,-0.06,1721201635560
-1.53,-6.96,9.08,-0.45,-0.13,-0.33,1721201635570
-3.95,3.18,13.52,-0.21,-0.01,-0.35,1721201635580
-3.41,-1.94,5.92,-0.20,-0.09,0.08,1721201635590
0.21,-2.72,9.28,-0.14,0.03,0.40,1721201635600
3.40,-2.68,3.91,-0.05,-0.10,0.19,1721201635610
3.29,1.13,14.38,-0.43,0.25,-0.27,1721201635620
0.17,2.01,17.59,-0.24,-0.24,-0.51,1721201635630
-4.84,-2.34,7.67,-0.25,-0.16,-0.37,1721201635640
-5.38,-5.22,8.98,-0.20,0.04,0.04,1721201635650
-1.74,-1.92,7.49,0.06,-0.11,0.35,1721201635660
1.47,2.05,6.17,-0.12,0.08,0.25,1721201635670
2.09,5.28,12.19,-0.19,-0.02,-0.08,1721201635680
1.58,-5.25,6.22,-0.26,-0.02,-0.16,1721201635695
-0.23,-4.91,7.36,-0.25,-0.03,-0.26,1721201635699
0.39,-3.10,12.23,-0.16,-0.05,-0.15,1721201635709
-0.57,4.33,6.01,0.13,-0.09,0.00,1721201635719
0.06,-7.32,2.06,-0.36,0.06,0.02,1721201635729
-0.08,-10.99,29.90,-0.77,-0.00,-0.22,1721201635739
2.68,18.24,34.82,0.01,-0.07,-0.28,1721201635749
-0.85,2.68,3.72,0.56,-0.25,-0.23,1721201635759
-0.17,-5.73,-1.30,0.08,0.10,-0.03,1721201635769
-1.65,-1.81,14.87,0.12,0.01,0.02,1721201635779
-2.43,2.51,15.33,0.30,0.04,-0.13,1721201635789
1.31,-1.52,7.40,0.43,0.01,-0.16,1721201635799
0.84,2.10,14.43,0.11,0.06,-0.25,1721201635809
0.30,5.57,15.01,0.43,-0.08,-0.24,1721201635819
-1.04,1.26,3.73,0.66,0.00,-0.16,1721201635829
-1.33,-9.00,3.29,0.43,0.10,-0.17,1721201635839
-2.43,3.22,10.33,0.42,-0.04,-0.05,1721201635849
0.55,10.13,13.78,0.55,0.11,0.15,1721201635859
3.52,-0.10,7.77,0.36,0.10,0.16,1721201635869
3.00,-9.99,2.89,0.19,0.09,-0.15,1721201635879
2.02,1.62,11.87,0.08,0.12,-0.46,1721201635889
-0.89,5.31,12.28,0.23,-0.04,-0.34,1721201635899
-1.34,-2.47,6.05,0.16,0.17,-0.14,1721201635909
-0.31,-4.03,4.99,0.14,0.14,0.01,1721201635919
1.48,-1.36,8.03,-0.04,0.18,-0.04,1721201635929
1.19,-0.63,14.95,-0.08,0.13,-0.30,1721201635939
-2.15,3.97,11.46,0.18,0.03,-0.37,1721201635949
-2.43,-3.53,3.88,-0.04,0.18,-0.14,1721201635959
-1.51,-3.36,11.36,-0.20,0.16,0.02,1721201635969
-1.49,1.48,14.57,-0.01,0.14,-0.05,1721201635979
-0.56,0.99,6.87,-0.05,0.06,-0.08,1721201635989
0.43,1.47,10.71,-0.14,0.16,-0.02,1721201635999
1.43,3.67,5.58,0.05,0.04,0.01,1721201636009
1.40,-1.43,3.17,-0.21,0.22,-0.16,1721201636019
0.60,1.16,9.09,-0.19,0.11,-0.26,1721201636029
-0.59,-4.43,5.92,-0.38,0.05,-0.22,1721201636039
-2.05,-3.43,27.78,-0.50,0.24,-0.26,1721201636049
-1.44,7.78,21.56,0.26,-0.10,-0.18,1721201636059
-0.51,-0.04,-3.15,-0.06,0.17,0.02,1721201636069
2.13,-1.99,15.87,-0.52,0.38,-0.07,1721201636079
0.48,2.18,20.30,0.01,-0.03,-0.28,1721201636089
-1.63,-0.66,0.66,0.13,0.06,-0.37,1721201636099
-2.52,-2.76,9.28,-0.30,0.27,-0.24,1721201636109
-1.67,3.89,18.01,0.08,0.12,0.01,1721201636119
1.18,1.37,7.49,0.10,0.19,0.14,1721201636129
1.96,1.17,8.79,0.01,0.23,-0.17,1721201636139
1.30,-3.25,11.77,-0.03,0.11,-0.35,1721201636149
-1.36,3.95,11.01,0.15,0.04,-0.32,1721201636159
-1.52,0.39,8.47,0.04,0.23,-0.19,1721201636169
-2.04,-2.00,9.91,0.02,0.18,-0.13,1721201636179
-2.56,1.08,11.53,0.02,0.13,-0.11,1721201636189
-0.91,-1.11,7.22,0.15,0.17,-0.07,1721201636199
0.21,0.14,10.48,0.06,0.22,-0.03,1721201636209
0.44,2.48,11.73,0.11,0.17,-0.07,1721201636219
-1.28,-1.72,6.80,-0.02,0.04,-0.21,1721201636229
-3.42,-1.19,8.99,-0.02,0.14,-0.16,1721201636239
-2.36,-0.79,9.11,0.16,0.19,0.01,1721201636249
1.02,-1.13,11.38,-0.04,0.25,0.03,1721201636259
0.41,-1.35,13.59,0.04,0.02,-0.06,1721201636269
-1.29,4.62,10.20,0.10,0.08,-0.20,1721201636279
-1.21,0.78,7.05,0.03,0.13,-0.16,1721201636289
-1.19,-7.00,10.56,-0.11,0.17,-0.05,1721201636299
-2.32,-1.76,12.62,-0.04,0.03,-0.07,1721201636309
-2.20,7.78,10.01,0.21,0.06,0.02,1721201636319
0.10,-2.02,4.03,-0.03,0.12,0.02,1721201636329
-0.44,-2.87,13.33,-0.14,0.14,-0.03,1721201636339
-0.13,0.83,13.36,0.09,0.04,0.02,1721201636349
0.39,3.75,9.88,0.04,0.12,-0.00,1721201636359
0.54,-0.84,13.59,-0.04,0.10,-0.07,1721201636369
-1.35,0.89,9.64,0.24,-0.18,-0.01,1721201636379
-1.63,-0.06,2.46,0.08,0.10,-0.07,1721201636389
-0.80,1.04,10.81,-0.01,0.14,-0.05,1721201636399
-1.25,1.71,16.93,0.04,-0.04,-0.02,1721201636409
-2.77,5.79,10.73,0.27,-0.16,0.02,1721201636419
-1.10,-6.41,1.60,0.08,0.05,0.13,1721201636429
-0.33,-2.29,13.42,-0.21,0.23,0.10,1721201636439
0.24,10.28,19.62,0.29,-0.16,0.04,1721201636449
-0.02,2.95,1.10,0.33,-0.11,0.11,1721201636459
2.26,-3.97,6.30,-0.16,0.15,0.10,1721201636469
0.79,1.63,15.42,0.01,-0.21,-0.05,1721201636479
0.04,4.42,9.30,0.10,0.02,-0.15,1721201636489
-0.64,-0.88,6.56,-0.06,-0.06,-0.13,1721201636499
-2.85,-0.31,11.18,0.02,-0.06,0.04,1721201636509
-0.38,-4.35,8.83,0.05,0.18,0.19,1721201636519
0.33,-0.87,8.76,-0.07,0.01,0.10,1721201636529
0.85,6.48,16.37,0.00,-0.00,0.00,1721201636539
0.82,3.98,12.27,0.24,-0.05,0.06,1721201636549
-1.10,-3.37,1.19,-0.18,-0.04,-0.06,1721201636559
-2.23,-6.89,14.77,-0.41,0.03,-0.13,1721201636569
-4.09,2.33,12.42,0.13,-0.24,0.05,1721201636579
-1.37,3.37,5.61,-0.18,0.24,0.25,1721201636589
1.71,-1.74,13.59,-0.10,-0.15,0.28,1721201636599
2.55,-4.28,8.48,-0.06,-0.08,0.18,1721201636609
2.63,-1.46,7.11,-0.24,0.07,-0.05,1721201636619
-1.13,4.22,12.90,-0.27,-0.10,-0.27,1721201636629
-2.34,-5.29,7.15,-0.21,-0.19,-0.11,1721201636639
-1.34,0.33,12.83,-0.00,0.09,0.13,1721201636649
0.31,-1.85,7.02,-0.13,-0.04,0.09,1721201636659
-0.33,-0.64,15.04,-0.36,0.02,-0.04,1721201636669
-2.77,1.32,13.27,-0.21,-0.14,-0.18,1721201636679
-1.70,3.61,11.12,-0.03,0.03,-0.09,1721201636689
1.20,-2.35,8.89,0.07,0.03,0.18,1721201636699
1.69,0.40,4.99,0.02,0.03,0.27,1721201636709
0.64,1.39,9.03,-0.23,0.03,-0.16,1721201636719
0.44,-0.44,16.60,-0.18,-0.07,-0.37,1721201636729
-0.10,2.68,13.18,0.10,-0.07,-0.23,1721201636739
0.13,-5.14,6.51,0.09,0.01,0.03,1721201636749
-0.35,-1.55,6.76,0.09,0.09,0.03,1721201636759
-0.67,4.44,14.70,0.06,0.07,-0.24,1721201636769
0.61,-0.75,15.29,0.11,-0.04,-0.14,1721201636779
-1.01,-0.33,9.29,0.26,-0.02,-0.04,1721201636789
-0.73,-1.34,6.11,0.11,0.08,-0.04,1721201636799
-0.06,3.43,11.98,0.18,0.02,-0.01,1721201636809
0.22,1.42,9.73,0.22,0.09,-0.08,1721201636819
-0.69,-4.31,6.57,0.10,0.02,-0.03,1721201636829
-0.92,-1.67,9.79,0.01,0.08,0.04,1721201636839
0.13,1.76,14.15,0.10,0.01,-0.06,1721201636849
0.70,1.14,7.97,0.18,-0.02,0.16,1721201636859
1.52,-1.04,9.44,0.07,0.20,0.03,1721201636869
1.17,-1.35,9.28,0.14,-0.03,-0.15,1721201636879
-0.76,0.00,12.24,0.03,0.14,-0.16,1721201636889
-1.45,2.00,11.33,0.14,-0.02,-0.08,1721201636899
-0.86,7.58,11.82,0.23,0.09,0.15,1721201636909
2.38,-4.87,6.97,0.09,0.13,0.14,1721201636919
1.28,-1.72,9.83,0.02,0.05,-0.19,1721201636929
-0.32,4.11,14.34,0.09,0.09,-0.36,1721201636939
-2.16,0.76,7.40,0.10,0.01,-0.20,1721201636949
-3.53,0.88,9.44,0.07,0.14,-0.07,1721201636959
-2.04,0.31,9.38,0.13,0.13,-0.01,1721201636969
-1.99,0.74,6.96,-0.02,0.02,-0.02,1721201636979
-0.88,-2.23,14.25,-0.22,0.13,-0.01,1721201636989
-0.25,0.71,12.40,0.13,-0.04,0.07,1721201636999
1.14,2.04,5.65,0.00,0.18,0.07,1721201637009
1.33,3.93,9.47,0.02,0.03,-0.07,1721201637019
-0.28,0.53,9.77,-0.20,0.10,-0.26,1721201637029
-2.17,2.29,17.90,-0.11,0.02,-0.19,1721201637039
-1.49,2.64,7.88,0.10,0.01,0.09,1721201637049
1.14,-0.22,6.24,-0.22,0.23,0.18,1721201637059
1.31,1.59,11.63,0.01,-0.02,-0.04,1721201637069
1.59,-3.50,8.02,-0.12,0.12,-0.17,1721201637079
-2.65,3.80,11.04,-0.06,-0.02,-0.48,1721201637089
-7.85,3.13,9.42,0.01,-0.19,-0.28,1721201637099
-4.71,-4.21,11.91,-0.23,0.14,0.54,1721201637109
3.86,-1.65,12.14,0.25,0.23,0.86,1721201637119
10.45,-3.60,3.53,0.06,0.27,0.43,1721201637129
7.67,3.78,7.82,-0.08,-0.04,-0.53,1721201637139
3.04,1.88,14.91,-0.10,-0.09,-1.13,1721201637149
-4.23,-0.44,15.21,0.05,-0.21,-1.01,1721201637159
-11.73,-4.69,6.39,-0.02,-0.04,-0.22,1721201637169
-9.41,-1.58,7.13,0.03,0.12,0.53,1721201637179
-0.32,1.40,12.26,0.07,0.20,0.83,1721201637189
6.56,0.62,9.71,0.14,0.13,0.50,1721201637199
7.26,-2.72,9.02,-0.05,0.05,-0.06,1721201637209
3.47,-1.57,10.70,-0.16,0.03,-0.61,1721201637219
-1.26,1.28,13.34,-0.10,-0.12,-0.71,1721201637229
-5.17,1.54,13.94,-0.01,-0.15,-0.34,1721201637239
-5.98,0.73,4.97,0.24,0.00,0.09,1721201637249
-1.34,-6.34,5.93,-0.08,0.25,0.28,1721201637259
2.52,0.88,16.69,-0.03,0.17,0.21,1721201637269
0.89,2.86,9.37,0.17,-0.04,-0.16,1721201637279
-0.07,7.61,11.77,0.04,0.26,-0.43,1721201637289
-0.77,-2.26,12.22,0.09,-0.10,-0.22,1721201637299
-3.04,-1.64,7.86,0.06,0.03,0.04,1721201637309
0.16,1.26,11.41,0.03,0.23,0.06,1721201637319
0.70,4.46,12.02,0.03,-0.00,-0.16,1721201637329
-1.14,2.50,7.20,0.10,-0.07,-0.37,1721201637339
-1.81,-3.56,5.42,0.09,0.12,-0.17,1721201637349
-1.64,-0.22,12.37,-0.10,0.21,0.07,1721201637359
-0.22,4.87,15.25,0.14,0.03,0.11,1721201637369
0.87,-2.73,6.18,0.07,0.11,-0.10,1721201637379
1.10,1.59,9.91,0.07,0.07,-0.11,1721201637389
2.14,2.15,12.58,0.08,0.20,-0.08,1721201637399
-0.72,1.91,8.39,0.08,-0.03,-0.14,1721201637409
-1.79,2.24,15.48,0.01,0.24,-0.21,1721201637419
-0.85,0.21,8.32,0.17,-0.04,-0.15,1721201637429
-2.02,0.10,4.47,0.02,0.08,-0.08,1721201637439
-1.10,4.21,9.72,0.03,0.21,-0.05,1721201637449
-0.53,-0.69,11.91,-0.07,0.10,-0.16,1721201637459
-2.58,0.58,15.80,0.07,0.04,-0.10,1721201637469
-2.56,0.39,4.38,0.16,-0.00,0.07,1721201637479
-0.67,0.54,11.50,-0.23,0.28,0.04,1721201637489
1.17,2.49,15.40,0.11,-0.08,0.10,1721201637499
0.20,0.47,1.61,0.13,0.03,-0.05,1721201637509
1.12,-1.49,9.73,-0.21,0.28,-0.18,1721201637519
-0.72,0.12,20.47,-0.03,-0.19,-0.07,1721201637529
-3.80,-0.36,8.88,0.10,-0.08,0.04,1721201637539
-0.55,1.33,6.46,0.07,0.26,0.18,1721201637549
0.77,1.76,6.89,0.02,-0.06,0.17,1721201637559
0.59,-2.52,10.22,-0.21,0.06,0.05,1721201637569
0.30,2.89,13.21,0.23,-0.10,0.08,1721201637579
1.13,-4.29,7.82,-0.22,0.21,0.09,1721201637589
-1.22,2.42,14.53,0.05,-0.31,0.14,1721201637599
-0.34,2.17,6.35,0.14,0.06,-0.00,1721201637609
-0.42,1.62,7.61,0.00,0.02,0.01,1721201637619
-1.17,-2.08,8.89,-0.10,0.06,-0.04,1721201637629
0.06,1.51,15.86,0.10,0.14,0.05,1721201637639
-0.43,-4.13,6.29,-0.08,-0.13,0.08,1721201637649
-2.04,6.75,13.62,0.09,0.16,0.00,1721201637659
0.74,-1.04,6.62,0.09,-0.14,-0.03,1721201637669
-2.71,-2.67,7.04,-0.16,-0.02,-0.03,1721201637679
-0.46,0.72,14.79,0.09,0.14,-0.05,1721201637689
0.51,-1.81,4.71,-0.07,0.07,0.12,1721201637704
1.33,2.36,12.11,-0.09,0.30,0.04,1721201637708
-0.15,2.40,12.29,0.14,-0.25,-0.13,1721201637718
-1.62,3.65,6.74,0.12,-0.06,-0.03,1721201637728
0.39,-3.50,8.10,-0.08,0.08,0.14,1721201637738
-0.90,-1.56,8.40,0.04,-0.18,0.05,1721201637748
-0.17,3.63,9.87,0.08,0.13,-0.04,1721201637758
0.79,-2.63,8.62,0.12,-0.03,0.01,1721201637768
0.93,-2.72,8.44,0.23,0.16,0.05,1721201637778
3.51,4.92,16.36,0.04,0.38,-0.05,1721201637788
1.30,28.81,26.07,0.39,-0.03,-0.21,1721201637798
-4.33,-8.15,-2.84,-0.06,-0.57,-0.22,1721201637808
-4.88,-27.07,-3.91,-0.64,0.49,-0.03,1721201637818
-2.01,13.39,23.22,0.23,-0.24,0.37,1721201637828
-21.26,33.10,25.08,-0.08,-0.41,0.07,1721201637838
12.87,6.95,-1.69,0.19,0.46,-0.05,1721201637848
4.17,-10.07,7.22,-0.31,-0.27,-0.21,1721201637858
1.05,-5.78,16.10,-0.17,0.11,-0.38,1721201637868
-3.40,8.90,10.66,0.13,-0.18,-0.24,1721201637878
-4.44,5.39,6.22,-0.01,0.07,0.01,1721201637888
-3.09,-5.27,7.87,0.16,-0.12,0.22,1721201637898
1.56,-10.95,5.87,-0.13,0.09,0.29,1721201637908
1.57,6.99,20.11,-0.11,0.06,0.06,1721201637918
0.58,5.17,8.13,0.21,-0.28,-0.18,1721201637928
-1.17,-2.32,-0.75,0.10,0.09,-0.28,1721201637938
0.15,-8.19,4.12,-0.11,-0.08,0.01,1721201637948
1.81,9.91,20.83,0.19,0.29,0.22,1721201637958
-1.05,19.63,-5.15,0.51,0.04,0.21,1721201637968
-0.67,-38.28,-7.15,-2.12,-0.08,0.09,1721201637978
10.70,-7.78,72.28,-0.98,0.93,-0.77,1721201637988
-2.72,40.65,55.78,2.20,-0.21,-0.45,1721201637998
-5.19,-35.06,-45.81,3.42,-0.29,0.25,1721201638008
-13.53,-22.12,-31.76,-2.83,0.66,0.52,1721201638018
12.09,0.58,78.45,-0.37,1.43,0.37,1721201638028
8.81,-52.28,11.34,1.42,0.13,0.45,1721201638038
-1.98,-24.17,-19.23,0.57,1.61,0.51,1721201638048
-8.20,2.11,30.22,-1.42,-0.53,0.28,1721201638058
13.20,-4.75,13.03,0.83,0.30,-0.00,1721201638068
9.36,-12.01,4.95,0.12,0.25,-0.21,1721201638078
-7.47,11.37,5.39,-0.24,-0.58,-0.46,1721201638088
-1.60,-3.25,5.99,-0.29,0.52,-0.30,1721201638098
-3.97,7.14,28.33,0.16,0.05,0.15,1721201638108
-2.57,5.60,0.11,0.33,-0.31,0.28,1721201638118
-0.48,-1.85,-5.40,-0.16,0.05,0.13,1721201638128
5.34,-7.69,13.21,-0.50,0.20,0.03,1721201638138
-11.80,5.68,35.92,-0.36,-0.10,-0.55,1721201638148
-1.53,7.82,24.28,0.43,-0.02,-0.67,1721201638158
-3.29,3.29,-3.94,0.24,-0.16,-0.42,1721201638168
-4.74,-2.77,5.69,-0.49,0.06,-0.06,1721201638178
5.00,-8.17,18.17,0.01,0.36,0.25,1721201638188
-2.30,0.36,13.13,0.26,0.15,0.01,1721201638198
-2.77,7.20,4.96,0.11,-0.25,-0.12,1721201638208
-2.22,-2.99,4.97,-0.20,0.06,-0.09,1721201638218
1.55,-1.04,22.78,-0.07,0.19,-0.06,1721201638228
1.27,2.04,9.01,0.28,-0.26,-0.02,1721201638238
0.29,-1.75,1.50,-0.22,0.14,-0.14,1721201638248
-0.28,4.39,17.54,0.07,-0.01,-0.26,1721201638258
0.38,-1.66,5.76,0.22,-0.10,-0.21,1721201638268
-2.48,1.82,10.55,-0.09,0.19,-0.21,1721201638278
-2.66,0.68,11.22,0.16,-0.15,-0.03,1721201638288
-0.74,2.70,8.76,-0.01,0.21,0.09,1721201638298
0.85,0.16,9.73,-0.01,-0.19,0.07,1721201638308
0.94,-1.52,8.72,-0.07,0.10,-0.16,1721201638318
1.04,1.82,14.12,0.06,0.04,-0.24,1721201638328
-0.44,0.24,8.52,0.02,0.05,-0.18,1721201638338
-2.37,-3.82,7.77,-0.19,-0.06,-0.09,1721201638348
-1.80,4.69,14.66,0.16,0.12,-0.08,1721201638358
1.58,0.07,7.81,0.08,0.04,-0.04,1721201638368
-1.05,1.18,8.56,-0.04,-0.12,-0.12,1721201638378
-0.54,-0.16,8.86,-0.00,0.05,-0.17,1721201638388
-1.40,-2.01,9.07,-0.08,0.02,-0.20,1721201638398
-0.84,2.09,15.22,0.06,0.11,-0.13,1721201638408
-0.60,-3.62,8.74,0.04,-0.02,-0.05,1721201638418
-2.00,2.51,9.60,0.01,0.05,-0.07,1721201638428
0.81,2.21,11.07,-0.02,0.14,-0.14,1721201638438
-0.58,1.00,12.09,0.01,-0.00,-0.15,1721201638448
-0.85,0.70,9.17,0.00,0.08,-0.15,1721201638458
-1.76,0.32,7.12,0.03,-0.15,-0.12,1721201638468
-1.24,3.10,12.67,-0.04,0.12,-0.04,1721201638478
0.84,4.23,11.40,0.11,0.06,-0.02,1721201638488
0.85,2.47,9.50,-0.11,0.02,-0.11,1721201638498
-0.95,0.64,12.67,-0.04,-0.16,-0.12,1721201638508
-0.59,-1.05,8.07,-0.11,0.05,-0.07,1721201638518
-1.34,10.27,16.96,-0.05,0.08,-0.09,1721201638528
-1.56,-1.51,3.02,-0.14,-0.24,-0.15,1721201638538
-2.40,-8.08,9.99,-0.38,0.25,-0.08,1721201638548
0.38,-1.24,15.55,0.00,-0.00,0.08,1721201638558
0.04,-2.44,1.65,-0.10,-0.10,0.05,1721201638568
1.98,3.08,14.87,-0.10,0.36,-0.07,1721201638578
3.30,5.70,12.37,0.26,-0.06,-0.09,1721201638588
0.45,-3.66,3.76,-0.21,-0.01,-0.26,1721201638598
-2.18,-8.65,13.25,-0.27,0.07,-0.22,1721201638608
-1.41,0.02,12.24,0.27,0.09,-0.06,1721201638618
0.10,4.07,3.56,0.26,0.08,-0.08,1721201638628
-0.02,3.27,8.00,0.35,0.00,0.02,1721201638638
2.36,-2.03,5.96,0.24,0.15,0.03,1721201638648
1.18,-0.78,14.31,-0.03,0.11,-0.19,1721201638658
0.45,3.75,17.43,0.26,0.11,-0.31,1721201638668
-0.55,0.04,7.56,0.33,0.15,-0.32,1721201638678
-3.51,-8.58,8.50,-0.00,0.01,-0.16,1721201638688
-3.75,0.13,24.05,0.22,0.13,-0.11,1721201638698
-1.94,13.81,15.88,0.64,0.11,-0.02,1721201638708
-0.36,13.04,10.22,0.18,0.31,-0.28,1721201638718
-1.98,-4.78,19.19,-0.05,-0.18,-0.19,1721201638728
-3.27,-2.34,8.16,0.43,0.04,-0.00,1721201638738
-1.21,5.63,3.06,0.29,0.23,0.08,1721201638748
0.75,6.02,6.48,0.39,0.05,-0.17,1721201638758
1.33,1.28,4.69,0.54,0.04,-0.13,1721201638768
0.09,1.56,8.61,0.27,0.07,-0.12,1721201638778
0.84,5.08,10.77,0.37,0.04,-0.23,1721201638788
2.32,3.10,5.31,0.25,0.17,-0.30,1721201638798
-0.69,4.80,-4.74,0.14,0.05,-0.38,1721201638808
-2.65,-3.71,-1.54,-0.25,0.28,-0.45,1721201638818
-4.89,-6.15,9.14,-0.21,0.00,-0.26,1721201638828
-2.89,0.37,1.20,-0.00,0.03,0.03,1721201638838
2.32,0.61,11.32,-0.26,0.49,0.17,1721201638848
3.48,2.11,13.92,-0.11,0.01,0.04,1721201638858
3.69,-2.43,1.01,-0.20,0.15,-0.24,1721201638868
1.84,-2.06,6.34,-0.34,0.22,-0.44,1721201638878
-1.99,-1.21,0.96,-0.34,0.07,-0.40,1721201638888
-3.01,-0.59,9.96,-0.52,0.35,-0.18,1721201638898
0.38,-18.10,34.02,-0.77,0.42,-0.14,1721201638908
-0.52,1.44,52.68,0.53,0.12,-0.26,1721201638918
-2.38,6.68,1.97,1.31,-0.07,-0.20,1721201638928
-1.76,3.77,-15.64,-0.65,0.55,0.02,1721201638938
-0.93,3.59,20.05,-0.31,0.01,-0.02,1721201638948
-4.04,-8.83,5.94,-0.06,-0.50,-0.24,1721201638958
-4.41,0.10,2.44,-0.27,0.54,-0.29,1721201638968
-3.19,5.86,17.43,-0.11,0.04,-0.17,1721201638978
0.93,3.05,9.01,-0.27,0.39,0.17,1721201638988
2.36,6.05,17.21,-0.08,0.20,0.14,1721201638998
2.69,0.52,4.03,0.07,-0.04,-0.13,1721201639008
-0.07,-0.24,7.35,-0.25,0.34,-0.42,1721201639018
-3.22,3.51,16.32,0.04,0.01,-0.33,1721201639028
-4.76,0.64,13.50,0.04,0.24,-0.03,1721201639038
-4.40,3.08,13.00,0.22,0.03,0.44,1721201639048
-0.59,1.33,6.81,0.20,0.24,0.44,1721201639058
3.20,2.05,9.76,0.08,0.14,0.26,1721201639068
3.53,6.35,11.81,0.17,0.09,-0.04,1721201639078
1.30,0.36,9.28,0.03,0.01,-0.26,1721201639088
-4.47,0.42,9.79,0.08,-0.07,-0.16,1721201639098
-4.38,-3.58,6.83,0.01,0.16,0.17,1721201639108
-1.56,0.16,14.11,0.04,0.20,0.33,1721201639118
1.80,1.84,12.79,0.22,0.09,0.27,1721201639128
2.30,5.50,8.79,0.25,0.06,0.08,1721201639138
-0.81,0.30,3.40,0.01,-0.11,-0.07,1721201639148
-3.76,-3.08,9.01,-0.23,0.09,-0.03,1721201639158
-1.75,-0.07,18.37,0.11,0.10,0.19,1721201639168
-0.90,-2.10,5.79,0.16,-0.05,0.31,1721201639178
-0.29,2.47,8.88,0.04,0.18,0.24,1721201639188
1.93,2.45,7.22,0.13,-0.07,0.16,1721201639198
1.26,-1.70,9.43,-0.26,0.10,0.02,1721201639208
0.10,-0.57,16.68,-0.00,-0.05,0.01,1721201639218
-0.54,-1.15,9.11,0.09,-0.04,0.17,1721201639228
-2.05,1.79,6.21,0.02,-0.06,0.30,1721201639238
0.52,2.92,9.56,0.00,0.20,0.22,1721201639248
2.64,-1.77,9.19,-0.07,-0.12,0.16,1721201639258
-0.46,-1.17,9.05,-0.17,0.02,0.10,1721201639268
0.04,-0.00,13.96,-0.11,0.02,0.06,1721201639278
-0.28,0.47,11.58,0.07,-0.06,0.16,1721201639288
0.49,-0.23,8.20,-0.04,0.09,0.23,1721201639298
0.23,4.80,13.41,0.01,-0.04,0.11,1721201639308
-0.57,1.01,6.14,-0.03,-0.21,0.06,1721201639318
-1.48,0.49,12.15,-0.18,0.11,0.06,1721201639328
-1.19,-1.63,7.77,0.04,-0.12,0.14,1721201639338
0.06,-0.11,12.34,-0.14,0.20,0.23,1721201639348
0.74,4.60,13.27,0.12,-0.17,0.21,1721201639358
1.40,0.98,6.72,-0.04,-0.01,0.10,1721201639368
1.32,-0.41,13.83,-0.15,-0.04,-0.03,1721201639378
-0.63,1.14,15.38,0.12,-0.05,-0.10,1721201639388
-2.15,1.42,5.42,0.11,-0.15,0.01,1721201639398
-1.58,1.32,7.50,-0.06,-0.03,0.16,1721201639408
0.48,-0.17,12.33,-0.05,-0.02,0.11,1721201639418
0.00,1.11,11.89,0.11,-0.12,-0.11,1721201639428
-0.64,0.05,8.03,-0.02,-0.04,-0.15,1721201639438
-2.70,0.20,8.56,-0.02,-0.13,-0.07,1721201639448
-1.56,1.49,12.65,0.02,0.11,0.02,1721201639458
-0.64,1.75,10.29,0.14,-0.09,0.11,1721201639468
0.14,1.02,9.66,-0.05,-0.09,0.11,1721201639478
0.74,1.28,11.11,0.02,-0.18,0.05,1721201639488
0.33,-1.97,7.39,-0.11,-0.12,-0.06,1721201639498
-1.33,1.21,14.99,0.02,-0.03,-0.16,1721201639508
-1.29,-1.46,6.59,0.10,-0.18,-0.08,1721201639518
-3.03,1.37,10.24,-0.05,0.01,0.08,1721201639528
-1.07,1.81,10.24,0.10,-0.16,0.17,1721201639538
0.73,-2.02,8.21,-0.16,-0.00,0.14,1721201639548
1.96,2.32,15.10,0.08,-0.07,0.04,1721201639558
2.06,-0.02,8.82,0.07,-0.07,-0.04,1721201639568
-1.07,0.50,6.73,-0.13,-0.18,-0.07,1721201639578
-1.11,-0.55,12.43,-0.04,-0.02,-0.03,1721201639588
-0.28,0.45,14.86,0.04,-0.07,0.07,1721201639598
-1.35,1.90,7.75,0.08,-0.29,0.18,1721201639608
0.48,-2.17,8.73,-0.10,0.06,0.07,1721201639618
0.82,0.00,10.94,0.02,-0.15,-0.05,1721201639628
0.06,2.83,10.54,-0.02,-0.03,-0.03,1721201639638
-0.75,2.22,9.60,0.01,-0.16,0.03,1721201639648
-1.25,-1.13,8.77,-0.08,-0.09,0.10,1721201639658
0.04,-0.49,12.42,-0.05,-0.11,0.15,1721201639668
1.43,-0.61,10.52,-0.10,-0.08,0.06,1721201639678
0.95,-0.18,11.83,0.02,-0.18,-0.08,1721201639688
0.41,2.29,10.87,0.04,0.08,-0.21,1721201639698
-1.95,-0.05,8.23,0.03,-0.06,0.03,1721201639713
-2.71,1.22,7.33,-0.06,-0.18,0.04,1721201639717
-0.24,-3.67,10.20,-0.14,0.03,0.06,1721201639727
0.90,2.41,14.68,0.03,-0.04,-0.03,1721201639737
0.50,1.71,7.38,0.05,-0.20,-0.05,1721201639747
-0.82,2.27,8.43,-0.02,-0.09,-0.01,1721201639757
0.07,-1.28,8.13,-0.14,-0.06,-0.06,1721201639767
-0.37,1.58,15.12,-0.05,-0.09,-0.05,1721201639777
-0.05,-0.07,5.51,0.06,-0.19,-0.03,1721201639787
0.68,-5.21,11.38,-0.34,0.12,-0.11,1721201639797
-0.84,5.24,15.56,0.32,-0.32,-0.12,1721201639807
0.98,1.86,2.53,0.05,0.03,-0.08,1721201639817
-0.61,1.67,11.91,-0.16,-0.19,-0.10,1721201639827
-2.34,0.78,8.67,0.11,-0.06,-0.13,1721201639837
-0.27,-1.62,8.83,-0.08,0.13,-0.07,1721201639847
-0.65,0.81,11.77,-0.06,-0.32,-0.00,1721201639857
-0.26,4.05,11.36,0.10,0.01,-0.00,1721201639867
1.49,1.75,10.71,0.03,0.03,-0.13,1721201639877
0.47,-0.03,6.64,-0.05,-0.21,-0.13,1721201639887
-0.05,-1.47,12.72,-0.16,0.02,-0.22,1721201639897
-1.26,1.38,14.84,0.11,-0.16,-0.18,1721201639907
-2.57,3.14,6.35,0.14,-0.09,-0.08,1721201639917
-0.98,0.17,8.28,-0.08,0.01,-0.04,1721201639927
0.40,-1.62,13.63,-0.05,-0.13,-0.05,1721201639937
0.58,0.96,10.30,0.10,-0.10,-0.09,1721201639947
0.81,1.84,8.97,-0.00,0.04,-0.23,1721201639957
-1.00,0.76,11.75,0.02,-0.15,-0.24,1721201639967
-1.97,1.13,9.58,0.13,-0.12,-0.11,1721201639977
-0.86,-0.75,7.05,-0.04,-0.04,-0.01,1721201639987
-0.11,1.13,10.86,0.01,-0.03,-0.11,1721201639997
1.50,1.67,10.36,0.05,0.02,-0.21,1721201640007
0.14,0.06,9.04,-0.05,-0.07,-0.19,1721201640017
-1.50,1.51,12.71,-0.03,-0.05,-0.18,1721201640027
-1.20,1.96,8.74,0.07,-0.11,-0.12,1721201640037
0.89,-0.69,10.25,-0.13,0.01,-0.08,1721201640047
0.43,-1.02,9.95,0.02,-0.20,-0.07,1721201640057
-0.44,-1.46,8.71,-0.05,0.03,-0.21,1721201640067
-0.65,0.80,11.30,0.04,-0.04,-0.31,1721201640077
-0.34,2.14,11.12,0.09,0.00,-0.17,1721201640087
0.05,1.28,11.91,-0.00,0.05,-0.17,1721201640097
-1.41,1.00,10.23,0.07,-0.15,-0.16,1721201640107
-1.06,-0.24,7.86,0.01,0.04,-0.14,1721201640117
1.48,-1.71,13.07,-0.05,0.06,-0.16,1721201640127
-0.15,2.32,11.78,0.17,-0.16,-0.20,1721201640137
-1.16,2.74,6.02,0.05,0.00,-0.20,1721201640147
-1.39,-0.13,10.63,-0.08,-0.00,-0.27,1721201640157
-0.73,0.08,12.54,0.07,-0.04,-0.22,1721201640167
0.21,-0.17,6.11,0.04,0.03,-0.16,1721201640177
0.02,0.11,9.92,-0.09,0.05,-0.22,1721201640187
-0.04,0.01,12.78,0.01,-0.00,-0.27,1721201640197
-0.11,-0.04,10.53,0.09,0.02,-0.25,1721201640207
0.04,2.32,10.48,0.04,0.10,-0.24,1721201640217
-0.35,0.87,10.36,-0.01,0.03,-0.26,1721201640227
-1.22,-1.31,9.01,-0.02,0.01,-0.23,1721201640237
-1.17,2.32,10.49,0.05,0.12,-0.25,1721201640247
-0.17,-0.19,7.97,0.01,0.02,-0.18,1721201640257
-0.51,1.51,11.19,-0.03,0.06,-0.18,1721201640267
1.15,-1.30,9.42,-0.05,0.09,-0.19,1721201640277
1.02,-0.16,12.98,-0.04,0.17,-0.26,1721201640287
-0.51,2.21,9.96,0.09,-0.02,-0.31,1721201640297
-1.43,0.96,7.48,-0.07,0.15,-0.28,1721201640307
-0.43,0.60,12.95,0.00,0.11,-0.21,1721201640317
0.04,-1.45,9.68,0.03,0.10,-0.16,1721201640327
-0.15,1.23,11.16,-0.06,0.14,-0.28,1721201640337
0.04,2.67,10.78,0.11,0.06,-0.30,1721201640347
-0.40,-1.11,7.40,-0.07,0.19,-0.29,1721201640357
-1.87,-0.24,12.50,-0.01,0.08,-0.27,1721201640367
-1.69,0.54,10.78,0.07,0.14,-0.18,1721201640377
-0.98,1.91,9.79,0.02,0.15,-0.11,1721201640387
-0.09,1.07,9.85,0.02,0.13,-0.15,1721201640397
0.10,0.47,8.65,0.00,0.16,-0.24,1721201640407
-0.03,-0.83,10.84,-0.06,0.16,-0.26,1721201640417
-1.73,2.18,10.98,0.05,0.07,-0.24,1721201640427
-1.35,0.87,8.24,-0.01,0.16,-0.17,1721201640437
-0.87,1.16,11.99,-0.02,0.14,-0.18,1721201640447
-0.83,-2.42,8.31,0.01,-0.01,-0.15,1721201640457
-1.77,2.19,11.24,-0.00,0.16,-0.18,1721201640467
-1.19,3.46,8.53,0.13,0.03,-0.19,1721201640477
-0.97,0.84,9.66,-0.08,0.16,-0.20,1721201640487
-1.98,0.12,12.92,0.01,0.02,-0.19,1721201640497
-2.46,-0.65,7.23,-0.01,0.08,-0.08,1721201640507
-0.51,1.46,13.04,-0.11,0.18,-0.04,1721201640517
0.03,1.21,11.68,0.03,-0.03,-0.12,1721201640527
-0.24,0.65,7.21,0.02,0.03,-0.12,1721201640537
-0.23,1.62,11.02,-0.04,0.14,-0.14,1721201640547
-1.41,1.29,10.43,-0.02,-0.03,-0.13,1721201640557
-1.79,3.24,11.37,-0.06,0.10,0.01,1721201640567
0.25,2.69,9.07,0.01,-0.01,0.01,1721201640577
0.19,-0.83,10.55,-0.12,-0.01,0.04,1721201640587
-0.56,1.81,12.39,-0.01,0.01,-0.01,1721201640597
-0.79,3.13,11.24,0.06,0.00,-0.08,1721201640607
-1.62,4.50,9.85,0.04,-0.02,-0.08,1721201640617
4.24,-8.96,9.00,0.05,-0.45,0.82,1721201640627
3.94,3.25,3.53,0.28,0.56,0.23,1721201640637
9.63,-0.16,9.08,-0.43,0.15,-0.59,1721201640647
-1.16,4.63,18.70,-0.09,-0.42,-1.18,1721201640657
-11.51,-2.95,6.93,0.14,-0.03,-0.94,1721201640667
-16.19,-6.01,6.90,0.00,0.10,0.06,1721201640677
-11.72,-3.30,10.30,0.07,-0.05,1.32,1721201640687
3.43,-0.11,11.29,0.22,0.47,1.66,1721201640697
15.00,2.03,10.18,0.16,0.26,1.19,1721201640707
15.50,0.60,9.18,-0.07,0.14,0.00,1721201640717
10.41,-1.51,11.77,-0.15,-0.11,-1.14,1721201640727
0.12,-2.14,10.02,-0.22,-0.64,-1.51,1721201640737
-13.63,-0.16,8.11,0.03,-0.00,-1.06,1721201640747
-11.81,-4.47,9.62,-0.00,0.15,0.18,1721201640757
-7.07,-2.07,13.27,-0.08,-0.01,1.01,1721201640767
3.27,-0.17,11.78,-0.04,0.30,0.77,1721201640777
6.39,2.39,9.39,-0.08,0.02,0.11,1721201640787
4.65,-0.14,7.00,-0.17,-0.07,-0.37,1721201640797
0.15,-1.30,8.76,-0.18,-0.03,-0.44,1721201640807
-2.56,0.56,13.07,-0.10,0.02,-0.25,1721201640817
-3.00,-0.92,11.25,-0.06,-0.02,0.08,1721201640827
-1.40,1.94,12.90,-0.10,0.05,0.28,1721201640837
1.57,-1.31,10.01,-0.05,-0.02,0.14,1721201640847
1.82,3.35,11.45,0.02,0.04,-0.08,1721201640857
1.10,1.29,8.62,0.12,-0.07,-0.21,1721201640867
-1.33,-1.14,9.21,-0.01,0.02,-0.18,1721201640877
-1.26,3.79,13.60,0.12,0.05,-0.02,1721201640887
-1.37,2.17,10.55,0.17,-0.05,0.04,1721201640897
-0.28,1.55,9.06,0.13,0.03,0.04,1721201640907
1.00,0.15,8.57,0.13,0.03,0.02,1721201640917
0.66,1.56,9.23,0.15,0.00,-0.08,1721201640927
0.60,2.55,8.71,0.19,0.03,-0.02,1721201640937
0.92,0.07,8.54,0.04,0.05,-0.01,1721201640947
0.49,2.36,15.05,0.11,0.03,-0.08,1721201640957
0.54,-0.41,8.45,0.20,-0.02,-0.09,1721201640967
-0.58,-0.83,9.92,0.01,0.07,-0.12,1721201640977
-0.71,-0.04,14.68,0.11,0.00,-0.04,1721201640987
-0.47,1.38,12.32,0.25,-0.01,0.02,1721201640997
1.10,-0.52,6.58,0.23,0.05,0.06,1721201641007
1.07,-0.11,5.89,0.12,0.05,-0.05,1721201641017
-0.11,-0.27,10.04,0.01,0.10,-0.20,1721201641027
-2.37,3.98,12.28,0.15,-0.01,-0.20,1721201641037
-2.05,-1.13,8.54,0.08,0.06,0.05,1721201641047
-0.55,-1.48,9.24,0.02,0.02,0.21,1721201641057
0.87,-0.96,9.77,-0.14,0.05,0.07,1721201641067
1.05,2.17,12.33,-0.08,-0.04,-0.13,1721201641077
0.01,-0.92,7.54,-0.06,0.01,-0.15,1721201641087
-0.74,-1.09,6.73,-0.20,0.06,-0.08,1721201641097
-0.50,-0.12,11.26,-0.22,0.01,0.02,1721201641107
1.46,4.71,12.78,-0.09,0.13,-0.03,1721201641117
3.52,-2.36,10.64,-0.25,0.05,-0.18,1721201641127
1.22,-0.65,10.63,-0.16,-0.02,-0.19,1721201641137
0.78,-0.38,6.34,-0.24,0.16,-0.21,1721201641147
-0.17,0.20,12.80,-0.21,0.09,-0.26,1721201641157
-0.66,0.14,11.64,-0.09,0.04,-0.25,1721201641167
-0.49,-1.64,9.03,-0.21,0.16,-0.13,1721201641177
0.56,0.27,15.64,-0.20,0.22,-0.13,1721201641187
0.64,1.30,10.51,0.00,0.04,-0.20,1721201641197
0.41,1.93,5.31,-0.04,0.15,-0.19,1721201641207
1.62,0.84,8.86,-0.13,0.22,-0.16,1721201641217
0.70,1.16,11.09,-0.06,0.15,-0.20,1721201641227
0.89,-2.43,10.34,-0.14,0.28,-0.32,1721201641237
0.27,-3.77,12.30,-0.18,0.18,-0.36,1721201641247
-1.55,5.14,11.09,0.09,0.16,-0.30,1721201641257
-0.51,0.19,9.16,0.01,0.32,-0.20,1721201641267
-1.83,3.02,14.26,0.08,0.08,-0.23,1721201641277
-1.02,2.70,9.51,0.30,0.23,-0.19,1721201641287
0.78,-1.37,6.08,0.04,0.40,-0.18,1721201641297
0.93,1.45,14.67,-0.06,0.24,-0.30,1721201641307
-0.54,-1.09,10.13,0.22,0.11,-0.39,1721201641317
-2.31,-2.34,4.17,0.16,0.30,-0.30,1721201641327
-1.76,2.06,11.26,0.01,0.41,-0.28,1721201641337
-1.45,-0.68,14.77,0.19,0.15,-0.20,1721201641347
-2.66,2.89,6.56,0.28,0.22,-0.20,1721201641357
-0.88,-5.50,5.98,-0.10,0.31,-0.14,1721201641367
-2.27,1.10,17.20,0.05,0.24,-0.31,1721201641377
-1.33,-1.82,9.26,0.27,0.12,-0.23,1721201641387
-2.55,0.05,6.06,0.10,0.32,-0.02,1721201641397
-0.44,1.88,9.52,0.09,0.40,-0.10,1721201641407
-1.82,-1.95,10.12,0.02,-0.01,-0.16,1721201641417
-3.33,-0.62,11.05,0.09,0.24,-0.07,1721201641427
-0.22,0.50,9.83,0.16,0.33,-0.01,1721201641437
-0.19,1.02,9.84,-0.02,0.15,0.03,1721201641447
-1.21,-0.51,13.08,-0.01,0.21,-0.09,1721201641457
-1.78,-0.74,11.79,0.13,0.14,-0.11,1721201641467
-3.09,0.96,7.29,0.12,0.13,0.02,1721201641477
-2.96,-4.19,6.11,-0.07,0.10,0.09,1721201641487
-1.98,2.94,17.29,0.11,0.23,0.12,1721201641497
0.73,1.81,12.53,0.30,0.09,0.15,1721201641507
-0.70,-1.67,5.26,0.09,-0.03,0.19,1721201641517
-0.96,5.15,10.07,0.16,0.18,0.08,1721201641527
1.13,-2.66,12.17,0.02,0.12,0.05,1721201641537
-2.31,1.95,11.81,0.19,-0.20,0.07,1721201641547
-1.81,3.86,8.67,0.21,0.11,0.09,1721201641557
-0.42,-0.51,4.86,0.02,0.04,0.18,1721201641567
0.33,-2.31,11.76,-0.17,0.12,0.14,1721201641577
-0.06,2.12,13.00,0.16,-0.11,0.19,1721201641587
2.25,2.74,11.20,0.02,0.33,0.03,1721201641597
-0.16,0.48,7.16,-0.06,-0.32,-0.00,1721201641607
-3.81,0.27,9.50,-0.19,0.08,-0.07,1721201641617
-1.43,0.30,15.84,0.03,0.07,0.15,1721201641627
-0.42,-0.97,10.17,-0.01,0.06,0.42,1721201641637
0.27,1.67,9.91,-0.02,-0.09,0.39,1721201641647
-0.32,0.12,7.94,-0.13,-0.17,0.15,1721201642220
3.05,-2.56,12.06,-0.10,0.05,0.07,1721201642224
1.32,2.45,5.90,0.11,-0.23,0.01,1721201642234
2.38,0.98,8.12,-0.11,0.35,-0.34,1721201642244
0.69,-1.98,13.51,-0.02,-0.22,-0.40,1721201642254
-3.88,-3.95,8.20,-0.02,-0.16,-0.15,1721201642264
-2.83,4.00,12.37,0.07,0.05,0.12,1721201642274
0.82,4.19,8.45,0.13,0.09,0.11,1721201642284
3.16,-1.54,8.68,-0.11,0.03,-0.01,1721201642294
3.00,-1.88,12.69,-0.06,0.04,-0.28,1721201642304
-0.30,4.13,14.15,0.12,-0.03,-0.43,1721201642314
-2.66,3.47,9.45,0.18,-0.01,-0.16,1721201642324
-0.53,2.55,8.66,0.07,0.14,0.05,1721201642334
3.11,-1.42,7.30,-0.03,0.02,0.01,1721201642344
1.68,2.19,9.80,-0.07,0.05,-0.21,1721201642354
0.12,3.24,12.17,-0.04,0.15,-0.41,1721201642364
-0.86,0.83,11.94,0.03,-0.02,-0.37,1721201642374
-2.96,-4.28,9.14,-0.11,-0.05,-0.20,1721201642384
-3.79,0.30,13.28,0.04,0.12,-0.01,1721201642394
-0.68,0.40,8.32,0.11,0.09,0.11,1721201642404
0.79,1.73,7.71,0.04,0.06,0.06,1721201642414
1.47,-0.30,9.32,-0.02,0.10,-0.13,1721201642424
0.15,4.80,13.35,0.08,0.04,-0.21,1721201642434
-0.46,2.12,9.21,-0.04,0.08,-0.13,1721201642444
-1.34,1.12,13.36,-0.06,0.13,-0.17,1721201642454
-0.59,-4.00,8.48,-0.13,0.04,-0.14,1721201642464
-2.09,-1.41,9.42,-0.08,-0.02,-0.01,1721201642474
0.28,1.28,9.56,-0.04,0.18,-0.04,1721201642484
0.89,1.72,7.33,0.03,-0.11,-0.08,1721201642494
0.15,4.88,9.26,-0.06,0.09,-0.18,1721201642504
2.25,-0.49,13.38,-0.20,0.15,-0.15,1721201642514
-1.90,2.69,13.32,-0.03,-0.01,-0.23,1721201642524
-1.11,-0.35,6.90,-0.10,0.15,-0.15,1721201642534
0.35,-5.96,11.98,-0.19,0.18,-0.04,1721201642544
-3.85,3.07,8.71,0.01,0.09,-0.63,1721201642554
-9.28,10.67,12.53,-0.34,-0.30,-0.38,1721201642564
-8.35,-5.66,12.72,-0.31,0.10,0.54,1721201642574
7.80,0.04,10.80,0.25,0.56,1.32,1721201642584
13.80,-4.67,-0.17,0.10,0.33,0.83,1721201642594
15.09,5.59,7.63,-0.26,0.48,-0.88,1721201642604
6.13,2.22,12.66,-0.12,-0.68,-1.67,1721201642614
0.69,-5.89,13.46,-0.18,-0.05,-2.12,1721201642624
-14.76,-5.38,17.39,-0.39,-0.32,-1.40,1721201642634
-16.54,2.20,20.63,-0.01,0.26,-0.25,1721201642644
-8.89,3.85,8.41,0.34,0.21,1.02,1721201642654
0.95,-6.91,5.15,0.26,0.52,1.16,1721201642664
9.96,2.87,6.89,0.25,0.64,0.66,1721201642674
10.98,3.28,6.94,0.06,0.11,-0.29,1721201642684
6.16,1.25,9.89,-0.10,0.11,-1.18,1721201642694
2.47,3.81,14.11,-0.02,-0.23,-1.49,1721201642704
-9.22,-2.90,8.66,0.01,-0.06,-1.23,1721201642714
-11.77,-4.38,8.77,-0.04,0.25,-0.24,1721201642724
-7.62,2.09,14.10,0.18,0.32,0.47,1721201642734
0.13,0.08,10.40,0.15,0.28,0.50,1721201642744
4.56,1.39,12.05,0.05,0.33,0.17,1721201642754
4.02,1.49,10.02,0.15,0.09,-0.28,1721201642764
2.18,-1.23,8.79,0.07,0.22,-0.61,1721201642774
-2.65,2.03,9.78,0.13,0.08,-0.58,1721201642784
-6.04,-0.55,8.42,0.14,0.11,-0.30,1721201642794
-5.03,-1.12,8.81,0.13,0.18,0.07,1721201642804
-0.39,2.04,8.38,0.27,0.24,0.19,1721201642814
2.57,-0.74,9.39,-0.03,0.25,0.07,1721201642824
0.42,6.28,15.68,0.10,0.09,-0.38,1721201642834
-2.10,-4.86,5.99,0.03,-0.01,-0.50,1721201642844
-4.71,-2.97,10.38,-0.01,0.21,-0.12,1721201642854
-2.38,4.99,15.17,0.23,0.22,0.16,1721201642864
-0.91,0.63,7.07,0.11,0.06,0.27,1721201642874
0.07,1.26,9.01,0.07,0.19,0.06,1721201642884
2.23,-0.67,12.22,0.06,0.10,-0.05,1721201642894
-0.19,0.06,11.50,0.07,-0.02,-0.06,1721201642904
-1.40,-0.01,9.87,0.13,0.05,0.00,1721201642914
-1.34,2.23,8.54,0.20,0.20,0.01,1721201642924
-2.51,4.84,7.99,0.11,0.02,0.04,1721201642934
-2.52,-0.42,9.77,0.04,-0.03,0.18,1721201642944
0.25,-2.63,11.21,0.14,0.12,0.28,1721201642954
2.11,0.95,9.21,0.09,0.08,0.16,1721201642964
-0.06,2.30,11.37,-0.06,-0.15,0.06,1721201642974
-2.29,0.21,9.40,0.12,-0.13,-0.03,1721201642984
-1.05,1.15,7.32,0.21,0.05,0.10,1721201642994
-0.61,-3.16,6.02,-0.20,0.08,0.12,1721201643004
-3.06,-0.07,17.01,-0.08,-0.13,0.13,1721201643014
-2.11,2.91,8.39,0.24,-0.09,0.16,1721201643024
0.11,-0.90,3.96,-0.11,0.04,0.23,1721201643034
0.12,0.43,16.21,-0.09,-0.02,0.20,1721201643044
1.39,0.49,14.47,0.04,-0.11,0.21,1721201643054
0.12,3.09,6.22,0.05,-0.27,0.17,1721201643064
0.44,1.25,6.55,-0.14,-0.04,0.09,1721201643074
0.79,-2.84,11.69,-0.18,-0.15,-0.01,1721201643084
-2.84,4.56,9.23,0.11,-0.24,0.02,1721201643094
-2.32,-1.36,4.91,-0.23,0.02,0.09,1721201643104
-2.35,-3.16,12.72,-0.30,-0.22,0.28,1721201643114
-1.03,0.99,13.93,-0.04,-0.06,0.34,1721201643124
3.13,2.74,13.00,0.02,-0.05,0.30,1721201643134
3.53,-1.57,4.01,-0.14,-0.35,0.24,1721201643144
2.17,-1.87,11.75,-0.31,-0.03,-0.11,1721201643154
-0.04,-1.50,13.40,-0.09,-0.24,-0.23,1721201643164
-3.41,-0.04,6.64,-0.05,-0.10,-0.17,1721201643174
-2.45,-2.31,10.13,-0.16,-0.12,0.10,1721201643184
-0.54,-0.34,10.57,-0.01,-0.13,0.22,1721201643194
0.65,2.28,7.69,-0.05,-0.10,0.10,1721201643204
1.24,2.41,12.76,-0.11,-0.07,-0.09,1721201643214
1.50,-1.38,8.19,-0.03,-0.13,-0.22,1721201643224
-0.33,0.39,10.60,-0.10,-0.03,-0.26,1721201643234
-0.32,3.37,13.71,0.01,-0.06,-0.13,1721201643244
-0.78,-1.55,5.70,-0.08,-0.10,-0.08,1721201643254
0.19,-0.96,12.21,-0.17,0.02,-0.13,1721201643264
1.87,-0.35,12.50,-0.11,-0.06,-0.25,1721201643274
0.28,1.17,11.03,-0.09,-0.08,-0.26,1721201643284
-0.59,-0.77,8.98,-0.04,0.02,-0.18,1721201643294
-1.08,1.07,6.54,-0.10,-0.08,-0.14,1721201643304
-0.46,2.10,12.26,-0.08,0.08,-0.17,1721201643314
1.48,-3.42,11.82,-0.16,0.04,-0.26,1721201643324
-0.63,2.26,14.27,0.02,-0.05,-0.19,1721201643334
-0.17,-2.07,8.32,-0.11,0.07,-0.17,1721201643344
-1.41,3.46,14.21,0.06,-0.05,-0.17,1721201643354
0.33,1.49,4.79,0.08,0.06,-0.09,1721201643364
0.91,-3.59,7.49,-0.11,0.11,-0.18,1721201643374
-0.05,0.29,12.75,-0.02,0.04,-0.24,1721201643384
-1.40,1.25,10.38,0.02,0.05,-0.23,1721201643394
-1.46,-0.23,10.52,0.06,-0.01,-0.04,1721201643404
0.86,-1.16,9.93,0.02,0.16,0.01,1721201643414
1.53,-2.86,16.64,0.02,0.10,-0.15,1721201643424
-0.24,5.33,18.22,0.27,0.02,-0.20,1721201643434
-0.95,8.02,8.17,0.31,0.02,-0.04,1721201643444
0.66,-1.52,7.83,0.03,0.24,-0.04,1721201643454
1.03,-2.81,12.83,0.01,0.08,-0.21,1721201643464
-0.45,-0.82,11.18,0.06,0.04,-0.21,1721201643474
-1.58,3.93,11.35,0.06,0.13,-0.13,1721201643484
-1.93,3.31,11.53,0.10,0.07,-0.09,1721201643494
-1.65,2.90,9.99,0.11,0.05,-0.05,1721201643504
-1.07,-0.63,9.56,0.01,0.06,-0.00,1721201643514
-0.58,2.23,10.19,0.07,0.04,0.05,1721201643524
0.86,-0.88,7.39,-0.00,0.13,0.09,1721201643534
1.69,0.16,9.68,0.01,0.01,-0.06,1721201643544
1.55,1.57,7.14,0.07,0.08,-0.16,1721201643554
0.84,0.09,4.86,-0.07,0.06,-0.16,1721201643564
0.87,-0.22,12.20,-0.18,0.18,-0.11,1721201643574
0.85,-2.38,8.31,0.05,0.06,-0.13,1721201643584
-0.12,-2.69,3.24,-0.18,0.17,-0.15,1721201643594
0.36,-2.05,10.62,-0.19,0.15,-0.17,1721201643604
0.23,-2.54,5.88,-0.07,-0.01,-0.05,1721201643614
0.72,-3.76,14.68,-0.39,0.38,-0.14,1721201643624
0.04,-3.10,24.71,-0.11,-0.01,-0.24,1721201643634
-2.92,1.46,14.26,0.19,-0.00,-0.12,1721201643644
-1.75,0.45,3.04,-0.00,0.16,0.12,1721201643654
1.43,-3.54,6.67,-0.12,0.18,0.14,1721201643664
3.51,-1.96,15.88,-0.07,0.23,-0.03,1721201643674
-0.34,4.61,11.34,0.23,-0.01,-0.38,1721201643684
-4.69,3.56,4.26,0.04,0.01,-0.35,1721201643694
-4.42,-2.76,13.17,-0.20,0.14,0.00,1721201643704
-1.60,0.05,15.39,0.20,0.01,0.26,1721201643714
0.10,-0.50,6.39,0.10,0.08,0.14,1721201643724
-0.99,2.94,10.29,0.11,-0.03,-0.12,1721201643734
-1.59,-0.20,9.86,0.11,-0.02,-0.11,1721201643744
-0.83,-2.62,12.17,0.07,0.02,0.10,1721201643754
-0.54,2.31,11.35,0.26,-0.01,0.16,1721201643764
0.35,2.78,8.33,0.23,0.09,0.08,1721201643774
0.58,-0.17,7.32,0.13,-0.04,-0.02,1721201643784
2.20,-1.73,10.71,0.07,0.07,-0.05,1721201643794
2.66,0.14,13.50,0.21,0.05,-0.11,1721201643804
0.14,-0.25,7.93,0.16,0.01,-0.21,1721201643814
-2.04,2.59,9.42,0.17,0.07,-0.24,1721201643824
-0.89,0.56,8.13,0.16,0.04,-0.05,1721201643834
1.24,-1.14,10.01,0.03,0.17,0.01,1721201643844
1.51,-0.79,11.14,0.04,0.05,-0.12,1721201643854
0.69,0.68,10.52,0.13,0.14,-0.27,1721201643864
-1.31,0.66,11.15,0.04,0.08,-0.32,1721201643874
-2.51,-0.30,11.94,0.02,0.06,-0.22,1721201643884
-2.96,-1.93,6.96,0.10,0.01,-0.07,1721201643894
-0.88,-0.81,9.16,-0.02,0.29,-0.10,1721201643904
-0.57,4.75,8.85,0.20,-0.00,-0.11,1721201643914
-0.27,1.85,4.92,0.01,0.15,-0.16,1721201643924
-0.96,2.08,13.92,-0.08,0.10,-0.21,1721201643934
-2.37,2.59,13.24,0.03,0.01,-0.24,1721201643944
-1.79,3.12,8.74,0.11,0.08,-0.04,1721201643954
0.12,-1.99,5.51,-0.02,0.10,-0.01,1721201643964
1.10,1.79,13.18,0.02,0.20,-0.22,1721201643974
0.31,3.51,9.49,0.16,-0.04,-0.42,1721201643984
-2.68,5.23,7.04,0.01,0.07,-0.33,1721201643994
-2.99,-3.87,12.35,-0.26,0.15,-0.20,1721201644004
-3.96,0.82,17.49,0.12,-0.05,0.05,1721201644014
-0.66,-0.08,4.70,0.16,0.13,0.15,1721201644024
1.18,1.32,6.90,-0.10,0.10,0.04,1721201644034
1.54,4.22,14.01,0.10,0.08,-0.13,1721201644044
0.64,-1.47,7.99,-0.04,0.08,-0.29,1721201644054
-2.53,1.88,11.24,0.06,-0.08,-0.23,1721201644064
-1.43,-0.30,10.23,0.03,0.20,-0.05,1721201644074
-1.83,-3.06,8.38,-0.04,-0.12,0.06,1721201644084
-1.85,3.58,9.52,0.14,0.03,-0.02,1721201644094
2.55,-1.60,11.63,-0.05,0.43,-0.19,1721201644104
-0.50,0.68,14.65,-0.01,-0.12,-0.22,1721201644114
-3.15,-0.27,8.23,0.02,0.02,-0.08,1721201644124
-1.14,0.50,10.98,0.01,0.22,0.06,1721201644134
1.58,3.21,10.63,0.16,0.10,0.10,1721201644144
1.82,2.32,4.87,0.07,-0.02,-0.03,1721201644154
-0.07,2.25,8.36,-0.10,0.16,-0.25,1721201644164
-1.19,-0.53,13.16,0.01,0.08,-0.23,1721201644174
-3.08,-1.77,7.90,0.08,0.03,0.02,1721201644184
-2.07,3.46,9.69,0.13,0.19,0.15,1721201644194
0.45,0.77,7.81,0.02,0.02,0.18,1721201644204
-1.36,3.11,8.56,0.00,-0.06,0.08,1721201644214
-0.52,-0.08,11.69,-0.09,-0.05,-0.04,1721201644229
1.34,-3.03,14.04,-0.05,0.09,-0.03,1721201644233
-1.45,-1.64,11.71,-0.02,-0.04,-0.10,1721201644243
-1.58,3.69,11.37,0.09,0.05,-0.09,1721201644253
0.20,2.50,8.12,0.01,0.13,0.02,1721201644263
0.91,-0.79,10.11,-0.12,0.10,0.02,1721201644273
0.67,0.44,7.63,0.00,-0.06,-0.05,1721201644283
0.56,-1.36,7.20,-0.10,0.19,-0.24,1721201644293
-0.80,1.32,17.15,-0.01,0.18,-0.26,1721201644303
-3.91,2.46,8.32,0.19,-0.08,-0.11,1721201644313
-3.53,1.54,7.73,-0.09,0.19,0.11,1721201644323
-0.73,0.51,14.58,-0.05,0.03,0.19,1721201644333
0.93,-2.45,10.85,0.01,-0.06,0.19,1721201644343
0.15,2.88,5.14,0.19,0.03,0.07,1721201644353
1.72,-0.15,9.76,-0.13,0.25,-0.14,1721201644363
-0.89,1.33,14.91,0.08,-0.30,-0.02,1721201644373
-3.11,0.68,7.91,0.02,0.07,0.20,1721201644383
-0.98,-1.78,8.66,-0.16,0.01,0.22,1721201644393
0.84,1.19,15.54,0.11,-0.01,0.14,1721201644403
0.76,-0.72,2.50,0.14,-0.09,0.10,1721201644413
-0.77,1.06,8.36,-0.16,0.08,-0.10,1721201644423
-1.38,2.10,17.40,-0.01,-0.11,-0.12,1721201644433
-2.96,-1.93,7.51,-0.02,-0.20,0.12,1721201644443
-0.98,-2.15,15.12,-0.15,0.16,0.21,1721201644453
1.19,3.11,11.96,0.17,-0.16,0.19,1721201644463
0.14,0.95,5.55,-0.08,-0.03,-0.03,1721201644473
-0.37,3.38,10.79,0.01,-0.14,-0.00,1721201644483
0.74,-3.92,8.53,-0.15,-0.01,0.15,1721201644493
-0.68,2.16,15.26,0.03,-0.18,0.23,1721201644503
0.29,2.57,4.99,0.22,-0.19,0.25,1721201644513
1.75,1.49,8.15,-0.19,0.07,0.11,1721201644523
0.86,2.00,17.06,-0.05,-0.25,-0.01,1721201644533
-0.56,-3.23,7.56,0.05,-0.19,0.04,1721201644543
-1.73,0.06,7.67,-0.11,0.02,-0.03,1721201644553
-1.50,2.74,12.92,0.06,-0.21,0.04,1721201644563
-0.90,0.76,6.81,0.02,-0.15,0.28,1721201644573
1.17,2.63,10.47,-0.03,-0.04,0.19,1721201644583
2.66,-0.26,11.83,-0.01,-0.16,0.06,1721201644593
2.13,-0.48,11.91,-0.11,-0.04,-0.14,1721201644603
-1.50,-1.07,9.16,-0.10,-0.34,-0.27,1721201644613
-4.62,4.59,12.78,0.04,-0.09,-0.18,1721201644623
-1.77,-1.40,9.50,0.06,-0.01,0.17,1721201644633
-0.13,-1.65,9.65,-0.11,-0.16,0.26,1721201644643
1.17,1.06,9.32,0.03,-0.23,0.12,1721201644653
3.60,3.84,12.58,0.14,0.08,-0.16,1721201644663
2.58,2.01,9.45,0.08,-0.20,-0.20,1721201644673
-2.80,3.77,6.24,0.04,-0.27,-0.20,1721201644683
-1.50,-0.51,8.97,-0.13,-0.04,-0.17,1721201644693
-0.86,-2.75,13.23,-0.07,-0.17,-0.01,1721201644703
-0.21,0.12,13.52,0.13,-0.04,-0.01,1721201644713
0.49,-1.81,6.07,0.10,-0.16,-0.09,1721201644723
-1.78,3.19,7.28,0.09,-0.22,-0.07,1721201644733
1.47,4.39,13.36,0.09,0.06,-0.09,1721201644743
2.55,9.50,17.29,0.17,-0.02,-0.24,1721201644753
-1.79,3.84,3.60,-0.05,-0.33,-0.38,1721201644763
-4.07,-10.43,6.31,-0.42,0.02,-0.28,1721201644773
-2.21,-7.03,18.93,0.06,-0.03,0.00,1721201644783
-0.15,1.08,5.56,0.31,-0.20,0.20,1721201644793
0.81,5.59,8.20,0.04,0.00,0.07,1721201644803
3.81,4.54,13.81,0.11,-0.14,-0.12,1721201644813
4.33,-0.99,8.45,-0.03,-0.07,-0.29,1721201644823
0.86,-3.16,10.20,-0.15,-0.03,-0.66,1721201644833
-4.24,0.95,10.81,0.13,-0.22,-0.69,1721201644843
-7.25,0.80,7.88,0.07,-0.05,-0.23,1721201644853
-5.01,-0.65,9.24,0.01,-0.07,0.32,1721201644863
1.62,-3.71,13.15,-0.11,0.12,0.36,1721201644873
6.25,3.33,16.58,0.16,-0.01,0.08,1721201644883
5.57,3.53,4.98,0.12,-0.07,-0.42,1721201644893
0.91,1.76,6.99,-0.07,-0.01,-0.71,1721201644903
-3.70,-1.03,5.97,0.04,-0.17,-0.53,1721201644913
-4.87,-2.68,4.11,-0.17,0.09,-0.13,1721201644923
-1.87,-0.81,17.30,-0.24,0.12,0.06,1721201644933
1.86,-2.32,25.31,-0.13,-0.02,0.06,1721201644943
2.95,5.88,20.65,0.42,0.01,-0.16,1721201644953
1.98,-0.09,-4.89,0.21,-0.12,-0.34,1721201644963
-2.32,4.16,4.86,-0.31,0.18,-0.58,1721201644973
0.17,-0.33,12.31,-0.04,0.00,-0.51,1721201644983
-3.92,-0.32,7.67,0.16,-0.04,-0.17,1721201644993
-3.43,0.84,6.54,-0.06,0.08,0.14,1721201645003
1.73,-2.08,12.31,-0.11,0.09,0.23,1721201645013
4.41,2.60,13.60,-0.05,0.02,-0.07,1721201645023
3.33,0.18,8.24,0.02,-0.09,-0.43,1721201645033
-2.51,0.46,3.76,-0.04,-0.06,-0.52,1721201645043
-3.28,2.79,13.06,-0.11,0.23,-0.42,1721201645053
-1.27,-4.04,13.35,-0.10,0.00,-0.05,1721201645063
-2.13,-1.59,12.76,-0.15,0.03,0.04,1721201645073
-0.08,5.81,12.45,0.13,0.06,-0.09,1721201645083
1.93,0.35,1.42,0.11,0.02,-0.17,1721201645093
1.53,-0.68,8.54,-0.29,0.19,-0.33,1721201645103
-0.40,1.60,18.04,-0.20,-0.01,-0.45,1721201645113
-4.60,0.54,13.52,0.00,-0.10,-0.35,1721201645123
-3.28,-0.61,7.34,0.06,0.18,0.04,1721201645133
0.77,3.98,8.97,0.03,0.14,0.17,1721201645143
2.94,-0.97,9.76,-0.20,0.01,-0.01,1721201645153
1.37,0.38,13.76,-0.03,-0.01,-0.31,1721201645163
0.14,-0.47,4.37,0.02,0.03,-0.39,1721201645173
-2.53,2.22,14.51,-0.13,0.20,-0.28,1721201645183
-1.82,4.35,14.29,0.15,-0.05,-0.06,1721201645193
0.87,-2.01,8.18,-0.09,0.18,-0.05,1721201645203
-0.33,-4.49,8.02,-0.22,-0.06,-0.29,1721201645213
-3.30,10.08,13.92,0.29,0.08,-0.36,1721201645223
-0.17,-5.29,10.22,-0.20,0.26,-0.25,1721201645233
-3.50,1.50,16.66,0.06,-0.27,0.09,1721201645243
-0.89,4.59,2.52,0.27,0.19,-0.00,1721201645253
3.59,-6.83,6.49,-0.45,0.18,-0.10,1721201645263
-0.54,4.67,19.92,0.10,-0.23,-0.43,1721201645273
-1.41,-4.56,3.52,0.13,0.03,-0.21,1721201645283
-3.20,0.00,8.78,-0.16,0.28,-0.18,1721201645293
-0.96,0.92,17.08,-0.03,0.03,-0.19,1721201645303
0.65,3.62,11.38,0.21,0.03,0.03,1721201645313
1.35,2.66,5.30,-0.01,0.27,-0.16,1721201645323
0.81,-0.30,11.50,-0.11,0.05,-0.41,1721201645333
-1.27,1.02,11.66,0.09,-0.04,-0.32,1721201645343
-2.25,-4.43,7.13,-0.09,0.14,-0.08,1721201645353
-3.49,1.70,12.83,-0.03,0.03,0.00,1721201645363
-0.33,7.34,12.12,0.28,0.12,-0.04,1721201645373
3.50,-1.96,6.65,-0.04,0.14,0.02,1721201645383
1.71,1.32,11.72,-0.06,0.08,-0.20,1721201645393
1.75,1.96,10.58,0.15,0.18,-0.42,1721201645403
-2.36,-2.90,7.20,-0.05,0.00,-0.35,1721201645413
-4.85,6.55,11.79,0.35,-0.02,-0.05,1721201645423
0.44,-1.74,7.24,0.10,0.30,0.12,1721201645433
1.57,5.32,17.08,-0.01,0.12,0.04,1721201645443
1.41,3.86,9.11,0.19,-0.04,-0.32,1721201645453
-1.30,0.46,3.32,0.11,0.15,-0.42,1721201645463
-2.43,-5.65,7.69,-0.07,0.11,-0.31,1721201645473
-3.85,-0.07,15.20,0.19,0.02,0.06,1721201645483
-0.72,5.09,15.36,0.31,0.28,0.12,1721201645493
1.59,5.09,9.13,0.18,0.02,0.03,1721201645503
1.81,3.03,4.63,0.11,0.09,-0.14,1721201645513
1.32,-6.96,6.31,-0.13,0.15,-0.38,1721201645523
-2.57,2.78,15.74,0.28,0.00,-0.45,1721201645533
-3.28,-2.15,1.40,0.18,0.10,-0.11,1721201645543
-3.79,4.05,9.59,0.04,0.17,0.15,1721201645553
1.90,1.92,12.59,0.14,0.21,0.07,1721201645563
3.35,-3.76,7.62,0.01,0.08,-0.15,1721201645573
0.54,1.15,11.58,0.04,0.25,-0.42,1721201645583
-1.34,-0.42,8.50,0.10,0.11,-0.40,1721201645593
-4.47,4.59,12.61,0.04,0.03,-0.25,1721201645603
-3.96,-1.35,5.50,-0.00,0.01,0.24,1721201645613
1.80,-3.74,14.54,-0.10,0.37,0.27,1721201645623
5.66,-3.00,14.28,0.11,0.15,-0.10,1721201645633
1.45,1.82,7.84,0.13,0.11,-0.46,1721201645643
-2.92,6.17,7.15,0.16,0.10,-0.41,1721201645653
-2.65,-2.22,7.09,-0.08,0.18,-0.15,1721201645663
-2.11,-3.92,12.41,-0.16,0.06,0.09,1721201645673
-0.41,3.59,14.51,0.19,0.23,0.12,1721201645683
2.21,2.93,5.84,0.12,0.21,-0.10,1721201645693
0.68,1.59,6.40,-0.09,0.09,-0.27,1721201645703
-0.48,-1.16,14.65,-0.06,0.28,-0.34,1721201645713
-1.66,-3.23,11.64,0.01,0.07,-0.13,1721201645723
-2.84,5.18,10.29,0.14,0.18,0.06,1721201645733
0.41,0.74,6.72,-0.00,0.20,0.07,1721201645743
-0.45,4.02,12.07,-0.01,0.07,-0.13,1721201645753
-0.79,-1.69,6.85,-0.03,0.03,-0.14,1721201645763
-2.45,-3.25,10.73,-0.17,0.25,-0.12,1721201645773
-1.70,-0.31,13.99,0.03,0.12,-0.02,1721201645783
-1.24,1.83,7.22,0.14,0.09,0.07,1721201645793
1.16,0.69,9.25,-0.03,0.25,0.08,1721201645803
2.20,-0.29,14.68,0.03,0.17,-0.08,1721201645813
-0.46,2.50,10.24,0.06,-0.01,-0.18,1721201645823
-2.11,3.89,10.83,0.01,0.18,-0.15,1721201645833
-2.51,1.24,5.55,0.13,-0.04,-0.04,1721201645843
-2.29,-3.28,2.43,-0.15,0.18,0.11,1721201645853
0.38,-0.91,12.92,-0.12,0.18,0.17,1721201645863
1.19,-3.40,17.51,-0.15,0.12,0.02,1721201645873
-1.41,6.06,16.56,0.31,-0.08,0.02,1721201645883
0.91,1.14,2.11,0.15,0.21,0.01,1721201645893
0.54,1.55,7.54,-0.16,0.07,0.01,1721201645903
-0.87,-0.03,8.80,-0.10,-0.01,-0.06,1721201645913
-1.26,-2.05,12.31,-0.10,0.16,-0.07,1721201645923
-1.81,-0.73,10.92,0.06,-0.08,0.02,1721201645933
-0.72,1.32,11.44,-0.01,0.18,0.06,1721201645943
0.99,2.61,15.63,0.09,0.14,-0.03,1721201645953
-0.09,1.28,7.52,0.05,-0.03,-0.12,1721201645963
-3.12,-1.33,6.33,-0.15,0.03,-0.10,1721201645973
-3.06,1.49,11.67,0.05,0.04,0.11,1721201645983
0.56,0.91,13.08,0.04,0.21,0.26,1721201645993
1.14,1.47,6.87,-0.07,-0.16,0.19,1721201646003
0.86,0.03,11.93,-0.12,0.09,-0.05,1721201646013
0.98,-2.28,10.71,0.02,-0.05,-0.13,1721201646023
-1.22,1.36,11.05,-0.03,0.11,-0.08,1721201646033
-1.82,0.60,10.23,0.04,-0.05,0.00,1721201646043
-1.68,1.07,12.87,-0.03,0.10,0.08,1721201646053
-0.73,2.84,8.83,0.09,-0.09,0.15,1721201646063
0.40,1.12,7.71,-0.10,0.10,0.12,1721201646073
0.82,-1.16,8.65,-0.01,-0.12,0.12,1721201646083
1.05,0.63,10.99,-0.05,0.10,-0.02,1721201646093
0.11,2.42,11.06,0.03,-0.08,-0.05,1721201646103
-1.28,2.04,9.53,-0.02,0.03,-0.01,1721201646113
0.02,-1.71,12.40,-0.10,0.06,0.10,1721201646123
-1.15,2.30,12.83,0.10,-0.14,0.07,1721201646133
0.18,3.32,9.79,0.01,0.13,0.03,1721201646143
0.11,-0.63,10.88,-0.06,-0.10,0.03,1721201646153
-1.12,-0.77,10.51,0.02,-0.07,-0.02,1721201646163
-0.67,-3.99,6.33,-0.04,-0.01,0.02,1721201646173
-0.89,1.72,14.07,0.09,-0.03,0.07,1721201646183
0.68,3.46,8.61,0.20,-0.03,0.07,1721201646193
1.36,6.64,9.15,0.09,0.09,-0.02,1721201646203
0.94,0.16,10.38,-0.09,-0.10,-0.11,1721201646213
-2.04,-1.10,13.57,-0.04,-0.08,-0.08,1721201646223
-1.58,-4.20,4.22,-0.04,-0.07,0.09,1721201646238
-0.78,0.36,7.81,-0.13,0.08,0.11,1721201646242
0.09,2.09,13.34,0.05,-0.20,0.15,1721201646252
0.74,1.94,11.09,0.06,0.05,0.03,1721201646262
0.55,2.42,7.93,0.09,-0.04,-0.05,1721201646272
0.31,1.81,9.13,-0.10,0.04,-0.12,1721201646282
0.25,-3.22,10.69,-0.13,-0.08,-0.02,1721201646292
-1.49,-1.20,10.74,0.02,-0.16,0.05,1721201646302
-0.13,0.36,9.07,-0.03,0.04,0.07,1721201646312
1.09,3.85,12.99,0.05,0.04,0.00,1721201646322
2.68,-2.33,10.56,-0.10,-0.01,-0.09,1721201646332
-0.53,1.39,14.79,-0.00,-0.05,-0.28,1721201646342
-2.06,0.35,7.73,0.22,-0.08,-0.20,1721201646352
-2.57,1.10,3.37,-0.05,0.06,0.03,1721201646362
-1.51,5.68,10.37,-0.07,-0.03,0.16,1721201646372
2.13,-1.02,9.00,-0.07,0.02,0.11,1721201646382
2.87,-5.15,10.51,-0.19,0.04,-0.01,1721201646392
1.11,0.33,15.55,-0.07,0.03,-0.25,1721201646402
-1.08,1.87,10.99,0.15,-0.08,-0.28,1721201646412
-2.17,2.02,9.77,-0.02,0.10,-0.11,1721201646422
-1.45,-0.23,5.40,-0.01,-0.18,0.09,1721201646432
-0.09,1.01,10.96,-0.11,0.25,-0.04,1721201646442
2.38,1.12,14.24,0.07,0.06,-0.18,1721201646452
-0.57,-1.30,7.44,-0.10,-0.08,-0.23,1721201646462
-3.22,5.80,12.55,0.12,0.04,-0.18,1721201646472
-0.63,-0.17,7.56,-0.01,0.12,-0.02,1721201646482
-0.24,-2.21,9.98,-0.20,-0.14,0.14,1721201646492
-1.17,0.61,12.29,0.02,-0.01,-0.07,1721201646502
1.26,0.04,13.27,0.04,0.21,-0.25,1721201646512
-0.43,1.51,10.41,0.16,-0.10,-0.13,1721201646522
-2.34,1.87,4.84,-0.02,0.06,-0.06,1721201646532
-0.33,3.12,16.81,0.04,0.21,-0.08,1721201646542
0.30,-0.77,6.79,0.13,-0.15,-0.03,1721201646552
-0.30,-1.41,8.91,-0.14,0.18,-0.05,1721201646562
0.04,1.77,13.53,0.17,-0.05,-0.14,1721201646572
-0.83,2.94,6.24,0.09,0.03,-0.14,1721201646582
-0.95,1.81,9.59,-0.02,0.11,-0.09,1721201646592
-0.81,0.67,12.94,0.08,0.04,-0.09,1721201646602
-0.36,1.32,6.94,0.14,-0.04,-0.03,1721201646612
-0.18,-0.93,7.16,-0.17,0.11,-0.11,1721201646622
-0.64,-1.04,12.80,0.07,-0.07,-0.09,1721201646632
-1.23,-2.01,8.98,-0.02,0.12,-0.13,1721201646642
-0.34,4.33,15.91,0.19,0.11,-0.10,1721201646652
-0.01,0.29,4.94,0.06,-0.01,-0.09,1721201646662
-0.69,2.33,12.60,-0.06,0.19,-0.13,1721201646672
0.79,-1.41,11.55,0.13,0.06,-0.20,1721201646682
-1.91,-0.72,5.55,0.04,-0.07,-0.05,1721201646692
-2.36,3.04,12.56,0.00,0.17,-0.05,1721201646702
0.16,1.76,8.88,0.22,0.02,0.06,1721201646712
1.41,-0.78,6.24,-0.15,0.05,0.01,1721201646722
1.11,2.10,13.91,0.03,-0.01,-0.15,1721201646732
-0.01,0.01,8.36,0.07,0.06,-0.27,1721201646742
-1.76,0.77,12.20,-0.02,0.18,-0.15,1721201646752
-1.86,-4.13,8.03,-0.05,0.01,0.03,1721201646762
-1.39,2.43,12.84,-0.01,0.08,0.02,1721201646772
1.30,1.60,12.23,0.07,0.09,-0.08,1721201646782
-0.36,0.75,6.84,0.00,0.03,-0.14,1721201646792
0.46,0.16,10.68,-0.07,0.24,-0.18,1721201646802
-0.78,-0.96,10.29,-0.00,-0.07,-0.08,1721201646812
-3.08,1.68,7.46,-0.08,-0.01,-0.06,1721201646822
-1.09,0.33,8.74,-0.03,0.17,0.01,1721201646832
2.46,1.15,14.38,-0.04,0.33,-0.08,1721201646842
1.89,0.07,10.78,-0.04,-0.08,-0.09,1721201646852
-1.92,-0.82,8.20,-0.17,0.00,-0.16,1721201646862
-1.42,1.19,10.15,0.04,0.18,-0.09,1721201646872
0.95,-2.47,10.23,-0.17,0.28,-0.15,1721201646882
-0.55,2.29,16.34,-0.03,-0.08,-0.10,1721201646892
-1.79,1.32,7.84,0.06,0.05,-0.11,1721201646902
-0.95,1.96,6.73,-0.03,0.15,-0.09,1721201646912
0.91,-1.27,13.52,-0.14,0.28,-0.11,1721201646922
-1.12,0.20,12.27,0.01,-0.01,-0.16,1721201646932
-2.60,0.83,10.50,-0.02,0.08,-0.13,1721201646942
-1.85,1.20,8.50,0.05,0.06,0.10,1721201646952
1.27,-0.53,9.94,-0.02,0.20,0.11,1721201646962
2.38,1.14,10.69,0.00,0.08,-0.07,1721201646972
-0.71,0.99,7.95,-0.09,0.00,-0.33,1721201646982
-2.08,6.47,15.90,0.12,0.16,-0.26,1721201646992
-1.04,-2.97,4.11,0.05,0.05,-0.04,1721201647002
-2.25,-1.28,11.26,-0.24,0.14,-0.03,1721201647012
-0.83,0.87,13.66,0.14,0.01,0.01,1721201647022
0.00,0.89,9.40,0.03,0.26,-0.09,1721201647032
-0.43,3.46,12.09,0.07,0.01,-0.10,1721201647042
-1.36,-0.14,8.50,0.03,0.10,-0.04,1721201647052
-1.07,0.54,10.07,-0.06,0.10,-0.01,1721201647062
-1.44,1.88,8.28,0.10,-0.03,0.01,1721201647072
0.40,0.35,8.91,-0.08,0.26,0.00,1721201647082
0.74,0.71,12.40,0.03,-0.00,0.06,1721201647092
0.57,1.57,12.73,-0.04,0.18,-0.06,1721201647102
0.35,-1.89,11.34,-0.05,0.01,-0.18,1721201647112
-2.97,3.24,7.90,0.18,0.02,-0.12,1721201647122
-0.91,-2.30,6.79,-0.16,0.31,-0.04,1721201647132
-1.58,3.15,16.11,0.09,-0.12,0.12,1721201647142
-1.29,2.02,6.15,0.06,0.07,0.14,1721201647152
1.31,0.64,11.20,-0.11,0.14,0.01,1721201647162
1.03,0.93,11.10,0.08,-0.02,-0.03,1721201647172
-0.03,-1.96,8.58,-0.10,0.22,-0.10,1721201647182
-2.41,0.48,11.19,0.04,-0.16,-0.04,1721201647192
-3.09,0.92,10.30,-0.05,0.22,0.11,1721201647202
-0.36,1.15,11.78,0.09,0.01,0.23,1721201647212
2.28,2.44,9.49,0.02,0.19,0.11,1721201647222
2.36,-0.66,9.61,-0.03,0.01,-0.11,1721201647232
-2.33,-0.46,7.22,-0.08,-0.11,-0.15,1721201647242
-2.73,4.14,11.76,-0.01,0.16,-0.04,1721201647252
-0.38,-2.29,11.84,-0.02,0.11,0.17,1721201647262
-1.11,0.28,9.20,-0.01,0.01,0.18,1721201647272
0.44,-1.54,8.73,-0.15,0.08,0.03,1721201647282
-0.15,2.53,15.91,0.06,0.06,-0.11,1721201647292
-0.50,1.14,9.99,0.08,0.02,0.06,1721201647302
-1.25,1.35,10.13,0.03,0.02,0.17,1721201647312
0.04,1.50,10.13,-0.03,0.05,0.15,1721201647322
-0.14,-0.08,7.01,-0.00,-0.09,0.05,1721201647332
0.51,-1.12,11.62,-0.09,0.15,-0.04,1721201647342
-0.45,-1.19,10.24,0.11,-0.05,0.04,1721201647352
-2.04,3.38,7.34,0.03,0.01,0.17,1721201647362
0.32,2.17,14.96,-0.03,0.17,0.15,1721201647372
0.31,-0.28,11.25,0.02,-0.16,0.09,1721201647382
-0.10,4.85,10.04,0.15,0.02,0.03,1721201647392
1.07,-3.66,4.11,-0.10,0.01,0.03,1721201647402
-2.37,1.17,12.62,-0.10,-0.05,-0.03,1721201647412
-2.29,-1.36,11.69,0.02,-0.01,-0.00,1721201647422
-1.26,2.02,11.52,0.14,0.01,0.26,1721201647432
1.30,3.01,9.86,0.05,0.05,0.24,1721201647442
1.90,2.26,7.13,0.03,-0.11,0.11,1721201647452
0.86,-1.49,9.35,-0.19,0.03,-0.15,1721201647462
-1.65,-0.91,10.09,0.02,-0.20,-0.10,1721201647472
-2.70,-0.74,6.57,-0.06,0.01,0.12,1721201647482
-0.22,1.92,17.24,-0.05,0.20,0.23,1721201647492
2.20,1.23,11.29,0.10,-0.13,0.14,1721201647502
0.65,0.70,8.55,-0.01,-0.02,-0.06,1721201647512
0.14,-0.19,10.08,-0.06,0.01,-0.18,1721201647522
-2.04,1.92,9.82,0.02,-0.13,-0.02,1721201647532
-1.95,0.66,8.68,-0.09,-0.02,0.16,1721201647542
0.26,0.45,14.32,0.00,-0.01,0.14,1721201647552
1.31,-1.50,7.78,0.03,-0.13,0.14,1721201647562
0.91,-1.18,10.12,-0.14,0.10,-0.06,1721201647572
-0.36,4.36,13.50,0.10,-0.09,-0.27,1721201647582
-2.01,1.19,7.66,0.03,-0.09,-0.03,1721201647592
-2.39,0.06,10.55,-0.03,-0.11,0.26,1721201647602
0.36,-1.85,11.09,-0.02,0.07,0.18,1721201647612
1.79,0.36,7.23,0.07,-0.12,-0.01,1721201647622
1.50,3.14,10.12,-0.05,0.07,-0.16,1721201647632
-1.02,2.60,9.80,0.03,-0.16,-0.17,1721201647642
-2.32,-1.57,9.70,-0.04,-0.02,-0.05,1721201647652
-0.71,-2.90,13.02,-0.05,0.07,0.10,1721201647662
0.05,2.52,13.65,0.08,-0.01,0.08,1721201647672
