AccX,AccY,AccZ,GyrX,GyrY,GyrZ,Time
3.53,0.65,11.89,-0.08,-0.07,-0.30,1721199030130
1.89,-0.07,12.74,0.02,-0.13,-0.44,1721199030135
-0.29,0.25,10.22,0.06,-0.12,-0.41,1721199030145
-1.01,1.58,10.47,0.02,-0.07,-0.16,1721199030155
0.54,0.31,10.75,0.06,-0.05,-0.25,1721199030165
-0.80,1.78,9.06,0.11,-0.15,-0.50,1721199030175
-4.54,2.53,8.07,-0.03,-0.14,-0.47,1721199030185
-5.84,-0.14,11.25,-0.07,-0.11,-0.14,1721199030195
-4.11,-1.77,12.15,0.04,-0.14,0.04,1721199030205
-1.44,1.55,10.04,0.13,-0.18,0.09,1721199030215
0.91,3.17,6.71,-0.01,-0.16,0.06,1721199030225
2.38,0.66,10.82,-0.11,-0.09,-0.04,1721199030235
1.99,-0.92,12.71,0.05,-0.18,-0.21,1721199030245
1.41,1.12,11.28,0.08,-0.11,-0.17,1721199030255
2.10,1.98,8.59,0.03,-0.11,-0.09,1721199030265
2.93,0.61,9.35,-0.04,-0.02,-0.22,1721199030275
1.40,0.68,10.60,0.04,-0.11,-0.47,1721199030285
-1.84,0.79,9.96,0.01,-0.09,-0.47,1721199030295
-3.42,-0.63,12.11,0.01,-0.06,-0.20,1721199030305
-2.66,0.22,11.17,0.10,-0.08,-0.07,1721199030315
-1.66,3.11,8.03,0.05,-0.10,-0.11,1721199030325
-1.99,1.86,7.77,-0.17,-0.12,-0.14,1721199030335
-1.55,-4.84,21.30,0.03,0.03,-0.24,1721199030345
-3.09,-3.93,2.22,0.21,-0.51,0.02,1721199030355
-2.64,5.39,8.93,-0.16,0.12,0.09,1721199030365
2.49,-2.64,12.77,-0.03,-0.22,-0.14,1721199030375
0.91,-6.59,11.70,-0.00,-0.08,-0.35,1721199030385
-1.31,1.58,5.75,0.21,-0.35,-0.18,1721199030395
-3.80,1.11,10.04,-0.16,-0.11,-0.12,1721199030405
-6.50,-1.86,10.44,0.16,-0.51,0.11,1721199030415
5.90,2.19,4.23,0.06,0.12,0.56,1721199030425
7.99,6.01,8.57,-0.16,-0.21,0.24,1721199030435
0.89,4.15,16.91,-0.09,-0.10,-0.40,1721199030445
-2.32,-4.72,6.98,0.07,-0.54,-0.43,1721199030455
-0.23,-1.36,4.99,0.18,0.33,0.10,1721199030465
8.65,-1.12,3.89,-0.25,-0.41,0.34,1721199030475
7.44,-0.93,26.13,-0.13,0.43,-0.35,1721199030485
0.71,-0.07,16.53,0.38,-0.58,-0.82,1721199030495
-9.04,5.24,0.41,-0.04,-0.05,-0.68,1721199030505
-8.91,-1.63,5.49,-0.23,-0.29,0.02,1721199030515
-7.43,-6.62,8.53,-0.09,-0.24,0.49,1721199030525
2.61,-1.22,11.37,0.20,0.04,0.53,1721199030535
5.31,1.14,8.31,0.04,-0.31,0.22,1721199030545
3.11,-2.77,12.86,-0.11,-0.07,-0.24,1721199030555
2.17,-3.87,19.13,-0.03,-0.19,-0.26,1721199030565
0.07,0.09,12.16,0.10,-0.22,0.06,1721199030575
2.76,-0.26,6.52,-0.03,0.02,-0.07,1721199030585
0.06,-3.05,4.38,-0.02,-0.32,-0.44,1721199030595
-3.28,-3.74,8.39,-0.05,-0.07,-0.39,1721199030605
-4.39,0.96,15.24,0.09,-0.19,0.04,1721199030615
-3.21,-0.38,10.60,0.00,-0.16,0.06,1721199030625
-3.45,-0.61,12.63,0.05,-0.25,-0.20,1721199030635
-5.05,-2.21,8.00,-0.01,-0.37,0.03,1721199030645
-3.29,-1.32,7.52,-0.06,-0.27,0.45,1721199030655
3.66,-4.08,9.86,-0.07,-0.13,0.35,1721199030665
4.07,-1.20,14.39,0.15,-0.33,-0.07,1721199030675
1.94,0.07,7.30,0.05,-0.36,-0.22,1721199030685
-0.21,-1.20,12.47,-0.10,-0.18,-0.10,1721199030695
-0.19,-2.63,12.53,0.01,-0.34,-0.01,1721199030705
0.55,-0.26,10.36,0.04,-0.27,0.01,1721199030715
1.80,-1.01,6.88,0.02,-0.22,-0.11,1721199030725
-0.16,-0.12,9.25,0.04,-0.20,-0.40,1721199030735
-4.84,-1.17,6.54,-0.02,-0.41,-0.38,1721199030745
-6.77,-2.25,13.04,-0.04,-0.29,0.11,1721199030755
-4.19,-2.82,12.91,0.13,-0.40,0.59,1721199030765
5.16,-1.54,10.03,0.09,-0.16,0.41,1721199030775
5.43,0.54,9.49,0.02,-0.49,-0.18,1721199030785
1.15,-4.11,13.80,0.03,-0.34,-0.30,1721199030795
2.00,-0.26,6.66,0.10,-0.17,0.06,1721199030805
6.72,-1.12,11.54,0.04,-0.06,0.16,1721199030815
5.29,-1.79,8.32,0.07,-0.41,-0.19,1721199030825
0.12,-4.22,15.72,0.01,-0.17,-0.31,1721199030835
3.83,-2.52,20.25,0.10,0.02,-0.09,1721199030845
4.02,-3.57,9.02,0.10,-0.33,-0.14,1721199030855
1.14,-1.37,12.26,0.15,0.12,-0.34,1721199030865
0.13,-6.97,12.06,0.15,-0.30,-0.32,1721199030875
-2.38,-9.76,10.27,0.00,-0.29,0.06,1721199030885
-1.02,-5.06,12.27,0.07,-0.29,0.21,1721199030895
1.40,-1.87,8.96,0.22,-0.15,0.11,1721199030905
0.63,2.26,-3.13,0.06,-0.37,0.01,1721199030915
-1.58,-1.30,18.74,-0.27,0.21,-0.09,1721199030925
-3.46,-3.40,20.23,0.20,0.10,-0.10,1721199030935
1.05,-3.84,12.15,0.21,0.06,-0.09,1721199030945
0.20,-4.72,5.51,0.11,-0.29,-0.03,1721199030955
2.30,-4.31,10.88,-0.04,0.20,0.01,1721199030965
2.27,-6.16,14.37,-0.02,-0.19,-0.04,1721199030975
0.11,-4.11,9.61,0.15,-0.00,-0.12,1721199030985
1.52,-5.13,11.12,-0.04,-0.03,-0.11,1721199030995
-1.19,-5.75,8.64,0.01,-0.30,0.14,1721199031005
3.27,-1.20,10.69,0.02,0.29,0.28,1721199031015
5.30,-2.21,6.61,-0.10,-0.28,0.08,1721199031025
4.40,-3.51,11.78,-0.13,0.28,-0.39,1721199031035
1.97,-2.94,20.11,0.06,-0.07,-0.47,1721199031045
-3.98,-2.60,2.97,0.08,-0.29,-0.05,1721199031055
-0.55,-2.50,8.22,-0.17,0.32,0.22,1721199031065
3.00,-4.40,15.44,-0.07,-0.10,0.10,1721199031075
2.34,-1.17,10.24,0.09,-0.03,-0.14,1721199031085
1.60,2.32,7.95,0.02,0.06,-0.14,1721199031095
0.88,0.62,10.05,-0.12,0.10,-0.01,1721199031105
1.64,-2.08,16.07,0.01,0.07,0.02,1721199031115
0.48,1.84,8.23,0.17,-0.12,0.02,1721199031125
2.37,2.17,5.65,-0.07,0.13,0.10,1721199031135
4.30,-0.53,11.91,-0.01,0.11,-0.01,1721199031145
2.03,1.36,11.27,0.14,0.08,-0.35,1721199031155
-1.74,4.71,9.42,0.12,0.03,-0.26,1721199031165
-2.10,4.04,6.92,0.06,0.04,0.30,1721199031175
2.01,3.22,10.90,-0.03,0.19,0.47,1721199031185
6.61,2.80,15.07,0.07,0.13,0.14,1721199031195
6.43,2.30,10.81,0.07,0.02,-0.27,1721199031205
2.51,1.82,6.36,0.02,0.04,-0.28,1721199031215
1.82,-0.32,8.08,-0.11,0.19,-0.05,1721199031225
3.97,-1.52,15.23,-0.03,0.20,-0.01,1721199031235
3.22,0.21,11.30,0.13,0.04,-0.21,1721199031245
-2.80,7.15,4.49,-0.12,0.06,-0.60,1721199031255
0.19,1.32,13.07,-0.04,0.58,0.22,1721199031265
-1.39,5.17,12.94,-0.06,-0.13,0.25,1721199031275
-2.90,8.10,7.67,0.01,0.32,-0.63,1721199031285
-1.34,3.00,9.77,-0.06,0.05,-0.36,1721199031295
-5.77,1.27,6.50,-0.09,-0.02,0.04,1721199031305
-0.25,3.25,16.05,0.05,0.56,0.04,1721199031315
-3.06,3.05,9.16,0.06,-0.49,-0.06,1721199031325
-5.15,1.83,3.68,-0.02,0.08,0.07,1721199031335
0.68,5.30,15.69,-0.02,0.19,0.30,1721199031345
0.21,2.98,8.02,-0.08,-0.33,0.13,1721199031355
0.79,5.04,11.97,0.08,0.10,-0.13,1721199031365
1.46,2.22,7.94,-0.06,-0.19,-0.01,1721199031375
-0.51,3.88,8.72,0.02,-0.05,0.12,1721199031385
3.53,3.17,11.31,-0.07,0.15,0.02,1721199031395
-0.31,3.79,12.61,0.04,-0.33,-0.03,1721199031405
1.22,4.18,8.86,0.16,0.10,0.14,1721199031415
3.37,3.68,7.33,-0.07,-0.09,0.19,1721199031425
2.25,4.98,9.86,0.03,-0.09,-0.10,1721199031435
2.38,4.55,15.41,0.03,0.10,-0.15,1721199031445
-1.45,4.63,6.92,0.17,-0.37,0.03,1721199031455
1.26,2.32,5.28,-0.08,0.21,0.11,1721199031465
1.49,2.97,13.73,-0.01,-0.19,0.05,1721199031475
0.73,3.25,12.03,0.10,-0.03,-0.02,1721199031485
3.16,3.05,9.55,0.11,-0.02,0.08,1721199031495
4.22,2.66,6.92,-0.05,0.01,0.04,1721199031505
3.45,1.42,14.39,-0.04,0.12,-0.23,1721199031515
1.31,2.18,11.97,0.12,-0.07,-0.19,1721199031525
2.91,3.08,8.06,-0.01,0.15,0.03,1721199031535
5.61,2.02,10.00,-0.02,0.12,-0.13,1721199031545
4.03,1.42,9.39,0.01,0.06,-0.49,1721199031555
0.71,0.82,12.05,-0.05,0.13,-0.48,1721199031565
-1.24,1.39,12.57,0.08,0.10,-0.11,1721199031575
1.04,1.53,7.83,-0.02,0.16,-0.01,1721199031585
2.18,1.61,9.66,-0.06,0.10,-0.20,1721199031595
3.15,-0.04,12.52,-0.08,0.17,-0.28,1721199031605
1.49,1.20,10.33,0.02,0.10,-0.27,1721199031615
2.87,1.75,9.95,-0.01,0.34,-0.27,1721199031625
2.71,-0.04,8.47,-0.07,0.06,-0.22,1721199031635
2.67,0.54,11.29,-0.05,0.42,-0.29,1721199031645
4.39,0.81,11.88,0.01,0.22,-0.33,1721199031655
1.92,2.68,9.32,0.10,0.26,-0.46,1721199031665
3.82,-0.17,5.63,-0.10,0.37,-0.45,1721199031675
0.69,-0.18,13.84,-0.03,0.31,-0.52,1721199031685
2.06,-1.38,10.36,0.07,0.44,-0.50,1721199031695
0.26,1.98,11.36,0.04,0.30,-0.44,1721199031705
0.38,0.52,4.45,-0.02,0.42,-0.45,1721199031715
-0.29,-0.30,13.51,-0.12,0.47,-0.51,1721199031725
-2.12,-2.39,11.68,0.06,0.17,-0.45,1721199031735
-1.93,0.27,9.87,0.05,0.44,-0.26,1721199031745
0.16,0.32,8.60,-0.03,0.28,-0.16,1721199031755
0.98,0.45,9.25,-0.02,0.39,-0.25,1721199031765
1.66,-2.59,13.61,-0.06,0.40,-0.41,1721199031775
-2.71,-0.90,10.61,0.13,0.12,-0.37,1721199031785
-1.89,-0.41,7.92,-0.00,0.50,-0.19,1721199031795
-0.40,-1.86,9.87,-0.07,0.19,-0.03,1721199031805
0.65,-2.87,11.77,-0.00,0.40,-0.19,1721199031815
0.00,-1.98,11.49,0.04,0.25,-0.34,1721199031825
-3.79,-1.68,7.38,-0.01,0.12,-0.22,1721199031835
-3.34,-2.21,9.68,-0.08,0.35,0.02,1721199031845
-2.63,-1.90,12.79,-0.01,0.11,0.10,1721199031855
-2.51,-2.40,8.86,-0.02,0.07,0.08,1721199031865
-2.83,-0.24,9.55,0.03,0.08,0.05,1721199031875
-4.49,-1.52,8.49,-0.18,-0.00,0.04,1721199031885
-7.99,-2.53,12.38,-0.07,-0.17,0.23,1721199031895
-6.20,-2.13,9.83,0.01,-0.02,0.43,1721199031905
-3.28,-0.73,10.91,-0.05,-0.10,0.64,1721199031915
-1.49,-0.83,7.49,-0.03,-0.19,0.60,1721199031925
1.90,0.89,13.35,-0.05,0.05,0.41,1721199031935
2.22,0.18,8.91,0.04,-0.34,0.32,1721199031945
2.76,0.48,9.59,-0.07,0.05,0.22,1721199031955
2.70,0.39,10.86,-0.01,-0.25,0.21,1721199031965
1.32,0.17,9.71,-0.06,-0.13,0.19,1721199031975
2.78,0.49,12.21,0.02,-0.11,0.18,1721199031985
2.58,-2.48,7.51,-0.09,-0.20,0.23,1721199031995
0.59,4.68,12.62,-0.01,0.04,0.11,1721199032005
1.42,2.38,10.58,-0.08,-0.22,0.24,1721199032015
2.45,-0.83,9.60,-0.04,-0.04,0.40,1721199032025
4.79,0.36,9.72,0.02,0.05,0.37,1721199032035
2.23,-0.96,7.84,-0.02,-0.10,0.16,1721199032045
1.62,-2.94,6.38,0.04,-0.11,0.17,1721199032055
1.30,0.08,14.56,-0.11,0.09,0.38,1721199032065
3.56,2.92,14.77,0.00,-0.03,0.46,1721199032075
4.03,2.55,7.14,0.03,-0.02,0.27,1721199032085
4.20,5.17,11.07,-0.08,0.25,-0.06,1721199032095
1.19,1.83,9.76,-0.08,-0.13,-0.01,1721199032105
0.46,0.93,9.80,0.02,0.21,0.09,1721199032115
3.30,3.17,12.41,0.03,0.09,0.09,1721199032125
3.61,2.33,12.95,-0.07,0.06,-0.20,1721199032140
2.14,2.82,13.32,0.02,0.28,-0.28,1721199032145
1.38,1.65,9.18,0.05,-0.06,-0.26,1721199032155
0.03,0.66,6.92,0.00,0.25,-0.22,1721199032165
2.07,2.21,13.64,-0.07,0.28,-0.34,1721199032175
-1.05,0.89,8.66,-0.02,-0.09,-0.40,1721199032185
-0.65,3.51,10.50,-0.04,0.36,-0.33,1721199032195
0.47,2.04,8.52,-0.07,-0.03,-0.20,1721199032205
0.10,-0.78,6.83,-0.13,0.26,-0.38,1721199032215
-2.94,0.52,11.73,-0.12,0.10,-0.67,1721199032225
-7.07,-3.31,10.89,-0.34,-0.02,-0.31,1721199032235
-1.24,0.40,13.82,-0.12,0.16,0.39,1721199032245
10.65,-0.86,5.04,-0.16,0.10,0.15,1721199032255
9.65,3.08,9.80,-0.21,0.38,-0.93,1721199032265
2.22,-0.14,12.11,-0.12,-0.04,-1.53,1721199032275
-9.43,-2.50,9.44,-0.14,0.12,-1.28,1721199032285
-8.66,-0.55,13.38,-0.11,0.21,-0.33,1721199032295
-3.08,-1.46,9.95,-0.17,0.09,0.12,1721199032305
4.70,0.91,8.39,-0.13,0.26,-0.22,1721199032315
7.00,2.69,10.60,-0.19,0.28,-0.81,1721199032325
1.66,-0.85,10.49,-0.08,0.15,-1.22,1721199032335
-2.70,0.09,11.55,-0.09,0.32,-1.06,1721199032345
-3.88,-0.65,11.93,-0.09,0.17,-0.58,1721199032355
-0.67,-1.14,9.83,0.05,0.28,-0.36,1721199032365
3.67,2.83,12.66,0.07,0.34,-0.59,1721199032375
3.48,1.71,7.68,0.21,0.13,-0.97,1721199032385
1.47,-0.03,11.38,0.14,0.45,-1.12,1721199032395
-4.87,-4.63,10.40,0.25,0.11,-1.09,1721199032405
-6.44,-2.41,10.76,0.24,0.39,-0.62,1721199032415
-2.05,-0.60,13.44,0.22,0.30,-0.26,1721199032425
2.41,0.05,8.86,0.28,0.31,-0.30,1721199032435
3.59,-1.08,8.97,0.27,0.36,-0.71,1721199032445
1.06,2.37,12.22,0.16,0.35,-1.03,1721199032455
-2.03,-0.18,10.83,0.24,0.28,-0.92,1721199032465
-4.36,-2.22,8.79,0.21,0.32,-0.60,1721199032475
-2.02,0.03,11.04,0.22,0.42,-0.42,1721199032485
-0.65,-4.65,7.33,0.21,0.20,-0.41,1721199032495
-0.15,-2.06,11.61,0.13,0.47,-0.59,1721199032505
-0.69,-2.53,11.42,0.10,0.28,-0.64,1721199032515
-3.38,-3.14,7.90,0.13,0.23,-0.55,1721199032525
-1.88,-2.67,9.62,0.07,0.45,-0.40,1721199032535
-1.44,-2.50,10.28,0.00,0.29,-0.35,1721199032545
-0.83,-5.73,7.70,0.05,0.22,-0.45,1721199032555
0.88,-4.56,12.38,0.08,0.44,-0.47,1721199032565
0.60,-2.36,10.72,0.09,0.28,-0.42,1721199032575
-0.76,-1.92,9.67,0.01,0.38,-0.43,1721199032585
-0.38,-1.33,11.39,0.00,0.40,-0.43,1721199032595
-1.68,1.87,11.10,0.07,0.32,-0.43,1721199032605
-2.26,-2.53,6.34,0.07,0.26,-0.39,1721199032615
-1.59,-0.44,10.37,0.06,0.42,-0.34,1721199032625
-1.47,0.73,10.92,0.03,0.36,-0.33,1721199032635
-2.38,-1.24,9.39,0.07,0.25,-0.35,1721199032645
-2.22,0.74,11.47,0.10,0.42,-0.35,1721199032655
-1.62,1.99,10.37,0.03,0.36,-0.32,1721199032665
-2.10,0.15,9.70,-0.00,0.28,-0.25,1721199032675
-3.14,0.81,10.03,0.06,0.35,-0.30,1721199032685
-3.63,0.95,11.66,0.03,0.31,-0.21,1721199032695
-3.31,1.43,7.87,0.08,0.16,-0.00,1721199032705
-1.94,-0.88,9.81,-0.08,0.30,0.06,1721199032715
0.16,0.03,13.79,0.12,0.20,-0.03,1721199032725
0.05,0.40,8.16,0.09,0.23,-0.12,1721199032735
-2.71,0.16,8.50,-0.03,0.18,-0.24,1721199032745
-4.11,-1.57,11.59,-0.02,0.16,-0.07,1721199032755
-2.23,-2.33,9.86,0.03,0.14,0.21,1721199032765
0.28,-1.35,9.35,0.04,0.17,0.15,1721199032775
1.39,-0.70,11.00,0.01,0.18,-0.08,1721199032785
-1.13,0.20,10.55,0.05,0.10,-0.22,1721199032795
-4.02,0.10,10.01,-0.04,0.18,-0.15,1721199032805
-5.96,-0.40,9.24,-0.03,0.03,0.06,1721199032815
-4.79,-0.21,8.09,-0.04,0.11,0.29,1721199032825
-1.60,0.47,10.58,-0.11,0.11,0.36,1721199032835
-0.65,2.47,11.12,-0.01,-0.01,0.29,1721199032845
-0.12,1.92,7.96,-0.06,0.04,0.19,1721199032855
-1.28,-1.87,10.91,-0.18,-0.05,0.21,1721199032865
-2.06,0.15,11.89,0.03,-0.02,0.32,1721199032875
0.52,-0.22,8.61,-0.15,-0.01,0.43,1721199032885
0.05,1.70,11.82,-0.10,-0.08,0.39,1721199032895
2.87,1.46,11.76,-0.10,0.08,0.33,1721199032905
1.61,2.91,9.62,-0.12,-0.11,0.23,1721199032915
1.73,2.43,10.90,-0.11,0.14,0.11,1721199032925
0.08,1.75,9.32,-0.09,-0.11,0.11,1721199032935
-1.85,-1.41,6.17,-0.16,0.03,0.13,1721199032945
-2.28,-0.98,12.90,-0.06,0.06,0.18,1721199032955
-2.73,-1.92,8.48,-0.08,-0.07,0.16,1721199032965
-3.98,1.45,12.70,-0.10,0.14,0.21,1721199032975
-2.99,-0.76,8.00,-0.10,-0.10,0.28,1721199032985
-2.48,-2.72,9.83,-0.17,0.00,0.41,1721199032995
0.38,-3.80,9.13,-0.08,-0.09,0.42,1721199033005
-0.30,-1.23,12.15,-0.12,-0.03,0.28,1721199033015
0.77,1.22,13.24,-0.04,-0.03,0.23,1721199033025
-0.00,0.64,7.43,-0.06,-0.20,0.22,1721199033035
0.45,-0.12,11.49,-0.20,0.15,0.23,1721199033045
-0.84,0.90,12.68,-0.02,-0.20,0.27,1721199033055
-0.28,-1.94,7.59,-0.01,-0.03,0.32,1721199033065
1.10,1.08,12.21,-0.07,0.11,0.17,1721199033075
0.96,-2.16,9.33,-0.12,-0.17,0.09,1721199033085
1.02,-2.39,14.13,-0.03,0.12,0.10,1721199033095
1.04,-1.38,9.31,0.11,-0.13,0.08,1721199033105
-0.12,-1.83,7.74,-0.05,0.10,0.01,1721199033115
0.76,-2.39,13.41,-0.09,0.01,-0.00,1721199033125
0.35,-0.44,11.23,0.06,0.01,0.10,1721199033135
1.47,2.34,9.60,0.05,0.17,0.14,1721199033145
-1.35,2.99,9.73,0.03,-0.08,0.04,1721199033155
-0.26,-1.20,7.53,0.24,0.04,0.10,1721199033165
-0.17,-0.73,11.87,0.08,0.11,0.17,1721199033175
0.26,1.13,14.00,0.08,0.04,0.20,1721199033185
-0.08,1.85,13.44,0.09,0.07,0.25,1721199033195
-2.32,1.84,6.45,0.10,-0.04,0.09,1721199033205
-2.53,-0.76,8.94,-0.02,0.10,0.10,1721199033215
-0.40,-2.70,13.65,0.04,-0.00,0.25,1721199033225
0.80,0.17,8.99,0.19,0.02,0.39,1721199033235
1.74,0.24,7.33,0.07,0.11,0.34,1721199033245
-1.17,-0.66,9.80,0.07,-0.09,0.15,1721199033255
-0.43,-2.50,12.08,0.13,0.10,0.18,1721199033265
-0.24,-4.88,10.84,0.06,-0.06,0.40,1721199033275
-0.69,-3.67,8.37,0.10,0.03,0.47,1721199033285
1.24,-1.45,11.43,-0.01,0.17,0.27,1721199033295
-1.03,-1.25,9.53,0.05,-0.20,0.13,1721199033305
0.31,-2.40,10.55,0.04,0.20,0.18,1721199033315
-0.59,-0.86,11.67,0.07,-0.09,0.22,1721199033325
-0.89,-2.91,9.11,0.03,0.01,0.20,1721199033335
0.03,-0.62,11.37,0.06,0.11,0.22,1721199033345
-0.51,-0.13,9.75,0.03,-0.05,0.21,1721199033355
-0.88,0.21,8.38,0.03,0.04,0.21,1721199033365
0.06,-1.22,10.73,-0.01,0.00,0.22,1721199033375
-0.27,0.86,12.32,0.07,0.01,0.21,1721199033385
-0.04,0.32,8.74,0.07,-0.06,0.21,1721199033395
-1.02,-0.27,10.78,0.02,-0.02,0.22,1721199033405
-0.82,-0.17,12.16,0.14,0.01,0.21,1721199033415
-0.35,0.03,9.23,0.05,-0.05,0.32,1721199033425
-0.82,-0.17,9.54,0.01,-0.04,0.37,1721199033435
0.38,1.30,11.45,0.06,0.06,0.28,1721199033445
0.90,1.37,8.54,0.01,-0.08,0.27,1721199033455
1.63,0.96,11.17,-0.08,0.08,0.33,1721199033465
2.04,0.42,8.71,0.00,-0.04,0.24,1721199033475
1.68,1.18,10.04,-0.10,0.07,0.16,1721199033485
1.75,0.08,10.66,-0.09,-0.02,0.19,1721199033495
1.70,-0.13,9.02,-0.07,0.06,0.13,1721199033505
2.06,-1.00,9.76,-0.20,0.12,0.04,1721199033515
-0.28,0.23,14.02,-0.12,0.01,-0.04,1721199033525
-1.07,0.39,8.37,-0.05,0.05,0.07,1721199033535
-0.61,-0.29,10.58,-0.18,0.08,0.15,1721199033545
0.37,-0.18,9.77,-0.04,-0.01,0.18,1721199033555
1.14,-0.45,9.19,-0.18,0.08,0.12,1721199033565
0.32,0.30,10.73,-0.08,-0.01,0.05,1721199033575
0.59,-2.08,7.38,-0.17,0.08,0.07,1721199033585
-0.06,-1.83,11.93,-0.24,0.04,0.11,1721199033595
0.56,1.71,9.90,-0.07,0.07,0.09,1721199033605
1.45,-1.78,8.66,-0.31,0.07,0.04,1721199033615
-0.98,-0.92,9.63,-0.15,-0.00,-0.11,1721199033625
-0.63,-0.73,9.81,-0.22,0.14,-0.09,1721199033635
-1.85,-2.71,9.39,-0.23,-0.08,0.12,1721199033645
-0.30,1.31,9.86,-0.20,0.16,0.17,1721199033655
0.96,0.12,11.91,-0.29,0.04,0.09,1721199033665
-0.86,1.53,10.44,-0.19,0.01,-0.04,1721199033675
-0.40,-1.15,11.47,-0.27,0.12,-0.05,1721199033685
-1.45,2.73,14.36,-0.16,-0.02,0.07,1721199033695
-0.15,0.85,9.41,-0.02,0.06,0.07,1721199033705
-0.82,2.37,11.00,-0.11,0.07,0.01,1721199033715
-0.91,1.38,11.06,0.08,-0.00,-0.02,1721199033725
-0.67,1.91,10.62,0.04,0.11,-0.02,1721199033735
-2.23,1.10,11.16,0.14,-0.05,-0.05,1721199033745
-1.99,-0.21,9.20,0.12,0.07,0.02,1721199033755
-2.45,0.49,12.41,0.16,0.00,0.13,1721199033765
-1.50,-0.72,9.53,0.10,0.02,0.12,1721199033775
-1.48,0.33,11.24,0.14,0.00,0.09,1721199033785
-1.05,-0.93,9.25,0.09,-0.03,0.05,1721199033795
-1.24,2.25,11.74,0.19,-0.03,0.16,1721199033805
-1.02,-1.88,8.35,0.09,-0.02,0.14,1721199033815
-2.15,1.11,12.55,0.23,-0.11,0.17,1721199033825
-0.77,-4.03,6.10,0.12,-0.08,0.21,1721199033835
-1.02,-3.00,11.16,0.08,-0.04,0.27,1721199033845
0.35,-2.30,9.27,0.27,-0.13,0.28,1721199033855
0.46,-2.22,9.97,-0.03,-0.01,0.22,1721199033865
0.18,0.68,11.47,0.10,-0.12,0.19,1721199033875
0.51,-3.30,9.35,-0.09,0.00,0.19,1721199033885
-2.34,1.53,14.20,0.05,-0.20,0.15,1721199033895
-0.42,1.30,6.70,0.04,-0.05,0.30,1721199033905
-0.67,0.58,12.41,-0.10,-0.12,0.30,1721199033915
-0.12,-0.96,7.96,0.11,-0.23,0.25,1721199033925
0.92,-1.95,10.19,-0.16,0.03,0.18,1721199033935
-1.02,1.43,13.12,0.05,-0.32,0.16,1721199033945
-0.44,1.44,8.14,0.04,0.00,0.15,1721199033955
0.49,1.95,11.20,-0.00,-0.20,0.26,1721199033965
0.81,0.99,8.49,-0.03,-0.13,0.24,1721199033975
1.81,2.99,11.34,0.06,-0.09,0.13,1721199033985
1.88,3.02,12.93,0.06,-0.14,0.05,1721199033995
-0.42,3.73,9.99,0.21,-0.19,0.01,1721199034005
-0.36,-0.07,6.52,-0.02,-0.10,0.02,1721199034015
-1.19,2.21,12.65,-0.03,-0.12,0.06,1721199034025
-0.53,1.50,9.47,0.05,-0.11,0.01,1721199034035
-1.00,2.90,10.53,0.03,-0.10,0.05,1721199034045
0.19,0.40,7.07,0.04,-0.16,0.11,1721199034055
1.25,0.76,11.33,-0.04,0.02,0.03,1721199034065
0.21,3.93,11.52,0.11,-0.18,-0.07,1721199034075
-0.86,1.38,8.91,-0.03,-0.11,-0.09,1721199034085
-2.25,-0.89,6.98,-0.00,-0.20,-0.03,1721199034095
-1.01,-2.01,9.54,-0.12,0.03,0.00,1721199034105
-0.92,-1.05,10.91,-0.09,-0.23,-0.00,1721199034115
-2.27,-4.42,6.44,-0.10,-0.20,-0.05,1721199034125
-0.04,0.45,14.15,-0.03,0.03,0.05,1721199034135
2.00,-2.18,10.41,-0.32,0.05,0.04,1721199034150
1.55,-3.26,12.66,-0.28,0.15,-0.03,1721199034154
0.13,-0.84,11.54,-0.01,-0.40,-0.08,1721199034164
-0.66,-4.16,8.41,-0.34,0.05,-0.07,1721199034174
-2.42,2.22,13.16,-0.00,-0.30,0.01,1721199034184
1.30,-4.47,4.83,-0.29,-0.03,0.03,1721199034194
-1.02,-0.59,14.82,-0.27,-0.09,-0.12,1721199034204
-0.67,0.23,9.30,-0.08,-0.17,-0.17,1721199034214
-1.95,-0.93,9.91,-0.28,-0.11,0.05,1721199034224
0.04,2.23,10.97,-0.09,-0.05,0.13,1721199034234
1.59,0.33,9.95,-0.18,-0.14,0.14,1721199034244
1.31,2.28,12.54,-0.08,-0.06,-0.10,1721199034254
1.49,1.27,10.55,0.00,-0.11,-0.13,1721199034264
-0.33,2.73,12.75,-0.09,0.01,-0.17,1721199034274
-0.84,2.24,10.81,0.09,-0.17,0.00,1721199034284
0.19,-0.69,7.69,0.01,-0.01,-0.04,1721199034294
2.02,-1.79,11.67,0.05,-0.08,-0.02,1721199034304
1.23,3.04,10.42,0.25,-0.05,-0.18,1721199034314
1.51,-3.08,9.72,0.11,-0.04,-0.16,1721199034324
-1.30,3.33,13.63,0.36,-0.03,-0.20,1721199034334
2.60,-4.84,5.81,0.06,-0.04,-0.03,1721199034344
-0.14,-0.20,14.05,0.09,0.10,-0.13,1721199034354
2.50,-0.87,7.95,0.38,-0.13,-0.14,1721199034364
0.79,-3.10,8.75,0.05,0.18,-0.14,1721199034374
1.36,1.09,15.22,0.23,0.07,-0.10,1721199034384
0.59,1.33,6.56,0.19,-0.01,-0.18,1721199034394
0.78,0.06,11.32,0.17,0.18,-0.21,1721199034404
0.54,-2.57,10.85,0.20,-0.03,-0.15,1721199034414
1.58,0.84,11.56,0.20,0.26,-0.10,1721199034424
1.49,-2.80,8.85,0.10,-0.01,-0.03,1721199034434
0.94,-0.85,10.74,0.06,0.28,-0.24,1721199034444
0.45,-0.43,11.20,0.07,0.06,-0.39,1721199034454
-0.79,0.60,11.11,0.06,0.26,-0.36,1721199034464
-1.91,-0.60,8.76,0.13,0.05,-0.27,1721199034474
-1.15,0.72,11.03,0.11,0.35,-0.23,1721199034484
-0.76,3.03,11.12,0.26,0.05,-0.12,1721199034494
-0.29,1.90,9.20,0.14,0.23,-0.10,1721199034504
0.04,0.70,9.41,0.12,0.12,-0.18,1721199034514
0.51,1.38,11.52,0.10,0.26,-0.25,1721199034524
0.65,-0.71,8.17,0.04,0.13,-0.23,1721199034534
-0.80,2.59,11.98,0.03,0.29,-0.28,1721199034544
-0.89,3.69,8.42,0.13,0.09,-0.24,1721199034554
-1.37,1.18,9.25,-0.09,0.24,-0.25,1721199034564
-2.03,1.57,12.62,0.08,0.07,-0.19,1721199034574
-2.10,-0.61,8.03,-0.00,0.14,-0.08,1721199034584
-2.00,2.12,10.84,0.05,0.10,-0.08,1721199034594
-0.03,0.06,8.77,-0.05,0.10,-0.02,1721199034604
-0.73,-0.39,8.77,-0.03,0.04,-0.01,1721199034614
0.22,-1.47,11.29,-0.19,0.21,-0.06,1721199034624
-0.27,-1.56,10.20,-0.03,-0.11,-0.01,1721199034634
1.02,0.48,8.43,-0.08,0.20,-0.04,1721199034644
0.75,-1.30,9.62,-0.08,-0.01,-0.11,1721199034654
-1.35,-2.37,9.55,-0.16,0.08,-0.15,1721199034664
-1.51,-2.57,12.11,-0.17,0.09,-0.07,1721199034674
-0.89,-2.94,9.76,-0.15,0.04,-0.02,1721199034684
-0.41,-1.30,9.33,-0.20,0.09,-0.00,1721199034694
-0.66,0.42,10.26,-0.21,0.02,0.01,1721199034704
-0.10,-0.17,9.18,-0.23,0.04,0.05,1721199034714
0.04,-1.00,9.94,-0.23,0.02,0.07,1721199034724
0.46,-1.13,11.50,-0.21,0.06,0.06,1721199034734
0.07,2.35,10.55,-0.10,-0.01,-0.02,1721199034744
-0.58,0.57,7.78,-0.17,-0.02,-0.02,1721199034754
-0.56,0.67,13.89,-0.19,0.07,0.08,1721199034764
-0.47,0.46,9.68,-0.06,-0.08,0.15,1721199034774
0.20,-1.37,10.19,-0.31,0.18,0.05,1721199034784
-1.33,3.99,14.09,0.02,-0.11,-0.01,1721199034794
-0.97,2.40,7.61,0.10,0.08,-0.07,1721199034804
-2.04,0.75,12.78,-0.01,-0.02,-0.07,1721199034814
-2.38,-0.14,9.36,0.19,-0.06,-0.02,1721199034824
-1.01,-3.12,9.17,0.06,0.03,0.10,1721199034834
-0.73,0.89,11.62,0.27,-0.10,0.15,1721199034844
1.48,-2.30,9.10,0.19,0.02,0.08,1721199034854
0.14,-0.11,13.15,0.14,-0.06,0.08,1721199034864
-0.91,-1.42,8.42,0.20,-0.06,0.00,1721199034874
-1.17,2.23,12.68,0.11,0.02,0.00,1721199034884
-1.69,-0.03,9.56,0.26,-0.22,0.10,1721199034894
-0.63,-3.88,7.32,0.06,0.02,0.10,1721199034904
0.17,-0.71,12.79,0.12,-0.08,0.01,1721199034914
-0.51,0.97,9.79,0.10,-0.12,-0.08,1721199034924
-0.76,1.75,12.79,-0.01,0.01,-0.15,1721199034934
-1.95,0.66,9.34,0.24,-0.25,-0.02,1721199034944
-0.82,-3.97,5.60,-0.04,0.00,0.05,1721199034954
-0.30,2.01,14.58,0.13,-0.11,0.14,1721199034964
0.78,1.72,6.42,0.13,-0.17,-0.02,1721199034974
0.13,2.28,10.50,0.07,-0.08,-0.14,1721199034984
0.01,-1.89,6.79,0.04,-0.22,-0.08,1721199034994
-0.68,-0.65,13.06,-0.04,-0.00,0.02,1721199035004
0.58,3.05,11.15,0.21,-0.18,0.06,1721199035014
0.99,0.48,8.35,-0.03,-0.07,-0.00,1721199035024
0.07,2.13,12.32,0.06,-0.18,-0.13,1721199035034
0.52,0.32,9.13,-0.06,-0.06,-0.19,1721199035044
-1.15,1.91,13.53,-0.01,-0.15,-0.20,1721199035054
-0.55,0.84,9.34,0.06,-0.09,-0.12,1721199035064
0.19,1.82,9.27,0.05,-0.03,-0.05,1721199035074
0.31,1.61,4.73,0.06,-0.10,-0.14,1721199035084
0.61,0.36,13.46,-0.12,0.05,-0.18,1721199035094
-1.07,1.17,9.93,0.23,-0.32,-0.12,1721199035104
0.14,-2.68,8.55,-0.21,0.17,-0.16,1721199035114
-2.37,1.72,14.19,0.04,-0.30,-0.13,1721199035124
-0.58,-3.47,5.67,-0.17,0.01,-0.16,1721199035134
-1.35,-0.24,14.08,-0.08,-0.04,-0.10,1721199035144
1.01,-3.00,8.16,-0.07,-0.10,-0.01,1721199035154
0.67,1.24,11.49,-0.03,-0.02,-0.05,1721199035164
3.02,-1.45,9.19,-0.14,-0.07,-0.08,1721199035174
-0.18,1.97,11.07,-0.13,-0.08,-0.26,1721199035184
0.51,-3.99,8.85,-0.26,-0.02,-0.40,1721199035194
-4.08,-4.38,12.34,-0.24,-0.17,-0.40,1721199035204
-2.52,-4.59,6.97,-0.12,0.03,-0.24,1721199035214
-0.61,-5.13,11.06,-0.38,-0.01,0.00,1721199035224
-0.93,-0.58,11.94,-0.17,-0.02,-0.05,1721199035234
1.31,1.89,9.81,-0.13,0.01,-0.07,1721199035244
-0.65,-1.49,10.91,-0.21,-0.09,-0.27,1721199035254
-0.67,4.09,14.16,0.01,0.06,-0.33,1721199035264
-0.11,-0.47,8.75,-0.05,-0.16,-0.15,1721199035274
-0.09,-0.45,11.41,-0.02,0.13,-0.11,1721199035284
2.96,-1.46,9.76,0.07,-0.08,0.02,1721199035294
0.48,-0.01,9.24,0.00,0.13,-0.20,1721199035304
0.34,0.07,12.35,0.04,0.03,-0.31,1721199035314
-2.65,1.32,7.06,0.27,-0.15,-0.36,1721199035324
2.13,-0.05,13.52,0.08,0.29,-0.23,1721199035334
1.10,0.55,13.01,0.23,-0.22,-0.09,1721199035344
2.87,-0.60,8.55,0.16,0.33,-0.24,1721199035354
0.16,-1.82,10.51,0.11,-0.10,-0.31,1721199035364
-1.12,-0.89,9.22,0.19,0.22,-0.38,1721199035374
0.37,-0.37,12.33,0.22,0.08,-0.30,1721199035384
0.51,-0.34,6.79,0.25,0.09,-0.13,1721199035394
2.51,0.29,11.94,0.09,0.36,-0.25,1721199035404
-0.03,0.75,12.25,0.16,0.00,-0.30,1721199035414
-0.86,0.23,6.96,0.09,0.28,-0.35,1721199035424
-0.26,0.80,11.60,0.12,0.16,-0.45,1721199035434
0.09,0.11,10.01,0.21,0.15,-0.32,1721199035444
0.29,1.02,12.30,0.18,0.29,-0.19,1721199035454
0.35,0.43,11.71,0.15,0.20,-0.28,1721199035464
-1.37,0.86,8.66,0.31,0.11,-0.40,1721199035474
0.55,-0.29,12.46,0.19,0.39,-0.39,1721199035484
-0.92,1.19,10.12,0.34,0.02,-0.17,1721199035494
1.08,-0.35,6.38,0.08,0.44,-0.21,1721199035504
0.34,1.87,8.10,0.14,0.11,-0.33,1721199035514
0.68,-1.18,8.11,-0.10,0.41,-0.43,1721199035524
-2.41,2.44,13.22,0.10,0.15,-0.45,1721199035534
-3.28,1.09,6.46,-0.03,0.30,-0.35,1721199035544
-3.45,4.39,12.52,-0.01,0.18,-0.15,1721199035554
0.32,-2.65,9.76,-0.12,0.21,-0.05,1721199035564
0.73,1.76,13.38,0.09,0.21,-0.11,1721199035574
1.37,-1.63,5.26,-0.13,0.17,-0.31,1721199035584
-2.75,2.28,12.23,-0.03,0.19,-0.45,1721199035594
-1.04,-2.41,6.91,-0.10,0.17,-0.27,1721199035604
-2.32,-0.32,12.63,-0.09,0.21,-0.03,1721199035614
0.79,-1.74,8.08,-0.09,0.18,-0.03,1721199035624
1.66,-1.26,12.86,-0.12,0.25,-0.21,1721199035634
1.17,-4.02,4.97,-0.07,0.01,-0.23,1721199035644
-1.36,-1.36,12.18,-0.16,0.41,-0.30,1721199035654
-2.88,0.11,10.51,-0.03,0.05,-0.24,1721199035664
-2.99,-1.57,11.85,-0.33,0.33,-0.05,1721199035674
-0.29,3.92,12.52,0.02,0.15,-0.03,1721199035684
2.09,-0.85,5.58,-0.20,0.19,0.02,1721199035694
0.95,1.88,12.78,-0.12,0.24,-0.09,1721199035704
-0.33,1.78,8.41,-0.01,0.12,-0.25,1721199035714
-3.08,0.31,10.88,-0.18,0.21,-0.24,1721199035724
-3.08,-0.28,8.91,-0.02,0.11,-0.15,1721199035734
-1.28,0.31,13.38,-0.13,0.30,0.03,1721199035744
-0.03,0.76,12.15,0.07,0.00,0.08,1721199035754
0.10,-0.79,7.84,-0.01,0.26,0.04,1721199035764
-0.93,-1.96,10.77,0.00,0.12,-0.05,1721199035774
-1.23,0.90,10.76,0.05,0.23,-0.09,1721199035784
-0.35,0.36,10.27,0.05,0.10,-0.03,1721199035794
-0.12,-0.75,9.86,0.04,0.22,-0.08,1721199035804
-1.54,-2.57,11.21,0.11,0.09,-0.07,1721199035814
-1.54,-0.46,10.21,0.05,0.25,-0.07,1721199035824
-1.91,3.06,12.37,0.21,0.07,0.05,1721199035834
-0.52,1.00,7.55,0.01,0.21,0.01,1721199035844
-0.18,1.12,11.31,0.16,0.10,-0.04,1721199035854
0.84,-5.32,5.89,0.00,0.12,0.01,1721199035864
-0.41,0.92,11.64,0.06,0.23,-0.09,1721199035874
-0.01,1.13,9.99,0.12,0.09,-0.05,1721199035884
-1.33,3.54,12.79,0.07,0.22,-0.14,1721199035894
-1.93,2.54,7.21,0.21,0.03,-0.06,1721199035904
-1.73,-0.56,12.27,-0.09,0.26,-0.03,1721199035914
-1.64,2.62,11.37,0.28,-0.08,0.07,1721199035924
0.57,-0.79,5.28,0.08,0.22,0.06,1721199035934
-0.33,0.02,9.76,0.19,-0.03,0.03,1721199035944
1.76,2.34,11.90,0.11,0.34,-0.03,1721199035954
-1.19,0.63,11.49,0.10,-0.13,-0.13,1721199035964
-2.79,2.17,13.39,0.13,0.23,0.01,1721199035974
-0.71,-0.63,8.73,0.09,-0.03,0.20,1721199035984
-0.41,1.48,11.60,0.09,0.15,0.12,1721199035994
1.24,-0.58,6.76,0.15,0.03,-0.02,1721199036004
-2.08,-0.22,8.80,-0.05,0.12,-0.21,1721199036014
-3.34,-0.10,12.34,0.13,0.04,-0.01,1721199036024
-2.96,-0.08,11.50,-0.02,0.11,0.29,1721199036034
-2.40,6.87,12.36,0.19,-0.02,0.37,1721199036044
0.82,-0.31,4.36,-0.12,0.04,0.22,1721199036054
-1.88,2.36,14.66,-0.01,0.01,0.04,1721199036064
-1.22,-2.34,5.46,0.04,-0.10,0.15,1721199036074
-2.55,2.38,13.13,-0.04,0.16,0.22,1721199036084
-0.69,-2.87,4.58,0.07,-0.27,0.37,1721199036094
-0.07,-0.60,10.10,-0.17,0.24,0.27,1721199036104
0.40,-1.86,12.85,-0.05,-0.24,0.19,1721199036114
-2.27,-1.08,9.91,-0.19,0.02,0.12,1721199036124
-1.54,-2.53,8.50,-0.16,-0.14,0.15,1721199036134
-0.62,-0.52,10.43,-0.15,0.01,0.29,1721199036144
-0.54,-2.74,9.50,-0.24,-0.01,0.17,1721199036159
-0.37,-3.16,10.46,-0.23,0.04,0.47,1721199036163
-2.44,0.02,8.58,-0.12,-0.26,0.32,1721199036173
-0.02,-0.64,13.85,-0.37,0.06,0.22,1721199036183
1.31,0.96,13.86,-0.03,-0.37,0.43,1721199036193
2.65,-0.48,6.70,-0.20,0.08,0.33,1721199036203
-0.79,3.26,13.94,-0.08,-0.28,0.29,1721199036213
-1.43,-0.20,6.24,-0.10,-0.11,0.22,1721199036223
1.07,-1.36,13.34,-0.16,-0.08,0.32,1721199036233
2.46,-2.83,8.19,0.09,-0.29,0.33,1721199036243
2.51,-2.02,8.67,-0.05,0.04,0.23,1721199036253
0.92,3.22,13.10,0.03,-0.12,0.08,1721199036263
-0.58,-2.96,3.24,0.02,-0.31,0.19,1721199036273
2.20,0.09,13.71,-0.09,0.24,0.18,1721199036283
1.12,-0.33,11.00,0.21,-0.52,0.23,1721199036293
2.91,-2.30,10.13,-0.14,0.33,0.15,1721199036303
-0.04,1.41,17.58,0.07,-0.30,0.05,1721199036313
-1.27,-0.78,7.12,0.06,-0.04,0.08,1721199036323
0.90,2.04,11.34,-0.00,0.05,0.15,1721199036333
2.66,-2.17,10.78,0.04,-0.12,0.22,1721199036343
2.68,3.31,11.80,0.23,0.08,0.03,1721199036353
2.07,-1.06,8.35,0.02,-0.04,-0.22,1721199036363
-2.30,4.54,11.93,0.25,-0.03,-0.29,1721199036373
-0.73,-2.27,7.30,0.09,0.04,-0.09,1721199036383
-3.32,1.58,13.64,0.18,-0.02,0.09,1721199036393
-0.01,0.27,6.40,0.17,0.00,0.16,1721199036403
0.34,2.73,13.62,0.01,0.07,0.10,1721199036413
0.92,4.87,10.62,0.22,-0.09,-0.05,1721199036423
-0.01,-0.02,9.69,-0.07,0.04,-0.13,1721199036433
-1.89,1.75,9.93,0.15,-0.13,0.03,1721199036443
-0.37,0.39,9.79,-0.09,0.14,0.04,1721199036453
-1.00,1.15,10.75,0.09,-0.24,0.07,1721199036463
1.75,-0.07,6.29,-0.11,0.15,0.04,1721199036473
1.06,0.62,12.57,-0.10,-0.15,0.01,1721199036483
0.64,3.62,11.44,0.05,0.01,-0.15,1721199036493
2.30,-2.72,6.97,-0.12,-0.13,-0.08,1721199036503
0.54,-1.08,12.81,-0.09,0.03,-0.03,1721199036513
0.51,-0.44,7.09,0.04,-0.06,-0.08,1721199036523
-0.17,-1.36,9.15,-0.21,0.08,-0.23,1721199036533
0.24,-1.06,11.64,-0.06,-0.08,-0.12,1721199036543
-0.63,-3.45,6.58,-0.19,0.06,-0.02,1721199036553
-2.06,1.62,15.08,-0.21,0.09,-0.04,1721199036563
0.46,-0.02,7.75,-0.10,-0.09,-0.12,1721199036573
1.79,-3.28,9.16,-0.24,0.10,-0.08,1721199036583
1.15,1.56,15.65,-0.10,0.11,-0.05,1721199036593
-0.61,0.95,7.44,-0.10,-0.08,-0.19,1721199036603
-1.05,1.05,12.85,-0.08,0.14,-0.22,1721199036613
1.13,2.59,11.83,-0.08,-0.01,-0.13,1721199036623
-2.55,0.96,7.44,-0.02,-0.06,-0.11,1721199036633
-0.87,-0.24,11.71,-0.06,0.20,-0.13,1721199036643
-0.77,-0.64,7.99,0.00,-0.21,-0.07,1721199036653
0.58,-3.07,10.69,-0.08,0.27,-0.06,1721199036663
-2.24,1.10,12.15,0.05,-0.10,-0.10,1721199036673
-3.11,0.41,10.66,0.01,0.13,-0.22,1721199036683
-0.24,0.11,11.68,0.15,-0.04,-0.03,1721199036693
0.86,-3.06,8.03,-0.04,0.10,0.03,1721199036703
-0.95,5.03,15.53,0.14,0.05,-0.20,1721199036713
-1.67,1.27,8.86,0.12,-0.06,-0.30,1721199036723
-2.26,1.85,10.71,0.02,0.07,-0.13,1721199036733
-1.42,0.07,9.79,0.23,-0.08,0.07,1721199036743
-0.02,0.61,11.41,0.05,0.15,0.01,1721199036753
-0.24,2.13,10.27,0.23,-0.08,-0.13,1721199036763
-0.93,-1.41,5.35,0.08,-0.04,-0.19,1721199036773
-0.26,3.39,14.36,0.20,0.06,-0.13,1721199036783
0.11,-0.84,8.58,0.15,-0.10,-0.07,1721199036793
-2.47,4.49,12.04,0.18,0.06,-0.14,1721199036803
-0.48,-0.28,4.71,0.14,-0.12,-0.10,1721199036813
-0.43,1.07,11.60,0.06,0.11,-0.01,1721199036823
1.29,-0.80,8.56,0.14,-0.07,-0.04,1721199036833
0.13,0.26,10.86,0.04,0.01,-0.13,1721199036843
-0.14,3.29,13.67,0.19,0.05,-0.18,1721199036853
-0.74,1.87,10.73,0.01,-0.02,-0.14,1721199036863
-1.15,1.88,11.18,0.12,-0.07,-0.06,1721199036873
-0.47,1.19,7.94,0.04,0.08,-0.14,1721199036883
-2.22,-0.11,11.10,-0.04,-0.10,-0.10,1721199036893
-2.09,2.23,6.56,0.14,-0.05,0.02,1721199036903
0.64,-1.84,6.85,-0.14,0.03,0.06,1721199036913
-0.41,-0.13,11.06,-0.07,-0.12,-0.04,1721199036923
0.17,-0.93,11.72,-0.14,0.08,-0.18,1721199036933
-1.16,-0.22,11.89,-0.07,-0.13,-0.04,1721199036943
-2.15,-0.47,9.20,-0.15,-0.02,0.02,1721199036953
-0.27,2.27,13.08,-0.07,0.05,-0.06,1721199036963
0.20,-4.14,4.98,-0.13,-0.23,-0.02,1721199036973
-0.46,-1.93,12.60,-0.24,0.23,0.00,1721199036983
-2.89,1.69,8.39,-0.06,-0.23,-0.12,1721199036993
-1.39,-1.00,11.50,-0.29,0.12,-0.04,1721199037003
0.61,-0.01,9.77,-0.01,-0.25,0.15,1721199037013
0.67,-0.35,8.17,-0.28,0.19,-0.01,1721199037023
-2.46,1.32,11.90,-0.09,-0.31,-0.10,1721199037033
1.42,-6.97,8.04,-0.30,0.11,0.05,1721199037043
-0.97,-1.70,11.97,-0.08,-0.15,0.05,1721199037053
-1.54,-1.56,8.92,-0.10,-0.08,-0.04,1721199037063
0.86,2.84,15.71,-0.07,0.06,-0.00,1721199037073
2.27,-3.32,7.02,-0.03,-0.25,0.09,1721199037083
0.39,2.55,11.23,0.01,0.22,-0.13,1721199037093
-0.96,3.59,11.79,0.06,-0.17,-0.23,1721199037103
0.15,-0.94,9.52,-0.08,0.08,0.03,1721199037113
0.38,3.84,12.72,0.20,-0.04,0.10,1721199037123
1.75,4.02,11.99,0.09,0.08,-0.04,1721199037133
0.72,3.81,8.64,0.14,-0.13,-0.20,1721199037143
2.28,-2.05,8.76,0.10,0.16,-0.09,1721199037153
-1.13,3.18,16.22,0.13,0.05,-0.15,1721199037163
-1.02,-1.19,9.71,0.21,-0.05,-0.03,1721199037173
0.36,5.77,11.05,0.24,0.22,-0.01,1721199037183
2.52,-0.03,6.83,0.22,-0.12,-0.04,1721199037193
2.04,2.01,9.83,0.21,0.27,-0.12,1721199037203
0.82,2.80,11.56,0.25,0.04,-0.34,1721199037213
-2.87,-3.07,6.64,0.16,-0.05,-0.32,1721199037223
-2.15,3.32,14.33,0.27,0.30,-0.10,1721199037233
0.90,0.57,6.96,0.17,-0.03,0.11,1721199037243
1.83,1.36,11.81,0.06,0.31,-0.08,1721199037253
4.20,-0.05,11.34,0.18,0.07,-0.31,1721199037263
1.96,0.63,6.11,0.05,0.14,-0.34,1721199037273
0.10,1.30,13.13,0.00,0.32,-0.48,1721199037283
-2.05,2.00,8.56,0.13,0.04,-0.43,1721199037293
-2.57,1.31,6.57,-0.04,0.26,-0.25,1721199037303
-0.69,3.34,10.36,0.00,0.25,-0.16,1721199037313
-0.97,-2.59,4.53,-0.24,0.07,-0.28,1721199037323
-0.82,-0.16,17.41,-0.15,0.38,-0.25,1721199037333
1.33,-1.70,9.22,-0.06,0.01,-0.20,1721199037343
-1.71,-0.62,7.80,-0.17,0.23,-0.27,1721199037353
0.66,0.65,11.57,-0.10,0.30,-0.32,1721199037363
-0.06,-0.70,10.50,-0.19,0.05,-0.27,1721199037373
-1.90,2.23,8.64,0.01,0.25,-0.30,1721199037383
-1.73,0.30,10.87,-0.26,0.24,-0.33,1721199037393
-2.24,0.43,10.10,-0.08,0.02,-0.18,1721199037403
0.05,-3.38,9.45,-0.22,0.32,-0.01,1721199037413
-2.11,1.51,11.13,-0.09,0.02,-0.14,1721199037423
0.62,-1.34,6.77,-0.25,0.28,-0.29,1721199037433
-1.32,-1.95,12.61,-0.13,-0.00,-0.22,1721199037443
-1.61,-0.83,10.23,-0.16,0.25,-0.18,1721199037453
-2.21,-0.09,11.18,-0.16,0.05,-0.13,1721199037463
-1.26,-5.63,8.90,-0.22,0.12,0.08,1721199037473
-1.73,0.07,11.89,-0.10,0.22,-0.05,1721199037483
0.13,0.41,12.61,-0.21,0.14,-0.05,1721199037493
-0.91,1.55,11.42,0.08,0.04,0.02,1721199037503
-0.57,1.18,9.27,-0.06,0.24,0.05,1721199037513
-1.60,0.60,13.10,-0.01,-0.02,0.06,1721199037523
0.20,-0.24,6.18,0.13,0.07,0.21,1721199037533
0.33,-1.54,10.32,-0.09,0.24,0.01,1721199037543
-1.53,0.78,12.61,0.08,-0.05,-0.04,1721199037553
-0.70,-1.32,8.74,0.07,0.17,0.01,1721199037563
-0.95,0.11,12.47,0.00,0.08,0.10,1721199037573
-1.66,2.81,10.02,0.18,0.05,0.10,1721199037583
0.18,2.37,8.71,0.05,0.13,-0.01,1721199037593
-0.52,1.19,7.33,0.18,-0.07,0.07,1721199037603
0.70,-3.30,8.51,-0.06,0.27,0.09,1721199037613
-2.71,3.03,14.58,0.11,-0.16,0.01,1721199037623
-0.69,2.59,11.24,0.07,0.17,-0.07,1721199037633
-1.59,3.36,13.26,0.24,-0.14,0.09,1721199037643
-0.68,0.88,7.50,0.14,0.09,0.18,1721199037653
0.06,2.43,12.35,0.09,-0.01,0.13,1721199037663
1.37,2.47,10.74,0.16,-0.00,0.09,1721199037673
2.11,0.68,8.10,0.13,-0.01,0.05,1721199037683
1.38,-0.61,10.05,0.04,0.03,-0.09,1721199037693
-0.31,1.92,11.56,0.17,0.02,-0.17,1721199037703
-1.70,3.30,10.32,0.16,0.07,-0.11,1721199037713
-3.27,0.83,6.42,0.16,-0.13,0.06,1721199037723
-1.96,0.58,9.86,0.00,0.17,0.13,1721199037733
-0.57,-2.40,10.71,-0.02,-0.15,0.22,1721199037743
-0.88,1.27,10.61,0.00,0.08,0.08,1721199037753
0.60,-2.59,8.24,-0.14,-0.08,0.05,1721199037763
-2.66,-0.57,9.35,-0.08,-0.04,0.14,1721199037773
-0.12,-0.31,12.62,-0.13,0.14,0.09,1721199037783
0.05,1.64,9.10,0.02,-0.24,0.15,1721199037793
0.99,0.51,7.85,-0.13,0.15,0.12,1721199037803
-1.84,-1.39,9.92,-0.17,-0.20,-0.04,1721199037813
-1.74,-6.52,9.65,-0.27,0.03,-0.03,1721199037823
-1.00,-1.70,13.80,-0.09,-0.04,0.25,1721199037833
-2.00,-2.66,8.64,-0.25,-0.10,0.11,1721199037843
0.42,0.77,14.26,-0.13,0.07,0.12,1721199037853
2.80,0.12,5.72,-0.06,-0.19,0.11,1721199037863
-1.54,1.59,9.37,-0.16,0.08,-0.08,1721199037873
0.46,-0.83,13.19,-0.12,-0.06,-0.06,1721199037883
-0.77,-3.79,8.33,-0.15,-0.11,0.13,1721199037893
-1.23,-0.05,12.94,-0.13,0.08,0.06,1721199037903
1.01,-0.54,13.44,-0.07,-0.16,0.06,1721199037913
1.97,0.71,8.29,0.04,0.03,0.03,1721199037923
0.79,-1.28,7.44,0.06,-0.02,-0.04,1721199037933
-0.94,4.25,13.68,0.04,0.16,-0.16,1721199037943
-0.92,0.19,9.25,0.07,-0.17,0.01,1721199037953
-0.81,1.25,10.28,0.08,0.15,0.16,1721199037963
1.92,-3.10,13.09,0.00,-0.03,0.18,1721199037973
0.84,4.43,11.88,0.20,0.04,0.01,1721199037983
2.13,0.04,9.36,0.20,0.01,-0.09,1721199037993
-0.24,2.34,10.31,0.28,0.08,-0.09,1721199038003
0.18,-0.30,8.28,0.20,0.07,-0.05,1721199038013
-1.31,-0.51,10.02,0.15,0.02,0.11,1721199038023
-0.48,2.10,10.11,0.17,0.12,0.07,1721199038033
0.61,3.45,12.84,0.20,0.04,0.02,1721199038043
0.75,0.42,7.72,0.17,0.02,-0.04,1721199038053
-0.20,2.24,11.29,0.18,0.13,-0.11,1721199038063
0.44,2.98,10.74,0.23,0.06,-0.07,1721199038073
0.48,-0.33,6.56,0.12,0.01,0.03,1721199038083
1.97,-2.10,9.52,-0.04,0.23,-0.06,1721199038093
0.92,1.43,11.69,0.06,0.01,-0.23,1721199038103
0.22,0.34,9.79,-0.01,0.16,-0.32,1721199038113
-1.65,0.74,10.29,0.02,0.06,-0.27,1721199038123
-1.58,0.33,9.29,-0.05,0.21,-0.15,1721199038133
-1.13,1.16,13.93,-0.07,0.09,-0.03,1721199038143
-0.27,-1.39,5.76,-0.06,0.05,-0.04,1721199038153
-0.68,1.44,9.20,-0.05,0.04,-0.17,1721199038168
-0.43,-3.81,5.09,-0.11,-0.22,-0.22,1721199038172
0.30,-2.86,12.56,-0.25,0.50,-0.21,1721199038182
-0.79,-1.35,13.37,-0.08,-0.12,-0.23,1721199038192
-2.23,1.87,7.46,-0.10,0.16,-0.20,1721199038202
0.51,0.88,11.37,-0.12,0.22,-0.18,1721199038212
-2.23,1.41,8.99,-0.09,-0.04,-0.17,1721199038222
0.04,-1.42,11.72,-0.17,0.35,-0.18,1721199038232
-2.20,-2.12,9.25,-0.04,-0.16,-0.12,1721199038242
-1.67,-0.13,9.52,-0.14,0.36,-0.10,1721199038252
-1.15,0.93,12.72,-0.14,-0.03,-0.10,1721199038262
-0.79,1.25,11.25,0.08,0.11,-0.06,1721199038272
-0.27,-1.24,6.95,-0.08,0.08,-0.07,1721199038282
-1.67,0.69,14.17,-0.04,0.14,-0.10,1721199038292
0.63,-1.47,9.22,0.08,0.01,-0.00,1721199038302
-0.71,-1.37,11.75,-0.08,0.19,-0.07,1721199038312
-1.78,-0.25,11.38,0.12,0.01,-0.16,1721199038322
-1.50,-3.16,7.90,0.02,0.07,0.08,1721199038332
-1.64,-0.01,11.11,0.11,0.14,-0.04,1721199038342
0.33,0.35,8.57,0.08,0.07,0.02,1721199038352
0.62,-0.60,9.46,0.05,0.07,0.02,1721199038362
-1.53,0.17,10.00,0.11,0.11,-0.03,1721199038372
-0.55,1.74,13.29,-0.06,0.16,-0.18,1721199038382
-1.31,0.22,10.63,0.12,-0.11,-0.01,1721199038392
-0.63,-0.55,8.93,0.08,0.25,-0.02,1721199038402
-0.89,1.33,10.12,0.13,-0.10,0.02,1721199038412
-0.88,3.44,9.52,0.16,0.23,-0.10,1721199038422
-0.04,1.00,7.38,0.10,-0.08,-0.11,1721199038432
-2.73,-1.27,10.09,0.02,0.18,-0.16,1721199038442
-1.73,0.27,14.52,0.15,0.06,0.01,1721199038452
-0.85,1.72,7.29,0.16,0.01,0.16,1721199038462
2.37,5.07,13.63,0.18,0.18,0.09,1721199038472
2.15,3.88,6.83,0.31,-0.13,-0.13,1721199038482
-0.34,-1.19,8.08,0.01,0.20,-0.31,1721199038492
-3.43,1.63,14.80,0.15,-0.03,-0.22,1721199038502
-4.18,-3.56,6.85,0.08,-0.03,0.11,1721199038512
-2.63,3.74,12.52,0.13,0.24,0.23,1721199038522
-0.83,1.63,6.83,0.08,-0.10,0.15,1721199038532
-1.78,0.72,10.26,-0.07,0.08,0.16,1721199038542
-0.13,1.95,11.35,0.09,-0.01,0.22,1721199038552
-0.14,-0.93,7.66,-0.14,-0.07,0.11,1721199038562
-2.04,-2.77,11.50,-0.12,-0.06,0.17,1721199038572
-1.65,1.90,9.58,-0.09,0.05,0.10,1721199038582
-0.77,-2.37,9.85,-0.22,-0.19,0.18,1721199038592
-1.09,-2.70,10.75,-0.18,0.07,0.24,1721199038602
-1.42,0.72,10.90,-0.11,-0.08,0.12,1721199038612
-1.16,-1.50,11.19,-0.23,-0.12,0.32,1721199038622
-2.23,0.36,10.68,-0.10,-0.15,0.33,1721199038632
1.55,-2.25,11.78,-0.20,-0.03,0.39,1721199038642
1.30,-3.58,7.90,-0.16,-0.31,0.37,1721199038652
0.97,0.76,12.17,-0.17,0.14,0.08,1721199038662
0.72,0.79,12.65,-0.08,-0.30,0.14,1721199038672
0.97,-0.07,6.80,-0.08,0.02,0.26,1721199038682
-0.28,0.59,10.89,-0.04,-0.21,0.18,1721199038692
1.54,-0.35,11.99,-0.04,0.01,0.22,1721199038702
1.38,-0.75,10.18,-0.01,-0.15,0.21,1721199038712
0.32,2.42,10.48,-0.01,0.01,0.11,1721199038722
1.50,-2.38,9.44,-0.05,-0.17,0.02,1721199038732
1.04,2.09,11.08,0.11,0.05,0.07,1721199038742
0.54,-0.06,8.25,0.08,-0.13,0.12,1721199038752
0.93,1.07,11.04,0.07,0.04,0.19,1721199038762
0.24,2.31,11.71,0.10,-0.05,-0.00,1721199038772
0.23,0.50,12.66,0.07,0.00,0.08,1721199038782
0.19,-1.01,8.99,0.09,-0.06,0.09,1721199038792
0.70,1.33,9.29,0.11,0.05,0.06,1721199038802
0.65,1.93,11.68,0.11,0.01,-0.08,1721199038812
0.57,0.43,8.92,0.18,-0.03,-0.00,1721199038822
-0.56,0.30,8.40,0.15,0.04,-0.05,1721199038832
-1.01,-0.26,9.18,0.17,-0.02,0.01,1721199038842
-1.31,2.77,11.99,0.23,0.01,-0.04,1721199038852
-0.17,1.48,10.16,0.23,-0.06,0.05,1721199038862
-0.03,0.40,9.73,0.16,0.03,0.10,1721199038872
1.76,-1.12,11.33,0.07,0.05,0.01,1721199038882
1.50,1.70,11.04,0.13,-0.02,-0.09,1721199038892
1.29,2.59,7.50,0.11,0.00,-0.13,1721199038902
-0.07,2.52,10.75,0.03,0.11,-0.20,1721199038912
-1.66,-2.32,6.28,-0.06,-0.16,-0.11,1721199038922
-0.94,0.15,13.91,-0.08,0.28,-0.09,1721199038932
-0.96,-0.28,9.62,-0.03,-0.20,-0.05,1721199038942
-0.53,2.88,10.92,-0.06,0.16,0.01,1721199038952
2.40,-0.82,6.66,-0.08,-0.04,-0.08,1721199038962
-1.34,-0.69,9.17,-0.21,0.01,-0.24,1721199038972
1.92,-2.81,15.70,-0.19,0.17,-0.09,1721199038982
-1.83,1.79,8.63,-0.10,-0.21,-0.12,1721199038992
0.07,1.22,9.35,-0.13,0.28,-0.12,1721199039002
0.49,-6.06,9.36,-0.25,-0.15,-0.07,1721199039012
-2.28,-1.06,11.84,-0.13,0.19,-0.20,1721199039022
0.71,0.20,12.23,-0.10,-0.07,-0.09,1721199039032
-1.59,1.32,10.99,-0.17,0.05,-0.13,1721199039042
0.05,2.00,9.33,-0.01,-0.01,-0.15,1721199039052
-0.11,-3.72,7.06,-0.14,-0.02,-0.01,1721199039062
-1.89,0.59,9.64,-0.02,0.06,-0.08,1721199039072
1.37,1.00,10.46,-0.08,0.12,-0.08,1721199039082
-1.98,2.30,12.52,-0.02,-0.08,-0.17,1721199039092
-1.50,-4.80,8.99,-0.01,0.03,-0.08,1721199039102
-0.88,0.07,11.88,-0.01,0.04,0.11,1721199039112
0.34,-2.83,10.15,-0.07,0.02,0.04,1721199039122
1.00,2.55,12.21,0.12,0.02,-0.10,1721199039132
0.29,-1.98,7.48,0.16,-0.03,-0.19,1721199039142
-2.03,0.54,11.03,0.02,0.10,-0.17,1721199039152
-1.37,-0.05,11.53,0.19,-0.07,0.01,1721199039162
-1.60,4.17,11.28,0.13,0.07,0.04,1721199039172
0.42,2.20,10.20,0.12,-0.02,-0.04,1721199039182
-0.48,0.13,10.32,0.06,0.01,-0.16,1721199039192
-1.86,-1.82,8.63,0.14,-0.02,-0.20,1721199039202
-2.02,1.37,8.26,0.14,0.04,-0.06,1721199039212
-1.57,2.57,9.85,0.23,-0.06,-0.04,1721199039222
-1.43,5.63,11.51,0.34,-0.05,-0.04,1721199039232
0.66,3.22,11.80,0.28,0.01,0.01,1721199039242
-0.18,0.65,7.33,0.24,-0.14,0.00,1721199039252
1.22,-1.07,11.84,0.07,0.11,-0.08,1721199039262
-0.05,2.76,12.28,0.27,-0.18,-0.16,1721199039272
-0.06,-0.09,6.75,0.19,0.08,-0.16,1721199039282
-0.65,1.20,9.00,0.13,-0.04,-0.14,1721199039292
-1.38,0.87,8.26,0.08,0.06,-0.21,1721199039302
-2.59,3.60,14.00,0.05,0.04,-0.24,1721199039312
-3.04,-1.34,5.61,0.13,-0.22,0.01,1721199039322
-1.84,-0.01,10.46,-0.05,0.19,0.12,1721199039332
1.19,-1.78,9.59,-0.03,-0.18,0.08,1721199039342
0.57,2.33,11.85,-0.09,0.07,-0.12,1721199039352
-0.24,2.91,9.79,0.02,-0.02,-0.20,1721199039362
-1.65,-1.25,8.37,-0.21,-0.04,-0.09,1721199039372
-3.19,-3.52,10.74,-0.10,-0.04,0.08,1721199039382
-0.20,-3.42,10.72,-0.24,0.04,0.15,1721199039392
0.36,-2.42,12.65,-0.23,-0.11,0.08,1721199039402
-0.47,-1.00,11.13,-0.11,-0.03,-0.05,1721199039412
0.97,0.15,10.03,-0.12,-0.03,-0.09,1721199039422
-1.71,0.20,8.42,-0.15,-0.08,-0.13,1721199039432
-1.34,-1.74,11.89,-0.22,0.09,0.04,1721199039442
-2.52,-1.06,8.62,-0.12,-0.18,0.12,1721199039452
0.09,-1.81,8.94,-0.25,0.14,0.11,1721199039462
2.37,2.28,13.81,-0.11,-0.05,0.08,1721199039472
2.11,-0.07,9.19,-0.05,-0.06,-0.11,1721199039482
1.05,-1.42,11.62,-0.16,0.03,-0.14,1721199039492
-1.21,4.18,11.26,-0.02,0.02,-0.17,1721199039502
0.17,-4.65,7.10,-0.15,-0.06,0.04,1721199039512
-0.76,0.15,11.02,0.01,0.03,-0.01,1721199039522
1.81,0.35,10.93,-0.01,0.12,-0.05,1721199039532
-0.93,2.15,15.11,-0.06,0.02,-0.07,1721199039542
-0.37,4.95,10.98,0.23,-0.00,0.05,1721199039552
1.55,2.71,8.75,0.03,0.17,-0.01,1721199039562
0.93,0.28,9.90,0.12,-0.03,-0.11,1721199039572
-1.02,2.95,12.72,0.25,0.07,-0.06,1721199039582
1.41,-0.88,8.02,0.22,0.04,0.09,1721199039592
-0.59,1.23,8.77,0.20,0.06,-0.05,1721199039602
0.74,1.37,11.20,0.27,0.10,-0.04,1721199039612
-1.28,4.90,11.39,0.32,0.02,-0.13,1721199039622
-0.53,-2.24,5.73,0.23,-0.01,0.02,1721199039632
0.28,2.12,11.43,0.16,0.21,0.18,1721199039642
3.03,0.20,11.78,0.13,0.03,-0.03,1721199039652
1.36,0.50,7.11,0.18,0.02,-0.15,1721199039662
1.81,-0.15,6.62,0.03,0.17,-0.19,1721199039672
-0.71,2.35,11.80,-0.01,0.07,-0.27,1721199039682
-2.41,-0.16,9.72,0.03,0.06,-0.23,1721199039692
-2.26,2.60,16.22,-0.06,0.21,-0.05,1721199039702
-0.48,-0.39,7.98,0.01,-0.13,0.20,1721199039712
0.53,3.25,9.33,-0.09,0.28,0.01,1721199039722
3.36,-1.55,9.36,-0.16,-0.04,-0.12,1721199039732
0.03,-3.10,7.96,-0.21,0.09,-0.32,1721199039742
-0.83,0.67,12.17,-0.08,0.15,-0.29,1721199039752
-2.19,-0.21,6.47,-0.18,-0.06,-0.03,1721199039762
-1.67,2.17,13.58,-0.21,0.28,-0.08,1721199039772
0.90,-5.31,7.03,-0.21,-0.22,-0.07,1721199039782
-0.74,-4.75,11.94,-0.27,0.28,-0.13,1721199039792
0.58,3.18,14.09,-0.04,-0.03,-0.18,1721199039802
-2.97,1.26,5.67,-0.21,-0.04,-0.26,1721199039812
-3.24,1.36,14.81,-0.15,0.14,-0.07,1721199039822
-1.02,-7.52,6.37,-0.29,-0.08,0.07,1721199039832
-1.19,-1.61,11.97,-0.29,0.11,0.14,1721199039842
2.38,2.52,11.99,-0.08,0.01,0.00,1721199039852
-0.26,-0.75,6.77,-0.20,-0.11,-0.16,1721199039862
-0.69,3.07,12.28,-0.03,0.15,-0.15,1721199039872
-1.74,-6.65,8.69,-0.30,-0.21,0.11,1721199039882
-1.91,-0.52,13.41,-0.11,0.16,0.16,1721199039892
2.22,-0.89,12.62,-0.15,-0.04,0.07,1721199039902
-0.26,3.98,9.57,-0.12,-0.03,0.04,1721199039912
1.19,1.72,10.91,0.04,0.13,-0.12,1721199039922
-1.44,0.77,11.32,-0.05,-0.24,-0.10,1721199039932
-0.23,6.78,18.04,0.18,0.23,-0.13,1721199039942
-1.24,1.05,7.55,0.14,-0.38,0.03,1721199039952
-2.47,-3.13,3.42,0.26,0.07,0.13,1721199039962
1.26,1.93,9.09,0.21,0.04,0.14,1721199039972
-1.21,3.05,12.28,0.15,-0.12,-0.14,1721199039982
-0.41,6.31,12.99,0.33,0.05,-0.23,1721199039992
-2.41,-0.84,5.84,0.13,-0.24,-0.08,1721199040002
-3.67,1.49,9.64,0.21,-0.02,0.15,1721199040012
1.14,-0.89,13.49,0.13,-0.03,0.19,1721199040022
1.09,3.01,13.18,0.28,-0.27,0.07,1721199040032
2.86,3.74,9.42,0.29,0.04,-0.13,1721199040042
-0.62,-0.56,10.22,0.10,-0.22,-0.25,1721199040052
-3.94,3.79,9.96,0.32,-0.06,-0.18,1721199040062
-2.19,0.54,8.32,0.15,-0.05,0.06,1721199040072
-3.54,0.95,7.79,0.12,-0.27,0.21,1721199040082
0.41,1.36,16.15,0.09,0.13,0.16,1721199040092
0.01,-0.17,9.90,0.14,-0.44,0.04,1721199040102
-0.95,4.68,7.98,0.18,0.01,0.05,1721199040112
-0.56,3.88,11.26,0.15,0.03,-0.39,1721199040674
-0.63,1.06,7.86,0.12,0.10,-0.35,1721199040679
-2.42,0.50,12.59,-0.02,0.26,-0.40,1721199040689
-2.68,4.69,16.69,0.22,0.12,-0.30,1721199040699
-2.59,6.03,7.73,0.18,0.14,-0.21,1721199040709
-1.69,2.06,10.36,0.19,0.15,-0.13,1721199040719
0.15,-0.71,7.55,0.22,0.14,-0.18,1721199040729
-0.41,2.56,10.89,0.18,0.24,-0.34,1721199040739
-0.51,4.43,13.19,0.24,0.17,-0.39,1721199040749
-1.80,0.39,8.09,0.29,0.02,-0.23,1721199040759
-0.69,5.55,10.73,0.30,0.34,-0.15,1721199040769
0.47,0.33,10.36,0.23,0.05,-0.14,1721199040779
-0.62,2.12,8.73,0.20,0.24,-0.27,1721199040789
-0.74,-0.35,9.29,0.15,0.14,-0.33,1721199040799
-3.98,0.86,8.70,0.09,0.09,-0.15,1721199040809
-2.24,0.45,11.55,0.07,0.22,-0.00,1721199040819
-1.80,1.03,8.26,0.08,0.05,-0.02,1721199040829
-1.90,-1.57,11.14,-0.12,0.17,-0.08,1721199040839
-2.91,0.55,14.15,0.05,0.08,0.00,1721199040849
-0.73,-1.60,6.76,-0.07,0.06,0.19,1721199040859
0.60,1.54,9.32,-0.04,0.12,0.20,1721199040869
0.93,-1.13,4.75,-0.15,0.07,-0.06,1721199040879
-2.99,-2.09,10.38,-0.34,0.06,-0.22,1721199040889
-1.84,-2.49,9.18,-0.19,-0.02,0.09,1721199040899
-3.09,-4.41,10.14,-0.36,0.06,0.23,1721199040909
-0.96,-4.98,9.05,-0.23,-0.11,0.28,1721199040919
2.50,-2.06,15.61,-0.31,0.25,0.14,1721199040929
0.93,-1.10,10.47,-0.06,-0.34,0.09,1721199040939
-0.47,-2.98,7.75,-0.30,0.27,-0.01,1721199040949
-0.46,0.82,14.49,-0.20,-0.09,0.15,1721199040959
-0.39,-1.17,12.42,-0.22,0.05,0.20,1721199040969
0.33,-1.06,6.36,-0.16,-0.11,0.31,1721199040979
1.83,-1.01,10.41,-0.31,0.24,0.10,1721199040989
-0.28,-0.90,13.75,-0.20,-0.16,0.07,1721199040999
-1.25,0.32,11.15,-0.15,0.11,-0.01,1721199041009
-0.24,5.11,12.62,0.02,0.01,0.16,1721199041019
0.62,0.97,9.51,-0.08,0.00,0.28,1721199041029
0.63,0.63,11.70,0.04,0.06,0.14,1721199041039
2.36,2.17,13.64,0.03,0.15,0.01,1721199041049
-0.29,1.65,5.66,0.20,-0.23,0.04,1721199041059
2.36,0.51,11.12,0.09,0.37,0.08,1721199041069
-0.10,2.80,13.96,0.27,-0.23,0.05,1721199041079
0.09,-0.75,7.57,0.19,0.18,0.07,1721199041089
-0.19,3.58,15.68,0.27,0.03,0.02,1721199041099
0.92,2.38,7.73,0.33,-0.04,0.13,1721199041109
1.47,3.14,9.84,0.24,0.22,0.09,1721199041119
2.82,2.05,9.54,0.22,-0.00,0.08,1721199041129
1.62,2.52,7.95,0.14,0.13,-0.08,1721199041139
2.26,0.10,11.18,0.03,0.13,-0.21,1721199041149
-0.36,2.13,12.64,0.09,0.06,-0.18,1721199041159
-0.52,-0.27,6.70,0.08,0.07,-0.06,1721199041169
-1.82,-0.44,10.73,-0.12,0.16,-0.07,1721199041179
-0.43,-0.14,10.21,0.04,0.04,0.01,1721199041189
1.66,-0.25,10.34,-0.15,0.20,-0.01,1721199041199
1.02,2.44,10.94,-0.07,0.05,-0.16,1721199041209
-0.05,-2.23,8.42,-0.17,0.12,-0.29,1721199041219
-1.69,-0.38,9.83,-0.06,0.06,-0.20,1721199041229
0.05,-2.68,9.67,-0.20,0.16,-0.10,1721199041239
-1.19,-1.34,11.94,-0.14,-0.00,-0.06,1721199041249
0.34,1.70,9.98,-0.04,0.19,-0.17,1721199041259
-0.94,-2.44,10.67,-0.23,0.03,-0.25,1721199041269
-2.11,-3.98,9.26,-0.16,0.07,-0.19,1721199041279
-1.01,-0.48,14.26,-0.13,0.21,-0.09,1721199041289
-2.18,-1.27,3.53,-0.08,-0.20,-0.04,1721199041299
-0.94,-1.44,11.36,-0.17,0.37,-0.08,1721199041309
0.50,-0.43,13.22,-0.13,-0.03,-0.00,1721199041319
-1.87,-2.48,8.48,-0.20,0.05,-0.08,1721199041329
-0.52,0.16,13.15,-0.10,0.18,-0.03,1721199041339
-0.84,-4.11,8.59,-0.14,-0.10,0.06,1721199041349
0.32,2.54,13.04,0.08,0.20,0.03,1721199041359
4.11,3.05,8.68,-0.02,0.02,0.03,1721199041369
-0.49,0.89,10.87,-0.06,-0.00,-0.15,1721199041379
0.89,4.34,17.89,0.07,0.26,-0.28,1721199041389
-4.36,1.43,6.24,0.10,-0.26,-0.17,1721199041399
-2.73,-1.86,8.25,-0.08,0.37,0.03,1721199041409
-0.63,0.83,13.18,0.17,-0.13,0.20,1721199041419
1.38,3.22,10.93,0.14,0.22,0.04,1721199041429
0.06,3.98,9.04,0.30,-0.18,-0.20,1721199041439
-1.14,3.99,8.39,0.23,0.19,-0.18,1721199041449
-2.12,-0.30,8.37,0.22,-0.09,0.04,1721199041459
-1.72,1.19,10.37,0.11,0.22,0.15,1721199041469
0.09,1.69,9.32,0.22,-0.12,0.12,1721199041479
1.31,0.91,10.74,0.08,0.13,0.08,1721199041489
-0.15,0.32,9.34,0.14,-0.12,-0.06,1721199041499
-1.60,2.10,11.33,0.10,0.10,-0.13,1721199041509
-2.71,2.23,12.23,0.15,-0.08,-0.00,1721199041519
-5.30,3.56,6.19,0.17,-0.10,0.13,1721199041529
-2.24,-2.04,7.17,-0.04,0.04,0.26,1721199041539
0.22,-1.24,10.61,0.02,-0.10,0.32,1721199041549
2.51,-0.75,11.71,-0.01,0.02,0.20,1721199041559
1.35,1.61,9.49,0.02,-0.18,0.02,1721199041569
0.96,1.23,14.01,-0.15,0.15,-0.12,1721199041579
-1.44,-2.44,13.15,-0.03,-0.29,0.03,1721199041589
-3.19,-3.48,7.88,-0.11,0.00,0.04,1721199041599
-0.80,-0.62,11.62,0.07,-0.06,0.27,1721199041609
-0.35,0.37,9.90,-0.03,-0.13,0.27,1721199041619
-0.52,-1.89,6.14,-0.02,-0.19,0.23,1721199041629
1.62,-2.60,10.83,-0.18,0.08,0.01,1721199041639
0.07,-2.97,9.19,-0.19,-0.30,0.02,1721199041649
-2.04,-2.22,10.22,-0.12,0.04,0.04,1721199041659
0.33,-2.13,9.72,-0.21,-0.09,0.20,1721199041669
-0.50,-1.61,11.36,-0.13,-0.11,0.15,1721199041679
2.72,0.13,14.09,-0.16,0.05,0.01,1721199041689
-0.69,-0.26,8.66,-0.06,-0.32,0.03,1721199041699
0.50,0.74,10.14,-0.03,0.22,0.00,1721199041709
-0.44,1.76,8.38,0.03,-0.34,0.15,1721199041719
1.08,2.93,10.60,-0.05,0.23,0.10,1721199041729
0.85,6.00,15.41,0.04,-0.19,-0.01,1721199041739
0.15,-2.12,7.14,-0.06,-0.08,-0.04,1721199041749
-0.30,-0.72,6.57,0.10,-0.07,-0.00,1721199041759
-0.29,-0.04,10.22,0.05,-0.01,-0.05,1721199041769
-1.36,7.93,14.85,0.39,-0.10,-0.05,1721199041779
1.42,1.18,6.86,0.28,-0.07,0.03,1721199041789
-1.23,0.48,11.46,0.16,-0.03,0.02,1721199041799
0.18,4.62,15.21,0.28,0.01,-0.10,1721199041809
-0.71,2.10,5.46,0.33,-0.32,0.03,1721199041819
1.65,-0.66,8.32,0.22,0.17,0.00,1721199041829
2.25,-1.40,10.17,0.23,-0.20,-0.04,1721199041839
1.41,-0.31,9.99,0.13,0.06,-0.23,1721199041849
1.30,4.83,14.47,0.26,0.01,-0.26,1721199041859
0.23,3.13,6.53,0.23,-0.14,-0.14,1721199041869
1.64,0.40,4.75,0.08,0.11,-0.11,1721199041879
2.30,-5.34,10.12,-0.15,0.04,-0.28,1721199041889
0.30,-1.54,11.70,-0.05,-0.03,-0.33,1721199041899
0.43,0.59,10.52,-0.06,0.16,-0.36,1721199041909
-0.50,-2.45,7.03,-0.19,-0.08,-0.30,1721199041919
-1.36,-1.73,12.44,-0.19,0.20,-0.30,1721199041929
0.70,-1.11,12.88,-0.17,0.01,-0.18,1721199041939
0.53,-3.84,13.70,-0.33,0.10,-0.25,1721199041949
0.99,4.25,11.73,0.06,0.14,-0.37,1721199041959
0.96,-2.94,0.01,-0.36,0.02,-0.37,1721199041969
-2.67,-6.10,8.27,-0.35,0.12,-0.47,1721199041979
-0.54,-1.66,15.55,-0.25,0.27,-0.39,1721199041989
-3.53,1.50,14.59,-0.26,-0.08,-0.32,1721199041999
-1.88,2.33,10.55,-0.10,0.22,-0.22,1721199042009
-0.82,0.55,11.25,-0.33,0.13,-0.19,1721199042019
-2.13,-1.83,10.74,-0.14,0.02,-0.20,1721199042029
-0.11,-0.09,7.52,-0.09,0.18,-0.22,1721199042039
-0.71,-2.08,12.78,-0.25,0.09,-0.31,1721199042049
-1.36,-0.92,8.20,-0.06,0.02,-0.21,1721199042059
0.66,-1.83,10.41,-0.32,0.35,-0.16,1721199042069
-2.33,1.32,13.14,-0.06,-0.14,-0.21,1721199042079
-0.37,2.52,9.84,-0.06,0.30,-0.24,1721199042089
-1.13,2.18,12.33,-0.05,-0.03,-0.22,1721199042099
-1.93,2.84,6.93,-0.06,0.13,-0.23,1721199042109
-1.52,0.70,15.11,-0.14,0.21,-0.24,1721199042119
-3.33,2.56,10.03,0.14,-0.14,-0.22,1721199042129
-1.37,-2.67,9.22,-0.02,0.25,-0.12,1721199042139
-0.99,3.93,14.46,0.26,-0.07,-0.03,1721199042149
0.23,5.88,8.03,0.21,0.13,-0.12,1721199042159
-1.49,1.65,8.92,0.25,-0.11,-0.21,1721199042169
-1.87,-0.42,6.52,0.23,0.08,-0.17,1721199042179
-2.39,1.30,8.77,0.18,0.02,-0.09,1721199042189
-1.66,2.13,7.77,0.20,0.06,0.06,1721199042199
-1.14,-0.07,8.54,0.08,0.01,-0.07,1721199042209
-1.92,0.26,15.17,0.09,0.03,-0.16,1721199042219
-2.33,3.44,13.43,0.25,-0.03,0.02,1721199042229
-0.97,2.13,10.59,0.04,0.03,0.07,1721199042239
-0.49,3.85,15.81,0.13,-0.04,0.08,1721199042249
-0.07,0.58,7.63,0.22,-0.09,0.02,1721199042259
-0.84,-0.09,8.27,0.12,0.01,0.02,1721199042269
-0.98,-0.75,7.78,0.13,-0.06,-0.05,1721199042279
-2.06,4.85,12.17,0.29,0.03,0.03,1721199042289
-0.12,-2.97,10.99,0.06,-0.05,0.15,1721199042299
-2.01,-6.45,8.75,0.13,-0.16,0.07,1721199042309
1.19,1.98,11.62,0.32,0.18,0.16,1721199042319
1.12,-4.19,5.44,0.11,-0.29,0.24,1721199042329
1.10,0.77,12.05,0.28,0.17,0.07,1721199042339
3.84,-1.87,9.37,0.14,-0.10,-0.05,1721199042349
-1.79,2.80,7.15,0.12,-0.02,-0.14,1721199042359
0.00,-4.55,7.16,-0.03,0.08,-0.15,1721199042369
-3.67,-3.23,8.39,-0.04,-0.15,0.07,1721199042379
0.11,-4.77,5.54,0.07,0.12,0.17,1721199042389
2.02,-2.17,9.61,-0.04,0.01,0.14,1721199042399
1.07,4.44,9.92,0.09,-0.04,-0.04,1721199042409
1.99,5.07,10.82,-0.07,0.14,-0.23,1721199042419
-1.65,-2.48,8.43,-0.18,-0.14,-0.25,1721199042429
-1.65,-3.70,7.24,-0.11,0.20,-0.08,1721199042439
-1.99,0.36,9.38,-0.11,-0.10,0.11,1721199042449
0.03,2.54,9.91,-0.00,0.09,0.07,1721199042459
1.89,-1.66,9.36,-0.04,-0.08,-0.10,1721199042469
0.02,-3.38,9.69,-0.07,0.06,-0.25,1721199042479
-1.80,0.54,16.97,-0.10,0.05,-0.21,1721199042489
-2.82,5.54,13.79,0.14,-0.10,0.12,1721199042499
1.28,3.49,5.92,0.09,0.09,0.28,1721199042509
4.08,0.36,10.46,-0.09,0.08,0.04,1721199042519
4.02,4.16,14.44,0.02,0.09,-0.28,1721199042529
1.78,2.00,12.37,0.01,0.02,-0.34,1721199042539
-1.27,0.39,9.27,0.05,0.04,-0.19,1721199042549
-0.96,2.51,12.93,0.06,0.20,-0.14,1721199042559
0.71,5.26,13.18,0.14,0.07,-0.05,1721199042569
1.15,1.94,5.22,0.00,0.09,-0.17,1721199042579
0.34,-0.25,10.06,-0.05,0.15,-0.11,1721199042589
0.79,1.60,10.19,0.11,0.15,-0.20,1721199042599
0.39,-4.72,3.98,-0.11,-0.01,-0.23,1721199042609
1.07,-1.70,13.78,-0.13,0.37,-0.31,1721199042619
1.03,-0.87,17.93,0.03,0.07,-0.38,1721199042629
-1.57,-1.52,3.86,0.02,-0.00,-0.34,1721199042639
0.27,1.52,12.85,-0.09,0.58,-0.45,1721199042649
-0.98,-3.96,9.74,-0.14,-0.18,-0.29,1721199042659
-2.64,-0.62,11.51,-0.07,0.34,-0.42,1721199042669
-3.58,0.58,2.71,0.05,0.42,-0.24,1721199042684
-5.78,-6.97,-1.70,-0.19,0.00,-0.14,1721199042688
-2.88,-0.27,17.09,-0.17,0.45,-0.04,1721199042698
-0.45,-0.03,9.82,-0.01,-0.17,0.12,1721199042708
0.06,-4.52,8.35,-0.27,0.36,-0.07,1721199042718
1.22,-1.43,16.32,-0.07,0.03,-0.09,1721199042728
-0.70,-2.39,6.37,-0.10,0.09,-0.18,1721199042738
-2.70,1.78,14.58,0.01,0.15,-0.16,1721199042748
-1.59,-1.18,8.44,-0.07,0.00,-0.05,1721199042758
-1.82,-1.12,9.28,0.03,0.05,0.02,1721199042768
-0.03,2.13,13.05,-0.07,0.26,-0.13,1721199042778
-3.76,4.05,7.43,0.12,-0.18,-0.24,1721199042788
-3.66,-1.84,7.02,-0.02,0.22,-0.05,1721199042798
-2.84,6.19,17.89,0.08,0.05,0.24,1721199042808
-0.62,1.70,5.39,0.23,-0.20,0.24,1721199042818
1.92,1.72,12.70,0.09,0.23,0.10,1721199042828
1.39,2.96,9.62,0.36,-0.19,0.04,1721199042838
-1.15,0.06,8.09,0.17,0.09,0.05,1721199042848
-0.69,0.23,11.67,0.21,-0.08,0.16,1721199042858
0.50,6.50,12.45,0.20,0.10,0.12,1721199042868
0.84,1.55,6.04,0.11,-0.16,0.08,1721199042878
-0.49,-1.66,10.03,-0.07,0.11,-0.07,1721199042888
-0.29,1.52,10.22,0.27,-0.10,-0.02,1721199042898
-0.26,-1.15,10.34,-0.09,0.11,0.02,1721199042908
-3.61,0.69,9.26,0.17,-0.29,0.12,1721199042918
0.08,1.30,9.98,-0.08,0.24,0.10,1721199042928
-0.31,3.50,15.02,0.15,-0.28,0.10,1721199042938
-0.54,-5.16,1.81,-0.14,-0.09,0.12,1721199042948
-0.97,2.11,22.23,-0.06,0.18,0.03,1721199042958
-1.55,-1.93,3.99,0.19,-0.47,0.26,1721199042968
-1.87,1.90,6.43,-0.12,0.28,0.29,1721199042978
2.41,0.44,14.41,-0.07,-0.16,0.18,1721199042988
-1.74,-1.79,10.78,-0.08,-0.26,-0.05,1721199042998
0.90,-5.04,6.30,0.01,-0.05,0.03,1721199043008
-0.11,-1.63,14.12,-0.09,-0.10,0.05,1721199043018
-0.67,-1.98,3.91,0.14,-0.37,0.29,1721199043028
2.25,1.89,14.58,-0.24,0.38,0.10,1721199043038
-1.32,-5.43,3.99,0.03,-0.81,-0.10,1721199043048
1.58,-12.31,19.27,-0.61,0.71,-0.06,1721199043058
-4.41,6.57,22.49,0.20,-0.78,0.13,1721199043068
-0.41,3.44,-0.72,-0.05,0.32,0.29,1721199043078
0.91,4.44,11.78,0.04,-0.20,0.28,1721199043088
2.92,-0.29,4.78,0.01,0.01,0.09,1721199043098
1.43,1.96,13.15,0.03,-0.05,-0.10,1721199043108
0.77,0.31,8.49,0.12,-0.17,-0.08,1721199043118
0.47,-2.50,9.94,-0.02,0.03,0.06,1721199043128
1.32,-0.55,10.57,0.12,-0.08,0.06,1721199043138
2.03,0.97,10.87,0.04,0.11,-0.11,1721199043148
-1.70,3.77,8.42,0.22,-0.22,-0.23,1721199043158
0.42,4.56,10.19,0.15,0.30,-0.10,1721199043168
-0.76,5.36,10.49,0.24,-0.22,-0.02,1721199043178
0.78,-0.96,6.94,0.03,0.12,-0.05,1721199043188
1.66,-2.48,9.88,0.05,-0.10,-0.06,1721199043198
3.66,1.04,12.39,0.00,0.18,-0.17,1721199043208
2.75,-0.09,7.89,-0.04,-0.10,-0.27,1721199043218
0.99,2.97,18.83,-0.03,0.38,-0.43,1721199043228
-0.40,2.19,15.90,0.01,-0.02,-0.40,1721199043238
-5.24,3.74,3.14,0.05,-0.08,-0.21,1721199043248
0.43,2.76,9.40,-0.13,0.45,-0.06,1721199043258
-0.78,-0.91,8.83,0.02,-0.30,-0.13,1721199043268
1.00,-1.02,8.06,0.01,0.37,-0.20,1721199043278
1.51,-1.78,11.79,-0.16,0.02,-0.23,1721199043288
-1.53,1.50,12.49,-0.05,0.03,-0.19,1721199043298
3.23,3.33,10.96,0.00,0.29,-0.18,1721199043308
1.38,-5.45,6.38,-0.11,-0.10,-0.34,1721199043318
1.23,-2.51,10.64,-0.04,0.36,-0.46,1721199043328
-0.38,-1.30,12.20,-0.11,0.09,-0.47,1721199043338
-3.17,-1.78,11.62,-0.07,0.13,-0.32,1721199043348
-0.79,-2.08,8.26,-0.09,0.30,-0.37,1721199043358
-2.45,-3.77,10.34,-0.02,0.12,-0.30,1721199043368
-1.84,-1.99,8.35,-0.12,0.19,-0.20,1721199043378
-0.30,2.41,17.01,-0.11,0.35,-0.22,1721199043388
-1.01,-0.60,8.32,-0.01,-0.09,-0.23,1721199043398
-1.35,0.51,7.77,-0.19,0.38,-0.37,1721199043408
-1.36,-0.78,15.09,0.05,0.07,-0.26,1721199043418
-2.18,-4.14,5.02,-0.11,0.08,-0.11,1721199043428
-1.55,2.89,12.48,0.02,0.38,-0.29,1721199043438
-0.55,5.69,14.03,-0.01,0.00,-0.29,1721199043448
-4.48,7.26,8.43,0.25,0.06,-0.29,1721199043458
-2.44,-3.23,11.70,0.04,0.21,-0.09,1721199043468
-4.50,-3.87,4.62,0.20,-0.15,0.13,1721199043478
0.19,2.47,9.79,0.10,0.53,0.04,1721199043488
-0.76,6.56,13.35,0.14,-0.20,-0.13,1721199043498
-3.99,4.69,6.50,0.29,0.05,-0.17,1721199043508
-0.46,-2.71,11.25,0.12,0.16,0.01,1721199043518
-2.04,-1.53,7.70,0.13,-0.19,0.20,1721199043528
1.49,4.82,16.12,0.11,0.41,0.10,1721199043538
2.11,4.59,9.37,0.26,-0.30,-0.03,1721199043548
-1.04,2.40,4.29,0.20,0.18,-0.28,1721199043558
-1.83,1.15,10.62,0.05,0.00,-0.23,1721199043568
-4.93,-2.25,8.99,-0.00,-0.17,0.12,1721199043578
-2.38,2.93,13.80,0.08,0.27,0.23,1721199043588
0.70,-0.77,8.59,0.09,-0.22,0.32,1721199043598
0.18,-0.51,11.62,-0.07,0.15,0.14,1721199043608
1.38,1.22,12.38,0.11,-0.06,-0.01,1721199043618
-1.42,1.14,5.93,-0.02,-0.14,0.04,1721199043628
-0.94,-4.25,8.75,-0.14,0.03,0.24,1721199043638
-0.54,-5.92,8.77,-0.11,-0.18,0.28,1721199043648
1.62,-1.94,15.29,-0.19,0.22,0.17,1721199043658
-1.99,-4.88,5.89,-0.10,-0.49,0.03,1721199043668
-1.77,3.97,13.31,-0.09,0.38,-0.11,1721199043678
1.55,-6.31,7.92,-0.26,-0.37,0.20,1721199043688
-3.78,-4.76,10.84,-0.21,-0.01,0.23,1721199043698
3.39,-0.74,12.96,-0.08,0.05,0.16,1721199043708
-0.33,-1.42,9.17,-0.33,-0.27,0.01,1721199043718
-1.21,3.29,11.76,-0.11,0.09,-0.09,1721199043728
0.67,-2.69,9.12,-0.33,-0.13,0.15,1721199043738
-1.47,-0.35,11.77,-0.15,0.01,0.11,1721199043748
1.53,0.28,10.83,-0.12,-0.00,0.14,1721199043758
-0.32,9.54,11.78,0.05,-0.09,0.17,1721199043768
3.28,4.37,7.50,0.11,-0.05,0.16,1721199043778
3.08,2.42,9.45,0.02,0.03,-0.08,1721199043788
3.16,-0.54,12.24,0.09,0.01,-0.23,1721199043798
-1.07,-2.57,10.10,0.04,-0.05,-0.23,1721199043808
-3.58,4.88,7.49,0.42,-0.04,-0.04,1721199043818
1.76,0.13,9.85,0.13,0.22,0.17,1721199043828
-0.00,2.90,13.27,0.26,-0.21,0.10,1721199043838
4.03,6.71,12.89,0.31,0.38,-0.16,1721199043848
0.29,-2.97,8.15,0.11,-0.31,-0.15,1721199043858
-0.92,2.45,9.86,0.22,0.37,-0.10,1721199043868
1.85,2.26,7.66,0.14,-0.05,-0.11,1721199043878
-0.23,-0.29,8.46,-0.02,0.07,-0.24,1721199043888
1.30,1.98,12.67,0.19,0.13,-0.23,1721199043898
-0.75,0.08,9.23,-0.13,0.11,-0.24,1721199043908
-3.28,2.89,15.35,0.00,0.08,-0.10,1721199043918
-0.54,1.62,6.86,0.18,0.02,0.04,1721199043928
1.73,-0.92,8.21,-0.13,0.18,-0.04,1721199043938
1.11,0.01,7.90,-0.01,-0.04,-0.21,1721199043948
1.07,2.59,10.82,-0.06,0.29,-0.45,1721199043958
-1.03,-1.94,11.38,-0.03,-0.13,-0.33,1721199043968
-1.57,-5.04,9.10,0.00,0.17,-0.18,1721199043978
-0.66,-4.99,11.61,-0.07,0.22,-0.07,1721199043988
-2.52,0.46,7.03,-0.26,-0.04,-0.20,1721199043998
0.90,2.29,17.15,-0.15,0.35,-0.35,1721199044008
0.43,0.50,7.68,-0.04,-0.13,-0.31,1721199044018
-1.98,-0.79,9.76,-0.20,0.35,-0.30,1721199044028
-1.73,-5.52,12.47,-0.22,-0.02,-0.11,1721199044038
-2.65,-0.02,9.12,-0.09,0.10,-0.07,1721199044048
3.16,-0.44,11.22,-0.05,0.20,-0.05,1721199044058
1.69,-1.14,8.21,-0.15,-0.05,-0.21,1721199044068
0.47,-2.07,13.57,-0.11,0.35,-0.26,1721199044078
-2.20,1.06,16.14,-0.11,-0.02,-0.19,1721199044088
-2.28,4.27,4.72,0.07,0.11,-0.16,1721199044098
-0.40,1.10,14.21,-0.04,0.21,-0.12,1721199044108
-2.73,3.48,8.25,0.20,-0.16,-0.01,1721199044118
-0.33,-1.02,10.18,0.01,0.31,-0.02,1721199044128
-0.83,-2.48,10.00,0.11,-0.14,-0.05,1721199044138
-2.16,4.08,8.51,0.17,0.25,-0.10,1721199044148
-1.34,1.39,13.14,-0.00,0.04,0.02,1721199044158
-3.73,3.18,10.86,0.30,-0.15,0.13,1721199044168
2.53,3.46,10.42,0.22,0.34,0.23,1721199044178
-0.22,-0.83,6.63,0.04,-0.36,0.04,1721199044188
-0.24,5.76,15.98,0.17,0.41,-0.14,1721199044198
-0.04,-0.12,4.71,0.17,-0.37,-0.03,1721199044208
-3.48,-2.04,8.01,-0.16,0.18,-0.05,1721199044218
1.24,2.67,20.79,0.11,0.09,0.03,1721199044228
-1.90,5.19,7.84,0.15,-0.19,-0.01,1721199044238
-2.43,4.78,6.93,0.04,0.14,-0.04,1721199044248
-2.38,-4.19,7.33,-0.17,-0.11,0.12,1721199044258
-3.58,-1.21,10.27,0.04,-0.08,0.31,1721199044268
2.63,-1.44,9.39,-0.07,0.12,0.27,1721199044278
0.95,0.78,10.26,-0.07,-0.25,0.17,1721199044288
2.79,-1.13,10.76,-0.11,0.08,-0.00,1721199044298
0.68,-4.25,13.75,-0.13,-0.16,0.01,1721199044308
-2.99,-5.64,10.21,-0.13,-0.06,0.05,1721199044318
-2.89,-3.45,10.00,-0.10,-0.06,0.16,1721199044328
-1.88,-2.27,3.44,-0.16,-0.15,0.26,1721199044338
0.07,-5.22,8.78,-0.26,0.02,0.10,1721199044348
2.26,1.05,14.42,-0.05,-0.11,0.18,1721199044358
1.23,-3.37,10.14,-0.24,-0.07,-0.03,1721199044368
-4.43,-2.03,12.14,-0.20,-0.24,-0.02,1721199044378
-2.17,0.77,14.00,-0.24,0.12,0.10,1721199044388
-1.81,3.04,9.23,-0.11,-0.37,0.30,1721199044398
4.41,2.41,11.34,-0.11,0.25,0.30,1721199044408
3.92,-0.76,9.39,-0.05,-0.35,0.09,1721199044418
2.47,2.81,14.37,-0.02,0.31,-0.25,1721199044428
-0.45,5.83,9.53,0.21,-0.37,-0.09,1721199044438
-0.34,4.88,10.13,0.15,0.25,0.03,1721199044448
2.45,2.75,8.29,0.33,-0.21,0.07,1721199044458
0.76,-0.65,7.31,0.21,0.13,-0.16,1721199044468
0.04,4.30,14.03,0.32,0.02,-0.26,1721199044478
-1.91,-0.16,8.31,0.20,-0.11,-0.06,1721199044488
-0.68,3.78,12.42,0.31,0.20,0.04,1721199044498
2.17,1.62,8.74,0.24,-0.14,0.11,1721199044508
2.64,2.95,10.19,0.16,0.15,-0.12,1721199044518
3.22,5.26,11.21,0.32,0.01,-0.28,1721199044528
-0.83,-1.91,3.50,0.06,-0.09,-0.38,1721199044538
-1.73,0.61,12.77,0.09,0.27,-0.26,1721199044548
-1.22,-0.00,9.51,0.10,-0.05,-0.12,1721199044558
-2.53,-0.13,7.40,-0.06,0.01,0.02,1721199044568
1.95,-0.05,13.68,-0.05,0.23,-0.05,1721199044578
1.65,-1.80,8.99,0.00,-0.15,-0.16,1721199044588
1.43,0.24,7.12,-0.04,0.23,-0.30,1721199044598
0.14,-2.95,9.47,-0.16,0.01,-0.37,1721199044608
-2.31,0.38,12.87,-0.07,0.05,-0.25,1721199044618
-0.48,-0.95,10.97,-0.02,0.15,-0.23,1721199044628
-0.97,-2.04,7.51,-0.13,-0.03,-0.06,1721199044638
0.70,-0.59,9.85,-0.16,0.26,-0.23,1721199044648
0.03,-4.25,9.62,-0.19,-0.08,-0.30,1721199044658
-1.36,-0.00,11.03,-0.10,0.20,-0.37,1721199044668
-1.09,-0.10,11.01,-0.07,0.08,-0.25,1721199044678
-0.82,-2.14,12.98,-0.17,-0.03,-0.04,1721199044693
0.88,-1.81,12.38,-0.08,0.20,-0.01,1721199044697
0.45,-0.11,12.38,-0.05,-0.06,-0.08,1721199044707
0.30,0.36,7.99,-0.05,0.20,-0.30,1721199044717
-0.79,-0.55,11.98,-0.03,0.05,-0.31,1721199044727
-2.75,1.51,10.36,0.03,0.04,-0.12,1721199044737
-1.43,1.85,12.27,0.08,0.14,-0.03,1721199044747
-1.45,-0.03,9.67,0.14,-0.01,-0.00,1721199044757
-0.10,2.48,12.24,0.07,0.19,-0.03,1721199044767
-1.30,2.93,9.77,0.21,-0.08,-0.18,1721199044777
-1.43,3.64,10.89,0.16,0.20,-0.16,1721199044787
-1.58,0.20,9.76,0.24,-0.11,-0.03,1721199044797
-2.53,0.81,9.35,0.17,0.14,0.01,1721199044807
-0.96,3.27,10.87,0.22,0.02,0.01,1721199044817
-0.42,1.71,8.31,0.17,-0.05,0.13,1721199044827
1.34,3.22,10.57,0.21,0.09,0.07,1721199044837
0.98,2.34,9.33,0.13,-0.02,-0.08,1721199044847
-0.88,1.31,12.20,0.04,0.03,-0.20,1721199044857
-1.51,2.26,9.97,0.14,-0.06,-0.13,1721199044867
-2.07,4.09,8.74,0.08,0.06,0.00,1721199044877
-0.77,2.34,8.07,0.01,-0.04,0.10,1721199044887
0.06,-0.48,10.30,-0.15,0.01,-0.06,1721199044897
-1.41,-1.54,12.83,-0.12,-0.04,-0.14,1721199044907
-3.54,0.18,8.93,-0.04,-0.12,0.03,1721199044917
-2.03,-2.65,7.55,-0.23,0.03,0.18,1721199044927
0.22,-3.73,12.92,-0.13,-0.11,0.27,1721199044937
2.05,-0.37,7.64,-0.05,-0.07,0.17,1721199044947
1.90,-1.36,7.27,-0.30,-0.05,-0.02,1721199044957
-0.65,-5.83,12.96,-0.30,-0.12,-0.11,1721199044967
-3.24,-3.75,8.47,-0.10,-0.10,0.01,1721199044977
-1.08,-3.12,7.19,-0.32,-0.01,0.14,1721199044987
0.03,-4.79,10.28,-0.28,-0.16,0.16,1721199044997
1.26,0.04,15.79,-0.23,0.11,0.02,1721199045007
-0.61,3.34,11.26,-0.18,-0.21,-0.07,1721199045017
-2.99,-0.29,8.96,-0.33,-0.01,-0.11,1721199045027
-2.13,-1.72,10.52,-0.28,-0.06,0.11,1721199045037
-1.39,-1.58,8.10,-0.17,-0.18,0.24,1721199045047
2.01,1.18,12.37,-0.20,0.15,0.26,1721199045057
1.87,2.04,14.37,-0.14,-0.28,0.06,1721199045067
1.91,3.24,16.44,-0.12,0.06,-0.15,1721199045077
1.73,4.46,14.83,0.05,-0.21,-0.18,1721199045087
-1.69,1.66,6.88,0.17,-0.07,-0.16,1721199045097
-1.42,3.93,12.78,0.27,0.08,-0.05,1721199045107
-2.38,1.30,6.59,0.37,-0.27,0.12,1721199045117
0.54,4.25,9.95,0.37,0.18,0.20,1721199045127
3.85,2.57,11.51,0.35,-0.18,0.18,1721199045137
3.21,3.41,8.11,0.38,0.00,-0.12,1721199045147
3.67,1.89,9.69,0.29,0.02,-0.26,1721199045157
-0.51,1.41,8.92,0.27,-0.11,-0.27,1721199045167
0.30,1.80,10.35,0.26,0.12,-0.18,1721199045177
-0.63,-0.38,8.64,0.13,-0.10,-0.10,1721199045187
-0.62,0.64,9.73,0.14,0.10,-0.13,1721199045197
0.61,-2.17,8.42,0.05,0.00,-0.11,1721199045207
-0.39,0.43,9.42,0.04,0.01,-0.15,1721199045217
1.80,1.24,12.74,-0.03,0.17,-0.23,1721199045227
0.17,0.41,9.65,0.02,-0.11,-0.25,1721199045237
1.48,-1.63,8.66,-0.13,0.23,-0.25,1721199045247
0.97,-2.24,10.90,-0.06,0.00,-0.37,1721199045257
-0.57,-2.58,5.96,-0.08,0.07,-0.43,1721199045267
-0.72,-0.58,10.17,-0.12,0.20,-0.37,1721199045277
-1.84,-1.76,10.36,-0.17,0.01,-0.30,1721199045287
-1.81,0.71,10.78,-0.15,0.16,-0.33,1721199045297
0.17,-4.00,8.66,-0.17,0.08,-0.39,1721199045307
-1.98,-1.74,10.82,-0.11,0.11,-0.37,1721199045317
-1.47,2.64,10.63,-0.09,0.18,-0.29,1721199045327
-1.39,-1.42,10.66,-0.20,0.03,-0.13,1721199045337
-0.49,0.26,12.26,-0.14,0.20,-0.25,1721199045347
0.39,-0.53,9.41,-0.07,-0.01,-0.30,1721199045357
-0.33,-3.66,8.28,-0.13,0.18,-0.31,1721199045367
-0.03,0.43,14.45,0.01,0.21,-0.29,1721199045377
-1.84,1.17,11.22,0.07,-0.01,-0.21,1721199045387
-1.90,4.41,10.34,0.12,0.26,-0.21,1721199045397
-0.75,2.06,11.12,0.13,0.09,-0.24,1721199045407
-2.82,0.01,8.46,0.15,0.05,-0.15,1721199045417
-0.74,1.48,8.99,0.21,0.25,-0.11,1721199045427
-1.25,0.13,9.75,0.16,-0.01,-0.07,1721199045437
-2.16,4.54,10.77,0.22,0.17,-0.18,1721199045447
-0.59,3.71,11.68,0.16,0.10,-0.17,1721199045457
-1.00,-0.01,9.62,0.17,-0.02,-0.04,1721199045467
0.27,2.78,9.90,0.19,0.21,-0.04,1721199045477
0.21,1.49,10.30,0.12,0.04,-0.15,1721199045487
-0.62,2.09,10.20,0.15,0.10,-0.18,1721199045497
-0.63,1.63,9.94,0.09,0.05,-0.14,1721199045507
-1.85,2.12,9.02,0.14,0.02,-0.12,1721199045517
-0.18,3.43,10.21,0.13,0.19,0.01,1721199045527
-0.90,1.39,9.16,-0.00,0.03,-0.07,1721199045537
-2.26,-0.42,11.92,0.01,0.13,-0.06,1721199045547
-1.71,0.10,11.71,0.04,0.08,0.10,1721199045557
-0.65,2.36,8.03,0.03,0.06,0.19,1721199045567
-0.69,-1.26,8.99,-0.04,0.01,0.13,1721199045577
0.09,-2.83,7.02,-0.02,-0.02,0.14,1721199045587
0.30,-3.46,9.09,-0.12,0.12,0.10,1721199045597
-2.35,-2.62,10.94,-0.13,-0.09,-0.04,1721199045607
-1.11,-4.14,10.60,-0.15,0.05,0.11,1721199045617
0.00,-2.33,11.29,-0.05,0.02,0.16,1721199045627
-0.62,-0.71,11.15,-0.14,-0.00,0.17,1721199045637
-0.97,-3.22,9.88,-0.09,-0.05,0.06,1721199045647
0.36,-3.24,8.62,-0.13,0.04,0.12,1721199045657
1.67,1.15,12.25,-0.14,0.11,0.06,1721199045667
0.28,1.76,12.05,0.04,-0.10,-0.08,1721199045677
0.98,0.08,6.72,-0.06,0.18,0.00,1721199045687
-0.39,-1.41,11.12,-0.11,0.00,0.02,1721199045697
-0.80,4.11,10.59,0.07,0.07,0.05,1721199045707
2.27,2.28,8.28,0.01,0.08,0.09,1721199045717
1.92,-0.35,11.57,-0.01,0.04,-0.11,1721199045727
1.70,4.69,12.95,0.19,0.09,-0.17,1721199045737
-0.31,1.28,6.88,0.10,-0.04,-0.13,1721199045747
-1.16,0.56,11.47,0.16,0.21,-0.13,1721199045757
-0.60,-1.69,11.02,0.17,0.05,-0.05,1721199045767
-1.98,4.82,13.04,0.29,0.11,-0.01,1721199045777
1.06,5.64,8.96,0.31,0.12,0.07,1721199045787
0.58,3.99,9.74,0.21,0.08,-0.02,1721199045797
1.92,1.25,11.26,0.22,0.16,-0.11,1721199045807
0.15,-1.09,6.78,0.13,-0.05,-0.14,1721199045817
0.57,3.72,12.16,0.09,0.35,-0.17,1721199045827
-0.82,2.28,10.61,0.10,-0.07,-0.11,1721199045837
-2.44,2.63,8.32,0.11,0.12,0.00,1721199045847
0.39,2.33,8.51,-0.00,0.23,-0.06,1721199045857
-0.84,-1.71,7.90,-0.13,-0.05,0.00,1721199045867
0.31,0.66,11.14,-0.01,0.21,-0.07,1721199045877
1.68,-2.46,8.85,-0.14,0.06,-0.11,1721199045887
-0.37,-2.28,10.15,-0.10,0.04,-0.13,1721199045897
1.19,-1.75,8.79,-0.06,0.16,-0.09,1721199045907
-0.09,-1.18,7.54,-0.14,0.01,-0.13,1721199045917
-0.80,-3.22,8.55,-0.20,0.17,-0.21,1721199045927
-1.67,-4.69,16.47,-0.21,0.03,-0.23,1721199045937
-3.06,-3.22,12.76,0.01,0.00,-0.14,1721199045947
-2.40,1.13,8.86,-0.11,0.09,-0.03,1721199045957
-2.83,0.18,9.95,-0.10,-0.01,0.04,1721199045967
-0.74,-4.92,9.52,-0.25,0.04,0.04,1721199045977
0.24,-5.67,8.15,-0.13,-0.01,-0.06,1721199045987
1.02,-2.49,9.97,-0.12,0.09,-0.09,1721199045997
-0.41,2.03,14.37,-0.21,0.02,-0.11,1721199046007
-0.53,2.35,12.45,-0.12,0.06,-0.12,1721199046017
-0.24,0.64,12.09,-0.16,0.03,-0.16,1721199046027
-0.46,1.27,9.74,-0.13,0.02,-0.11,1721199046037
-1.40,1.76,11.69,0.02,0.01,-0.05,1721199046047
-1.37,6.51,12.32,0.11,0.14,-0.01,1721199046057
-2.15,1.35,7.00,0.09,-0.13,0.01,1721199046067
-1.28,4.07,12.41,0.16,0.23,-0.04,1721199046077
0.99,3.90,9.91,0.24,-0.12,0.07,1721199046087
-1.02,3.29,8.67,0.21,0.08,0.07,1721199046097
0.33,3.41,11.65,0.23,0.06,-0.03,1721199046107
-0.32,3.37,8.07,0.31,-0.12,-0.01,1721199046117
0.79,-0.63,7.63,0.14,0.09,-0.01,1721199046127
-0.26,1.39,12.32,0.10,-0.01,0.03,1721199046137
-0.85,1.78,11.59,0.13,0.05,-0.07,1721199046147
-0.78,1.87,9.94,0.20,-0.01,-0.07,1721199046157
-1.16,1.28,6.92,0.11,-0.01,0.02,1721199046167
-1.46,3.35,9.50,0.01,0.08,0.12,1721199046177
-0.11,0.89,9.17,-0.06,-0.05,0.14,1721199046187
0.85,-0.95,11.77,-0.10,0.05,0.12,1721199046197
1.44,-2.21,11.35,0.04,0.00,0.09,1721199046207
-0.65,-0.79,10.21,-0.10,-0.03,-0.04,1721199046217
-0.74,1.05,13.59,0.03,0.02,0.07,1721199046227
0.54,-1.67,7.87,-0.00,-0.01,0.25,1721199046237
0.01,-2.72,9.73,-0.14,0.06,0.05,1721199046247
1.12,-6.67,10.41,-0.15,-0.02,0.01,1721199046257
-1.51,-2.75,10.72,-0.08,0.03,-0.11,1721199046267
-0.70,-3.84,11.91,-0.08,-0.03,0.08,1721199046277
-0.64,-1.25,8.09,-0.04,0.01,0.18,1721199046287
0.34,0.81,10.81,-0.10,0.13,-0.02,1721199046297
0.39,-1.35,11.96,-0.19,0.05,-0.14,1721199046307
-2.32,-2.22,9.62,-0.08,-0.03,-0.00,1721199046317
-2.24,3.25,11.65,-0.03,0.24,0.11,1721199046327
-0.26,2.93,10.11,-0.02,-0.12,0.18,1721199046337
2.49,1.22,9.47,-0.03,0.19,0.06,1721199046347
3.81,-1.38,12.88,-0.09,0.04,-0.15,1721199046357
-0.46,0.32,10.69,0.07,0.02,-0.33,1721199046367
-1.36,4.28,11.32,0.18,0.17,-0.18,1721199046377
-2.55,3.54,10.64,0.20,-0.04,0.06,1721199046387
-0.23,4.45,8.72,0.27,0.18,0.06,1721199046397
2.01,0.05,9.10,0.04,0.11,-0.09,1721199046407
-1.17,1.54,11.81,0.14,-0.01,-0.18,1721199046417
-0.48,3.33,11.99,0.22,0.24,-0.13,1721199046427
-2.18,2.62,6.71,0.25,-0.14,0.08,1721199046437
0.85,0.82,5.73,0.06,0.26,0.13,1721199046447
2.12,0.94,12.90,0.02,0.03,-0.10,1721199046457
0.07,2.56,10.24,0.12,0.07,-0.29,1721199046467
-2.04,3.37,8.27,0.07,0.10,-0.15,1721199046477
-2.98,1.75,11.79,-0.01,0.11,0.07,1721199046487
-2.47,0.45,8.91,0.05,-0.04,0.17,1721199046497
-0.12,-1.18,4.76,-0.07,0.09,0.10,1721199046507
1.01,3.38,14.61,-0.16,0.16,-0.03,1721199046517
0.18,-1.53,10.93,-0.05,-0.15,0.04,1721199046527
0.89,0.60,10.08,0.06,0.09,0.25,1721199046537
6.05,-0.06,6.25,-0.06,0.09,0.04,1721199046547
4.31,1.43,7.30,-0.15,0.02,-0.34,1721199046557
0.24,-1.76,10.71,-0.20,0.19,-0.61,1721199046567
-5.50,-6.33,11.17,-0.20,-0.14,-0.38,1721199046577
-7.07,-8.44,9.06,-0.14,0.18,-0.07,1721199046587
-3.42,0.45,14.11,-0.22,0.03,0.34,1721199046597
2.04,2.25,13.13,-0.15,0.03,0.43,1721199046607
4.87,0.72,11.21,-0.07,0.06,0.19,1721199046617
5.15,0.36,6.05,-0.16,0.08,-0.32,1721199046627
0.87,-4.23,10.80,-0.27,0.05,-0.41,1721199046637
-2.47,0.08,12.86,-0.11,0.10,-0.16,1721199046647
-3.81,2.72,10.90,-0.14,0.04,0.08,1721199046657
-1.05,1.26,10.15,-0.08,0.07,0.20,1721199046667
3.13,0.68,11.80,-0.07,0.12,0.12,1721199046677
2.02,1.96,12.70,-0.03,0.11,-0.10,1721199046687
-2.04,2.24,10.18,-0.01,0.06,-0.20,1721199046702
-3.42,2.59,12.22,-0.01,0.09,-0.24,1721199046706
-4.16,-0.71,9.81,0.10,-0.02,0.04,1721199046716
-1.73,0.53,9.48,0.04,0.14,0.30,1721199046726
0.83,0.52,12.50,0.05,0.06,0.11,1721199046736
0.56,3.11,9.68,0.08,-0.06,-0.14,1721199046746
-0.91,2.04,9.59,0.10,0.07,-0.33,1721199046756
-2.95,0.27,8.51,0.12,-0.07,-0.08,1721199046766
-2.80,-0.20,8.84,0.05,0.10,0.10,1721199046776
-0.45,0.51,9.93,0.05,0.01,0.08,1721199046786
-0.03,1.39,9.13,0.02,-0.01,-0.03,1721199046796
0.34,1.26,12.41,0.01,0.04,-0.11,1721199046806
-1.31,3.39,10.84,0.16,-0.09,-0.08,1721199046816
-1.92,-0.78,5.91,0.04,-0.02,0.01,1721199046826
-0.90,1.70,14.29,-0.04,0.08,0.04,1721199046836
0.27,0.74,10.27,0.07,-0.15,0.08,1721199046846
0.64,1.01,7.57,-0.02,0.06,0.09,1721199046856
0.47,1.99,11.20,0.02,-0.03,-0.07,1721199046866
-1.52,-0.01,9.65,-0.02,-0.13,-0.04,1721199046876
1.44,-1.00,11.94,0.07,0.07,0.29,1721199046886
2.96,0.45,7.52,-0.04,-0.09,0.10,1721199046896
-0.53,2.71,13.85,0.04,0.06,-0.26,1721199046906
-3.42,3.36,12.40,0.20,-0.06,-0.38,1721199046916
-7.59,1.87,7.83,0.16,-0.03,-0.01,1721199046926
-6.08,2.64,9.67,0.10,0.06,0.50,1721199046936
0.89,-0.86,10.75,0.02,-0.01,0.68,1721199046946
6.24,-0.33,9.56,0.10,-0.09,0.43,1721199046956
8.03,1.44,7.25,0.05,-0.03,-0.16,1721199046966
3.43,-1.94,8.59,-0.01,-0.09,-0.50,1721199046976
-1.76,0.49,13.83,0.09,0.06,-0.48,1721199046986
-5.58,3.41,9.71,0.12,-0.09,-0.19,1721199046996
-5.10,-0.63,7.95,-0.04,0.02,0.27,1721199047006
-1.14,-0.00,13.23,-0.02,0.06,0.29,1721199047016
2.10,-2.83,9.21,-0.08,-0.10,0.12,1721199047026
1.43,-1.01,11.16,-0.04,0.06,-0.12,1721199047036
0.41,0.79,10.91,-0.01,-0.06,-0.13,1721199047046
-1.92,3.14,10.08,0.00,-0.01,-0.04,1721199047056
-0.28,1.58,9.07,-0.00,0.02,0.03,1721199047066
-0.03,-0.89,8.75,-0.05,-0.02,0.03,1721199047076
0.65,-0.39,6.66,-0.14,0.10,-0.09,1721199047086
-1.26,4.46,9.54,-0.09,0.02,-0.23,1721199047096
-1.54,-3.02,7.95,-0.17,-0.17,0.05,1721199047106
0.22,-2.00,12.82,-0.16,0.08,0.27,1721199047116
2.81,-1.54,11.89,-0.12,-0.06,0.02,1721199047126
1.34,-1.70,8.68,-0.16,0.02,-0.27,1721199047136
-1.73,1.26,10.76,-0.09,0.06,-0.36,1721199047146
-4.40,-1.33,9.29,-0.08,-0.10,0.01,1721199047156
-2.30,-0.46,9.14,-0.04,0.09,0.36,1721199047166
3.17,-0.48,8.66,-0.16,0.00,0.31,1721199047176
3.01,3.24,14.10,-0.20,0.03,-0.11,1721199047186
1.25,3.89,14.34,-0.05,0.02,-0.34,1721199047196
-1.82,-6.06,8.94,-0.20,-0.10,-0.16,1721199047206
-3.19,-3.39,12.05,-0.16,0.15,0.08,1721199047216
-0.03,4.49,12.46,-0.05,0.06,0.16,1721199047226
1.66,4.73,9.56,-0.05,-0.01,0.11,1721199047236
3.53,2.53,13.69,-0.07,0.17,-0.14,1721199047246
0.38,0.67,12.30,0.03,-0.10,-0.36,1721199047256
-2.40,-1.76,10.29,-0.06,0.13,-0.26,1721199047266
-3.62,2.22,13.41,0.06,0.01,0.05,1721199047276
-0.78,-0.15,8.68,0.05,0.05,0.22,1721199047286
2.23,2.76,12.63,0.15,0.12,0.16,1721199047296
3.26,4.20,8.68,0.22,0.02,-0.18,1721199047306
0.74,4.70,10.12,0.12,0.19,-0.36,1721199047316
-1.66,1.68,10.86,0.11,0.01,-0.21,1721199047326
-2.22,0.72,7.14,0.13,0.08,0.04,1721199047336
1.59,-1.45,7.53,0.05,0.18,0.11,1721199047346
2.05,-0.44,6.70,-0.02,0.06,-0.10,1721199047356
1.64,0.92,12.61,-0.13,0.27,-0.33,1721199047366
-1.94,2.05,18.76,0.02,0.04,-0.36,1721199047376
-3.56,1.99,12.16,0.15,0.10,-0.13,1721199047386
-1.59,1.63,7.06,0.06,0.12,0.09,1721199047396
1.94,-0.11,7.53,-0.06,0.16,0.12,1721199047406
2.87,-0.89,11.96,-0.07,0.18,-0.25,1721199047416
-0.48,0.97,10.84,0.11,0.06,-0.44,1721199047426
-3.29,-0.75,6.36,0.02,0.15,-0.25,1721199047436
-3.79,-0.40,9.91,-0.08,0.12,0.07,1721199047446
0.36,2.06,14.01,-0.00,0.20,0.17,1721199047456
2.79,1.84,6.85,0.09,0.02,-0.07,1721199047466
1.01,0.46,5.35,-0.06,0.17,-0.36,1721199047476
-2.86,-1.40,10.01,-0.04,0.09,-0.33,1721199047486
-3.85,-1.47,9.46,-0.10,0.12,-0.02,1721199047496
-2.26,-0.43,12.94,-0.12,0.14,0.08,1721199047506
-0.67,-0.57,9.58,-0.04,0.02,0.07,1721199047516
0.62,-1.68,10.25,-0.11,0.15,-0.01,1721199047526
-0.02,-1.39,11.13,-0.06,0.01,-0.08,1721199047536
-0.76,2.60,12.35,-0.01,0.17,-0.10,1721199047546
-1.38,2.06,9.19,0.01,-0.01,-0.03,1721199047556
-0.65,-1.29,10.58,-0.06,0.16,0.08,1721199047566
0.73,0.81,12.15,-0.00,0.07,0.04,1721199047576
-0.16,1.88,9.98,0.02,0.04,-0.05,1721199047586
-0.03,0.54,11.81,0.01,0.14,-0.13,1721199047596
-1.11,-2.37,9.94,-0.04,0.01,-0.09,1721199047606
-2.18,-1.02,9.33,0.13,0.05,0.04,1721199047616
0.84,1.39,9.08,0.06,0.19,0.11,1721199047626
-0.33,0.96,10.15,0.09,-0.08,0.09,1721199047636
1.03,2.86,12.55,0.20,0.26,-0.05,1721199047646
-0.73,-0.53,5.49,0.12,-0.16,-0.09,1721199047656
-1.62,-1.64,9.61,0.02,0.28,-0.02,1721199047666
-0.09,-2.51,12.56,0.07,-0.02,0.08,1721199047676
-1.72,4.00,10.09,0.19,0.04,-0.05,1721199047686
1.30,1.45,8.29,0.25,0.13,0.03,1721199047696
-0.74,-0.78,6.66,0.19,0.01,0.08,1721199047706
0.06,2.05,9.03,0.23,0.17,0.03,1721199047716
-0.12,1.78,8.90,0.21,-0.05,-0.05,1721199047726
-0.22,0.84,8.35,0.21,0.13,-0.01,1721199047736
-0.35,0.07,10.36,0.18,0.05,0.01,1721199047746
-0.71,-2.01,10.35,0.12,0.04,0.07,1721199047756
0.46,1.59,13.30,0.20,0.15,0.02,1721199047766
-0.60,2.45,10.85,0.24,-0.05,-0.05,1721199047776
-1.42,0.15,14.65,0.23,0.17,-0.08,1721199047786
-2.31,0.81,10.39,0.44,-0.08,0.06,1721199047796
-0.84,3.22,7.19,0.38,0.13,0.20,1721199047806
0.14,4.43,9.59,0.43,-0.01,0.11,1721199047816
0.45,1.77,8.84,0.43,0.02,0.07,1721199047826
0.38,1.50,8.85,0.41,0.06,-0.01,1721199047836
-0.95,1.23,10.11,0.28,0.02,-0.02,1721199047846
-1.55,4.52,11.46,0.37,0.03,0.06,1721199047856
-0.10,1.45,7.00,0.31,-0.02,0.19,1721199047866
1.10,-1.35,7.59,0.23,0.07,0.19,1721199047876
2.16,0.83,8.13,0.23,0.06,0.02,1721199047886
0.66,1.29,8.61,0.11,0.03,-0.13,1721199047896
-2.26,0.22,10.54,0.10,0.01,-0.12,1721199047906
-2.97,-2.44,5.29,0.07,-0.08,0.11,1721199047916
-1.34,-0.01,7.16,-0.04,0.09,0.29,1721199047926
1.34,1.20,10.01,-0.12,-0.00,0.19,1721199047936
0.40,-0.65,9.84,-0.15,-0.08,-0.03,1721199047946
-1.54,-3.11,8.95,-0.15,0.05,-0.15,1721199047956
-3.50,-4.79,8.26,-0.26,-0.10,0.06,1721199047966
-3.47,-1.43,11.56,-0.19,-0.03,0.29,1721199047976
0.49,0.19,7.41,-0.09,-0.12,0.38,1721199047986
2.21,1.88,3.43,-0.20,-0.06,0.18,1721199047996
2.24,-0.02,6.93,-0.33,-0.03,-0.06,1721199048006
-1.85,-3.95,10.80,-0.43,-0.11,-0.24,1721199048016
-4.16,-4.34,15.29,-0.33,-0.09,0.05,1721199048026
-2.97,-3.27,13.07,-0.34,-0.12,0.35,1721199048036
0.45,1.46,15.39,-0.30,-0.04,0.41,1721199048046
3.96,2.71,10.58,-0.25,-0.20,0.26,1721199048056
3.02,1.96,10.68,-0.41,0.01,-0.18,1721199048066
-0.52,0.23,14.83,-0.31,-0.23,-0.27,1721199048076
-3.47,-0.60,12.04,-0.21,-0.14,-0.06,1721199048086
-2.48,1.29,10.03,-0.10,-0.13,0.28,1721199048096
0.39,2.50,9.90,-0.08,-0.08,0.34,1721199048106
1.91,3.29,12.48,-0.01,-0.05,0.08,1721199048116
0.72,4.10,12.08,0.08,-0.11,-0.12,1721199048126
-0.97,0.91,10.25,0.03,-0.09,-0.12,1721199048136
-1.85,2.84,11.72,0.19,-0.10,0.06,1721199048146
1.17,-1.74,7.89,0.12,-0.10,0.29,1721199048156
1.47,1.77,10.08,0.19,-0.02,0.10,1721199048166
1.66,0.84,7.91,0.24,-0.12,-0.17,1721199048176
-1.35,1.17,9.99,0.20,-0.05,-0.27,1721199048186
-2.29,4.75,12.80,0.26,-0.05,-0.09,1721199048196
-2.72,7.07,11.62,0.21,-0.15,0.14,1721199048206
0.06,1.49,9.46,0.06,-0.10,0.25,1721199048216
2.96,-9.76,8.35,-0.11,-0.10,0.10,1721199048226
1.97,-5.95,11.51,0.01,-0.05,-0.22,1721199048236
-0.75,0.46,9.12,0.10,-0.13,-0.26,1721199048246
-2.97,3.80,9.80,0.09,-0.04,-0.10,1721199048256
-0.96,0.80,8.20,0.02,-0.10,0.10,1721199048266
0.14,-1.44,10.64,-0.12,-0.04,-0.02,1721199048276
-0.34,-1.58,13.98,-0.04,-0.07,-0.15,1721199048286
-1.52,0.63,12.48,0.02,-0.10,-0.03,1721199048296
-1.19,2.74,7.63,0.09,-0.17,0.12,1721199048306
1.79,-3.20,5.94,-0.08,-0.06,0.10,1721199048316
1.73,-0.79,12.09,-0.09,-0.03,-0.14,1721199048326
-0.10,1.74,13.31,-0.01,-0.10,-0.26,1721199048336
-3.09,1.81,7.80,0.14,-0.21,-0.07,1721199048346
-0.65,-0.65,4.81,-0.01,0.01,0.19,1721199048356
0.47,0.30,8.45,0.02,-0.14,0.13,1721199048366
1.84,2.29,9.35,0.09,-0.02,-0.06,1721199048376
0.41,1.62,5.38,0.05,-0.16,-0.13,1721199048386
-0.83,0.94,13.77,-0.21,0.07,-0.12,1721199048396
-2.45,11.05,31.92,0.13,-0.11,-0.02,1721199048406
-1.03,2.53,16.16,0.25,-0.26,0.21,1721199048416
0.86,-4.16,6.88,-0.10,-0.06,0.28,1721199048426
2.97,7.27,12.94,0.19,-0.00,0.07,1721199048436
2.97,2.96,-1.60,0.08,-0.28,-0.22,1721199048446
-1.62,-2.27,10.15,-0.16,0.11,-0.35,1721199048456
-4.74,0.78,13.07,0.15,-0.27,-0.07,1721199048466
-5.12,1.47,13.68,-0.11,-0.02,0.24,1721199048476
0.41,4.36,10.17,0.17,-0.27,0.54,1721199048486
5.51,3.10,6.15,0.03,-0.05,0.23,1721199048496
3.72,1.55,5.80,0.10,-0.30,-0.18,1721199048506
0.48,0.22,7.33,-0.05,-0.04,-0.32,1721199048516
-3.21,1.60,11.61,-0.06,-0.33,0.00,1721199048526
-0.83,-0.39,8.81,-0.02,-0.12,0.28,1721199048536
3.31,-1.33,6.57,-0.10,-0.14,0.20,1721199048546
2.96,-2.39,5.12,-0.20,-0.16,-0.07,1721199048556
-0.28,0.78,9.43,-0.14,-0.07,-0.34,1721199048566
-3.50,0.24,4.92,-0.17,-0.35,-0.23,1721199048576
-4.33,2.29,9.55,-0.16,-0.08,0.12,1721199048586
1.23,-6.32,7.63,-0.43,-0.29,0.39,1721199048596
-0.01,-9.79,37.85,-0.40,0.01,-0.01,1721199048606
0.02,3.80,28.93,0.90,-0.61,-0.04,1721199048616
3.26,5.01,-4.09,0.27,-0.24,0.11,1721199048626
3.03,8.00,4.48,0.05,0.07,0.11,1721199048636
5.82,2.24,3.99,0.15,-0.23,-0.10,1721199048646
2.04,-0.05,4.81,-0.01,-0.02,-0.29,1721199048656
0.10,0.53,11.00,0.04,-0.10,-0.34,1721199048666
-3.17,2.97,11.18,0.05,-0.19,-0.17,1721199048676
-0.68,3.49,7.63,0.05,-0.06,0.15,1721199048686
2.25,0.24,10.68,-0.16,-0.04,0.01,1721199048696
1.93,-2.27,12.64,-0.09,-0.11,-0.35,1721199048711
0.68,2.35,14.85,-0.04,0.04,-0.40,1721199048715
-1.10,1.20,10.92,0.03,-0.26,-0.16,1721199048725
-0.95,2.97,10.70,0.01,0.06,0.01,1721199048735
1.92,1.81,11.20,0.02,-0.07,-0.12,1721199048745
2.14,1.29,10.97,-0.03,-0.08,-0.23,1721199048755
1.98,2.38,12.01,0.02,0.04,-0.39,1721199048765
0.01,1.77,7.66,0.03,-0.13,-0.44,1721199048775
-0.14,1.45,6.79,-0.04,0.09,-0.36,1721199048785
0.65,0.88,11.59,-0.02,0.05,-0.40,1721199048795
-0.21,2.39,9.77,-0.02,0.01,-0.45,1721199048805
-0.49,1.82,9.65,-0.03,0.01,-0.39,1721199048815
1.14,-1.77,7.88,-0.11,0.10,-0.41,1721199048825
0.43,-0.33,11.14,-0.08,0.10,-0.50,1721199048835
-0.22,1.76,10.92,0.01,0.14,-0.51,1721199048845
-2.95,-1.77,6.82,-0.12,0.10,-0.72,1721199048855
-7.81,0.95,12.98,-0.11,-0.03,-0.21,1721199048865
-1.33,-5.40,11.50,-0.24,0.31,0.06,1721199048875
6.11,1.68,11.67,0.12,-0.01,0.19,1721199048885
10.32,-3.81,0.05,-0.16,0.24,-0.84,1721199048895
-1.65,10.16,15.10,-0.22,0.02,-1.44,1721199048905
-6.60,-0.60,12.94,-0.04,0.10,-0.89,1721199048915
-7.36,-6.64,8.53,-0.11,0.15,0.05,1721199048925
-0.42,3.58,11.47,0.01,0.33,0.08,1721199048935
4.42,-1.46,9.95,-0.25,0.08,-0.43,1721199048945
-0.37,3.48,15.64,0.01,0.16,-0.89,1721199048955
-2.98,-0.06,7.13,0.01,0.13,-0.82,1721199048965
-6.88,1.13,10.54,-0.07,0.21,-0.32,1721199048975
-3.29,-0.28,9.64,0.02,0.20,-0.04,1721199048985
0.68,0.64,11.89,-0.09,0.21,-0.10,1721199048995
2.62,0.75,11.20,0.06,0.10,-0.35,1721199049005
2.06,0.62,9.59,-0.05,0.28,-0.57,1721199049015
-2.11,0.88,11.23,0.01,0.11,-0.64,1721199049025
-3.88,0.02,9.48,-0.01,0.26,-0.49,1721199049035
-4.39,1.36,12.13,0.03,0.14,-0.18,1721199049045
-0.95,1.30,8.73,0.09,0.20,-0.01,1721199049055
1.27,0.34,9.09,-0.02,0.21,-0.13,1721199049065
0.40,0.71,9.45,0.03,0.17,-0.38,1721199049075
-0.83,-0.11,11.48,-0.01,0.19,-0.44,1721199049085
-2.86,2.05,12.30,0.06,0.14,-0.26,1721199049095
-2.79,-0.72,8.61,0.08,0.16,-0.05,1721199049105
0.22,-0.06,9.93,-0.01,0.22,-0.07,1721199049115
1.00,2.08,10.68,0.05,0.13,-0.24,1721199049125
0.12,0.56,8.51,0.05,0.20,-0.41,1721199049135
-3.40,1.38,11.48,0.05,0.14,-0.36,1721199049145
-3.46,-0.01,8.94,0.07,0.14,-0.06,1721199049155
-1.45,-0.04,11.20,0.01,0.17,0.01,1721199049165
0.67,2.50,10.97,0.15,0.15,-0.04,1721199049175
0.66,-0.92,5.77,0.02,0.08,-0.20,1721199049185
-1.11,-0.12,12.78,0.04,0.21,-0.17,1721199049195
-0.09,2.98,11.28,0.15,0.07,-0.12,1721199049205
0.41,1.44,8.19,0.05,0.10,-0.11,1721199049215
0.47,2.15,12.14,0.08,0.24,-0.24,1721199049225
-0.63,1.07,11.50,0.06,0.08,-0.29,1721199049235
-2.49,1.82,6.54,0.15,0.07,-0.17,1721199049245
0.63,-0.52,10.73,-0.03,0.33,-0.05,1721199049255
0.68,1.45,12.96,0.10,0.02,-0.03,1721199049265
1.36,1.91,10.44,0.05,0.34,-0.29,1721199049275
-0.82,1.94,9.31,0.10,0.05,-0.34,1721199049285
-2.96,0.34,6.28,-0.04,0.24,-0.31,1721199049295
-3.60,0.75,11.45,0.01,0.16,-0.11,1721199049305
-3.06,2.84,10.37,0.03,0.14,0.00,1721199049315
-1.66,1.02,8.49,-0.04,0.09,0.00,1721199049325
1.20,-1.16,13.76,-0.05,0.11,0.27,1721199049335
2.97,0.65,9.22,0.04,0.10,-0.01,1721199049345
3.64,-1.34,7.32,-0.15,0.11,-0.39,1721199049355
-1.41,1.85,14.86,-0.06,0.17,-0.59,1721199049365
-5.58,-1.43,8.10,-0.01,0.10,-0.29,1721199049375
-8.04,0.71,10.62,-0.13,0.26,0.06,1721199049385
-3.02,-0.40,9.64,-0.01,0.13,0.40,1721199049395
2.39,-1.55,8.49,-0.18,0.12,0.36,1721199049405
5.47,0.85,13.80,0.00,0.11,0.04,1721199049415
3.81,-1.03,6.09,-0.06,-0.01,-0.31,1721199049425
-2.92,1.09,12.31,-0.09,0.21,-0.49,1721199049435
-4.90,-0.93,9.45,-0.02,-0.02,-0.21,1721199049445
-4.90,0.65,8.96,-0.04,0.14,0.17,1721199049455
0.12,-0.53,10.17,-0.04,0.16,0.33,1721199049465
1.70,1.22,8.93,-0.07,0.11,0.04,1721199049475
2.47,1.58,11.76,0.02,0.17,-0.13,1721199049485
0.08,0.51,8.81,-0.06,0.03,-0.16,1721199049495
-1.87,3.29,13.06,0.09,0.14,-0.07,1721199049505
0.72,0.27,10.16,-0.01,0.11,0.16,1721199049515
0.21,-0.94,9.72,0.04,0.05,0.04,1721199049525
1.61,-0.32,12.27,0.04,0.24,-0.18,1721199049535
-1.32,1.79,12.30,0.10,0.03,-0.19,1721199049545
-2.17,2.48,6.82,0.19,0.11,0.00,1721199049555
-0.55,-1.76,13.36,-0.01,0.21,0.13,1721199049565
-0.02,0.18,11.97,0.23,-0.02,0.11,1721199049575
2.34,2.33,10.12,0.15,0.34,-0.01,1721199049585
0.03,-0.41,6.94,0.11,-0.08,-0.11,1721199049595
-1.05,2.33,12.29,0.17,0.38,-0.11,1721199049605
-0.73,-0.14,7.52,0.11,-0.03,0.06,1721199049615
-1.26,-0.25,8.87,0.03,0.23,0.09,1721199049625
1.85,-0.31,14.18,0.02,0.21,-0.02,1721199049635
-0.75,0.90,7.80,0.16,-0.11,-0.05,1721199049645
0.64,1.15,7.58,0.01,0.41,0.03,1721199049655
-1.04,-0.25,10.23,0.00,-0.07,0.06,1721199049665
-0.57,-1.14,9.01,-0.02,0.24,0.04,1721199049675
1.11,-0.82,14.79,0.02,0.19,0.11,1721199049685
-0.09,0.69,4.81,0.07,-0.02,0.12,1721199049695
1.41,-0.48,9.19,-0.09,0.38,0.04,1721199049705
0.82,-0.27,10.92,-0.01,-0.01,0.01,1721199049715
-0.69,2.09,9.47,0.01,0.21,-0.08,1721199049725
-0.03,1.93,11.07,0.01,0.15,0.01,1721199049735
-0.80,-0.62,11.03,-0.06,0.09,0.09,1721199049745
0.21,-1.15,11.81,-0.03,0.21,0.11,1721199049755
0.63,1.03,11.04,0.00,0.11,0.01,1721199049765
0.43,1.62,8.91,0.02,0.14,0.00,1721199049775
0.75,1.96,9.34,-0.04,0.20,0.02,1721199049785
0.22,3.71,12.75,0.02,0.16,-0.01,1721199049795
0.28,-0.05,9.21,-0.05,0.15,-0.02,1721199049805
-1.21,2.10,13.72,-0.05,0.18,-0.03,1721199049815
0.06,1.93,9.77,-0.03,0.15,0.06,1721199049825
-0.31,1.16,9.62,-0.05,0.13,0.03,1721199049835
-0.13,1.48,9.39,-0.04,0.22,-0.05,1721199049845
-1.13,0.90,10.65,-0.03,0.09,-0.01,1721199049855
-0.86,2.60,9.23,0.01,0.21,-0.02,1721199049865
-0.69,0.80,10.11,-0.10,0.10,0.08,1721199049875
-0.66,-0.40,7.97,-0.00,0.09,0.10,1721199049885
1.26,1.85,8.85,-0.10,0.20,0.09,1721199049895
0.18,0.93,11.20,-0.11,0.04,-0.01,1721199049905
-0.56,0.26,8.54,-0.06,0.14,-0.12,1721199049915
-0.99,-1.87,11.65,-0.20,0.14,-0.05,1721199049925
-2.60,-2.46,9.92,-0.10,-0.00,0.06,1721199049935
-1.26,-1.13,11.67,-0.16,0.22,0.10,1721199049945
-0.75,1.53,9.43,-0.03,-0.10,0.10,1721199049955
1.00,-0.07,9.92,-0.13,0.24,0.08,1721199049965
0.19,-1.29,10.73,-0.12,-0.07,0.04,1721199049975
-0.86,0.93,9.07,-0.10,0.16,0.01,1721199049985
-0.08,-1.55,11.55,-0.16,0.07,0.07,1721199049995
-1.15,-1.32,9.54,-0.07,-0.03,0.08,1721199050005
-0.35,1.96,12.57,-0.05,0.19,0.04,1721199050015
-0.81,0.77,10.06,-0.05,-0.08,0.06,1721199050025
-0.74,0.27,10.58,-0.09,0.15,0.06,1721199050035
-0.33,0.96,13.62,0.00,0.03,0.07,1721199050045
-1.43,0.42,6.78,0.05,-0.09,0.14,1721199050055
0.62,0.25,11.04,-0.04,0.22,0.11,1721199050065
0.36,-0.90,12.11,0.03,-0.12,0.13,1721199050075
-0.21,-0.53,10.74,0.00,0.13,0.01,1721199050085
-0.78,0.95,10.32,0.11,-0.01,0.03,1721199050095
-1.59,1.21,9.33,0.04,0.06,0.11,1721199050105
0.00,0.49,10.14,0.09,0.05,0.16,1721199050115
1.15,1.27,11.49,0.07,0.06,0.13,1721199050125
0.91,0.10,8.16,0.12,-0.04,-0.00,1721199050135
0.14,1.05,12.71,0.10,0.12,-0.04,1721199050145
-0.71,4.07,11.02,0.15,-0.01,-0.05,1721199050155
-2.29,-2.09,9.12,0.11,0.02,0.04,1721199050165
-0.74,-0.93,10.10,0.10,0.08,0.16,1721199050175
-0.23,2.37,9.06,0.18,-0.01,0.14,1721199050185
1.16,3.29,10.57,0.11,0.12,0.05,1721199050195
-0.14,1.14,9.50,0.15,-0.10,-0.02,1721199050205
-0.42,-2.10,8.26,0.05,0.10,-0.08,1721199050215
-1.76,1.34,12.57,0.07,0.02,0.00,1721199050225
-1.74,2.36,8.76,0.09,-0.01,0.14,1721199050235
-0.12,-0.26,11.54,0.02,0.11,0.06,1721199050245
-0.65,1.70,12.10,0.15,-0.05,0.03,1721199050255
-0.25,1.10,9.15,0.07,0.06,0.04,1721199050265
-0.17,1.43,10.39,0.08,0.01,0.05,1721199050275
-0.20,1.29,9.39,0.09,0.01,0.02,1721199050285
-0.26,-0.32,6.81,0.02,-0.06,0.06,1721199050295
-0.30,1.57,10.94,0.03,0.08,0.01,1721199050305
-0.10,0.64,10.54,-0.05,0.00,-0.02,1721199050315
-2.63,1.89,10.27,-0.01,-0.08,0.01,1721199050325
-0.68,-0.06,9.51,-0.08,0.11,0.12,1721199050335
-0.82,-1.29,10.66,-0.12,-0.15,0.16,1721199050345
-0.56,2.33,10.75,0.02,0.09,0.15,1721199050355
1.72,1.88,9.87,-0.09,-0.05,0.12,1721199050365
-0.86,1.77,9.74,-0.03,-0.09,0.01,1721199050375
-0.46,-0.48,9.52,-0.08,0.08,-0.01,1721199050385
-2.06,1.18,11.85,-0.09,-0.16,0.15,1721199050395
-0.70,0.94,8.64,-0.03,-0.01,0.25,1721199050405
1.27,0.59,12.80,-0.14,0.03,0.15,1721199050415
-0.72,2.07,7.89,-0.01,-0.19,0.05,1721199050425
-0.34,0.08,8.86,-0.18,0.13,0.05,1721199050435
-1.14,-0.46,13.75,-0.11,-0.18,0.16,1721199050445
-0.59,0.85,8.33,-0.03,0.00,0.22,1721199050455
1.06,1.54,11.65,-0.10,-0.01,0.12,1721199050465
-0.09,0.25,9.49,-0.07,-0.16,-0.02,1721199050475
-0.40,-0.34,13.98,-0.10,0.09,0.01,1721199050485
-2.16,-0.46,9.42,-0.04,-0.26,0.10,1721199050495
-1.97,-0.07,8.45,-0.06,0.04,0.20,1721199050505
0.44,-1.28,11.48,-0.08,-0.07,0.22,1721199050515
-0.17,-1.20,7.13,-0.07,-0.16,0.19,1721199050525
1.09,1.57,11.48,0.02,0.08,0.11,1721199050535
1.45,0.25,11.30,-0.09,-0.20,0.05,1721199050545
-0.81,3.36,10.77,0.01,-0.05,0.00,1721199050555
0.66,1.38,12.35,-0.02,-0.00,0.02,1721199050565
-1.00,-1.72,10.57,-0.05,-0.16,0.04,1721199050575
-0.97,-2.16,5.99,0.04,-0.07,0.11,1721199050585
0.82,1.26,11.38,-0.03,0.06,0.17,1721199050595
0.91,2.16,10.70,0.08,-0.21,0.10,1721199050605
1.36,0.37,10.94,0.01,0.05,0.02,1721199050615
0.53,0.15,13.72,-0.01,-0.09,-0.03,1721199050625
-1.24,1.13,9.43,0.05,-0.12,-0.01,1721199050635
0.08,-1.27,9.24,-0.01,0.05,0.02,1721199050645
-0.35,-5.49,7.94,0.07,-0.13,0.05,1721199050655
0.20,0.69,9.96,-0.00,-0.29,0.01,1721199051195
1.71,1.90,11.28,0.02,0.12,-0.00,1721199051200
-1.31,-0.49,5.21,-0.06,-0.21,-0.06,1721199051209
0.28,-1.57,12.35,-0.08,0.25,-0.04,1721199051219
-1.16,1.19,10.16,0.00,-0.27,-0.04,1721199051228
0.23,1.44,9.41,-0.02,0.20,-0.05,1721199051238
0.11,-0.89,9.71,-0.04,-0.20,0.00,1721199051247
-0.46,0.46,11.58,-0.04,0.13,-0.07,1721199051257
0.56,1.80,13.18,0.01,-0.11,-0.03,1721199051266
-0.93,-0.79,6.16,-0.08,-0.03,-0.06,1721199051276
0.43,0.76,14.22,-0.06,0.12,-0.12,1721199051285
-0.77,1.02,9.22,0.06,-0.20,-0.07,1721199051295
-0.10,-0.61,12.98,-0.04,0.24,-0.13,1721199051304
-1.23,1.19,11.75,0.13,-0.22,0.02,1721199051314
-0.52,2.77,10.33,0.02,0.23,-0.02,1721199051323
-0.95,0.72,11.29,0.15,-0.22,-0.00,1721199051333
-0.45,2.04,8.41,0.19,0.13,-0.02,1721199051342
0.87,1.22,12.45,0.11,-0.07,-0.01,1721199051352
-0.73,1.14,11.64,0.22,-0.06,-0.03,1721199051362
0.09,4.83,10.81,0.27,0.06,-0.05,1721199051372
-1.09,2.08,9.48,0.13,-0.13,-0.04,1721199051382
-1.52,0.74,8.97,0.22,-0.03,0.00,1721199051392
0.71,-0.09,7.44,0.14,0.02,0.03,1721199051402
-0.30,0.24,9.84,0.08,-0.06,-0.02,1721199051412
0.66,1.37,11.86,0.14,0.07,-0.05,1721199051422
-0.38,1.79,7.74,0.10,-0.14,-0.14,1721199051432
-1.22,2.00,11.96,0.08,0.09,-0.12,1721199051442
-0.92,-2.21,8.55,-0.04,-0.10,0.01,1721199051452
-1.85,1.54,12.57,0.02,0.02,0.01,1721199051462
2.27,0.28,12.93,0.05,0.09,0.04,1721199051472
0.08,-0.47,7.79,0.06,-0.16,-0.04,1721199051482
0.67,-0.38,7.74,0.06,0.15,-0.11,1721199051492
-0.12,0.30,9.48,0.01,-0.05,-0.07,1721199051502
-1.39,0.74,8.50,0.06,-0.06,0.04,1721199051512
0.51,-0.72,8.63,-0.02,0.09,0.03,1721199051522
-0.03,-2.37,7.64,-0.04,-0.12,-0.05,1721199051532
-0.45,-0.75,11.56,-0.04,0.12,-0.13,1721199051542
-0.65,-1.11,13.75,-0.01,-0.08,-0.09,1721199051552
-1.52,0.77,11.70,0.01,-0.02,-0.02,1721199051562
0.08,-1.89,10.33,-0.09,0.05,-0.02,1721199051572
-0.29,-1.11,11.22,-0.04,-0.12,-0.06,1721199051582
0.84,1.64,9.55,0.02,0.08,-0.14,1721199051592
0.19,2.57,11.77,0.04,-0.02,-0.16,1721199051602
-0.79,0.79,7.12,0.06,-0.05,-0.16,1721199051612
-1.46,4.13,12.43,0.03,0.15,-0.17,1721199051622
-1.13,4.77,12.38,0.09,-0.05,-0.15,1721199051632
-2.47,3.92,6.72,0.05,-0.06,-0.09,1721199051642
-0.92,3.95,12.09,0.01,0.14,-0.03,1721199051652
-1.25,1.29,8.89,0.05,-0.24,-0.02,1721199051662
-0.40,3.21,12.16,0.19,0.13,-0.03,1721199051672
1.65,2.47,5.01,0.17,-0.14,-0.04,1721199051682
-1.38,-0.14,10.11,-0.11,0.04,-0.13,1721199051692
-1.18,-0.82,10.85,0.16,-0.06,-0.10,1721199051702
-0.89,-1.23,10.83,-0.06,-0.01,-0.03,1721199051712
-0.26,2.16,11.58,0.18,-0.12,0.14,1721199051722
3.07,1.42,7.21,-0.01,0.08,0.07,1721199051732
1.24,0.09,9.00,-0.03,-0.19,-0.12,1721199051742
0.81,-4.60,6.66,-0.07,0.02,-0.22,1721199051752
-1.30,-4.45,15.01,-0.12,0.01,-0.21,1721199051762
-2.59,-1.33,11.58,0.15,-0.17,-0.05,1721199051772
-0.20,3.78,11.04,0.08,0.15,0.04,1721199051782
1.06,3.36,7.78,0.04,-0.19,-0.02,1721199051792
0.18,-1.27,12.45,-0.22,0.13,-0.18,1721199051802
-1.88,-2.49,9.51,0.07,-0.27,-0.14,1721199051812
-0.80,-1.23,6.77,-0.07,0.13,-0.12,1721199051822
0.11,0.35,12.01,0.04,-0.13,0.01,1721199051832
0.11,4.93,13.62,0.05,0.06,-0.08,1721199051842
-0.78,7.98,10.78,0.04,-0.12,-0.26,1721199051852
-2.61,-3.22,5.87,-0.31,-0.13,-0.28,1721199051862
-4.23,-2.58,16.94,-0.15,0.01,-0.08,1721199051872
-1.73,-2.99,6.92,0.02,-0.26,0.24,1721199051882
0.04,5.43,7.27,0.07,0.02,0.18,1721199051892
3.07,2.34,6.87,-0.04,-0.14,-0.16,1721199051902
-2.06,0.32,11.55,-0.10,-0.17,-0.28,1721199051912
-3.54,1.74,12.19,-0.01,-0.01,-0.05,1721199051922
-3.02,-3.75,10.76,-0.22,-0.28,0.29,1721199051932
-0.96,2.37,9.64,0.20,-0.24,0.38,1721199051942
8.15,1.37,9.32,-0.04,0.06,0.18,1721199051952
2.42,5.66,9.62,0.07,-0.41,-0.24,1721199051962
0.96,2.34,8.37,-0.06,0.12,-0.44,1721199051972
-4.76,-0.79,13.88,-0.17,-0.37,-0.23,1721199051982
-4.87,-4.88,8.13,0.03,-0.19,0.16,1721199051992
2.22,0.92,10.58,0.05,0.02,0.25,1721199052002
3.83,2.21,7.72,-0.01,-0.23,-0.10,1721199052012
1.19,0.12,6.44,0.06,-0.12,-0.49,1721199052022
-1.49,0.99,10.28,0.07,-0.05,-0.44,1721199052032
-4.44,2.21,11.65,-0.01,-0.20,-0.05,1721199052042
-1.81,-0.40,16.33,-0.08,-0.06,0.17,1721199052052
2.77,-1.40,14.75,0.06,-0.19,0.07,1721199052062
5.00,6.45,13.25,0.14,0.02,-0.20,1721199052072
2.21,5.97,9.78,0.09,-0.20,-0.50,1721199052082
-3.19,5.30,5.34,0.14,-0.12,-0.44,1721199052092
-3.22,-1.86,6.03,-0.13,-0.04,-0.23,1721199052102
-3.62,-2.72,14.54,0.05,-0.23,0.07,1721199052112
2.44,5.90,15.31,0.28,0.16,0.00,1721199052122
2.18,4.38,7.15,0.17,-0.37,-0.26,1721199052132
-1.02,0.78,3.75,0.02,-0.02,-0.53,1721199052142
-0.99,-2.00,15.16,-0.10,0.04,-0.40,1721199052152
-4.75,1.03,9.55,0.18,-0.39,-0.02,1721199052162
-0.43,1.71,5.82,0.05,0.18,0.09,1721199052172
2.83,-1.96,11.68,-0.09,-0.14,-0.11,1721199052182
1.91,-4.55,9.78,0.07,-0.16,-0.28,1721199052192
2.90,-0.92,13.75,0.07,0.14,-0.39,1721199052202
-0.41,4.77,10.23,0.20,-0.27,-0.39,1721199052212
0.26,6.66,8.65,0.10,0.23,-0.32,1721199052222
-0.53,0.15,-3.95,-0.14,-0.35,-0.31,1721199052232
-0.13,-6.07,3.85,-0.49,0.29,-0.37,1721199052242
0.81,-6.40,29.02,-0.19,0.12,-0.40,1721199052252
-2.47,-1.34,12.24,0.47,-0.40,-0.29,1721199052262
1.81,5.33,0.34,0.18,0.37,-0.28,1721199052272
1.00,-2.35,11.08,-0.51,-0.13,-0.51,1721199052282
-3.90,-6.49,22.62,-0.12,0.07,-0.58,1721199052292
-0.68,0.79,18.43,0.21,0.16,-0.25,1721199052302
-1.98,10.72,6.00,0.16,-0.17,-0.24,1721199052312
-0.58,2.89,2.98,-0.22,0.13,-0.48,1721199052322
-1.65,-5.23,17.62,-0.38,0.02,-0.51,1721199052332
-2.81,-2.30,13.19,0.12,-0.06,-0.40,1721199052342
-0.88,-0.31,3.07,-0.05,0.01,-0.35,1721199052352
-2.66,2.56,7.82,0.00,0.03,-0.42,1721199052362
-0.73,0.46,16.10,-0.10,0.22,-0.42,1721199052372
-2.11,4.28,16.06,0.15,-0.18,-0.20,1721199052382
-1.35,6.36,5.74,0.09,0.13,-0.18,1721199052392
-0.64,4.35,7.92,-0.00,-0.03,-0.29,1721199052402
-0.81,-1.75,3.66,-0.02,-0.08,-0.22,1721199052412
-0.07,-3.75,10.24,-0.17,0.16,-0.16,1721199052422
0.79,-0.60,15.84,0.05,-0.01,-0.27,1721199052432
2.12,7.10,11.81,0.23,0.17,-0.43,1721199052442
-0.12,7.63,3.74,0.02,-0.04,-0.63,1721199052452
-4.56,-1.69,4.78,-0.25,0.04,-0.63,1721199052462
-4.53,-6.54,14.36,-0.23,0.13,-0.27,1721199052472
-1.58,0.40,12.65,0.15,-0.02,0.01,1721199052482
2.77,3.16,4.61,0.04,0.14,-0.24,1721199052492
-0.02,2.99,8.21,-0.10,0.03,-0.63,1721199052502
-1.97,-2.65,15.50,-0.28,0.15,-0.61,1721199052512
-3.98,-5.47,24.20,-0.23,0.03,-0.21,1721199052522
0.44,-0.51,21.83,0.26,0.18,-0.00,1721199052532
3.77,5.67,6.25,0.35,-0.03,-0.33,1721199052542
1.29,8.46,-0.17,0.21,0.10,-0.78,1721199052552
-1.53,5.60,6.43,-0.01,0.22,-0.80,1721199052562
-6.62,-7.41,4.65,-0.24,-0.26,-0.46,1721199052572
-6.39,4.41,11.61,0.24,0.34,-0.08,1721199052582
3.72,1.15,5.60,-0.13,0.30,-0.01,1721199052592
-0.81,-1.66,6.74,-0.10,-0.23,-0.33,1721199052602
5.06,-1.87,21.51,-0.08,0.63,-0.55,1721199052612
-0.92,0.38,14.16,0.23,-0.26,-0.52,1721199052622
-1.68,-0.54,4.22,0.03,0.38,-0.50,1721199052632
-1.92,7.49,15.76,0.22,0.15,-0.39,1721199052642
-0.95,1.62,1.69,-0.02,0.03,-0.27,1721199052652
0.19,-3.32,12.79,-0.34,0.45,-0.40,1721199052662
0.96,-3.58,16.74,0.05,0.08,-0.52,1721199052672
-0.20,1.48,7.20,0.10,0.26,-0.66,1721199052682
-1.38,10.76,12.24,0.28,0.32,-0.62,1721199052692
-3.25,-1.10,-0.27,-0.19,0.03,-0.44,1721199052702
-4.29,-2.02,16.39,-0.14,0.49,-0.32,1721199052712
2.34,-7.93,14.66,-0.13,0.22,-0.30,1721199052722
-0.58,4.93,15.16,0.30,0.20,-0.35,1721199052732
2.57,4.16,1.42,0.13,0.37,-0.58,1721199052742
-4.18,0.35,7.37,-0.22,0.17,-0.69,1721199052752
-2.21,-1.92,12.80,-0.03,0.49,-0.44,1721199052762
-1.90,1.07,14.28,-0.05,0.25,-0.22,1721199052772
-1.26,5.67,7.86,0.21,0.25,-0.34,1721199052782
1.27,0.12,5.34,-0.08,0.39,-0.45,1721199052792
-3.11,-2.04,10.53,-0.08,0.16,-0.44,1721199052802
-1.42,-1.53,15.19,-0.03,0.54,-0.39,1721199052812
-1.66,2.32,12.40,0.14,0.17,-0.27,1721199052822
-2.43,2.23,4.17,0.07,0.35,-0.24,1721199052832
-2.23,0.36,8.86,-0.03,0.34,-0.17,1721199052842
-2.52,-2.74,6.28,-0.03,0.09,-0.01,1721199052852
0.64,2.45,17.89,-0.01,0.64,-0.05,1721199052862
1.24,1.69,13.48,0.14,0.03,-0.13,1721199052872
-3.56,3.98,3.96,0.22,0.25,-0.23,1721199052882
-0.76,0.28,8.81,-0.04,0.41,-0.05,1721199052892
-2.85,0.28,14.33,-0.07,0.06,0.09,1721199052902
-0.20,-0.40,8.89,0.14,0.34,0.17,1721199052912
1.40,3.84,11.42,0.08,0.28,0.03,1721199052922
-0.82,1.83,5.71,0.09,0.07,-0.07,1721199052932
-2.53,3.50,11.30,0.01,0.39,-0.02,1721199052942
-0.91,0.49,11.26,-0.03,0.11,0.13,1721199052952
-2.72,-0.12,10.77,0.00,0.14,0.17,1721199052962
-0.20,-1.68,8.34,0.05,0.19,0.26,1721199052972
0.39,4.09,11.47,0.12,0.16,0.21,1721199052982
1.66,0.88,8.85,-0.04,0.15,0.14,1721199052992
-2.22,1.09,14.02,-0.03,0.12,0.05,1721199053002
-2.24,0.26,8.72,0.08,0.11,0.15,1721199053012
-1.57,-0.63,10.03,-0.09,0.11,0.34,1721199053022
0.39,2.09,7.82,0.18,-0.00,0.46,1721199053032
3.87,0.19,10.40,-0.15,0.27,0.24,1721199053042
-0.43,3.55,11.56,0.16,-0.16,0.02,1721199053052
-0.21,-0.89,9.10,-0.09,0.31,0.01,1721199053062
-3.91,2.07,12.56,0.11,-0.22,0.32,1721199053072
-0.32,-0.03,6.65,-0.04,0.24,0.43,1721199053082
1.19,2.82,12.05,0.04,-0.05,0.33,1721199053092
1.39,-1.40,6.36,-0.09,0.04,0.11,1721199053102
-0.98,0.45,14.12,-0.05,0.06,0.04,1721199053112
-1.23,0.05,10.38,0.05,-0.03,0.19,1721199053122
-1.40,2.11,10.59,0.02,-0.03,0.31,1721199053132
1.17,2.90,8.74,0.02,0.01,0.25,1721199053142
0.98,-0.08,8.51,-0.17,-0.03,0.07,1721199053152
-0.58,-1.56,14.91,-0.09,0.01,0.03,1721199053162
-1.27,-0.97,11.98,0.09,-0.06,0.20,1721199053172
-0.12,1.72,8.10,0.06,-0.04,0.28,1721199053182
1.61,2.53,10.89,-0.01,0.02,0.02,1721199053197
0.87,0.74,9.67,-0.04,-0.11,-0.07,1721199053201
-0.62,1.79,11.26,0.02,0.06,-0.12,1721199053211
-1.18,-1.14,8.39,-0.03,-0.11,0.05,1721199053221
-1.78,0.94,9.62,0.06,-0.02,0.13,1721199053231
1.43,-0.02,8.99,-0.07,0.07,0.10,1721199053241
0.35,2.47,10.92,0.03,-0.15,-0.02,1721199053251
1.44,1.59,10.96,-0.02,0.16,-0.15,1721199053261
-1.30,0.79,12.63,-0.05,-0.11,-0.14,1721199053271
-2.43,-0.80,9.35,0.01,-0.02,-0.06,1721199053281
-0.18,-0.63,10.73,-0.02,0.08,0.03,1721199053291
0.61,1.22,11.88,0.06,-0.05,-0.01,1721199053301
0.76,2.46,8.50,0.08,0.03,-0.19,1721199053311
-0.32,3.20,11.15,0.01,0.08,-0.28,1721199053321
-2.45,0.50,7.63,-0.05,-0.08,-0.17,1721199053331
-2.14,-0.64,12.12,-0.10,0.13,-0.02,1721199053341
0.27,0.51,12.01,0.10,-0.03,0.09,1721199053351
2.32,1.94,8.30,0.04,0.07,-0.04,1721199053361
2.12,1.90,9.29,0.02,0.05,-0.28,1721199053371
-0.51,1.01,12.09,-0.02,0.09,-0.41,1721199053381
-3.20,1.32,10.92,0.08,0.01,-0.22,1721199053391
-2.20,0.51,6.74,-0.00,0.09,-0.01,1721199053401
0.02,-0.14,9.78,-0.05,0.09,-0.01,1721199053411
1.25,-0.51,11.04,0.00,0.05,-0.17,1721199053421
0.66,2.21,13.83,0.06,0.17,-0.33,1721199053431
-1.67,2.32,9.27,0.08,0.01,-0.26,1721199053441
-2.88,1.62,7.98,-0.02,0.13,-0.15,1721199053451
-1.57,-0.14,7.86,-0.05,0.06,-0.07,1721199053461
0.04,-0.86,11.09,-0.09,0.14,-0.08,1721199053471
0.57,-1.26,9.45,0.04,0.03,-0.16,1721199053481
0.50,0.50,12.82,-0.04,0.26,-0.27,1721199053491
-0.85,0.48,9.26,0.10,-0.04,-0.23,1721199053501
-1.59,1.50,11.05,-0.05,0.26,-0.17,1721199053511
-0.86,2.10,11.07,0.07,0.03,-0.12,1721199053521
-1.27,1.94,8.62,-0.06,0.15,-0.19,1721199053531
-1.72,0.96,8.64,-0.01,0.07,-0.20,1721199053541
-2.38,0.01,11.36,-0.11,0.17,-0.17,1721199053551
-2.07,-0.98,10.99,0.02,0.01,-0.04,1721199053561
-0.93,0.99,10.59,-0.03,0.18,-0.06,1721199053571
-0.55,2.51,11.50,0.06,0.03,-0.08,1721199053581
-1.73,2.53,8.23,-0.02,0.08,-0.07,1721199053591
-2.05,0.66,9.95,-0.06,0.07,-0.05,1721199053601
-1.90,-1.13,11.48,-0.04,0.06,0.09,1721199053611
-0.57,1.07,12.01,0.06,0.05,0.19,1721199053621
0.78,0.83,6.57,0.07,-0.01,0.14,1721199053631
0.76,2.68,10.87,-0.04,0.14,0.00,1721199053641
-0.02,0.21,10.50,0.02,-0.03,-0.06,1721199053651
-2.37,3.90,11.03,0.01,0.07,0.03,1721199053661
-1.46,0.21,8.66,-0.01,-0.05,0.14,1721199053671
-1.06,0.79,10.96,0.06,0.02,0.14,1721199053681
0.33,-0.92,8.19,0.03,0.03,0.03,1721199053691
-1.59,0.10,11.38,0.00,-0.04,0.06,1721199053701
-1.77,-0.35,10.33,0.00,0.03,0.24,1721199053711
-0.47,0.96,10.74,0.02,-0.06,0.32,1721199053721
2.42,-0.27,11.90,-0.01,0.09,0.27,1721199053731
2.80,-0.30,9.37,0.01,-0.10,0.13,1721199053741
2.18,0.95,11.92,-0.01,0.10,-0.02,1721199053751
0.77,0.60,11.55,0.06,-0.03,-0.09,1721199053761
-1.38,1.62,10.15,0.09,0.02,-0.05,1721199053771
-1.66,1.31,7.56,0.02,0.04,0.02,1721199053781
-1.16,0.50,11.39,-0.09,0.05,0.08,1721199053791
-0.23,0.87,10.96,0.07,-0.01,0.09,1721199053801
1.15,1.76,8.57,-0.01,0.10,-0.00,1721199053811
0.36,2.39,9.77,0.03,-0.01,-0.08,1721199053821
-0.55,-0.28,9.61,-0.09,0.11,-0.13,1721199053831
-1.04,2.19,12.59,0.11,-0.02,0.01,1721199053841
0.09,1.35,6.82,-0.02,0.11,0.04,1721199053851
0.40,1.44,11.77,-0.05,0.07,-0.10,1721199053861
0.40,-1.53,9.08,-0.00,0.01,-0.11,1721199053871
-0.81,0.82,14.27,0.01,0.18,-0.16,1721199053881
-1.11,1.26,9.70,0.11,-0.03,-0.08,1721199053891
-1.26,2.61,9.20,0.01,0.14,-0.06,1721199053901
-0.55,2.01,8.36,0.03,0.06,-0.09,1721199053911
-0.85,0.38,10.00,-0.09,0.10,-0.11,1721199053921
-1.08,-0.33,9.98,0.04,0.03,-0.10,1721199053931
-0.23,0.51,8.37,0.01,0.12,-0.08,1721199053941
-0.13,1.37,12.03,0.02,0.11,-0.09,1721199053951
-0.24,0.33,9.37,0.02,0.07,-0.15,1721199053961
-0.53,1.03,11.47,0.03,0.11,-0.13,1721199053971
-0.61,1.69,10.56,0.06,0.11,-0.13,1721199053981
-1.24,2.72,9.35,0.06,0.08,-0.13,1721199053991
-1.28,0.55,8.49,-0.04,0.12,-0.10,1721199054001
-1.87,-0.61,10.39,-0.02,0.04,-0.06,1721199054011
-0.87,-0.56,10.66,0.02,0.13,0.04,1721199054021
0.40,-0.16,10.98,-0.01,0.13,0.01,1721199054031
0.02,2.26,11.71,0.09,0.06,-0.06,1721199054041
-0.18,1.97,9.25,0.04,0.14,-0.08,1721199054051
-1.65,0.65,9.30,0.00,0.03,-0.07,1721199054061
-1.03,-0.33,11.35,-0.03,0.17,0.03,1721199054071
-0.59,0.33,11.30,0.05,0.04,0.12,1721199054081
0.39,0.62,9.16,0.03,0.10,0.04,1721199054091
0.85,0.99,10.52,0.05,0.13,-0.05,1721199054101
-0.62,1.23,9.43,0.02,0.09,-0.10,1721199054111
-1.63,2.04,9.80,0.04,0.08,0.02,1721199054121
-0.86,2.47,10.54,0.03,0.14,0.12,1721199054131
0.25,1.41,8.98,0.02,0.06,0.06,1721199054141
-0.29,-0.03,10.22,-0.00,0.12,-0.05,1721199054151
-1.27,1.57,9.71,0.07,0.10,-0.06,1721199054161
-1.39,1.88,11.03,-0.01,0.11,0.01,1721199054171
-1.39,1.73,10.12,0.10,0.01,0.14,1721199054181
0.11,1.45,10.68,-0.02,0.19,0.10,1721199054191
-0.43,-0.17,10.50,0.03,-0.07,0.05,1721199054201
-0.82,-0.36,9.53,-0.01,0.16,0.03,1721199054211
-0.78,0.49,10.64,0.08,-0.02,0.07,1721199054221
-1.72,0.77,9.42,0.07,0.04,0.16,1721199054231
-0.55,1.35,9.09,0.05,0.08,0.13,1721199054241
-0.06,0.44,10.33,-0.05,0.01,0.11,1721199054251
-1.28,-0.03,11.82,0.00,0.01,0.12,1721199054261
-0.27,0.13,9.74,0.04,0.05,0.14,1721199054271
-0.09,0.98,8.53,0.04,-0.04,0.16,1721199054281
0.05,0.54,9.67,-0.03,0.08,0.13,1721199054291
-0.26,1.69,13.23,0.02,-0.01,0.07,1721199054301
-0.84,2.15,8.61,0.07,-0.07,0.13,1721199054311
-0.38,1.19,7.99,-0.05,0.06,0.15,1721199054321
-0.41,0.29,10.81,-0.04,-0.03,0.12,1721199054331
-0.37,-0.67,10.60,-0.06,-0.00,0.16,1721199054341
-0.40,1.36,11.44,0.02,-0.01,0.10,1721199054351
-0.45,1.43,8.82,0.02,-0.04,0.12,1721199054361
-1.32,1.18,8.92,-0.05,-0.03,0.12,1721199054371
-0.20,1.14,9.91,-0.04,0.00,0.13,1721199054381
-0.38,-0.69,9.00,-0.13,-0.08,0.14,1721199054391
-1.08,1.46,11.45,-0.02,-0.01,0.14,1721199054401
0.71,-1.40,8.74,-0.14,-0.04,0.19,1721199054411
-0.35,1.91,13.05,0.03,-0.08,0.15,1721199054421
1.77,-0.10,9.35,-0.04,0.03,0.10,1721199054431
-0.44,0.68,11.65,0.00,-0.18,0.09,1721199054441
0.21,2.05,11.05,0.04,0.12,0.03,1721199054451
-1.02,1.99,9.52,0.02,-0.18,0.05,1721199054461
-1.80,0.77,8.58,-0.05,0.01,0.14,1721199054471
-0.16,-0.25,10.11,-0.06,-0.03,0.14,1721199054481
0.04,0.45,11.35,-0.05,-0.07,0.15,1721199054491
0.69,0.28,9.81,-0.00,-0.05,0.10,1721199054501
1.02,2.22,12.18,0.03,0.00,-0.01,1721199054511
-0.37,1.75,7.14,0.04,-0.16,-0.03,1721199054521
-1.41,0.36,10.74,-0.12,0.09,-0.08,1721199054531
-1.34,-0.33,12.40,-0.01,-0.12,0.01,1721199054541
-1.33,-0.17,10.67,-0.02,-0.05,0.12,1721199054551
0.07,2.22,11.11,0.08,0.00,0.08,1721199054561
0.26,0.26,8.02,-0.02,-0.10,0.01,1721199054571
-0.50,-0.17,12.06,0.00,-0.02,-0.04,1721199054581
-0.02,1.78,9.67,0.10,-0.07,-0.01,1721199054591
-0.31,1.97,9.37,-0.02,-0.02,0.02,1721199054601
-0.37,1.12,9.46,-0.00,-0.07,-0.06,1721199054611
-0.13,1.51,9.89,0.04,-0.04,-0.05,1721199054621
-0.45,0.23,10.19,-0.06,0.00,-0.03,1721199054631
-1.74,1.32,10.51,0.05,-0.12,-0.04,1721199054641
-0.07,1.61,10.44,0.03,0.05,0.04,1721199054651
-0.23,1.10,11.67,0.01,-0.07,-0.03,1721199054661
-0.56,-0.49,8.08,-0.01,-0.09,-0.11,1721199054671
-0.01,0.94,12.44,0.00,0.05,-0.05,1721199054681
-1.11,-0.81,9.95,-0.03,-0.11,-0.02,1721199054691
-1.71,1.60,9.78,0.08,-0.06,-0.05,1721199054701
0.82,1.47,10.13,0.04,0.05,0.02,1721199054711
-1.19,0.46,8.23,-0.05,-0.18,-0.04,1721199054721
-0.62,1.57,11.44,0.03,0.04,-0.06,1721199054731
0.23,-0.53,11.23,-0.03,-0.03,-0.02,1721199054741
-1.71,0.70,8.31,0.06,-0.19,0.03,1721199054751
0.81,0.06,9.05,-0.03,0.11,0.04,1721199054761
0.44,-0.12,12.49,-0.03,-0.15,-0.03,1721199054771
-0.69,2.87,10.72,0.09,-0.02,-0.08,1721199054781
0.09,1.07,7.26,-0.00,-0.06,-0.02,1721199054791
-1.77,1.31,10.66,-0.06,-0.03,-0.03,1721199054801
-0.10,0.00,9.39,-0.02,-0.03,-0.00,1721199054811
-0.32,0.79,12.71,-0.06,-0.05,-0.03,1721199054821
-0.78,0.97,10.19,0.08,-0.07,-0.06,1721199054831
-0.49,0.59,9.83,-0.04,-0.03,-0.01,1721199054841
-1.02,2.44,11.31,0.07,-0.08,-0.00,1721199054851
0.17,0.30,6.53,-0.04,-0.05,-0.01,1721199054861
-0.25,1.75,12.09,-0.01,-0.03,-0.04,1721199054871
0.00,-1.42,8.11,-0.03,-0.07,-0.00,1721199054881
-0.94,-0.20,13.54,-0.07,0.00,0.01,1721199054891
0.72,1.52,8.24,0.17,-0.14,0.00,1721199054901
1.58,-0.66,11.68,-0.13,0.10,-0.04,1721199054911
-0.74,1.86,11.13,0.16,-0.21,-0.10,1721199054921
0.21,2.22,9.71,-0.03,0.17,-0.18,1721199054931
-1.92,1.22,10.51,0.09,-0.24,-0.07,1721199054941
-1.16,-0.02,8.24,-0.05,0.15,-0.02,1721199054951
0.32,1.00,13.08,0.02,-0.09,-0.00,1721199054961
0.30,0.26,7.66,-0.00,-0.04,-0.01,1721199054971
0.80,1.88,12.75,-0.00,0.10,-0.16,1721199054981
-0.01,1.62,9.16,0.10,-0.15,-0.16,1721199054991
-0.78,1.78,9.97,-0.05,0.12,-0.15,1721199055001
-0.77,1.59,10.16,0.06,-0.10,-0.14,1721199055011
-0.55,-1.56,10.99,-0.11,0.09,-0.10,1721199055021
-0.71,1.63,11.49,0.11,-0.06,-0.11,1721199055031
0.13,0.28,7.59,-0.05,0.03,-0.13,1721199055041
-0.68,0.14,12.67,0.01,0.01,-0.14,1721199055051
-0.20,-0.60,8.82,-0.02,0.02,-0.19,1721199055061
-0.70,2.42,11.30,0.08,-0.01,-0.14,1721199055071
0.56,0.06,7.83,-0.04,0.08,-0.12,1721199055081
-0.81,1.08,12.65,-0.02,0.03,-0.19,1721199055091
-0.44,0.24,6.63,0.04,0.01,-0.21,1721199055101
-0.88,0.42,12.41,-0.08,0.13,-0.16,1721199055111
-0.69,1.07,9.88,0.07,-0.03,-0.10,1721199055121
-0.24,1.41,9.60,-0.06,0.09,-0.13,1721199055131
0.64,1.21,12.16,0.04,0.05,-0.18,1721199055141
-0.11,0.85,9.96,-0.02,0.07,-0.23,1721199055151
-1.49,1.44,10.50,0.01,0.04,-0.22,1721199055161
-1.00,-0.39,9.37,-0.04,0.07,-0.14,1721199055171
-0.62,0.81,11.82,0.04,0.09,-0.10,1721199055181
0.14,1.65,8.88,0.06,0.05,-0.13,1721199055191
-0.11,2.18,10.51,0.01,0.05,-0.21,1721199055206
-0.28,1.31,11.16,-0.01,0.13,-0.21,1721199055210
-1.20,-0.66,9.99,-0.02,0.02,-0.19,1721199055220
-1.22,0.10,11.40,0.07,0.10,-0.13,1721199055230
0.20,0.84,9.15,0.00,0.12,-0.10,1721199055240
-0.76,1.63,11.22,0.03,0.03,-0.18,1721199055250
-0.12,0.14,10.71,0.05,0.15,-0.20,1721199055260
-1.10,1.13,9.81,0.09,0.03,-0.13,1721199055270
-1.28,0.93,8.14,0.02,0.09,-0.16,1721199055280
-0.80,1.59,12.70,0.09,0.09,-0.10,1721199055290
0.23,-1.14,9.01,0.00,0.09,-0.08,1721199055300
-1.04,1.33,12.29,0.04,0.09,-0.19,1721199055310
-1.03,1.17,10.96,0.06,0.11,-0.14,1721199055320
-1.79,3.03,10.46,0.06,0.06,-0.07,1721199055330
-0.61,1.53,7.12,0.05,0.04,-0.04,1721199055340
-0.16,0.48,10.77,-0.03,0.15,-0.05,1721199055350
-0.74,-0.20,9.17,0.03,0.01,-0.11,1721199055360
-0.90,-0.78,9.30,-0.03,0.10,-0.08,1721199055370
-0.49,0.94,10.40,0.07,0.07,-0.03,1721199055380
-0.04,-1.15,8.75,-0.07,0.07,-0.05,1721199055390
-0.04,0.33,12.44,0.04,0.08,-0.07,1721199055400
0.23,0.17,11.04,0.06,0.11,-0.11,1721199055410
-1.49,2.36,10.26,0.09,0.03,-0.16,1721199055420
-1.43,1.02,6.56,0.04,0.08,-0.10,1721199055430
-1.68,-0.01,11.97,-0.05,0.12,-0.00,1721199055440
-1.24,0.26,10.27,0.04,0.03,0.06,1721199055450
0.30,0.22,10.80,-0.06,0.13,0.03,1721199055460
0.14,1.95,10.07,0.09,-0.02,-0.04,1721199055470
-0.07,1.14,8.98,-0.04,0.14,-0.11,1721199055480
-1.00,1.42,10.46,0.07,-0.06,-0.05,1721199055490
-0.91,0.52,8.84,-0.03,0.14,0.01,1721199055500
-1.06,0.88,10.82,0.01,0.01,0.00,1721199055510
0.16,-0.18,9.45,-0.06,0.09,-0.00,1721199055520
-0.23,-0.23,11.64,0.01,0.01,-0.00,1721199055530
-1.11,0.87,10.35,0.01,0.11,-0.03,1721199055540
-0.09,0.61,11.19,-0.03,0.04,-0.02,1721199055550
-0.50,1.13,9.36,0.07,-0.02,0.05,1721199055560
0.24,1.17,11.55,-0.04,0.19,0.01,1721199055570
-0.18,1.63,12.21,0.06,-0.06,-0.07,1721199055580
-0.41,1.29,7.80,0.04,0.07,-0.08,1721199055590
-1.14,1.53,12.14,0.02,0.10,-0.01,1721199055600
-1.37,1.13,9.33,0.02,0.00,0.02,1721199055610
-0.13,1.77,10.48,0.05,0.06,0.08,1721199055620
0.81,1.24,11.04,0.02,0.08,0.03,1721199055630
-0.44,1.33,9.53,0.02,-0.01,-0.10,1721199055640
-0.01,0.59,9.07,0.01,0.08,-0.08,1721199055650
-0.42,0.22,11.18,-0.01,0.06,0.01,1721199055660
-1.02,0.94,10.62,0.04,0.05,-0.00,1721199055670
-0.06,1.07,9.59,0.04,0.06,-0.01,1721199055680
-0.26,2.65,10.12,0.07,0.04,-0.01,1721199055690
-0.76,1.18,9.85,-0.03,0.10,-0.05,1721199055700
-1.20,0.67,11.07,0.01,-0.01,-0.05,1721199055710
-0.46,-0.64,9.44,0.04,0.06,-0.00,1721199055720
-0.61,0.77,10.33,0.02,0.05,0.03,1721199055730
-0.45,1.17,10.08,-0.01,0.02,-0.06,1721199055740
-0.36,1.14,10.75,0.03,0.02,-0.05,1721199055750
-1.29,1.01,9.71,0.02,0.03,-0.04,1721199055760
-1.07,0.52,8.10,-0.05,0.00,-0.02,1721199055770
0.05,-0.05,10.47,-0.06,0.02,-0.01,1721199055780
0.08,0.85,10.37,0.00,-0.00,-0.01,1721199055790
-0.23,0.69,11.49,-0.08,0.07,-0.10,1721199055800
-0.96,0.55,10.37,-0.02,-0.08,-0.06,1721199055810
-1.00,2.07,9.14,-0.07,0.08,-0.01,1721199055820
-1.59,2.38,10.50,-0.08,-0.05,-0.08,1721199055830
-1.84,0.58,8.36,-0.10,-0.02,-0.03,1721199055840
-1.63,-0.36,9.30,-0.13,-0.02,0.02,1721199055850
-1.94,2.38,10.59,-0.07,-0.04,0.07,1721199055860
-1.36,0.45,10.54,-0.22,-0.01,0.06,1721199055870
-1.66,4.23,12.55,-0.01,-0.12,0.07,1721199055880
-0.32,-0.52,8.07,-0.21,-0.04,0.08,1721199055890
4.64,-3.32,18.01,-0.05,-0.03,0.68,1721199055900
8.63,1.38,2.48,0.02,-0.10,-0.01,1721199055910
4.81,6.65,16.91,-0.32,0.31,-0.98,1721199055920
-9.08,-2.98,10.06,-0.07,-0.50,-1.06,1721199055930
-17.85,-6.77,1.91,-0.08,0.17,-0.29,1721199055940
-14.52,-2.44,10.21,-0.14,-0.12,0.97,1721199055950
-1.27,-2.29,12.12,-0.20,0.03,1.58,1721199055960
11.65,0.59,13.78,-0.12,-0.02,1.02,1721199055970
13.69,3.49,7.29,-0.12,-0.14,-0.06,1721199055980
9.60,-3.79,7.85,-0.26,-0.09,-0.63,1721199055990
-5.13,3.01,10.66,-0.12,-0.25,-0.95,1721199056000
-8.29,-2.87,10.82,-0.31,-0.07,-0.39,1721199056010
-8.66,-1.05,13.36,-0.11,-0.21,0.53,1721199056020
-1.62,-1.19,5.51,-0.08,-0.05,0.77,1721199056030
2.82,2.50,12.18,-0.27,0.03,0.45,1721199056040
3.40,1.32,12.60,-0.11,-0.18,0.03,1721199056050
2.10,-1.61,8.81,-0.13,-0.12,-0.09,1721199056060
-0.57,0.37,10.56,-0.07,-0.13,-0.08,1721199056070
-1.66,1.51,12.39,-0.01,-0.15,0.08,1721199056080
-0.13,1.90,12.06,-0.04,-0.10,0.18,1721199056090
0.77,0.70,10.30,0.06,-0.18,0.07,1721199056100
0.03,0.52,11.75,0.10,-0.08,-0.05,1721199056110
-1.13,-0.24,10.98,0.11,-0.20,0.03,1721199056120
-1.14,3.47,11.39,0.17,-0.08,0.14,1721199056130
0.52,1.44,11.61,0.15,-0.19,0.21,1721199056140
1.64,1.35,9.64,0.20,-0.10,0.13,1721199056150
1.70,0.00,9.21,0.20,-0.15,-0.09,1721199056160
0.48,-0.56,10.33,0.19,-0.10,-0.09,1721199056170
-1.26,0.25,8.19,0.23,-0.20,-0.02,1721199056180
-0.43,-0.36,11.17,0.14,-0.04,0.06,1721199056190
-0.28,1.59,12.63,0.24,-0.20,0.10,1721199056200
1.64,-1.01,7.89,0.18,-0.11,0.06,1721199056210
0.61,0.92,9.23,0.18,-0.12,-0.04,1721199056220
1.10,-0.50,10.53,0.08,-0.06,-0.14,1721199056230
-0.85,-0.02,10.45,0.17,-0.20,-0.16,1721199056240
-0.04,-0.50,10.41,0.19,-0.03,0.03,1721199056250
0.91,-1.01,8.68,0.09,-0.15,0.03,1721199056260
0.91,0.05,10.67,0.09,-0.05,-0.12,1721199056270
1.15,0.06,12.28,0.12,-0.10,-0.13,1721199056280
-0.60,-0.23,10.09,0.09,-0.11,-0.16,1721199056290
-0.75,0.23,10.39,0.13,-0.04,-0.14,1721199056300
-1.26,-0.03,8.40,0.12,-0.18,-0.03,1721199056310
0.17,1.93,10.53,0.10,0.06,-0.05,1721199056320
0.93,1.37,9.02,0.11,-0.17,-0.04,1721199056330
0.66,0.91,10.86,0.10,-0.00,-0.09,1721199056340
1.71,-0.76,9.87,0.03,-0.06,-0.17,1721199056350
-0.48,0.42,11.16,0.07,-0.11,-0.20,1721199056360
-0.12,0.26,10.45,0.12,-0.01,-0.15,1721199056370
0.28,-0.11,9.76,0.06,-0.08,-0.04,1721199056380
1.34,1.44,8.84,0.12,-0.01,-0.13,1721199056390
1.26,2.07,11.82,0.10,0.04,-0.32,1721199056400
-1.35,0.99,8.47,0.07,-0.07,-0.30,1721199056410
-2.81,2.14,10.29,0.07,0.04,-0.12,1721199056420
-0.32,-0.18,10.12,0.02,-0.01,0.07,1721199056430
1.15,0.84,10.59,-0.01,-0.01,-0.02,1721199056440
2.10,0.98,11.05,0.05,0.01,-0.24,1721199056450
0.46,0.16,9.74,0.03,-0.05,-0.27,1721199056460
-0.77,1.48,9.89,0.03,0.08,-0.21,1721199056470
-0.71,1.62,9.64,0.01,-0.03,-0.14,1721199056480
-0.34,0.51,12.53,-0.01,0.04,-0.11,1721199056490
0.26,0.67,9.35,0.05,-0.03,-0.14,1721199056500
-0.09,0.57,10.23,-0.02,0.03,-0.18,1721199056510
0.13,-0.51,10.10,0.02,-0.01,-0.17,1721199056520
-0.22,-0.05,8.46,-0.02,0.05,-0.18,1721199056530
-0.10,0.24,9.18,0.02,-0.00,-0.13,1721199056540
0.48,-0.02,9.40,-0.05,0.05,-0.11,1721199056550
0.90,-0.03,10.09,-0.02,0.05,-0.18,1721199056560
0.55,0.37,9.51,0.00,0.02,-0.23,1721199056570
0.10,0.03,11.44,-0.06,0.09,-0.21,1721199056580
-1.23,-1.49,9.62,-0.03,-0.01,-0.17,1721199056590
-1.41,-0.13,10.91,-0.02,0.08,-0.13,1721199056600
-0.44,0.52,12.03,0.03,0.02,-0.07,1721199056610
-0.26,1.30,7.46,0.01,-0.00,-0.07,1721199056620
0.23,1.63,11.15,-0.03,0.10,-0.13,1721199056630
-0.02,-1.46,10.75,-0.03,-0.07,-0.12,1721199056640
-1.19,0.89,9.71,0.05,0.03,-0.06,1721199056650
0.80,2.28,10.29,0.07,0.06,-0.01,1721199056660
0.89,1.42,8.31,-0.04,-0.03,0.01,1721199056670
0.60,2.86,11.28,0.01,0.12,-0.14,1721199056680
