AccX,AccY,AccZ,GyrX,GyrY,GyrZ,Time
1.00,1.03,8.99,0.07,0.13,-0.74,1721198881122
-1.33,1.35,9.46,0.05,0.24,-0.66,1721198881127
-3.83,-0.49,10.23,0.01,0.35,-0.36,1721198881137
-3.61,-1.13,11.25,0.01,0.21,-0.08,1721198881147
-2.96,-1.61,10.05,0.01,0.23,-0.08,1721198881157
-3.42,0.63,9.74,0.02,0.02,-0.06,1721198881167
-1.25,-0.61,5.75,-0.06,0.17,0.06,1721198881177
5.06,-1.25,15.37,0.03,0.41,0.17,1721198881187
-1.58,-0.84,11.14,0.09,0.37,-0.04,1721198881197
7.78,1.23,11.20,0.03,0.46,-0.21,1721198881207
3.16,0.58,9.95,0.00,0.25,-0.43,1721198881217
2.69,-0.61,13.53,0.12,0.50,-0.55,1721198881227
-2.37,-3.41,7.24,-0.02,0.06,-0.49,1721198881237
-5.82,-0.46,11.52,0.10,0.53,-0.48,1721198881247
-4.50,-2.01,11.18,0.01,0.25,-0.33,1721198881257
-8.51,-1.52,8.82,0.02,0.09,-0.20,1721198881267
-6.56,-2.56,10.52,0.01,0.35,-0.09,1721198881277
-6.38,-0.35,10.80,0.07,-0.01,0.09,1721198881287
-3.07,1.02,11.07,0.01,0.30,0.20,1721198881297
0.37,0.96,9.76,-0.06,0.04,0.20,1721198881307
1.55,-0.92,11.40,-0.03,0.18,0.05,1721198881317
1.95,0.17,10.32,0.10,0.08,-0.07,1721198881327
0.92,-0.97,8.53,-0.03,0.15,-0.10,1721198881337
-0.23,0.51,10.35,0.08,0.13,-0.13,1721198881347
-0.17,-0.60,8.58,-0.04,0.18,-0.16,1721198881357
-2.30,-0.39,9.89,-0.00,0.02,-0.09,1721198881367
-1.46,-0.32,13.76,0.00,0.31,-0.02,1721198881377
-2.32,0.44,11.25,0.12,-0.03,0.02,1721198881387
-2.55,0.64,4.95,-0.03,0.10,0.10,1721198881397
0.01,-1.26,13.58,-0.07,0.24,0.22,1721198881407
0.93,-3.87,11.37,0.04,-0.01,0.28,1721198881417
2.09,0.33,9.19,0.10,0.26,0.16,1721198881427
3.80,1.21,8.21,-0.06,0.17,0.08,1721198881437
3.05,-1.27,12.70,-0.04,0.28,0.04,1721198881447
4.35,-3.61,13.21,0.04,0.26,-0.01,1721198881457
2.54,0.47,11.92,0.17,0.29,-0.16,1721198881467
1.58,-1.00,5.32,-0.02,0.25,-0.22,1721198881477
-2.06,-1.88,12.04,-0.03,0.31,-0.20,1721198881487
-2.20,-3.17,11.71,0.06,0.31,-0.10,1721198881497
-4.94,-1.22,8.70,0.06,0.15,-0.09,1721198881507
-4.27,-1.49,10.72,-0.01,0.40,-0.05,1721198881517
-5.66,-3.13,8.07,-0.03,-0.00,0.18,1721198881527
-3.82,-0.75,12.99,0.03,0.43,0.28,1721198881537
-1.47,-0.53,7.21,0.04,-0.01,0.24,1721198881547
-1.70,-0.39,10.01,-0.08,0.23,0.17,1721198881557
0.84,-2.25,13.04,0.04,0.17,0.25,1721198881567
0.16,-1.20,8.86,0.01,0.10,0.25,1721198881577
1.58,-0.55,11.75,0.04,0.28,0.08,1721198881587
0.03,0.13,7.61,0.06,0.04,-0.01,1721198881597
-0.87,-0.23,8.57,-0.11,0.29,-0.00,1721198881607
-1.59,-1.09,14.90,0.03,0.14,0.02,1721198881617
-2.86,-2.76,8.64,0.00,0.04,0.06,1721198881627
-4.41,0.99,9.61,0.04,0.16,0.14,1721198881637
-2.32,-0.42,8.34,-0.07,0.08,0.30,1721198881647
-1.91,-1.76,11.80,-0.05,0.06,0.36,1721198881657
-0.05,-1.05,12.67,0.06,0.17,0.24,1721198881667
-0.16,-0.28,9.01,0.03,-0.03,0.27,1721198881677
-0.40,1.16,9.86,0.02,0.16,0.33,1721198881687
2.55,-0.78,10.34,-0.03,0.16,0.27,1721198881697
1.45,-2.48,12.73,0.01,0.07,0.09,1721198881707
-0.01,-1.53,7.56,0.15,0.06,0.04,1721198881717
0.30,-0.33,13.39,-0.10,0.32,0.16,1721198881727
-0.94,0.70,12.58,0.11,0.00,0.27,1721198881737
0.46,-1.70,7.87,-0.10,0.24,0.22,1721198881747
-1.92,2.72,11.16,0.06,0.02,0.11,1721198881757
0.62,-0.31,14.02,-0.05,0.35,0.12,1721198881767
-2.26,-0.57,9.82,0.06,-0.15,0.23,1721198881777
-4.04,1.01,5.13,0.06,0.23,0.28,1721198881787
0.88,0.93,11.20,-0.11,0.24,0.36,1721198881797
0.27,-0.99,11.99,0.01,-0.05,0.28,1721198881807
0.34,0.07,9.06,0.08,0.25,0.05,1721198881817
-2.87,2.98,10.84,-0.05,0.06,0.13,1721198881827
-4.86,-0.22,7.58,-0.05,0.00,0.45,1721198881837
-0.27,0.83,13.61,0.01,0.26,0.51,1721198881847
1.36,0.48,7.80,0.02,-0.17,0.39,1721198881857
-1.05,1.20,9.01,-0.10,0.25,0.20,1721198881867
-1.51,0.64,12.18,-0.04,0.05,0.25,1721198881877
-4.15,0.29,8.68,-0.02,-0.08,0.35,1721198881887
-1.80,3.39,12.98,0.01,0.23,0.41,1721198881897
-0.98,1.22,7.56,-0.10,-0.21,0.52,1721198881907
-1.77,2.08,9.68,-0.04,0.10,0.51,1721198881917
0.93,1.03,9.44,-0.08,-0.01,0.40,1721198881927
-2.61,-1.18,10.37,-0.06,-0.22,0.35,1721198881937
-2.05,1.63,10.74,0.13,0.12,0.44,1721198881947
-0.96,1.05,9.24,-0.15,-0.10,0.65,1721198881957
-2.29,0.47,8.54,-0.00,-0.16,0.63,1721198881967
1.49,0.15,11.14,-0.09,0.11,0.48,1721198881977
-1.35,2.29,12.97,-0.00,-0.28,0.45,1721198881987
-0.80,-0.60,7.65,-0.09,-0.02,0.57,1721198881997
-1.10,-0.54,11.68,-0.12,-0.14,0.62,1721198882007
-1.80,0.41,8.17,0.04,-0.23,0.57,1721198882017
-0.15,1.23,11.03,-0.10,-0.00,0.57,1721198882027
-0.93,-1.98,9.03,-0.13,-0.36,0.67,1721198882037
-0.78,-1.05,11.82,0.02,-0.01,0.64,1721198882047
2.11,1.94,10.81,0.05,-0.14,0.57,1721198882057
0.86,0.67,11.01,-0.15,-0.15,0.50,1721198882067
0.19,-3.34,10.92,0.02,-0.21,0.51,1721198882077
-1.15,-0.48,8.36,0.03,-0.16,0.50,1721198882087
0.24,1.58,10.08,-0.01,-0.14,0.58,1721198882097
2.09,-2.13,9.90,-0.19,-0.17,0.61,1721198882107
0.16,-1.18,10.71,-0.01,-0.20,0.42,1721198882117
-0.10,2.94,12.79,0.04,0.01,0.35,1721198882127
-1.17,0.59,7.84,-0.11,-0.35,0.49,1721198882137
-0.33,-1.42,8.82,-0.11,-0.08,0.56,1721198882147
1.41,0.61,12.94,0.02,-0.14,0.49,1721198882157
0.58,-0.14,7.56,-0.11,-0.26,0.47,1721198882167
0.36,1.07,10.07,-0.00,-0.12,0.44,1721198882177
1.85,-0.29,7.10,-0.09,-0.16,0.40,1721198882187
0.32,-0.12,12.02,-0.13,-0.14,0.36,1721198882197
1.46,-0.75,14.44,-0.01,-0.08,0.41,1721198882207
0.38,0.59,9.43,0.04,-0.26,0.41,1721198882217
0.70,0.16,6.88,-0.11,-0.11,0.38,1721198882227
0.92,0.94,12.48,-0.06,-0.08,0.32,1721198882237
1.04,-0.36,10.34,-0.03,-0.15,0.26,1721198882247
-0.92,-0.57,8.26,-0.06,-0.25,0.25,1721198882257
-0.57,0.59,10.61,0.03,0.01,0.32,1721198882267
1.49,0.64,12.39,-0.08,-0.13,0.41,1721198882277
-0.41,1.48,11.15,0.02,-0.23,0.34,1721198882287
1.47,1.02,9.22,-0.02,-0.02,0.19,1721198882297
0.23,1.56,12.01,0.02,-0.22,0.17,1721198882307
-0.31,1.19,7.45,-0.00,-0.07,0.25,1721198882317
-0.06,1.87,9.30,-0.06,-0.15,0.29,1721198882327
1.51,1.41,10.55,-0.04,-0.04,0.20,1721198882337
1.96,1.77,12.69,0.03,-0.10,0.12,1721198882347
-0.43,7.36,6.69,0.06,-0.21,0.08,1721198882357
0.74,1.04,9.39,-0.17,-0.02,0.08,1721198882367
0.34,-0.23,13.68,0.11,-0.24,0.28,1721198882377
0.74,3.00,5.22,0.10,-0.06,0.35,1721198882387
3.91,3.89,9.77,-0.02,-0.01,0.08,1721198882397
2.01,2.54,10.46,0.02,-0.20,-0.22,1721198882407
-0.08,2.87,13.89,0.04,0.09,-0.23,1721198882417
-1.41,2.48,8.08,0.04,-0.19,0.01,1721198882427
-0.21,2.15,9.74,-0.05,0.12,0.05,1721198882437
0.77,2.55,10.58,0.07,-0.12,-0.14,1721198882447
-1.72,0.15,8.04,-0.08,-0.08,-0.27,1721198882457
-2.99,0.19,11.39,0.10,-0.02,-0.11,1721198882467
-1.42,-0.91,7.62,-0.00,-0.04,0.04,1721198882477
-1.24,0.95,9.88,0.03,-0.10,0.03,1721198882487
1.81,-0.85,10.12,-0.01,0.01,-0.05,1721198882497
1.51,2.04,14.89,0.08,-0.01,-0.18,1721198882507
0.24,1.35,6.61,0.08,-0.19,-0.25,1721198882517
-1.20,1.41,9.29,-0.10,0.04,-0.24,1721198882527
-0.51,-1.02,12.09,-0.00,-0.14,-0.14,1721198882537
-1.18,0.70,11.57,0.11,-0.08,-0.15,1721198882547
-0.08,1.80,9.09,0.08,-0.03,-0.29,1721198882557
-2.94,2.53,5.81,0.01,-0.23,-0.35,1721198882567
-3.41,-0.06,10.52,-0.12,0.06,-0.29,1721198882577
-4.46,0.31,15.68,0.12,-0.27,-0.15,1721198882587
-4.78,2.59,6.37,0.11,-0.22,-0.14,1721198882597
-3.59,5.29,11.29,-0.04,-0.13,-0.17,1721198882607
-3.84,-0.50,6.51,-0.16,-0.48,-0.14,1721198882617
-4.48,2.33,19.01,0.05,-0.10,-0.13,1721198882627
-3.38,5.96,5.86,0.13,-0.54,-0.13,1721198882637
-4.43,7.67,8.43,-0.24,-0.28,-0.13,1721198882647
0.90,-5.64,8.53,-0.16,-0.73,0.50,1721198882657
11.48,-0.60,15.54,-0.10,0.52,0.71,1721198882667
14.05,9.57,12.36,-0.09,-0.39,-0.39,1721198882677
7.79,-4.13,5.67,-0.18,-0.20,-1.89,1721198882687
-10.67,-6.17,9.34,0.12,-0.60,-1.57,1721198882697
-20.33,-1.96,1.82,0.01,-0.12,-0.06,1721198882707
-11.60,-3.24,13.94,-0.20,-0.19,1.05,1721198882717
1.00,-5.99,19.38,0.12,-0.40,1.09,1721198882727
14.07,-3.44,9.37,0.11,-0.18,0.52,1721198882737
14.07,2.02,9.09,-0.10,-0.09,-0.36,1721198882747
7.76,-2.94,8.05,-0.08,-0.26,-1.12,1721198882757
-1.92,-6.62,10.27,-0.04,-0.22,-0.88,1721198882767
-6.44,-4.47,7.63,0.06,-0.28,0.03,1721198882777
3.36,-0.30,14.27,0.05,0.23,0.28,1721198882787
7.53,-2.46,10.12,0.06,-0.36,-0.44,1721198882797
3.54,-7.17,9.29,-0.04,-0.02,-1.14,1721198882807
-5.50,-2.23,13.80,0.12,-0.22,-0.90,1721198882817
-7.34,-6.29,7.85,0.03,0.02,-0.15,1721198882827
-5.46,-2.57,8.26,0.02,-0.30,0.20,1721198882837
1.79,-6.87,12.25,-0.17,-0.01,-0.05,1721198882847
4.45,0.24,23.80,0.39,-0.12,-0.26,1721198882857
6.53,0.22,-10.30,0.17,-0.44,-0.30,1721198882867
4.03,4.38,3.81,-0.24,0.63,-0.86,1721198882877
0.15,-9.61,23.40,0.02,-0.42,-0.85,1721198882887
-3.40,-0.45,13.92,0.36,-0.04,-0.08,1721198882897
8.63,2.07,6.63,0.07,0.22,0.22,1721198882907
7.13,-5.63,2.47,-0.34,0.01,-0.74,1721198882917
0.79,-6.40,15.46,0.02,0.09,-1.50,1721198882927
-3.62,-6.31,13.31,0.04,0.05,-0.94,1721198882937
-5.28,0.46,11.04,-0.06,0.19,-0.26,1721198882947
-0.78,-1.23,8.30,-0.27,0.17,-0.44,1721198882957
-2.57,-4.28,17.90,-0.27,-0.01,-0.65,1721198882967
-5.75,-1.78,9.39,0.04,-0.06,-0.52,1721198882977
-6.94,3.82,6.66,-0.22,0.17,-0.49,1721198882987
-7.33,1.04,13.04,-0.30,-0.10,-0.45,1721198882997
-6.98,-1.67,9.14,-0.14,-0.18,-0.19,1721198883007
-2.43,0.03,11.65,-0.14,0.06,0.07,1721198883017
0.64,3.25,6.79,-0.12,-0.17,-0.13,1721198883027
1.41,0.97,11.76,-0.23,0.07,-0.58,1721198883037
-1.34,0.15,13.02,-0.02,-0.27,-0.64,1721198883047
-3.15,0.83,8.86,-0.07,-0.09,-0.36,1721198883057
-0.28,2.97,12.33,-0.06,-0.04,-0.13,1721198883067
2.71,2.30,10.17,-0.11,-0.16,-0.23,1721198883077
2.56,4.71,7.91,-0.10,-0.12,-0.38,1721198883087
4.92,3.50,10.01,-0.15,0.10,-0.36,1721198883097
3.89,3.09,8.47,-0.11,-0.06,-0.40,1721198883107
3.42,2.96,10.13,-0.12,0.13,-0.42,1721198883117
4.96,-0.03,11.65,-0.14,0.18,-0.29,1721198883132
4.68,0.63,10.88,-0.05,0.23,-0.34,1721198883136
4.57,2.58,8.66,-0.12,0.04,-0.43,1721198883146
2.74,2.55,8.57,-0.19,0.24,-0.47,1721198883156
2.88,2.38,11.35,-0.19,0.27,-0.50,1721198883166
0.43,1.88,10.14,-0.11,0.16,-0.56,1721198883176
-0.33,2.33,12.90,-0.04,0.35,-0.56,1721198883186
-1.70,2.41,9.71,-0.01,0.11,-0.41,1721198883196
-0.69,2.42,8.81,-0.03,0.35,-0.39,1721198883206
1.38,2.28,12.73,-0.09,0.32,-0.49,1721198883216
0.12,0.61,7.96,-0.09,0.18,-0.64,1721198883226
0.71,1.85,10.53,-0.15,0.46,-0.77,1721198883236
-0.90,0.20,10.07,-0.07,0.15,-0.75,1721198883246
-0.54,0.15,11.36,-0.03,0.44,-0.69,1721198883256
0.18,-0.54,8.25,-0.10,0.20,-0.68,1721198883266
0.73,-2.84,12.66,-0.29,0.50,-0.74,1721198883276
0.61,0.03,12.56,-0.11,0.23,-0.78,1721198883286
-0.23,-0.83,7.09,-0.13,0.40,-0.74,1721198883296
-0.49,0.03,11.06,-0.16,0.41,-0.85,1721198883306
-2.18,-1.50,10.07,-0.10,0.31,-0.89,1721198883316
-1.51,-1.46,9.69,-0.09,0.43,-0.74,1721198883326
-1.48,-0.92,10.51,-0.18,0.39,-0.59,1721198883336
-1.73,-1.39,9.81,-0.20,0.40,-0.62,1721198883346
-1.17,-0.43,10.18,-0.11,0.35,-0.65,1721198883356
-1.24,-3.17,8.85,-0.12,0.37,-0.69,1721198883366
-1.02,0.47,12.74,-0.15,0.44,-0.66,1721198883376
-1.33,0.66,11.07,-0.03,0.32,-0.63,1721198883386
-2.06,-0.81,8.85,-0.05,0.40,-0.68,1721198883396
-2.34,-0.39,11.55,-0.02,0.38,-0.65,1721198883406
-3.40,-3.35,7.37,0.11,0.28,-0.56,1721198883416
-3.57,-2.68,11.16,0.03,0.46,-0.55,1721198883426
-4.61,1.13,12.85,0.08,0.28,-0.54,1721198883436
-4.06,-0.22,8.41,-0.05,0.34,-0.35,1721198883446
-2.37,-0.04,11.50,0.02,0.31,-0.19,1721198883456
-1.62,1.88,8.72,0.20,0.25,-0.20,1721198883466
-2.12,-1.31,8.41,0.04,0.30,-0.34,1721198883476
-1.93,-1.98,13.34,0.09,0.26,-0.34,1721198883486
-1.57,-1.94,9.11,0.15,0.22,-0.14,1721198883496
-0.66,0.95,12.02,0.02,0.40,-0.12,1721198883506
-1.47,2.04,10.54,0.18,0.11,-0.16,1721198883516
-1.22,0.96,10.62,0.11,0.32,-0.27,1721198883526
-1.74,0.20,10.19,0.32,0.04,-0.20,1721198883536
-2.54,-3.07,6.83,0.23,0.25,-0.06,1721198883546
-2.17,-3.22,11.62,0.12,0.22,-0.06,1721198883556
-2.51,-1.41,10.18,0.20,0.13,-0.04,1721198883566
-1.98,-1.69,10.83,0.05,0.21,0.03,1721198883576
-2.71,0.50,11.74,0.17,0.05,0.12,1721198883586
-1.27,0.84,8.86,0.10,0.18,0.14,1721198883596
-1.24,0.33,11.64,0.12,0.01,0.13,1721198883606
-1.66,1.64,9.17,0.26,0.11,0.12,1721198883616
-2.17,-0.26,9.35,0.08,0.06,0.14,1721198883626
-2.74,-1.27,9.76,0.12,-0.06,0.25,1721198883636
-0.37,-0.43,9.83,0.17,0.11,0.35,1721198883646
1.19,-0.14,10.59,0.13,-0.02,0.30,1721198883656
1.24,-0.03,9.78,0.15,0.01,0.14,1721198883666
0.36,1.38,10.77,0.11,0.03,0.10,1721198883676
-2.04,0.15,8.54,0.10,-0.07,0.16,1721198883686
-2.29,-1.06,9.78,0.01,0.05,0.24,1721198883696
-2.07,1.76,11.76,0.07,-0.07,0.32,1721198883706
-1.74,0.74,5.52,0.07,-0.11,0.38,1721198883716
-0.47,0.11,9.86,-0.17,0.03,0.40,1721198883726
-0.27,0.83,11.81,-0.08,-0.19,0.42,1721198883736
1.33,-0.15,8.88,-0.18,-0.04,0.37,1721198883746
0.85,0.03,9.99,-0.20,-0.17,0.32,1721198883756
0.86,0.91,10.46,-0.17,-0.04,0.29,1721198883766
0.78,2.81,9.38,-0.18,-0.14,0.22,1721198883776
0.15,1.93,9.48,-0.28,-0.10,0.20,1721198883786
0.02,3.43,12.47,-0.27,-0.09,0.24,1721198883796
-0.56,0.63,10.22,-0.32,-0.19,0.31,1721198883806
-0.45,1.50,9.98,-0.27,-0.09,0.31,1721198883816
0.10,-0.40,10.89,-0.33,-0.14,0.33,1721198883826
-1.00,1.10,9.66,-0.20,-0.18,0.31,1721198883836
-0.00,0.68,9.49,-0.21,-0.09,0.33,1721198883846
-0.60,-0.67,11.07,-0.21,-0.20,0.43,1721198883856
2.18,0.50,10.94,-0.17,-0.04,0.48,1721198883866
1.78,-1.60,9.06,-0.22,-0.21,0.33,1721198883876
0.62,-2.03,10.93,-0.18,-0.06,0.17,1721198883886
0.66,-0.27,10.36,-0.16,-0.19,0.23,1721198883896
-0.54,-2.17,9.13,-0.14,-0.12,0.30,1721198883906
-0.11,0.10,11.77,-0.15,-0.09,0.23,1721198883916
-0.12,-1.17,10.66,-0.16,-0.19,0.18,1721198883926
-1.32,1.36,10.53,-0.08,-0.10,0.12,1721198883936
-1.35,0.31,9.01,-0.05,-0.21,0.22,1721198883946
-0.54,-2.59,8.55,-0.05,-0.12,0.32,1721198883956
0.58,-1.26,10.80,-0.07,-0.10,0.30,1721198883966
1.43,-0.04,10.64,-0.09,-0.15,0.22,1721198883976
2.65,-0.57,10.51,-0.06,-0.09,0.14,1721198883986
2.06,0.88,12.66,-0.14,-0.06,-0.04,1721198883996
-0.49,4.47,11.68,0.01,-0.14,-0.12,1721198884006
0.01,-0.37,7.77,0.02,-0.11,-0.01,1721198884016
-1.26,-0.56,10.18,-0.03,-0.05,-0.01,1721198884026
0.59,0.66,11.89,0.14,-0.12,0.07,1721198884036
2.12,-1.54,7.66,0.09,-0.04,0.00,1721198884046
1.04,-4.26,10.05,0.06,-0.09,-0.11,1721198884056
0.20,0.13,13.94,0.10,0.00,-0.20,1721198884066
-0.98,-1.20,10.43,0.05,-0.16,-0.12,1721198884076
-0.46,0.89,11.26,0.06,0.06,-0.07,1721198884086
-0.95,1.28,8.62,0.14,-0.17,-0.14,1721198884096
-0.37,-0.01,10.42,0.09,0.04,-0.13,1721198884106
-1.05,0.48,10.29,0.11,-0.17,-0.17,1721198884116
-0.22,-0.39,8.83,0.17,-0.08,0.01,1721198884126
1.66,-0.31,9.44,0.08,0.02,0.03,1721198884136
0.95,0.83,11.41,0.06,-0.07,-0.14,1721198884146
-0.37,4.34,12.08,0.15,0.01,-0.28,1721198884156
-0.79,-3.45,8.03,0.05,-0.19,-0.13,1721198884166
-0.10,0.01,12.34,0.05,0.20,-0.01,1721198884176
1.27,2.76,11.82,0.16,-0.18,0.08,1721198884186
1.40,-0.46,6.31,0.15,0.06,0.03,1721198884196
3.01,2.66,13.51,0.10,0.06,-0.07,1721198884206
1.47,2.23,9.22,0.16,-0.14,-0.11,1721198884216
0.90,-1.21,10.93,0.06,0.15,-0.13,1721198884226
0.06,0.28,11.20,0.15,-0.04,-0.09,1721198884236
0.09,-0.10,9.44,0.14,0.09,-0.02,1721198884246
1.00,3.18,11.03,0.20,0.07,0.03,1721198884256
1.50,-0.23,8.83,0.07,0.04,-0.05,1721198884266
0.82,2.46,13.06,0.05,0.14,-0.13,1721198884276
0.95,-1.22,7.17,0.08,-0.04,-0.07,1721198884286
1.01,-0.00,11.42,-0.03,0.31,-0.18,1721198884296
-0.53,0.52,9.82,0.15,-0.11,-0.25,1721198884306
-1.21,0.71,7.64,0.03,0.26,-0.22,1721198884316
0.11,0.99,13.25,-0.07,0.08,-0.22,1721198884326
-1.07,-1.02,8.19,0.00,-0.03,-0.16,1721198884336
0.79,0.89,10.75,-0.04,0.28,-0.19,1721198884346
0.12,-2.10,8.65,-0.14,-0.10,-0.24,1721198884356
-1.20,1.87,10.47,-0.05,0.20,-0.29,1721198884366
0.20,0.75,9.69,-0.06,0.01,-0.24,1721198884376
-1.76,-5.00,7.62,-0.22,0.04,-0.22,1721198884386
-0.67,0.46,13.82,-0.02,0.18,-0.16,1721198884396
0.91,0.61,8.32,-0.13,-0.01,-0.15,1721198884406
0.84,0.04,10.26,-0.10,0.18,-0.19,1721198884416
1.58,-1.16,10.06,-0.13,0.08,-0.32,1721198884426
-0.90,-0.56,12.23,-0.17,0.15,-0.35,1721198884436
-0.58,-0.96,9.81,-0.11,0.07,-0.21,1721198884446
-0.62,0.03,9.91,-0.15,0.17,-0.23,1721198884456
0.39,2.31,11.46,-0.04,0.15,-0.26,1721198884466
-1.10,-2.86,7.45,-0.12,0.02,-0.31,1721198884476
-0.59,-2.05,11.84,-0.14,0.23,-0.33,1721198884486
-0.89,-0.21,10.73,-0.03,0.03,-0.27,1721198884496
-0.91,0.63,8.73,-0.01,0.20,-0.25,1721198884506
-0.99,-1.91,10.96,-0.09,0.08,-0.24,1721198884516
-2.14,0.74,12.02,-0.11,0.10,-0.25,1721198884526
-0.76,1.51,10.99,-0.09,0.13,-0.13,1721198884536
-1.78,-2.83,7.02,-0.09,-0.00,-0.12,1721198884546
-0.82,-0.30,11.35,-0.03,0.22,-0.12,1721198884556
-1.10,2.17,11.00,-0.01,-0.01,-0.13,1721198884566
-1.23,-1.01,10.84,0.01,0.05,-0.07,1721198884576
0.61,-1.53,12.34,0.04,0.12,-0.02,1721198884586
-0.29,-1.18,9.64,0.07,-0.03,-0.05,1721198884596
0.19,-4.62,9.64,0.08,0.10,-0.17,1721198884606
-0.83,1.57,13.76,0.19,0.05,-0.20,1721198884616
-2.06,-1.82,7.93,0.24,-0.07,-0.09,1721198884626
-1.03,-4.13,11.55,0.09,0.14,0.08,1721198884636
-0.96,-1.62,9.28,0.33,-0.13,0.12,1721198884646
1.09,-0.86,6.39,0.18,0.21,0.03,1721198884656
-0.61,-3.93,11.06,0.13,-0.06,-0.09,1721198884666
-1.47,-1.54,9.23,0.17,0.05,0.03,1721198884676
-0.05,-3.66,10.06,-0.02,0.08,0.10,1721198884686
0.21,3.27,15.28,0.11,0.06,0.03,1721198884696
1.14,2.01,7.88,0.18,-0.06,-0.04,1721198884706
-0.60,-2.79,7.13,-0.02,0.06,-0.09,1721198884716
-1.04,-0.70,13.16,0.13,0.06,-0.04,1721198884726
-2.76,-2.22,6.56,0.06,-0.14,0.04,1721198884736
-0.95,0.10,13.80,-0.01,0.22,0.08,1721198884746
-0.86,2.48,8.28,0.22,-0.29,0.13,1721198884756
0.69,-0.80,7.93,-0.04,0.19,0.04,1721198884766
0.20,3.11,14.46,0.15,-0.18,0.04,1721198884776
-0.86,-1.87,6.07,0.03,-0.04,-0.06,1721198884786
-1.89,3.88,12.83,0.15,-0.03,-0.01,1721198884796
-0.54,0.23,5.46,0.21,-0.21,0.13,1721198884806
0.68,-0.45,12.65,0.06,0.10,0.12,1721198884816
3.04,0.76,12.73,0.20,-0.16,0.03,1721198884826
1.14,-0.88,7.58,0.12,-0.04,-0.11,1721198884836
0.75,0.68,11.61,0.17,0.02,-0.21,1721198884846
-0.57,2.66,11.06,0.24,-0.10,-0.10,1721198884856
-0.39,0.65,7.52,0.19,0.01,-0.01,1721198884866
-0.06,-1.19,11.85,-0.01,0.02,-0.02,1721198884876
0.91,3.06,12.17,0.16,-0.06,-0.02,1721198884886
2.21,0.32,6.42,0.03,0.03,-0.07,1721198884896
0.93,1.56,11.95,-0.10,0.09,-0.23,1721198884906
-0.34,1.49,9.07,0.05,-0.09,-0.22,1721198884916
-0.95,-0.90,8.18,-0.15,0.10,-0.20,1721198884926
-1.84,2.12,12.13,-0.07,-0.03,-0.10,1721198884936
-0.23,-0.26,8.26,-0.12,0.04,-0.04,1721198884946
0.33,1.52,12.86,-0.17,0.07,-0.13,1721198884956
0.76,-2.83,8.80,-0.21,-0.07,-0.21,1721198884966
-0.89,-1.11,11.94,-0.28,0.15,-0.30,1721198884976
-1.13,0.04,10.45,-0.23,-0.05,-0.26,1721198884986
-1.82,0.24,9.26,-0.22,0.13,-0.12,1721198884996
-0.04,-3.87,9.06,-0.29,0.06,-0.14,1721198885006
-1.24,-2.28,11.63,-0.30,0.09,-0.27,1721198885016
0.42,-0.25,10.80,-0.17,0.04,-0.25,1721198885026
-0.05,-2.08,9.25,-0.24,0.06,-0.22,1721198885036
-0.37,-2.16,9.99,-0.12,0.05,-0.28,1721198885046
-1.43,-3.37,10.14,-0.20,0.07,-0.26,1721198885056
-2.82,-1.43,11.57,-0.15,0.03,-0.21,1721198885066
-1.92,-1.67,11.00,-0.11,0.06,-0.11,1721198885076
-1.18,1.52,10.17,0.02,0.07,-0.04,1721198885086
-0.21,-3.21,9.21,-0.06,0.05,-0.06,1721198885096
-1.07,0.26,12.72,0.01,0.10,-0.05,1721198885106
-0.76,-1.86,9.45,0.05,-0.01,0.03,1721198885116
1.04,-1.37,11.68,-0.10,0.19,0.07,1721198885126
2.26,-3.86,7.88,0.18,-0.22,0.13,1721198885141
3.18,-0.61,7.68,0.16,0.14,0.01,1721198885145
0.41,-1.24,11.83,0.10,0.03,-0.12,1721198885155
1.39,-0.13,12.91,0.16,0.15,-0.21,1721198885165
-3.34,-3.03,9.63,0.13,-0.13,-0.11,1721198885175
-0.93,-1.13,11.36,0.19,0.24,0.15,1721198885185
0.21,0.16,11.04,0.07,-0.01,0.08,1721198885195
1.97,0.01,12.00,0.15,0.14,-0.02,1721198885205
1.58,-1.17,10.16,0.13,0.05,-0.10,1721198885215
1.44,-2.79,10.05,0.13,0.13,-0.11,1721198885225
0.20,0.60,10.62,0.24,0.09,-0.06,1721198885235
1.00,-0.15,8.73,0.21,0.16,0.02,1721198885245
-0.16,-3.75,10.10,0.10,0.09,-0.11,1721198885255
0.08,0.99,14.72,0.23,0.20,-0.10,1721198885265
-0.62,1.87,7.20,0.29,-0.03,0.04,1721198885275
1.58,4.54,10.66,0.17,0.41,0.07,1721198885285
-0.55,3.09,10.47,0.22,-0.09,0.00,1721198885295
0.15,-1.34,8.69,0.10,0.33,-0.08,1721198885305
-1.79,-3.43,10.05,0.11,-0.01,-0.06,1721198885315
-1.81,2.14,10.09,0.30,0.23,0.01,1721198885325
-1.84,4.58,8.44,0.35,0.01,0.12,1721198885335
-1.46,3.01,9.00,0.19,0.14,0.18,1721198885345
0.84,1.41,12.94,0.02,0.12,0.22,1721198885355
1.74,0.72,9.50,0.10,0.06,0.26,1721198885365
2.96,-2.98,6.95,0.05,0.15,0.19,1721198885375
2.19,4.36,10.53,0.17,0.19,-0.05,1721198885385
0.94,2.58,7.98,0.03,0.02,-0.09,1721198885395
-0.96,-0.06,9.44,-0.07,0.13,-0.03,1721198885405
0.15,0.50,13.39,-0.10,0.14,0.05,1721198885415
0.57,3.30,8.66,0.06,0.02,0.10,1721198885425
2.59,-3.01,4.91,-0.12,0.20,-0.08,1721198885435
0.12,0.76,13.99,-0.13,0.18,-0.34,1721198885445
-1.81,-0.74,9.94,-0.06,0.03,-0.35,1721198885455
-2.84,-0.33,13.20,-0.22,0.22,-0.10,1721198885465
-1.43,1.10,7.86,0.03,-0.00,0.14,1721198885475
2.31,-2.23,8.50,-0.23,0.31,0.08,1721198885485
2.29,0.57,12.05,-0.08,0.04,-0.21,1721198885495
1.12,1.84,8.52,-0.11,0.21,-0.42,1721198885505
-2.64,-2.24,10.50,-0.22,0.06,-0.34,1721198885515
-3.43,-2.54,9.52,-0.08,0.18,-0.10,1721198885525
-0.89,-2.62,10.48,-0.22,0.18,0.13,1721198885535
1.20,-0.12,9.48,-0.15,0.17,0.01,1721198885545
2.89,-0.93,8.64,-0.19,0.21,-0.22,1721198885555
0.42,0.01,10.84,-0.21,0.20,-0.41,1721198885565
-1.50,-5.19,8.87,-0.31,0.17,-0.37,1721198885575
-2.49,-0.44,14.62,-0.24,0.20,-0.15,1721198885585
0.07,-1.71,10.94,-0.11,0.15,-0.11,1721198885595
0.39,-0.00,13.06,-0.23,0.25,-0.11,1721198885605
0.61,4.30,12.29,-0.06,0.20,-0.27,1721198885615
-1.07,0.30,7.73,0.00,0.18,-0.28,1721198885625
-2.07,0.86,12.19,-0.10,0.32,-0.26,1721198885635
-3.56,-0.61,8.90,0.19,0.06,-0.12,1721198885645
-1.30,-1.46,10.21,-0.01,0.36,0.05,1721198885655
0.07,1.89,14.69,0.21,0.15,0.02,1721198885665
0.68,0.71,8.03,0.19,0.21,-0.15,1721198885675
-0.31,-1.89,11.40,-0.00,0.29,-0.37,1721198885685
-2.69,-0.52,11.78,0.28,0.12,-0.33,1721198885695
-3.19,-1.07,8.55,0.15,0.27,-0.24,1721198885705
-3.50,0.17,13.02,0.19,0.14,-0.02,1721198885715
-1.41,-0.11,8.10,0.19,0.23,0.04,1721198885725
-0.62,-1.95,11.96,0.11,0.15,0.03,1721198885735
0.34,-1.39,8.31,0.22,0.15,-0.02,1721198885745
0.04,-4.87,9.05,0.05,0.20,-0.04,1721198885755
-1.62,0.74,11.74,0.25,0.14,-0.05,1721198885765
-1.21,-5.58,6.38,0.05,0.12,0.08,1721198885775
-2.46,-0.67,13.42,0.05,0.19,0.19,1721198885785
-0.04,2.34,9.83,0.17,0.12,0.16,1721198885795
-0.81,2.55,9.58,-0.06,0.15,0.06,1721198885805
-0.86,2.39,10.94,0.11,0.09,0.04,1721198885815
-1.33,-1.97,7.02,0.01,0.07,0.10,1721198885825
-1.34,1.43,12.65,0.08,0.17,0.16,1721198885835
0.46,1.28,9.55,0.14,0.03,0.23,1721198885845
1.39,1.41,11.40,0.10,0.18,0.17,1721198885855
1.30,0.92,9.88,0.13,0.06,0.02,1721198885865
-1.01,1.76,8.28,0.10,0.10,-0.03,1721198885875
-0.95,1.16,10.78,0.06,0.14,0.11,1721198885885
-1.34,2.06,9.00,0.12,-0.02,0.23,1721198885895
0.42,1.21,10.39,0.01,0.17,0.23,1721198885905
-0.55,1.07,12.17,-0.04,-0.00,0.14,1721198885915
-2.11,2.67,11.12,0.01,0.06,0.09,1721198885925
-1.53,0.62,9.66,-0.07,0.04,0.26,1721198885935
-0.07,2.69,9.62,0.00,0.08,0.31,1721198885945
1.56,1.14,9.32,-0.10,0.11,0.18,1721198885955
-0.53,0.16,7.78,-0.05,-0.00,0.05,1721198885965
-1.19,-2.43,11.67,-0.21,0.19,0.12,1721198885975
-3.22,-0.04,10.86,0.03,-0.07,0.22,1721198885985
-1.57,-3.21,5.72,-0.09,0.12,0.29,1721198885995
-0.56,-2.22,12.35,-0.13,0.10,0.32,1721198886005
-0.91,-2.15,8.89,-0.10,-0.03,0.21,1721198886015
-1.54,-1.57,10.93,-0.25,0.09,0.15,1721198886025
-1.17,-3.99,12.00,-0.26,-0.06,0.31,1721198886035
-0.67,-0.58,10.41,-0.25,0.07,0.28,1721198886045
0.22,0.40,10.15,-0.20,-0.08,0.29,1721198886055
-0.99,-3.79,7.32,-0.29,-0.04,0.32,1721198886065
-1.09,1.48,13.45,-0.21,0.06,0.36,1721198886075
-1.72,-3.69,8.41,-0.17,-0.22,0.44,1721198886085
-0.24,0.51,13.27,-0.29,0.21,0.42,1721198886095
0.19,-2.08,10.78,-0.21,-0.36,0.45,1721198886105
0.88,0.18,10.76,-0.16,0.15,0.45,1721198886115
1.87,-1.34,11.38,-0.11,-0.27,0.57,1721198886125
1.75,4.27,11.71,0.03,0.13,0.58,1721198886135
2.92,-1.77,9.17,-0.01,-0.20,0.47,1721198886145
-1.26,-1.37,11.98,-0.01,0.02,0.26,1721198886155
-0.43,1.97,11.56,0.17,-0.15,0.26,1721198886165
-0.30,-5.00,9.51,-0.06,-0.14,0.34,1721198886175
2.84,-0.39,14.59,0.15,0.01,0.46,1721198886185
2.81,-2.59,5.29,0.15,-0.21,0.48,1721198886195
-0.25,0.60,11.19,0.10,0.16,0.34,1721198886205
0.25,0.24,11.46,0.14,-0.23,0.42,1721198886215
-0.49,-1.43,8.98,0.08,-0.01,0.39,1721198886225
2.65,0.92,11.16,0.14,-0.06,0.34,1721198886235
0.85,-2.34,7.68,0.10,-0.19,0.23,1721198886245
1.44,-0.76,12.99,0.06,0.10,0.26,1721198886255
-1.08,-0.33,9.69,0.13,-0.26,0.36,1721198886265
0.22,-1.42,8.63,0.03,0.11,0.39,1721198886275
0.96,2.49,13.05,0.11,-0.12,0.37,1721198886285
0.71,0.93,7.59,0.12,-0.09,0.39,1721198886295
0.73,0.09,11.22,0.02,0.01,0.41,1721198886305
0.40,1.52,10.47,0.13,-0.16,0.40,1721198886315
1.97,-1.38,9.12,0.06,-0.01,0.32,1721198886325
1.83,1.67,13.19,0.10,-0.03,0.24,1721198886335
0.99,0.89,7.20,0.10,-0.13,0.17,1721198886345
0.00,2.78,12.27,0.09,0.05,0.18,1721198886355
0.87,3.08,9.57,0.14,-0.12,0.18,1721198886365
1.12,0.74,9.91,-0.01,0.02,0.13,1721198886375
1.34,1.44,10.88,0.04,-0.04,0.06,1721198886385
-0.61,1.92,8.59,0.01,-0.08,-0.03,1721198886395
-0.72,0.43,9.83,-0.04,-0.02,-0.06,1721198886405
-1.29,-1.42,9.76,-0.05,-0.13,0.08,1721198886415
-2.30,-2.15,9.88,-0.05,-0.07,0.11,1721198886425
-2.08,0.61,10.01,-0.01,-0.09,0.05,1721198886435
0.38,0.02,8.27,-0.10,-0.13,0.12,1721198886445
2.22,0.43,10.91,-0.06,-0.04,0.12,1721198886455
1.53,0.89,9.97,-0.12,-0.13,0.01,1721198886465
-1.05,-1.00,11.81,-0.25,-0.09,-0.07,1721198886475
-1.21,-0.00,11.06,-0.16,-0.14,-0.00,1721198886485
0.76,-0.60,8.16,-0.17,-0.08,0.04,1721198886495
1.95,-3.39,6.85,-0.13,-0.12,-0.01,1721198886505
1.85,-0.92,10.86,-0.23,0.05,-0.09,1721198886515
-1.38,-3.46,11.49,-0.30,-0.19,-0.08,1721198886525
-1.87,-1.69,11.50,-0.30,-0.01,0.04,1721198886535
0.79,-0.02,10.07,-0.25,-0.04,0.03,1721198886545
1.76,1.54,10.45,-0.11,-0.11,0.03,1721198886555
3.36,0.66,10.22,-0.11,-0.01,-0.12,1721198886565
-0.00,-1.73,10.38,-0.21,-0.11,-0.17,1721198886575
-1.73,1.93,13.94,-0.05,0.02,-0.14,1721198886585
-2.38,-0.15,8.69,0.04,-0.08,-0.21,1721198886595
-1.72,-0.14,11.27,0.13,-0.03,-0.08,1721198886605
0.27,0.11,8.60,0.14,-0.03,0.05,1721198886615
-1.17,-1.12,9.90,0.05,-0.04,0.03,1721198886625
0.10,1.34,14.49,0.13,0.05,-0.06,1721198886635
-0.90,1.73,9.61,0.15,-0.12,-0.28,1721198886645
-1.49,-2.05,10.65,0.15,-0.04,-0.34,1721198886655
-1.21,-0.51,10.45,0.19,-0.08,-0.18,1721198886665
-1.46,-5.61,7.50,0.12,-0.09,0.07,1721198886675
-0.91,1.13,13.72,0.08,0.15,-0.07,1721198886685
-0.41,1.23,8.27,0.20,-0.22,-0.23,1721198886695
-0.72,-2.04,7.92,0.09,0.02,-0.27,1721198886705
-0.06,2.95,12.72,0.16,-0.08,-0.17,1721198886715
-2.29,0.65,7.64,0.15,-0.16,-0.10,1721198886725
-1.73,0.42,10.68,0.06,0.05,-0.12,1721198886735
-2.08,-0.38,10.55,0.08,-0.21,-0.09,1721198886745
-1.66,-1.64,8.09,0.12,-0.06,-0.01,1721198886755
1.58,0.69,11.94,0.08,-0.04,0.01,1721198886765
2.15,3.31,9.59,0.28,-0.16,-0.06,1721198886775
3.28,2.01,10.20,0.17,0.04,-0.19,1721198886785
0.15,3.17,11.61,0.15,-0.17,-0.28,1721198886795
-1.42,1.78,9.33,0.06,0.01,-0.35,1721198886805
-3.24,2.48,11.59,0.12,-0.14,-0.28,1721198886815
-2.16,1.01,8.70,0.10,-0.06,-0.17,1721198886825
-1.94,0.03,9.87,0.02,-0.12,-0.03,1721198886835
-0.39,3.28,10.35,0.05,-0.02,-0.08,1721198886845
1.41,1.47,8.65,-0.01,-0.10,-0.23,1721198886855
0.72,2.20,10.70,0.03,0.01,-0.38,1721198886865
-1.62,-0.15,9.60,0.02,-0.12,-0.40,1721198886875
-4.06,-1.21,9.65,-0.06,-0.04,-0.30,1721198886885
-3.23,-0.38,10.98,-0.04,-0.05,-0.12,1721198886895
0.06,0.35,13.30,-0.13,0.04,-0.04,1721198886905
-0.40,3.17,9.75,0.12,-0.14,-0.18,1721198886915
-0.27,-5.14,8.05,-0.25,0.10,-0.21,1721198886925
-4.10,-1.32,12.81,-0.05,-0.17,-0.13,1721198886935
0.50,-5.63,6.54,-0.17,0.03,0.03,1721198886945
0.85,1.03,10.55,0.01,-0.05,0.05,1721198886955
3.30,-5.77,4.19,-0.21,-0.01,-0.10,1721198886965
-1.59,-2.50,15.88,-0.31,0.06,-0.46,1721198886975
-1.50,-5.74,10.72,-0.16,-0.19,-0.39,1721198886985
-2.04,-3.40,11.48,-0.30,0.12,-0.06,1721198886995
-2.34,2.91,10.45,-0.01,-0.14,0.04,1721198887005
-1.13,2.68,8.38,-0.31,0.20,-0.06,1721198887015
-1.98,-1.09,10.17,-0.20,-0.22,-0.17,1721198887025
1.03,-2.53,10.64,-0.08,0.15,-0.06,1721198887035
-0.26,-0.67,10.59,-0.07,-0.13,0.13,1721198887045
-1.53,-1.22,12.90,-0.15,0.06,0.04,1721198887055
0.79,5.33,13.66,0.05,-0.11,0.06,1721198887065
2.63,-3.99,9.58,-0.08,-0.11,0.04,1721198887075
1.63,1.32,14.91,0.12,0.07,-0.05,1721198887085
0.56,-1.71,7.00,0.01,-0.10,-0.16,1721198887095
-1.85,-2.41,9.51,0.09,0.04,-0.12,1721198887105
0.76,-1.27,11.85,0.21,0.01,0.00,1721198887115
-0.60,2.42,10.85,0.18,-0.03,0.15,1721198887125
-0.36,4.08,11.87,0.25,0.03,0.03,1721198887135
3.31,-0.11,10.79,0.10,0.26,0.03,1721198887150
2.05,0.29,10.63,0.11,0.10,-0.11,1721198887154
2.88,-0.23,10.83,0.18,0.06,-0.11,1721198887164
0.26,-0.08,9.73,0.14,0.11,-0.11,1721198887174
-1.59,2.00,11.15,0.25,0.05,-0.10,1721198887184
-0.57,0.82,8.94,0.23,0.07,0.00,1721198887194
-0.26,0.98,11.18,0.22,0.12,-0.09,1721198887204
0.54,-1.15,8.95,0.22,0.06,-0.09,1721198887214
-0.00,2.01,9.05,0.21,0.19,-0.11,1721198887224
0.40,1.29,9.32,0.12,0.08,-0.13,1721198887234
0.83,3.19,11.13,0.11,0.16,-0.07,1721198887244
2.17,1.40,9.33,0.01,0.14,-0.19,1721198887254
0.79,1.40,11.27,0.02,0.15,-0.31,1721198887264
-0.46,1.06,9.75,0.05,0.10,-0.33,1721198887274
0.00,-0.46,9.47,-0.01,0.19,-0.16,1721198887284
-0.50,1.66,9.06,-0.03,0.15,-0.17,1721198887294
-0.69,2.76,8.19,-0.04,0.12,-0.21,1721198887304
0.49,-4.39,8.39,-0.22,0.11,-0.18,1721198887314
-0.62,-3.02,11.92,-0.08,0.12,-0.12,1721198887324
0.24,-3.26,9.14,-0.12,0.09,-0.15,1721198887334
-0.98,-0.07,12.65,-0.12,0.10,-0.22,1721198887344
0.09,-2.80,5.90,-0.10,0.04,-0.12,1721198887354
-0.29,-1.94,11.91,-0.33,0.22,-0.11,1721198887364
0.65,-3.17,9.75,-0.10,-0.02,-0.17,1721198887374
1.39,-1.37,12.69,-0.40,0.39,-0.28,1721198887384
-3.97,0.17,9.85,-0.14,-0.17,-0.29,1721198887394
-2.24,-2.49,10.22,-0.29,0.30,-0.03,1721198887404
-0.70,2.08,15.69,-0.12,0.02,0.09,1721198887414
1.12,0.50,8.15,-0.00,0.11,0.12,1721198887424
1.84,2.10,10.49,-0.14,0.17,-0.11,1721198887434
-0.35,-0.09,9.29,-0.02,-0.02,-0.20,1721198887444
-3.35,-1.92,9.45,-0.12,0.20,-0.18,1721198887454
-4.69,2.67,11.99,0.11,-0.12,0.02,1721198887464
-0.12,-4.11,6.57,0.02,0.12,0.20,1721198887474
0.76,-1.80,13.75,-0.02,0.07,0.30,1721198887484
1.06,-0.85,11.53,0.18,0.08,0.00,1721198887494
1.07,3.51,11.99,-0.01,0.10,-0.27,1721198887504
-2.18,-2.23,9.10,0.21,-0.08,-0.23,1721198887514
-3.09,-1.53,7.55,0.11,0.18,-0.09,1721198887524
-3.06,-1.82,11.32,0.15,-0.07,0.09,1721198887534
0.23,-2.11,8.42,0.20,0.06,0.22,1721198887544
1.60,1.54,12.57,0.12,0.14,0.10,1721198887554
-0.83,2.50,9.89,0.08,-0.09,-0.21,1721198887564
-1.18,3.04,12.25,0.14,0.06,-0.22,1721198887574
-1.98,-3.05,7.02,0.05,-0.10,-0.09,1721198887584
-3.54,0.18,8.67,0.12,0.01,0.10,1721198887594
-0.45,-1.24,8.55,0.21,-0.03,0.15,1721198887604
1.57,4.67,11.64,0.22,-0.01,0.15,1721198887614
2.48,2.79,9.86,0.22,-0.02,-0.04,1721198887624
0.41,0.97,9.94,0.10,-0.06,-0.16,1721198887634
-0.61,1.16,11.95,0.09,0.00,-0.15,1721198887644
-0.60,2.24,10.72,0.15,-0.11,0.08,1721198887654
0.13,1.26,9.67,0.15,0.05,-0.01,1721198887664
0.53,3.26,10.98,0.10,-0.06,-0.12,1721198887674
-0.78,3.66,9.54,0.09,-0.03,-0.22,1721198887684
-1.69,3.06,10.75,0.09,0.02,-0.20,1721198887694
-1.44,1.71,10.21,0.01,0.03,-0.09,1721198887704
-1.38,2.38,10.24,0.13,-0.08,-0.05,1721198887714
1.06,1.70,9.88,0.06,0.13,-0.19,1721198887724
-0.02,1.88,11.30,0.07,-0.11,-0.24,1721198887734
-1.70,0.29,8.05,0.04,0.07,-0.28,1721198887744
-3.00,0.96,11.55,0.03,0.09,-0.34,1721198887754
-1.65,-6.16,8.35,-0.02,-0.07,-0.09,1721198887764
-1.80,-2.09,10.55,0.01,0.21,-0.01,1721198887774
-1.33,-0.24,8.49,-0.06,0.05,-0.10,1721198887784
-1.19,-1.59,10.00,-0.11,-0.01,-0.08,1721198887794
3.75,-7.18,7.67,-0.17,0.13,0.02,1721198887804
0.94,-1.02,10.20,-0.08,0.09,-0.19,1721198887814
-1.36,-4.51,10.49,-0.11,0.05,-0.32,1721198887824
-2.04,-0.76,13.35,-0.08,0.09,-0.10,1721198887834
-1.62,0.91,4.55,0.02,0.01,0.04,1721198887844
-1.64,-0.85,14.48,-0.27,0.21,-0.07,1721198887854
1.69,-4.25,11.29,-0.06,-0.08,0.11,1721198887864
1.52,-1.65,7.54,-0.10,0.25,-0.01,1721198887874
-0.14,-4.64,10.75,-0.13,0.01,-0.05,1721198887884
-0.49,1.11,11.00,0.05,0.15,0.01,1721198887894
1.11,1.59,11.46,-0.01,0.07,0.04,1721198887904
0.20,1.53,11.30,0.03,0.03,0.07,1721198887914
3.14,-3.52,8.66,-0.00,0.11,0.12,1721198887924
1.08,-0.70,12.17,0.06,0.15,-0.02,1721198887934
0.03,-2.86,7.44,0.19,-0.04,-0.01,1721198887944
0.50,-0.51,9.41,0.07,0.29,0.09,1721198887954
0.90,1.31,12.30,0.15,0.03,0.13,1721198887964
0.83,1.05,11.65,0.06,0.17,0.19,1721198887974
0.87,1.56,11.56,0.17,0.11,0.10,1721198887984
1.27,2.29,8.60,0.19,0.17,0.03,1721198887994
-0.57,-2.14,6.58,0.15,0.05,-0.07,1721198888004
-2.86,2.88,12.29,0.29,0.24,-0.00,1721198888014
-2.21,1.71,9.71,0.28,0.01,0.12,1721198888024
-0.97,3.24,10.09,0.23,0.11,0.28,1721198888034
3.55,3.57,11.36,0.13,0.17,0.22,1721198888044
3.47,1.15,8.63,0.06,0.04,0.03,1721198888054
2.86,0.53,10.08,0.03,0.24,-0.23,1721198888064
-0.24,1.11,11.06,0.11,0.01,-0.22,1721198888074
-1.30,0.77,8.53,0.05,0.19,-0.12,1721198888084
-1.40,2.88,10.32,0.03,0.12,-0.03,1721198888094
-1.62,0.70,7.08,-0.07,0.04,-0.02,1721198888104
-0.08,1.77,13.23,-0.15,0.25,0.03,1721198888114
-0.28,-2.72,8.33,-0.18,-0.05,0.07,1721198888124
0.11,-2.06,10.60,-0.16,0.20,0.08,1721198888134
1.05,0.12,10.72,-0.14,0.01,0.05,1721198888144
0.36,-1.15,7.29,-0.18,-0.01,-0.03,1721198888154
2.26,-5.29,10.75,-0.32,0.13,-0.02,1721198888164
-0.01,-3.60,10.62,-0.21,-0.09,-0.08,1721198888174
1.94,-1.51,9.84,-0.35,0.21,-0.08,1721198888184
-1.54,-1.24,10.50,-0.34,-0.05,-0.19,1721198888194
-1.61,-5.03,9.38,-0.28,0.07,-0.14,1721198888204
-1.13,-0.92,12.68,-0.29,0.10,0.02,1721198888214
-1.28,0.28,9.68,-0.16,-0.06,0.13,1721198888224
0.33,0.91,11.05,-0.24,0.16,0.03,1721198888234
-1.06,-3.41,12.09,-0.14,-0.16,-0.01,1721198888244
0.19,-3.41,9.85,-0.23,0.19,0.05,1721198888254
-2.51,-5.05,13.38,-0.16,-0.08,0.12,1721198888264
-1.30,-4.02,10.92,0.04,0.09,0.12,1721198888274
0.98,-0.41,14.57,0.10,0.07,0.09,1721198888284
-0.39,-0.39,9.07,0.11,-0.13,0.02,1721198888294
-0.21,-1.26,12.21,0.09,0.09,-0.12,1721198888304
-3.49,-0.65,9.66,0.14,-0.20,-0.20,1721198888314
-3.30,-4.44,10.67,0.06,0.08,0.06,1721198888324
-4.14,0.94,10.03,0.18,-0.13,0.26,1721198888334
-0.42,-3.75,6.88,0.05,0.04,0.25,1721198888344
0.93,6.05,15.73,0.15,0.06,0.09,1721198888354
0.46,2.42,7.29,0.28,-0.25,-0.11,1721198888364
-0.31,8.52,13.70,0.07,0.13,-0.16,1721198888374
-3.36,1.29,8.87,0.27,-0.38,-0.17,1721198888384
-3.48,1.46,7.11,0.05,0.10,0.13,1721198888394
-3.07,-0.11,7.68,0.30,-0.34,0.46,1721198888404
2.03,4.58,9.69,0.25,0.07,0.51,1721198888414
5.75,4.21,10.97,0.25,-0.25,0.22,1721198888424
3.88,1.83,11.31,-0.02,-0.09,-0.29,1721198888434
-1.88,5.27,14.28,0.14,-0.28,-0.54,1721198888444
-7.50,0.28,7.24,0.00,-0.27,-0.30,1721198888454
-8.84,1.00,9.08,0.03,-0.20,0.37,1721198888464
-1.44,0.59,8.84,0.04,-0.08,0.71,1721198888474
3.87,3.40,5.50,0.10,-0.25,0.48,1721198888484
8.51,4.17,8.08,-0.06,0.01,-0.04,1721198888494
4.24,0.43,11.79,-0.11,-0.29,-0.43,1721198888504
0.63,-1.37,12.72,-0.06,-0.08,-0.62,1721198888514
-3.72,-4.27,13.18,-0.12,-0.19,-0.49,1721198888524
-5.25,-3.87,9.45,-0.08,-0.17,-0.16,1721198888534
-4.48,-2.52,8.26,-0.09,-0.05,0.10,1721198888544
-0.10,-0.53,8.50,-0.01,-0.03,0.22,1721198888554
1.04,-0.13,7.75,-0.09,-0.09,-0.09,1721198888564
1.46,-1.73,12.22,-0.18,-0.07,-0.17,1721198888574
-1.25,-6.33,9.79,-0.29,-0.20,-0.16,1721198888584
-2.58,0.09,14.83,-0.20,-0.00,-0.04,1721198888594
0.72,-2.85,3.88,-0.07,-0.34,0.19,1721198888604
1.13,-0.96,13.01,-0.13,0.25,0.07,1721198888614
3.18,-4.65,11.15,-0.03,-0.34,0.00,1721198888624
0.47,-1.58,12.61,-0.21,0.20,-0.26,1721198888634
0.53,-1.88,12.84,-0.07,-0.32,-0.06,1721198888644
-1.70,1.80,8.79,0.13,0.07,-0.06,1721198888654
1.39,-2.24,10.94,-0.05,-0.09,0.07,1721198888664
-2.14,1.26,12.41,0.04,0.02,-0.10,1721198888674
1.41,-4.41,10.44,-0.01,-0.09,-0.01,1721198888684
-0.59,-1.05,10.51,0.10,-0.05,0.01,1721198888694
2.12,1.67,10.44,0.28,0.02,-0.01,1721198888704
0.42,2.18,9.83,0.22,-0.11,-0.08,1721198888714
2.00,1.07,10.15,0.26,0.01,-0.08,1721198888724
0.55,-2.75,9.11,0.16,-0.16,-0.04,1721198888734
1.40,2.23,12.53,0.19,0.18,-0.03,1721198888744
-0.04,2.19,8.33,0.29,-0.24,-0.07,1721198888754
-0.90,2.64,6.50,0.33,0.11,-0.15,1721198888764
-2.56,0.01,8.48,0.17,-0.16,-0.16,1721198888774
-2.20,2.65,14.41,0.05,0.11,0.15,1721198888784
1.50,-2.65,10.35,0.04,-0.16,0.46,1721198888794
6.50,2.55,12.00,0.13,0.30,0.25,1721198888804
7.76,1.94,7.18,0.09,-0.09,-0.31,1721198888814
3.87,5.30,13.69,-0.09,0.22,-0.76,1721198888824
-1.77,0.45,9.01,0.11,-0.23,-0.62,1721198888834
-3.48,2.00,3.38,-0.07,0.31,-0.34,1721198888844
-3.12,-0.56,9.58,-0.16,-0.02,-0.07,1721198888854
-1.60,-2.72,11.36,-0.20,0.13,-0.05,1721198888864
0.42,-1.38,14.12,-0.11,0.04,-0.00,1721198888874
2.00,2.73,10.83,-0.15,0.05,-0.06,1721198888884
3.75,4.29,7.69,-0.12,0.06,-0.26,1721198888894
3.27,-0.92,6.00,-0.21,0.01,-0.36,1721198888904
1.02,-7.66,5.24,-0.29,0.03,-0.41,1721198888914
-1.42,-7.21,12.26,-0.27,0.09,-0.41,1721198888924
-1.65,-1.37,12.67,-0.24,0.06,-0.31,1721198888934
-0.23,4.64,13.11,-0.16,0.17,-0.25,1721198888944
-0.05,-1.76,12.52,-0.38,0.08,-0.35,1721198888954
-1.33,0.99,10.45,-0.07,0.05,-0.35,1721198888964
-1.05,-5.55,5.25,-0.34,0.17,-0.26,1721198888974
-1.92,-2.25,12.67,-0.30,0.11,-0.18,1721198888984
-1.58,2.08,13.65,0.10,0.03,-0.16,1721198888994
-0.93,-2.12,10.18,-0.09,0.07,-0.23,1721198889004
-0.64,0.68,15.93,0.05,0.07,-0.14,1721198889014
0.02,0.40,8.49,-0.04,0.08,-0.09,1721198889024
-1.79,-2.55,10.19,-0.02,0.05,-0.16,1721198889034
-1.71,2.03,10.28,0.29,0.10,-0.19,1721198889044
-3.04,-2.98,7.19,0.19,-0.05,-0.18,1721198889054
-2.56,6.73,16.79,0.24,0.20,-0.05,1721198889064
-2.27,3.24,9.55,0.21,-0.18,-0.14,1721198889074
-3.00,3.35,10.92,0.17,0.06,-0.10,1721198889084
-1.71,0.43,10.16,0.22,-0.06,-0.08,1721198889094
-3.84,4.52,9.30,0.31,-0.09,-0.08,1721198889104
-1.62,1.12,7.84,0.21,-0.07,0.08,1721198889114
-0.93,-1.92,7.93,0.26,-0.15,0.33,1721198889124
3.65,0.48,9.80,0.27,0.09,0.33,1721198889134
5.24,2.94,10.80,0.21,-0.12,-0.05,1721198889144
0.79,-0.90,7.76,0.07,-0.22,-0.57,1721198889159
-2.03,1.21,8.61,0.04,-0.18,-0.68,1721198889163
-8.31,0.03,12.93,-0.03,-0.26,-0.44,1721198889173
-8.71,4.21,14.89,0.04,-0.04,0.11,1721198889183
-5.35,3.09,6.58,0.06,-0.28,0.59,1721198889193
1.97,0.12,6.71,-0.13,0.04,0.52,1721198889203
6.27,-2.98,9.77,-0.13,-0.19,0.22,1721198889213
5.96,1.35,11.68,-0.01,-0.05,-0.15,1721198889223
3.87,4.89,10.47,-0.13,-0.13,-0.42,1721198889233
-1.75,5.25,10.01,-0.07,-0.19,-0.40,1721198889243
-1.22,-3.30,4.69,-0.25,-0.04,-0.27,1721198889253
-1.37,-12.45,11.98,-0.54,-0.06,-0.12,1721198889263
-3.01,-8.85,11.45,-0.16,-0.13,0.05,1721198889273
0.39,-1.73,11.28,-0.19,0.12,0.22,1721198889283
0.28,0.03,8.83,-0.11,-0.23,0.05,1721198889293
3.42,3.24,14.47,-0.31,0.19,-0.26,1721198889303
-0.03,-5.66,15.23,-0.38,-0.31,-0.42,1721198889313
-4.25,-5.40,8.91,-0.10,0.07,-0.28,1721198889323
-2.32,-7.98,3.80,-0.17,-0.12,0.21,1721198889333
-1.73,0.72,10.66,-0.01,0.04,0.20,1721198889343
3.40,-0.70,13.97,-0.09,-0.10,0.08,1721198889353
-0.18,-0.59,13.87,-0.20,-0.13,-0.10,1721198889363
2.43,-0.85,10.71,-0.16,-0.01,-0.10,1721198889373
-0.50,-4.08,9.25,-0.12,-0.09,-0.09,1721198889383
0.21,-1.26,14.64,0.03,0.09,-0.12,1721198889393
-0.10,-0.46,12.00,0.05,-0.15,-0.05,1721198889403
-0.33,6.06,13.23,0.19,0.11,-0.01,1721198889413
3.11,4.89,10.58,0.25,-0.12,0.16,1721198889423
2.82,-0.06,9.01,0.22,0.16,-0.06,1721198889433
3.74,1.32,14.25,0.33,0.09,-0.34,1721198889443
-0.31,2.46,10.67,0.45,-0.03,-0.42,1721198889453
-0.27,4.22,8.69,0.52,0.14,-0.25,1721198889463
-0.16,6.21,9.03,0.49,0.07,-0.07,1721198889473
3.39,3.06,4.94,0.46,0.17,-0.03,1721198889483
4.93,-0.56,7.27,0.25,0.20,-0.34,1721198889493
2.57,-1.76,10.78,0.23,0.08,-0.64,1721198889503
-1.02,1.70,10.46,0.31,0.16,-0.62,1721198889513
-1.24,4.93,8.91,0.20,0.25,-0.43,1721198889523
-2.06,3.88,7.16,0.11,0.09,-0.28,1721198889533
0.48,-4.65,8.69,-0.17,0.30,-0.26,1721198889543
-0.05,-4.87,11.90,-0.14,0.13,-0.25,1721198889553
1.13,-0.75,12.58,-0.02,0.33,-0.33,1721198889563
1.90,-1.37,4.98,-0.02,0.09,-0.40,1721198889573
-0.26,1.45,7.16,-0.11,0.32,-0.63,1721198889583
-2.44,0.59,11.51,-0.30,0.16,-0.61,1721198889593
-4.78,-3.63,12.25,-0.33,0.11,-0.24,1721198889603
-0.38,-1.14,13.36,-0.28,0.33,-0.03,1721198889613
2.56,-2.76,5.23,-0.30,0.10,-0.18,1721198889623
1.20,-3.39,6.66,-0.26,0.34,-0.51,1721198889633
-2.15,-2.62,11.91,-0.26,0.09,-0.64,1721198889643
-5.37,1.39,12.33,-0.09,0.12,-0.42,1721198889653
-4.27,1.88,11.54,-0.18,0.19,-0.09,1721198889663
-2.32,-2.59,9.44,-0.18,0.08,0.09,1721198889673
0.37,-2.38,13.74,-0.22,0.28,-0.03,1721198889683
-1.62,-1.83,9.16,0.00,-0.14,-0.13,1721198889693
0.27,-7.61,6.77,-0.06,0.26,-0.06,1721198889703
-2.03,0.91,13.49,0.17,0.03,0.03,1721198889713
-0.28,-0.94,9.07,0.15,0.14,0.09,1721198889723
0.33,2.47,15.25,0.06,0.13,-0.01,1721198889733
0.68,-0.25,11.03,0.22,-0.07,-0.04,1721198889743
-0.85,-0.33,10.34,0.16,0.17,-0.07,1721198889753
-1.61,1.56,11.91,0.23,-0.06,0.02,1721198889763
-2.27,7.27,9.29,0.40,0.07,0.07,1721198889773
-1.43,0.47,7.30,0.18,-0.04,0.13,1721198889783
-3.67,2.02,12.09,0.30,-0.06,0.15,1721198889793
-0.16,2.17,12.06,0.27,0.08,0.20,1721198889803
0.12,-2.00,7.43,0.33,-0.19,0.33,1721198889813
4.14,3.88,9.55,0.45,0.17,0.21,1721198889823
4.58,2.31,7.46,0.30,-0.16,-0.05,1721198889833
1.43,4.64,10.44,0.19,0.03,-0.35,1721198889843
-2.16,3.72,11.43,0.04,-0.05,-0.49,1721198889853
-6.34,-1.58,8.55,-0.04,-0.20,-0.26,1721198889863
-5.58,0.83,10.14,0.06,0.08,0.16,1721198889873
-0.62,3.78,8.76,0.11,-0.04,0.31,1721198889883
3.06,2.62,5.34,0.06,-0.04,0.27,1721198889893
6.27,2.14,9.24,-0.01,0.06,-0.01,1721198889903
3.18,1.33,8.56,-0.02,-0.12,-0.53,1721198889913
-1.80,-1.53,9.62,-0.08,-0.08,-0.50,1721198889923
-5.38,0.74,9.41,-0.02,-0.07,-0.07,1721198889933
-2.13,-3.16,10.19,-0.28,0.07,0.24,1721198889943
-0.78,-6.93,11.84,-0.18,-0.14,0.15,1721198889953
4.05,-8.62,9.44,-0.21,0.13,0.07,1721198889963
3.47,-4.83,9.15,-0.11,-0.08,-0.07,1721198889973
3.05,-1.19,11.94,-0.08,0.23,-0.39,1721198889983
-0.62,-1.84,14.95,-0.15,-0.10,-0.52,1721198889993
-3.85,3.04,14.54,-0.07,0.14,-0.36,1721198890003
-3.48,2.70,11.79,-0.07,0.10,-0.14,1721198890013
-1.86,-4.08,6.98,-0.14,0.02,0.07,1721198890023
0.48,-6.36,10.79,-0.10,0.23,0.01,1721198890033
-0.60,-1.94,10.43,0.04,0.02,-0.10,1721198890043
-0.88,3.52,11.66,0.06,0.15,-0.16,1721198890053
1.29,0.18,10.46,0.01,-0.02,-0.01,1721198890063
2.85,-1.78,13.62,-0.14,0.24,0.10,1721198890073
0.93,2.90,12.49,0.11,-0.01,-0.06,1721198890083
1.09,-1.21,6.05,0.05,0.13,-0.17,1721198890093
-1.75,4.66,12.89,0.20,0.24,-0.30,1721198890103
-1.69,1.22,6.89,0.30,-0.08,0.03,1721198890113
-1.19,4.20,13.94,0.14,0.37,0.12,1721198890123
2.76,0.97,13.62,0.30,-0.06,0.13,1721198890133
1.89,1.14,7.41,0.32,0.21,-0.02,1721198890143
4.01,3.68,8.51,0.32,0.23,-0.07,1721198890153
1.65,5.29,6.55,0.30,0.09,-0.17,1721198890163
2.61,6.60,5.72,0.25,0.30,-0.28,1721198890173
1.84,-3.00,5.28,-0.09,0.07,-0.28,1721198890183
-0.49,-3.73,13.60,-0.10,0.36,-0.31,1721198890193
-0.50,-2.81,15.11,0.09,0.19,-0.20,1721198890203
-1.41,0.96,11.33,0.15,0.19,-0.10,1721198890213
1.13,5.09,7.55,0.07,0.33,-0.14,1721198890223
1.97,0.45,8.32,-0.25,0.22,-0.26,1721198890233
-0.04,0.57,12.73,-0.12,0.27,-0.40,1721198890243
0.03,-1.03,9.06,-0.10,0.27,-0.40,1721198890253
-1.39,-3.79,6.72,-0.21,0.20,-0.26,1721198890263
-1.96,0.14,7.94,-0.00,0.23,-0.17,1721198890273
-0.02,1.50,10.60,-0.17,0.28,-0.14,1721198890283
-0.09,-2.05,10.79,-0.21,0.12,-0.15,1721198890293
-0.59,-3.74,11.12,-0.11,0.28,-0.33,1721198890303
-0.51,-2.16,12.61,-0.14,0.27,-0.26,1721198890313
-3.20,1.24,9.25,-0.09,0.10,-0.20,1721198890323
-4.22,2.00,10.42,-0.03,0.26,-0.11,1721198890333
-3.10,-0.47,12.26,-0.13,0.16,0.00,1721198890343
-1.52,-7.06,11.75,-0.09,0.06,0.15,1721198890353
1.25,-5.07,14.93,-0.03,0.26,0.09,1721198890363
0.84,-3.34,5.78,0.10,-0.04,-0.13,1721198890373
-1.19,0.01,10.89,0.08,0.30,-0.18,1721198890383
-2.80,4.37,12.34,0.12,0.01,-0.00,1721198890393
-2.86,1.04,12.20,0.06,0.16,0.16,1721198890403
-1.14,-1.67,12.09,0.08,0.05,0.27,1721198890413
-0.58,-4.97,7.02,0.05,0.03,0.08,1721198890423
0.39,1.36,14.53,0.21,0.17,0.01,1721198890433
-1.42,3.54,6.02,0.25,-0.14,0.10,1721198890443
-2.10,1.84,10.51,0.05,0.17,0.09,1721198890453
-0.30,2.39,14.70,0.14,0.03,0.10,1721198890463
0.95,-0.46,9.17,0.09,0.01,0.20,1721198890473
2.21,5.08,8.43,0.28,0.10,0.15,1721198890483
2.38,0.91,4.83,0.05,-0.07,0.05,1721198890493
0.08,4.40,12.98,0.08,0.13,-0.06,1721198890503
-0.30,4.13,10.14,0.08,0.01,-0.22,1721198890513
-4.40,2.43,13.58,-0.09,-0.09,-0.12,1721198890523
-4.46,0.98,7.46,0.12,-0.03,0.17,1721198890533
-0.46,0.97,8.27,-0.09,0.09,0.29,1721198890543
1.68,5.43,11.03,0.10,-0.03,0.14,1721198890553
0.57,3.81,2.17,0.07,-0.07,-0.13,1721198890563
-1.95,-0.74,8.84,-0.28,0.10,-0.23,1721198890573
-3.34,-3.79,15.56,-0.13,-0.13,-0.03,1721198890583
-2.73,-5.42,11.75,0.03,-0.01,0.18,1721198890593
-0.75,1.11,13.48,0.06,0.05,0.18,1721198890603
-0.66,-1.73,6.49,0.07,-0.23,0.19,1721198890613
1.39,3.19,13.67,0.05,0.26,0.14,1721198890623
3.99,-4.48,13.38,-0.02,-0.12,0.15,1721198890633
0.04,-9.35,11.43,-0.05,-0.06,0.11,1721198890643
2.56,-4.96,11.04,0.14,0.18,0.19,1721198890653
1.10,-3.48,6.22,-0.07,-0.09,0.16,1721198890663
-0.70,-2.08,10.89,0.01,0.08,0.05,1721198890673
2.57,-2.17,12.07,-0.12,0.11,-0.04,1721198890683
-0.46,-7.42,10.19,-0.12,-0.14,-0.00,1721198890693
-0.29,-5.32,14.13,-0.13,0.32,0.04,1721198890703
-2.86,-0.83,12.49,-0.03,-0.17,0.13,1721198890713
-2.19,3.22,9.87,-0.08,0.23,0.10,1721198890723
-0.15,-2.49,8.39,-0.11,-0.13,0.19,1721198890733
0.44,-4.38,11.49,-0.20,0.16,0.17,1721198890743
0.91,2.72,15.36,0.14,0.00,0.19,1721198890753
1.25,4.24,4.67,0.19,-0.03,0.21,1721198890763
1.67,2.17,6.32,0.02,0.10,0.16,1721198890773
1.12,3.71,13.52,0.18,0.01,-0.01,1721198890783
-0.18,2.01,9.31,0.08,-0.06,-0.07,1721198890793
-0.75,2.23,16.34,-0.09,0.17,0.04,1721198890803
0.13,0.46,12.11,0.18,-0.18,0.28,1721198890813
4.16,1.46,4.92,0.14,0.18,0.35,1721198890823
6.10,1.35,10.93,-0.03,0.10,0.01,1721198890833
1.98,4.85,11.50,0.19,0.01,-0.25,1721198890843
2.00,3.00,8.75,-0.01,0.23,-0.26,1721198890853
-1.44,0.59,8.60,-0.02,-0.02,-0.16,1721198890863
-0.19,-3.02,6.38,-0.04,0.22,-0.04,1721198890873
1.87,-0.79,11.44,-0.16,0.21,-0.05,1721198890883
0.78,3.55,12.46,0.09,0.09,-0.21,1721198890893
0.56,5.24,11.42,0.14,0.25,-0.31,1721198890903
-0.92,-1.50,5.43,0.01,0.02,-0.34,1721198890913
-3.96,-6.58,6.50,-0.01,0.09,-0.08,1721198890923
-2.08,4.12,15.19,0.02,0.32,-0.07,1721198890933
0.66,1.43,4.79,-0.04,-0.15,-0.01,1721198890943
3.17,-2.60,10.85,-0.15,0.38,-0.02,1721198890953
5.62,-10.52,5.12,-0.18,0.05,-0.30,1721198890963
-0.31,-1.32,13.27,-0.13,0.38,-0.79,1721198890973
-3.54,6.96,17.94,0.17,0.08,-0.87,1721198890983
-8.09,-0.36,9.03,0.01,-0.09,-0.23,1721198890993
-4.62,-1.74,11.84,-0.06,0.39,0.25,1721198891003
2.64,-4.97,7.75,-0.15,0.18,0.28,1721198891013
2.86,-0.41,10.28,-0.14,0.31,-0.55,1721198891023
-1.22,2.71,12.45,0.06,0.03,-0.98,1721198891033
-8.19,-4.79,5.35,-0.11,0.04,-0.47,1721198891043
-7.16,1.13,15.39,-0.05,0.36,0.21,1721198891053
-0.08,2.71,8.93,0.10,0.16,0.48,1721198891063
3.90,0.32,9.04,-0.14,0.33,0.08,1721198891073
3.66,1.24,11.77,0.10,0.11,-0.41,1721198891083
-1.35,-1.70,6.37,-0.04,0.24,-0.64,1721198891093
-7.48,2.79,11.63,0.06,0.07,-0.26,1721198891103
1.45,1.81,3.72,-0.16,-0.02,-0.45,1721198891644
1.22,-0.36,8.32,-0.29,-0.06,-0.48,1721198891648
-1.40,-1.58,14.21,-0.27,0.01,-0.35,1721198891657
-3.26,0.34,16.12,-0.11,-0.08,-0.22,1721198891667
-2.15,3.27,12.75,-0.10,-0.07,-0.11,1721198891676
0.75,5.13,8.04,-0.09,-0.08,-0.03,1721198891686
3.61,1.43,7.64,-0.37,0.07,-0.18,1721198891695
0.80,0.72,12.85,-0.32,-0.06,-0.43,1721198891705
0.05,-0.36,9.31,-0.18,0.05,-0.37,1721198891715
-1.64,1.76,9.31,-0.18,0.00,-0.24,1721198891725
-0.44,1.61,12.92,-0.13,0.06,-0.20,1721198891735
0.97,2.71,14.62,-0.01,0.03,-0.23,1721198891745
0.89,-3.43,6.84,-0.17,-0.04,-0.32,1721198891755
-0.19,-3.05,15.93,-0.23,0.23,-0.42,1721198891765
-0.27,1.87,11.99,0.17,-0.06,-0.39,1721198891775
-2.04,1.97,4.12,0.13,0.11,-0.28,1721198891785
-2.39,-0.51,7.58,-0.01,0.09,-0.25,1721198891795
-2.33,1.16,17.39,-0.02,0.11,-0.18,1721198891805
-0.32,1.13,12.78,0.10,-0.03,-0.12,1721198891815
-1.05,3.99,11.24,0.07,0.13,-0.29,1721198891825
-2.32,0.13,10.31,0.08,-0.02,-0.27,1721198891835
-2.51,-1.95,10.12,0.02,0.07,-0.15,1721198891845
-1.92,-0.48,10.52,0.17,0.01,-0.03,1721198891855
-0.64,-3.07,8.46,0.03,0.05,-0.07,1721198891865
-0.67,-3.09,11.73,0.07,0.02,-0.19,1721198891875
-0.94,-1.30,8.01,0.27,-0.00,-0.20,1721198891885
-1.87,-0.66,4.89,0.09,0.04,-0.05,1721198891895
-2.80,-1.02,10.88,-0.12,0.03,-0.03,1721198891905
-0.62,-2.88,13.29,-0.00,-0.02,0.02,1721198891915
1.36,0.27,9.39,-0.01,0.05,0.10,1721198891925
0.48,0.13,10.39,-0.06,0.02,-0.02,1721198891935
-0.25,7.19,14.79,0.15,0.02,-0.23,1721198891945
-0.77,5.34,7.31,0.12,-0.09,-0.18,1721198891955
-2.97,-5.80,5.03,-0.20,-0.05,-0.02,1721198891965
-1.00,-10.30,9.06,-0.15,-0.09,0.18,1721198891975
1.05,-1.04,9.30,0.09,0.04,0.15,1721198891985
2.39,3.65,15.45,0.04,0.11,-0.16,1721198891995
-1.52,5.42,14.53,0.32,-0.25,-0.26,1721198892005
-2.11,1.97,6.61,0.21,0.03,-0.01,1721198892015
-1.93,1.06,14.23,-0.09,0.02,0.03,1721198892025
-0.79,3.43,12.50,0.22,-0.15,0.14,1721198892035
2.66,1.26,6.12,0.16,0.05,0.12,1721198892045
1.82,1.91,6.92,0.23,-0.11,-0.16,1721198892055
0.04,1.13,9.92,0.14,0.01,-0.30,1721198892065
-2.46,1.95,14.12,0.18,-0.10,-0.16,1721198892075
-3.05,1.18,7.47,0.16,-0.11,0.01,1721198892085
-0.01,-0.52,8.97,0.03,0.03,0.17,1721198892095
2.74,1.16,11.43,0.15,0.02,0.05,1721198892105
3.04,0.98,9.73,0.02,0.05,-0.27,1721198892115
-0.74,3.97,13.84,0.06,0.02,-0.45,1721198892125
-1.15,1.61,13.82,0.03,0.11,-0.26,1721198892135
-0.51,3.60,11.91,0.21,-0.06,0.05,1721198892145
2.59,2.35,3.03,0.10,0.11,-0.03,1721198892155
2.28,1.61,6.60,-0.01,0.10,-0.34,1721198892165
-1.09,-2.26,2.80,-0.07,-0.05,-0.50,1721198892175
-3.88,-0.33,11.61,-0.19,0.28,-0.41,1721198892185
-3.95,-0.17,13.14,-0.03,-0.06,0.01,1721198892195
-0.91,2.69,12.26,-0.02,0.18,0.12,1721198892205
2.90,1.62,9.13,-0.11,0.04,-0.14,1721198892215
1.44,-1.01,10.52,-0.16,0.07,-0.31,1721198892225
0.70,-3.66,7.75,-0.11,0.07,-0.28,1721198892235
-1.40,-0.67,12.00,-0.02,0.14,-0.30,1721198892245
0.04,1.16,12.12,0.00,0.17,-0.17,1721198892255
-1.21,4.63,10.41,-0.00,0.04,-0.26,1721198892265
-1.30,4.44,9.07,-0.00,0.19,-0.38,1721198892275
-4.23,-0.90,5.86,-0.17,-0.03,-0.34,1721198892285
-6.48,-0.18,11.99,-0.10,0.10,-0.09,1721198892295
-3.17,0.17,11.67,0.02,0.07,0.17,1721198892305
-0.12,3.98,13.78,0.05,0.12,0.13,1721198892315
2.41,2.26,8.97,0.07,-0.01,-0.13,1721198892325
-0.16,-1.02,10.07,-0.22,0.04,-0.40,1721198892335
-3.33,3.74,14.61,0.16,-0.03,-0.39,1721198892345
-3.41,-2.60,6.94,-0.07,0.01,-0.13,1721198892355
-4.92,0.82,8.77,0.07,-0.13,0.12,1721198892365
0.18,2.17,10.47,-0.06,0.18,0.12,1721198892375
-0.32,6.02,13.05,0.00,-0.20,-0.04,1721198892385
-1.68,1.08,3.83,-0.01,-0.10,-0.14,1721198892395
-1.59,-7.22,14.06,-0.34,-0.14,0.15,1721198892405
10.29,-1.78,17.00,0.22,0.27,0.80,1721198892415
8.02,4.87,1.80,-0.11,-0.13,-0.18,1721198892425
0.06,9.20,17.48,-0.27,0.20,-1.30,1721198892435
-12.93,-3.59,8.79,0.12,-0.48,-1.12,1721198892445
-21.88,-3.61,3.46,-0.03,0.06,-0.03,1721198892455
-14.38,-4.14,12.58,-0.14,-0.18,1.55,1721198892465
2.55,-2.13,14.63,-0.07,0.06,2.17,1721198892475
18.06,3.59,13.32,0.09,0.04,1.48,1721198892485
18.53,4.42,5.65,0.06,0.02,0.07,1721198892495
12.82,3.28,10.90,-0.14,-0.17,-1.31,1721198892505
-5.04,3.87,9.00,0.06,-0.75,-1.66,1721198892515
-13.89,-7.34,7.34,-0.01,0.05,-0.99,1721198892525
-18.76,-2.35,12.37,-0.04,-0.34,0.49,1721198892535
-4.59,-2.25,10.41,0.02,0.11,1.39,1721198892545
7.21,2.28,9.70,0.10,-0.13,1.00,1721198892555
12.67,4.55,11.56,-0.01,0.02,-0.03,1721198892565
4.82,-0.54,11.35,-0.05,-0.33,-0.76,1721198892575
-3.25,-0.37,13.84,0.05,-0.02,-0.80,1721198892585
-6.71,-3.56,6.96,0.10,-0.28,0.00,1721198892595
-1.81,0.51,9.90,0.03,0.10,0.54,1721198892605
6.25,2.22,10.69,0.15,-0.12,0.41,1721198892615
7.90,-1.30,6.79,0.02,-0.01,-0.22,1721198892625
2.36,-0.00,18.86,0.09,-0.02,-0.89,1721198892635
-4.30,-1.98,11.86,0.33,-0.32,-0.60,1721198892645
-6.01,2.99,6.34,0.23,0.12,0.05,1721198892655
0.66,-1.77,4.44,-0.03,-0.02,0.33,1721198892665
4.90,-1.53,14.26,-0.04,0.25,-0.06,1721198892675
5.83,2.33,16.64,0.25,-0.01,-0.48,1721198892685
-0.41,4.39,6.52,0.18,-0.04,-0.55,1721198892695
-2.02,2.45,10.37,-0.05,0.21,-0.35,1721198892705
-0.96,-6.23,8.93,-0.02,-0.04,-0.10,1721198892715
0.54,-5.58,8.55,0.04,0.20,-0.12,1721198892725
1.85,2.86,12.42,0.17,0.18,-0.29,1721198892735
0.53,1.56,8.27,0.10,0.02,-0.39,1721198892745
-1.53,-0.19,14.05,0.02,0.30,-0.46,1721198892755
-3.71,1.07,8.35,0.17,0.00,-0.31,1721198892765
-2.70,-3.62,6.61,-0.24,0.28,-0.11,1721198892775
-1.46,-0.73,15.36,-0.01,0.06,0.03,1721198892785
2.24,4.07,12.45,0.22,0.23,-0.04,1721198892795
4.87,2.03,9.07,-0.02,0.23,-0.16,1721198892805
0.94,3.14,3.28,-0.03,0.09,-0.52,1721198892815
0.88,-0.05,11.82,-0.23,0.42,-0.52,1721198892825
-2.89,1.41,13.75,0.10,0.00,-0.35,1721198892835
-2.76,0.22,6.02,0.02,0.25,-0.15,1721198892845
-1.38,0.91,10.26,0.01,0.12,0.03,1721198892855
0.90,1.57,10.98,-0.06,0.28,-0.16,1721198892865
0.39,-2.88,12.98,-0.13,0.05,-0.33,1721198892875
-2.06,-0.99,14.01,0.19,0.12,-0.19,1721198892885
0.49,1.89,2.62,0.14,0.18,-0.02,1721198892895
0.41,-1.93,2.01,-0.34,0.12,-0.09,1721198892905
2.06,-3.60,17.34,-0.21,0.35,-0.26,1721198892915
1.50,-4.15,16.56,0.02,0.05,-0.23,1721198892925
-0.72,0.68,8.49,-0.02,0.19,-0.22,1721198892935
-0.76,3.02,11.89,-0.17,0.32,-0.25,1721198892945
-1.83,0.84,8.91,-0.14,0.05,-0.19,1721198892955
-0.83,-0.40,6.34,-0.06,0.22,-0.09,1721198892965
0.91,-3.60,10.17,-0.13,0.20,-0.22,1721198892975
-1.98,-2.38,10.95,0.04,0.05,-0.17,1721198892985
-1.97,0.17,9.40,-0.11,0.30,-0.16,1721198892995
-2.20,2.03,12.98,-0.11,0.03,-0.10,1721198893005
-0.95,1.94,10.71,-0.07,0.17,-0.03,1721198893015
-0.68,0.19,8.75,-0.17,0.16,-0.00,1721198893025
-0.41,0.43,14.13,-0.19,0.23,-0.12,1721198893035
-0.59,-1.00,9.89,0.13,-0.03,-0.13,1721198893045
-0.57,5.84,9.50,0.20,0.33,-0.05,1721198893055
-1.80,3.95,8.20,0.09,-0.04,0.02,1721198893065
-3.66,0.08,10.48,0.02,0.15,-0.04,1721198893075
0.08,-6.59,8.10,-0.03,0.03,0.05,1721198893085
0.40,-2.85,12.75,-0.08,0.21,0.12,1721198893095
2.00,-3.60,11.42,-0.05,0.11,-0.05,1721198893105
-1.39,7.80,15.17,0.19,0.19,-0.22,1721198893115
-0.19,0.82,7.15,0.20,-0.04,-0.13,1721198893125
-2.30,-0.74,9.07,0.08,0.16,0.06,1721198893135
1.52,-2.50,11.62,0.01,0.19,0.02,1721198893145
-0.56,0.53,13.14,0.10,-0.01,-0.18,1721198893155
-1.63,5.13,8.51,0.25,0.20,-0.29,1721198893165
-2.75,-1.84,3.71,-0.23,-0.02,-0.23,1721198893175
-3.49,-5.42,11.71,-0.19,0.12,0.01,1721198893185
1.91,-1.12,15.31,-0.05,0.27,0.10,1721198893195
0.40,5.66,14.77,0.04,0.01,-0.13,1721198893205
-1.23,2.50,3.95,0.25,-0.07,-0.22,1721198893215
-0.50,-0.81,4.43,-0.07,0.17,0.08,1721198893225
1.12,0.06,11.68,-0.01,0.06,0.07,1721198893235
3.06,-0.47,15.95,-0.02,0.18,-0.12,1721198893245
0.38,0.06,12.27,0.14,-0.08,-0.28,1721198893255
-2.06,-0.72,11.18,-0.00,0.19,-0.38,1721198893265
-5.21,3.94,12.90,0.11,0.01,-0.21,1721198893275
-5.77,3.58,6.86,0.02,0.05,0.15,1721198893285
-2.91,2.95,8.30,-0.03,0.11,0.24,1721198893295
0.96,2.24,11.13,0.09,0.09,0.26,1721198893305
2.40,3.41,5.89,0.10,0.02,0.05,1721198893315
-0.05,-0.04,4.72,-0.05,-0.02,-0.22,1721198893325
-0.64,1.85,15.33,0.03,0.17,-0.07,1721198893335
-0.20,-0.68,16.33,0.09,-0.03,0.18,1721198893345
-1.02,5.85,17.06,0.28,0.07,0.04,1721198893355
0.60,6.51,5.49,0.34,-0.08,-0.07,1721198893365
-2.69,1.90,5.95,-0.08,0.08,-0.12,1721198893375
-3.37,-0.07,14.52,0.12,0.03,0.16,1721198893385
-1.45,-5.43,6.99,0.12,-0.08,0.33,1721198893395
1.06,1.84,7.22,0.29,0.06,0.31,1721198893405
5.50,0.45,9.43,-0.07,0.14,0.06,1721198893415
0.14,0.94,12.14,0.04,-0.18,-0.12,1721198893425
-0.60,-3.59,10.32,-0.01,0.19,-0.16,1721198893435
-4.56,-1.47,9.13,0.07,-0.26,0.13,1721198893445
-1.86,-4.65,2.81,-0.06,0.00,0.43,1721198893455
2.43,-3.97,17.55,-0.11,0.16,0.32,1721198893465
1.24,-0.23,10.83,0.20,-0.28,-0.06,1721198893475
0.70,-0.72,7.98,-0.15,0.22,-0.22,1721198893485
-3.85,-2.23,11.18,-0.17,-0.24,0.05,1721198893495
-2.41,-2.72,10.21,-0.17,0.13,0.36,1721198893505
1.35,3.21,13.76,0.07,-0.04,0.41,1721198893515
3.74,3.16,3.89,0.01,-0.11,0.19,1721198893525
4.26,-1.49,9.76,-0.24,0.16,-0.17,1721198893535
-0.04,-2.99,12.82,-0.07,-0.13,-0.34,1721198893545
-3.48,-2.87,9.36,-0.03,-0.00,-0.10,1721198893555
-2.60,0.28,10.67,0.04,-0.03,0.26,1721198893565
1.33,0.18,8.22,-0.07,0.05,0.28,1721198893575
3.24,-1.05,12.96,-0.13,0.09,0.08,1721198893585
1.09,1.98,11.88,0.11,-0.08,-0.24,1721198893595
0.30,0.65,9.41,0.03,0.04,-0.13,1721198893605
-0.78,-0.51,10.18,0.02,-0.03,0.08,1721198893615
1.75,-1.86,11.25,-0.03,0.18,0.11,1721198893625
1.04,-0.29,12.28,0.08,-0.04,-0.02,1721198893635
0.02,3.06,14.25,0.09,0.07,-0.12,1721198893650
0.56,4.72,15.42,0.15,0.07,-0.07,1721198893654
-0.04,4.85,7.30,0.17,0.07,-0.01,1721198893664
-1.48,-2.40,6.62,-0.09,0.06,-0.05,1721198893674
-0.88,-0.89,11.83,0.10,0.16,-0.05,1721198893684
0.82,-1.77,8.17,0.07,0.04,0.08,1721198893694
-0.91,2.30,11.54,0.15,0.12,-0.00,1721198893704
0.59,5.03,9.76,0.27,0.13,-0.06,1721198893714
-0.63,-0.03,7.01,-0.03,-0.02,-0.07,1721198893724
-2.25,0.44,13.23,-0.06,0.17,-0.00,1721198893734
-1.02,-2.49,11.56,0.01,0.03,0.02,1721198893744
0.69,-0.12,9.84,0.10,0.06,0.20,1721198893754
3.39,7.69,7.40,0.23,0.18,0.04,1721198893764
2.59,8.73,6.33,-0.03,0.06,-0.22,1721198893774
-1.23,0.17,9.64,-0.28,0.07,-0.33,1721198893784
-2.94,-8.40,14.75,-0.25,0.06,-0.12,1721198893794
-2.62,-3.62,13.21,0.10,-0.03,0.27,1721198893804
1.97,2.40,5.88,0.16,0.09,0.28,1721198893814
3.46,2.52,8.49,-0.07,0.06,-0.10,1721198893824
0.11,1.75,10.62,-0.08,0.01,-0.39,1721198893834
-2.23,-2.71,13.07,-0.25,0.03,-0.15,1721198893844
-0.52,-4.58,12.89,-0.18,0.08,0.23,1721198893854
3.06,0.96,9.55,0.01,0.04,0.32,1721198893864
5.44,2.52,4.26,-0.05,0.07,-0.12,1721198893874
2.95,-1.58,9.88,-0.23,0.11,-0.61,1721198893884
-3.46,-4.67,14.87,-0.13,-0.01,-0.51,1721198893894
-6.00,-1.12,9.48,-0.10,0.10,-0.11,1721198893904
-3.53,2.46,8.17,-0.11,0.07,0.18,1721198893914
0.58,-2.70,4.11,-0.23,-0.03,0.14,1721198893924
1.00,-4.32,13.18,-0.30,0.15,-0.06,1721198893934
-0.09,-2.88,21.55,-0.24,0.06,-0.32,1721198893944
-2.23,4.54,16.66,0.04,-0.09,-0.22,1721198893954
-2.91,1.55,1.57,-0.07,-0.07,-0.05,1721198893964
-1.13,5.86,12.56,-0.11,0.28,-0.03,1721198893974
1.32,1.36,11.16,0.06,-0.21,0.05,1721198893984
0.23,0.41,9.74,0.02,0.14,-0.09,1721198893994
0.46,2.66,14.14,-0.03,0.13,-0.26,1721198894004
-4.95,0.52,7.51,0.03,-0.23,-0.19,1721198894014
-3.54,1.56,12.26,0.11,0.26,0.03,1721198894024
-0.67,-3.69,7.24,0.16,-0.20,0.26,1721198894034
1.90,-2.81,6.53,0.04,0.24,0.20,1721198894044
4.49,3.17,15.50,0.09,0.13,-0.12,1721198894054
-0.34,2.96,7.33,0.29,-0.20,-0.35,1721198894064
-2.53,0.83,8.66,0.23,0.15,-0.29,1721198894074
-3.06,-3.28,14.13,0.05,0.04,-0.04,1721198894084
-3.65,-2.18,9.84,0.13,-0.09,0.10,1721198894094
0.62,-0.50,8.69,0.04,0.18,0.02,1721198894104
0.30,3.83,10.64,0.07,-0.05,-0.17,1721198894114
-2.18,2.00,6.06,0.09,-0.05,-0.21,1721198894124
-2.67,-2.72,6.83,0.02,-0.02,-0.06,1721198894134
-1.22,0.08,9.25,-0.01,0.05,0.10,1721198894144
-0.48,-2.50,11.70,-0.19,-0.04,-0.01,1721198894154
-0.68,-1.33,17.08,0.12,-0.09,-0.09,1721198894164
0.77,1.72,7.61,0.28,-0.02,0.04,1721198894174
0.67,0.52,5.86,-0.02,-0.02,0.03,1721198894184
0.72,1.56,12.63,0.05,-0.02,-0.02,1721198894194
0.50,3.30,11.22,0.07,-0.01,-0.14,1721198894204
-2.63,5.94,10.98,0.05,-0.11,-0.16,1721198894214
-4.04,1.45,7.55,-0.03,-0.07,0.02,1721198894224
-3.68,-0.92,7.96,-0.07,-0.09,0.28,1721198894234
0.05,0.83,7.70,-0.04,-0.02,0.34,1721198894244
2.64,1.76,11.52,-0.07,-0.03,0.19,1721198894254
2.90,4.42,13.47,0.15,-0.10,0.04,1721198894264
3.11,4.91,9.45,0.02,-0.03,-0.08,1721198894274
-0.33,1.15,10.81,-0.10,-0.14,-0.24,1721198894284
-3.29,1.72,12.96,0.00,0.03,-0.27,1721198894294
-5.56,-0.67,8.07,0.02,-0.22,-0.05,1721198894304
-3.63,-1.47,8.50,0.06,0.02,0.28,1721198894314
1.91,-1.07,8.18,0.10,-0.04,0.41,1721198894324
3.73,-1.48,10.86,-0.09,0.03,0.04,1721198894334
0.42,1.47,15.34,0.14,-0.12,-0.33,1721198894344
-1.68,-0.91,7.57,0.09,-0.08,-0.20,1721198894354
-2.67,-0.77,7.16,-0.02,-0.01,0.18,1721198894364
0.91,-3.37,9.89,-0.11,0.03,0.15,1721198894374
2.04,-3.43,11.42,0.05,-0.09,-0.02,1721198894384
2.33,0.01,10.44,0.01,0.11,-0.15,1721198894394
-1.32,3.57,10.84,0.09,-0.12,-0.09,1721198894404
-1.20,0.17,6.29,0.03,0.06,-0.13,1721198894414
-0.14,-1.61,11.55,-0.01,0.04,-0.14,1721198894424
-0.59,-0.68,14.49,0.07,0.03,-0.12,1721198894434
-1.92,-0.48,7.06,0.07,-0.06,-0.03,1721198894444
-0.27,0.67,10.29,-0.03,0.19,0.01,1721198894454
1.69,0.85,10.01,0.01,-0.06,0.00,1721198894464
0.83,-0.24,9.43,-0.02,0.11,-0.15,1721198894474
0.78,3.32,12.69,0.04,0.13,-0.26,1721198894484
-1.49,0.70,7.62,-0.04,-0.10,-0.13,1721198894494
-0.66,-0.68,10.57,-0.00,0.19,-0.04,1721198894504
1.25,-0.64,7.66,0.10,-0.03,-0.10,1721198894514
1.87,0.79,11.89,-0.09,0.30,-0.23,1721198894524
-0.37,0.19,11.37,0.12,-0.10,-0.27,1721198894534
-2.43,-2.26,8.88,0.04,0.17,-0.17,1721198894544
-1.40,0.89,12.31,0.08,0.12,0.11,1721198894554
1.46,0.08,10.66,-0.13,0.16,0.09,1721198894564
1.89,0.57,14.12,0.02,0.13,-0.08,1721198894574
0.47,-1.50,8.60,0.00,0.09,-0.18,1721198894584
-1.85,-1.14,7.39,-0.02,0.12,-0.16,1721198894594
-2.53,3.11,11.36,0.03,0.20,-0.09,1721198894604
-1.53,-1.02,8.67,-0.06,0.00,0.04,1721198894614
-0.95,-2.15,11.50,-0.13,0.18,0.08,1721198894624
0.21,0.13,12.26,-0.01,0.12,-0.00,1721198894634
-0.29,0.26,12.55,-0.12,0.08,-0.03,1721198894644
-0.73,3.45,13.79,0.08,0.09,0.02,1721198894654
1.44,2.98,8.05,0.02,0.13,0.14,1721198894664
2.90,1.27,8.31,-0.13,0.18,-0.02,1721198894674
1.64,1.28,11.67,-0.10,0.11,-0.23,1721198894684
-0.88,3.55,10.39,0.01,0.12,-0.21,1721198894694
-2.43,1.49,6.68,-0.15,0.08,-0.04,1721198894704
-2.79,-0.25,11.63,-0.14,0.08,0.07,1721198894714
-0.11,-0.85,10.70,-0.10,0.09,0.13,1721198894724
0.90,0.86,14.35,-0.04,0.07,0.10,1721198894734
1.50,2.84,6.81,0.09,-0.02,-0.01,1721198894744
1.37,1.59,12.15,-0.20,0.16,-0.04,1721198894754
1.03,1.34,16.53,0.00,0.00,-0.02,1721198894764
1.39,0.31,10.73,-0.08,0.09,-0.01,1721198894774
1.13,-1.18,9.41,-0.06,0.09,-0.15,1721198894784
1.91,-0.40,6.74,-0.03,0.15,-0.15,1721198894794
0.30,0.75,9.92,0.02,0.13,-0.19,1721198894804
-0.90,2.10,8.54,0.09,0.14,-0.27,1721198894814
-2.01,0.47,9.75,-0.12,0.16,-0.19,1721198894824
-0.58,-0.68,13.93,-0.03,0.14,-0.02,1721198894834
0.83,1.59,9.02,0.11,0.12,-0.03,1721198894844
0.77,-1.09,4.53,0.02,0.18,-0.26,1721198894854
-1.16,0.73,11.57,0.09,0.21,-0.39,1721198894864
-2.01,1.88,11.62,0.15,0.16,-0.25,1721198894874
-2.92,1.87,8.36,0.08,0.14,-0.12,1721198894884
-1.35,1.09,9.97,0.06,0.25,-0.06,1721198894894
-0.49,1.64,11.09,0.06,0.17,-0.13,1721198894904
0.04,0.72,9.96,0.07,0.21,-0.19,1721198894914
-1.28,-1.66,10.10,0.06,0.24,-0.29,1721198894924
-2.41,-1.30,11.20,0.06,0.14,-0.24,1721198894934
-2.64,1.51,8.17,0.14,0.20,-0.12,1721198894944
-1.49,0.97,8.80,0.07,0.20,-0.06,1721198894954
-1.86,-3.53,8.11,0.01,0.08,-0.07,1721198894964
-0.52,-1.59,9.53,0.05,0.27,-0.13,1721198894974
-1.01,0.33,11.36,-0.00,0.14,-0.13,1721198894984
-3.19,-0.48,11.25,0.00,0.08,-0.17,1721198894994
-2.20,0.85,12.27,0.09,0.18,0.01,1721198895004
-1.14,-1.20,9.90,0.01,0.06,0.08,1721198895014
-0.42,-1.33,8.59,0.06,0.10,0.03,1721198895024
0.03,1.37,10.59,0.00,0.16,-0.06,1721198895034
-2.08,4.20,12.20,0.09,-0.03,-0.09,1721198895044
-3.00,2.16,7.76,0.07,0.06,0.04,1721198895054
-1.25,-5.32,8.40,-0.19,0.03,0.20,1721198895064
0.21,-6.04,15.67,-0.08,0.07,0.22,1721198895074
1.78,-0.85,7.54,0.17,-0.05,0.13,1721198895084
0.74,4.41,10.73,0.14,0.09,-0.01,1721198895094
-0.07,9.14,16.50,0.30,0.05,-0.04,1721198895104
-2.35,12.35,11.98,0.33,-0.06,0.09,1721198895114
-2.65,3.17,3.90,-0.14,-0.01,0.09,1721198895124
-2.26,-10.91,12.01,-0.43,0.03,0.17,1721198895134
-2.48,0.64,12.81,0.25,-0.08,0.36,1721198895144
1.66,1.68,2.53,0.07,0.06,0.41,1721198895154
1.07,2.89,10.04,0.06,-0.07,0.31,1721198895164
4.10,3.94,13.04,0.05,0.09,0.21,1721198895174
1.58,6.92,15.15,-0.04,-0.06,-0.12,1721198895184
-1.50,0.56,5.95,-0.01,-0.13,-0.13,1721198895194
-2.82,-4.90,6.22,-0.16,0.05,0.12,1721198895204
-2.37,-2.24,8.16,-0.03,-0.08,0.31,1721198895214
0.88,-1.46,17.09,-0.16,0.15,0.17,1721198895224
0.20,-0.90,17.12,0.16,-0.27,0.08,1721198895234
-0.27,4.13,1.92,0.07,-0.00,0.04,1721198895244
0.12,2.03,6.31,-0.33,0.05,0.10,1721198895254
-0.93,-5.43,7.00,-0.25,-0.18,0.19,1721198895264
0.36,-7.53,11.45,-0.39,0.20,0.02,1721198895274
-2.22,-6.74,18.49,-0.30,-0.23,0.03,1721198895284
-2.65,1.06,18.61,0.02,0.02,0.17,1721198895294
1.37,1.97,7.52,0.02,-0.20,0.37,1721198895304
2.25,1.70,3.42,-0.13,0.05,0.16,1721198895314
2.45,-1.85,8.13,-0.30,0.01,-0.16,1721198895324
-2.49,-5.81,7.62,-0.26,-0.18,-0.12,1721198895334
-2.27,-0.91,13.56,-0.21,0.14,0.10,1721198895344
-1.55,3.34,15.50,-0.09,-0.17,0.32,1721198895354
0.79,6.79,13.48,-0.07,0.05,0.16,1721198895364
1.07,2.29,13.13,-0.23,-0.13,-0.05,1721198895374
-0.16,1.70,12.82,-0.07,0.06,-0.10,1721198895384
-1.94,-3.11,5.34,0.03,-0.21,0.00,1721198895394
-2.82,-0.96,10.29,0.07,-0.00,0.20,1721198895404
1.33,6.34,14.22,0.24,-0.05,0.29,1721198895414
2.75,1.01,9.49,0.03,-0.13,0.19,1721198895424
1.65,1.26,16.78,0.16,0.01,-0.13,1721198895434
-0.04,1.77,15.05,0.26,-0.08,-0.21,1721198895444
-3.04,7.58,7.35,0.45,-0.14,0.14,1721198895454
0.89,-2.56,1.08,0.18,-0.01,0.35,1721198895464
2.46,-5.16,5.67,0.10,-0.02,0.22,1721198895474
3.79,0.16,12.15,0.20,0.09,-0.07,1721198895484
0.44,2.89,11.90,0.26,-0.20,-0.08,1721198895494
-1.06,4.96,7.85,0.30,-0.00,0.07,1721198895504
0.88,-1.30,8.34,-0.12,0.05,0.09,1721198895514
-1.37,-5.42,14.28,0.00,-0.14,0.00,1721198895524
-0.74,-3.41,16.71,0.09,0.16,-0.07,1721198895534
-1.73,0.34,14.10,0.39,-0.32,0.23,1721198895544
1.31,6.86,2.91,0.41,0.11,0.33,1721198895554
5.61,3.12,0.48,0.05,0.00,0.12,1721198895564
3.42,-5.94,8.82,-0.34,0.10,-0.27,1721198895574
-1.25,-0.39,23.82,0.04,0.05,-0.50,1721198895584
-4.52,2.82,9.44,0.38,-0.23,-0.02,1721198895594
-2.15,5.29,2.65,0.04,0.13,0.30,1721198895604
2.55,2.42,7.37,-0.21,-0.03,0.18,1721198895614
1.57,0.73,12.78,-0.14,-0.03,-0.16,1721198895624
-0.36,1.85,10.85,0.02,-0.02,-0.33,1721198895634
-3.08,0.79,2.14,-0.09,-0.18,-0.08,1721198895644
-1.73,-3.22,8.13,-0.39,-0.12,0.21,1721198895659
0.05,-4.36,11.66,-0.43,-0.14,0.22,1721198895663
1.06,-0.97,18.24,-0.21,0.01,0.02,1721198895673
2.86,2.43,12.14,-0.10,-0.12,-0.15,1721198895683
-0.99,1.77,7.72,-0.26,-0.17,-0.22,1721198895693
-1.11,0.10,11.34,-0.33,0.08,-0.13,1721198895703
-1.14,-6.42,11.28,-0.34,-0.23,0.02,1721198895713
-1.07,0.34,16.71,-0.12,0.09,-0.00,1721198895723
-0.03,3.59,4.70,0.04,-0.28,-0.08,1721198895733
-1.38,3.19,3.90,-0.25,0.01,0.03,1721198895743
-0.09,-1.02,12.31,-0.22,-0.07,0.12,1721198895753
1.54,-2.27,6.40,-0.27,-0.12,0.06,1721198895763
2.21,-3.08,9.09,-0.36,-0.00,-0.01,1721198895773
0.80,-1.59,22.05,-0.40,0.00,-0.21,1721198895783
-2.10,7.28,19.20,0.10,-0.26,-0.16,1721198895793
-1.23,2.42,4.61,-0.10,-0.03,-0.03,1721198895803
-1.45,-1.25,10.35,-0.14,-0.11,0.09,1721198895813
0.93,-6.08,9.88,-0.05,-0.03,0.07,1721198895823
0.36,1.30,10.50,0.02,-0.10,-0.02,1721198895833
0.50,0.42,9.67,0.01,-0.04,-0.10,1721198895843
-0.40,-0.84,17.10,-0.07,-0.04,-0.15,1721198895853
-1.29,3.65,11.31,0.27,-0.22,-0.03,1721198895863
0.53,3.06,9.79,0.08,0.13,-0.04,1721198895873
-1.65,1.70,9.64,0.26,-0.35,-0.02,1721198895883
-0.52,0.12,5.11,0.25,0.07,-0.07,1721198895893
0.68,-1.61,7.27,0.04,-0.18,-0.04,1721198895903
-1.22,4.92,18.61,0.00,0.09,-0.28,1721198895913
-1.52,6.48,18.41,0.26,-0.22,-0.18,1721198895923
-2.89,-7.14,4.49,-0.04,-0.22,-0.03,1721198895933
-0.91,-4.73,10.53,0.11,0.01,0.04,1721198895943
2.09,5.15,8.27,0.27,-0.14,-0.12,1721198895953
0.54,3.96,8.17,0.10,-0.11,-0.27,1721198895963
-1.51,2.99,11.02,0.17,-0.15,-0.24,1721198895973
-1.45,0.11,11.65,-0.02,-0.02,-0.10,1721198895983
-1.51,0.85,9.94,0.05,-0.24,0.01,1721198895993
0.16,3.01,6.43,0.03,-0.09,-0.04,1721198896003
-0.80,2.82,6.49,-0.01,-0.23,-0.14,1721198896013
-1.73,1.09,6.30,-0.05,-0.16,-0.09,1721198896023
-0.62,-3.22,7.97,-0.28,-0.10,-0.08,1721198896033
-1.55,1.58,16.61,-0.15,-0.08,-0.16,1721198896043
-0.81,-1.65,10.11,-0.11,-0.26,-0.08,1721198896053
-2.53,0.87,11.29,-0.08,-0.19,-0.06,1721198896063
0.18,5.19,9.62,0.10,-0.11,0.11,1721198896073
1.26,-4.21,12.15,-0.63,-0.14,-0.01,1721198896083
-1.75,3.74,33.27,0.15,-0.23,-0.18,1721198896093
-0.42,2.89,-4.73,0.30,-0.46,-0.22,1721198896103
-0.42,0.52,-0.77,-0.47,0.20,0.05,1721198896113
1.11,-2.08,18.90,-0.03,-0.24,0.14,1721198896123
3.42,-0.06,13.20,0.10,-0.07,-0.27,1721198896133
0.52,2.48,11.40,0.14,-0.20,-0.56,1721198896143
-2.64,0.09,10.34,-0.03,-0.09,-0.47,1721198896153
-5.14,-2.78,13.01,0.01,-0.20,-0.21,1721198896163
-2.50,-4.03,10.28,0.13,-0.03,0.06,1721198896173
-0.16,-3.46,9.11,0.15,-0.16,-0.00,1721198896183
1.44,0.34,12.65,0.16,-0.01,-0.15,1721198896193
0.98,5.44,12.18,0.26,-0.13,-0.23,1721198896203
-0.74,1.86,5.43,0.07,-0.10,-0.26,1721198896213
-1.62,-0.97,9.45,0.07,-0.01,-0.24,1721198896223
-0.75,-4.22,6.63,0.17,-0.18,-0.18,1721198896233
-1.10,0.80,13.25,0.29,0.05,-0.12,1721198896243
-0.26,0.50,10.66,0.35,-0.18,-0.13,1721198896253
-0.54,0.23,16.44,0.22,0.08,-0.20,1721198896263
-0.01,3.46,15.90,0.47,-0.12,-0.20,1721198896273
-0.66,3.24,6.46,0.43,-0.10,-0.17,1721198896283
0.22,1.86,5.69,0.39,0.02,-0.12,1721198896293
1.75,-2.76,3.01,0.31,-0.10,-0.09,1721198896303
2.02,-2.18,7.49,0.37,0.06,-0.16,1721198896313
2.07,0.01,6.74,0.47,-0.06,-0.26,1721198896323
0.75,0.83,9.05,0.29,0.07,-0.26,1721198896333
1.04,2.40,13.07,0.37,0.04,-0.22,1721198896343
1.74,-0.40,6.55,0.23,0.04,-0.29,1721198896353
0.44,-2.48,4.94,0.17,0.08,-0.33,1721198896363
-0.19,-4.29,10.31,0.11,0.17,-0.34,1721198896373
-2.65,-2.06,13.72,0.31,-0.01,-0.29,1721198896383
-1.07,1.56,6.60,0.38,0.19,-0.12,1721198896393
1.31,0.16,3.25,0.02,0.12,-0.11,1721198896403
0.39,-1.08,11.26,-0.01,0.18,-0.36,1721198896413
-1.22,0.51,8.60,0.31,0.01,-0.38,1721198896423
-1.70,-3.10,2.38,0.01,0.13,-0.25,1721198896433
-2.01,-3.30,13.16,-0.05,0.15,-0.15,1721198896443
-1.00,-3.25,11.50,0.08,0.08,-0.20,1721198896453
-1.02,-0.32,12.15,0.06,0.12,-0.19,1721198896463
0.71,-0.02,10.44,0.14,0.12,-0.06,1721198896473
2.60,4.49,10.40,0.19,0.25,-0.13,1721198896483
3.47,4.51,2.84,0.09,0.12,-0.30,1721198896493
0.93,0.29,3.69,-0.26,0.21,-0.50,1721198896503
-1.45,-3.38,17.83,-0.25,0.25,-0.47,1721198896513
-3.21,0.75,15.38,0.17,0.04,-0.19,1721198896523
-1.52,1.31,3.80,0.03,0.12,-0.02,1721198896533
0.68,4.11,13.38,-0.14,0.31,-0.16,1721198896543
-0.30,3.56,10.93,-0.04,-0.01,-0.30,1721198896553
-2.20,-0.95,5.95,-0.20,0.17,-0.28,1721198896563
-2.82,-0.78,11.47,-0.15,0.12,-0.10,1721198896573
-1.00,-0.24,11.35,-0.09,0.14,0.04,1721198896583
2.20,2.87,10.43,-0.07,0.12,0.04,1721198896593
4.17,2.36,10.73,-0.21,0.19,-0.21,1721198896603
2.17,1.34,14.57,-0.20,0.15,-0.49,1721198896613
-0.58,0.95,9.68,-0.06,0.07,-0.46,1721198896623
-1.68,-0.18,8.20,-0.18,0.25,-0.32,1721198896633
-1.80,-1.53,10.32,-0.21,0.16,-0.22,1721198896643
-1.22,-5.05,7.88,-0.12,0.09,-0.18,1721198896653
0.17,-0.60,12.65,-0.04,0.30,-0.21,1721198896663
0.02,1.24,9.60,-0.07,0.08,-0.29,1721198896673
-1.50,2.88,11.92,-0.15,0.27,-0.32,1721198896683
-1.81,-3.68,10.69,-0.11,0.08,-0.27,1721198896693
-1.98,-1.60,11.27,-0.05,0.20,-0.17,1721198896703
0.62,-3.66,10.09,-0.16,0.19,-0.07,1721198896713
-0.91,0.63,14.28,-0.04,0.14,-0.20,1721198896723
-0.38,2.78,4.78,0.08,0.12,-0.25,1721198896733
-1.18,-2.39,8.18,-0.30,0.33,-0.27,1721198896743
-3.00,0.56,16.13,0.05,0.06,-0.21,1721198896753
-0.32,0.84,9.96,-0.08,0.26,-0.06,1721198896763
-1.88,1.16,14.19,-0.11,0.07,-0.13,1721198896773
-1.83,-1.34,11.07,0.08,0.12,-0.08,1721198896783
0.23,-6.10,9.54,-0.16,0.16,-0.03,1721198896793
-1.12,-2.58,12.59,0.10,0.04,-0.11,1721198896803
0.67,2.34,11.12,0.10,0.30,-0.26,1721198896813
-1.78,1.55,7.13,0.03,-0.03,-0.21,1721198896823
-2.75,-1.38,6.62,-0.05,0.28,-0.13,1721198896833
-1.76,-1.12,12.67,-0.02,0.13,-0.02,1721198896843
-1.53,0.57,9.29,0.10,0.07,-0.11,1721198896853
-0.39,6.21,14.17,0.10,0.22,-0.12,1721198896863
-2.39,9.60,13.38,0.24,-0.06,-0.07,1721198896873
-2.68,-1.05,4.42,-0.05,0.06,-0.03,1721198896883
-0.66,-5.38,9.44,-0.19,0.14,0.03,1721198896893
-0.79,-4.12,9.05,-0.03,-0.08,0.04,1721198896903
-0.91,2.85,14.36,0.11,0.17,-0.01,1721198896913
1.54,5.80,12.48,0.34,-0.04,0.05,1721198896923
1.47,2.90,6.79,0.08,0.05,0.01,1721198896933
0.71,2.17,14.47,-0.07,0.13,-0.19,1721198896943
-1.08,2.52,15.40,0.02,-0.01,-0.18,1721198896953
-2.48,5.09,9.79,0.14,-0.00,0.02,1721198896963
-2.10,-1.69,2.80,-0.05,-0.04,0.09,1721198896973
-0.23,-3.50,8.37,-0.12,0.09,0.19,1721198896983
1.56,1.37,7.55,0.01,-0.00,0.05,1721198896993
-0.58,1.73,4.45,0.01,-0.06,-0.02,1721198897003
-0.81,2.67,8.81,0.09,0.06,0.11,1721198897013
0.51,2.08,12.51,-0.09,0.06,0.23,1721198897023
-1.52,9.80,16.01,-0.10,0.00,-0.08,1721198897033
0.23,-0.29,22.75,-0.57,0.13,-0.25,1721198897043
-5.56,-11.17,20.89,-0.17,-0.32,-0.02,1721198897053
-4.94,-0.07,-1.78,0.41,-0.07,0.32,1721198897063
3.48,2.57,-2.25,-0.10,0.12,0.58,1721198897073
3.63,6.30,16.18,0.10,0.05,0.26,1721198897083
6.14,4.61,14.81,0.08,-0.13,-0.39,1721198897093
-2.25,-2.89,9.45,-0.30,-0.13,-0.71,1721198897103
-7.12,-3.78,9.79,-0.20,-0.07,-0.23,1721198897113
-5.85,-5.63,10.90,-0.22,0.08,0.27,1721198897123
-1.54,-1.01,12.80,0.06,-0.10,0.53,1721198897133
5.11,2.85,8.49,0.17,0.03,0.21,1721198897143
4.74,1.83,4.55,0.03,-0.12,-0.24,1721198897153
0.83,1.81,7.10,0.02,0.05,-0.40,1721198897163
-1.12,0.98,5.11,-0.07,-0.01,-0.18,1721198897173
-2.91,-10.68,2.66,-0.44,-0.12,-0.03,1721198897183
-2.32,-9.50,25.41,-0.33,0.20,-0.07,1721198897193
-1.29,2.65,35.79,0.10,-0.06,-0.13,1721198897203
-0.95,10.38,14.85,0.60,-0.27,0.32,1721198897213
3.58,5.67,-11.21,0.14,0.18,0.35,1721198897223
5.28,-4.49,3.71,-0.29,0.25,-0.25,1721198897233
1.66,-4.03,9.97,0.09,-0.22,-0.55,1721198897243
-2.74,-2.83,13.63,0.14,0.10,-0.18,1721198897253
-1.90,2.58,13.67,0.13,-0.06,0.39,1721198897263
3.47,-0.14,9.10,0.02,0.09,0.28,1721198897273
4.63,-0.89,11.55,0.02,0.09,-0.23,1721198897283
2.06,-3.96,9.66,0.11,0.06,-0.51,1721198897293
-2.39,2.05,10.52,0.20,0.15,-0.24,1721198897303
-1.98,1.47,7.30,0.07,0.08,0.11,1721198897313
1.16,-1.53,11.82,-0.03,0.16,0.13,1721198897323
3.67,0.17,11.32,0.17,0.11,-0.09,1721198897333
1.40,0.29,7.16,0.01,0.10,-0.41,1721198897343
-2.25,1.87,15.55,0.05,0.23,-0.40,1721198897353
-3.99,0.16,9.04,0.17,0.00,-0.05,1721198897363
-0.35,-0.41,9.70,-0.08,0.33,0.25,1721198897373
2.99,3.48,16.08,0.10,0.21,0.01,1721198897383
3.00,3.21,6.54,0.13,0.07,-0.28,1721198897393
1.19,1.14,8.47,-0.07,0.34,-0.41,1721198897403
-2.48,-0.89,12.12,-0.01,0.07,-0.33,1721198897413
-3.05,0.33,9.23,0.03,0.17,-0.01,1721198897423
-0.18,3.60,11.31,-0.04,0.20,0.07,1721198897433
0.61,4.96,5.79,0.05,0.05,-0.10,1721198897443
1.64,-3.72,5.26,-0.38,0.24,-0.26,1721198897453
-1.15,-3.91,15.96,-0.22,0.07,-0.21,1721198897463
-0.23,-1.29,10.89,0.02,0.15,-0.16,1721198897473
-0.34,4.59,9.51,0.01,0.16,-0.23,1721198897483
-1.46,0.59,5.39,-0.13,0.07,-0.28,1721198897493
-1.58,0.78,11.28,-0.18,0.26,-0.19,1721198897503
0.24,-2.83,10.98,-0.21,0.10,-0.09,1721198897513
-0.30,-3.60,11.06,-0.23,0.14,-0.17,1721198897523
0.08,-0.17,11.32,-0.08,0.18,-0.27,1721198897533
-0.91,6.46,9.69,0.04,0.14,-0.26,1721198897543
-2.23,0.46,6.29,-0.17,0.10,-0.25,1721198897553
-2.64,-2.08,14.31,-0.22,0.17,-0.09,1721198897563
-1.64,-0.57,10.91,-0.02,0.12,-0.06,1721198897573
-1.02,2.33,7.46,0.01,0.08,-0.08,1721198897583
-1.31,-1.04,8.71,-0.09,0.13,-0.11,1721198897593
-2.69,-0.01,13.26,0.01,0.03,-0.02,1721198897603
-1.09,3.42,14.66,0.08,0.15,0.13,1721198897613
-0.99,1.33,7.93,0.12,-0.08,0.05,1721198897623
-1.12,1.92,9.01,0.04,0.17,-0.02,1721198897633
0.14,-2.75,8.52,0.01,-0.04,0.07,1721198897643
-1.17,-2.42,10.32,0.07,0.07,0.10,1721198897653
-0.46,2.71,9.00,0.13,0.10,-0.07,1721198897668
-1.37,3.41,11.25,0.09,0.03,-0.05,1721198897672
-1.75,2.44,12.75,0.02,0.05,-0.03,1721198897682
-2.12,3.36,11.08,0.27,-0.11,0.11,1721198897692
0.94,-4.05,6.56,0.01,0.10,0.20,1721198897702
1.45,-6.54,9.26,-0.07,-0.05,0.09,1721198897712
-0.60,1.76,11.08,0.27,0.01,-0.12,1721198897722
-0.43,4.27,11.85,0.10,0.09,-0.15,1721198897732
-3.69,2.57,7.75,0.23,-0.26,0.02,1721198897742
-0.63,-3.78,6.04,-0.03,0.18,0.11,1721198897752
-0.08,1.41,15.33,0.07,-0.07,0.06,1721198897762
-0.39,4.20,4.80,0.15,-0.12,-0.07,1721198897772
-1.13,0.19,12.54,-0.10,0.04,-0.09,1721198897782
-1.03,-3.00,12.52,0.23,-0.21,0.18,1721198897792
0.98,-1.12,5.92,0.14,0.01,0.15,1721198897802
1.48,3.60,10.97,0.12,-0.06,-0.09,1721198897812
0.37,5.42,11.41,0.17,-0.07,-0.19,1721198897822
-2.06,3.89,6.90,0.15,-0.13,-0.08,1721198897832
-2.05,-2.99,6.03,-0.19,-0.03,0.01,1721198897842
-1.74,-5.45,21.77,-0.31,-0.00,-0.03,1721198897852
-1.67,10.12,25.16,0.48,-0.20,0.13,1721198897862
-0.56,11.31,-5.34,0.38,-0.31,0.15,1721198897872
2.60,-0.99,-0.50,-0.44,0.06,0.15,1721198897882
2.79,-5.01,16.18,-0.14,-0.13,-0.04,1721198897892
-0.58,-2.99,12.46,0.07,-0.10,-0.29,1721198897902
-4.42,3.49,10.80,0.21,-0.18,-0.04,1721198897912
-1.07,3.14,4.15,0.09,-0.03,0.41,1721198897922
3.36,0.28,11.34,-0.18,0.13,0.25,1721198897932
3.19,-3.30,12.73,-0.07,-0.14,-0.32,1721198897942
-1.31,-5.87,11.70,-0.12,-0.01,-0.50,1721198897952
-6.86,2.95,7.98,0.25,-0.23,-0.05,1721198897962
-0.69,-1.09,0.91,-0.12,0.09,0.55,1721198897972
3.95,-3.32,8.53,-0.26,0.03,0.29,1721198897982
5.06,-3.40,13.84,-0.20,0.04,-0.42,1721198897992
-2.71,0.33,10.21,-0.01,-0.26,-0.61,1721198898002
-4.98,-3.28,9.64,-0.14,0.10,-0.12,1721198898012
-3.34,2.94,20.62,-0.10,0.02,0.40,1721198898022
1.84,1.75,15.43,-0.07,-0.10,0.36,1721198898032
5.81,-5.80,7.49,-0.22,0.01,-0.03,1721198898042
2.46,-3.95,3.11,-0.15,-0.03,-0.46,1721198898052
-1.91,2.10,9.39,-0.04,0.10,-0.38,1721198898062
-2.85,2.44,9.59,0.06,-0.08,0.06,1721198898072
-0.09,-2.88,12.91,-0.17,0.11,0.11,1721198898082
0.74,4.01,19.22,0.07,0.00,-0.09,1721198898092
1.21,1.66,7.66,0.03,-0.10,-0.05,1721198898102
-0.67,1.50,10.98,-0.02,0.19,-0.05,1721198898112
0.28,-2.65,9.15,0.10,-0.06,-0.14,1721198898122
-0.79,2.37,14.21,0.16,0.12,-0.04,1721198898132
0.34,4.04,5.27,0.27,-0.13,0.04,1721198898142
2.32,3.63,11.78,-0.07,0.33,-0.02,1721198898152
0.87,1.53,10.71,0.16,-0.18,-0.02,1721198898162
0.73,-4.12,3.57,0.03,0.21,-0.19,1721198898172
-0.83,-5.35,21.73,-0.22,0.15,-0.26,1721198898182
-3.76,5.57,25.52,0.50,-0.04,-0.16,1721198898192
1.24,8.76,1.66,0.56,0.04,0.24,1721198898202
3.21,0.33,0.51,-0.09,0.21,0.07,1721198898212
2.01,0.92,13.46,0.17,0.03,-0.43,1721198898222
-2.64,-0.34,5.86,0.21,-0.03,-0.43,1721198898232
-4.82,-0.15,10.50,-0.01,0.18,-0.02,1721198898242
-0.75,2.33,11.26,0.12,0.16,0.24,1721198898252
3.48,0.47,9.16,-0.01,0.14,0.14,1721198898262
3.84,0.76,7.05,0.11,0.13,-0.25,1721198898272
1.70,1.59,9.08,-0.20,0.27,-0.56,1721198898282
-3.89,2.04,18.77,-0.15,0.02,-0.33,1721198898292
-3.78,-3.52,13.02,0.05,0.13,0.06,1721198898302
1.46,-3.28,6.85,-0.04,0.17,0.22,1721198898312
3.81,1.81,9.02,-0.11,0.21,-0.21,1721198898322
1.51,2.46,12.09,-0.02,0.06,-0.49,1721198898332
-2.30,2.35,11.64,0.07,0.10,-0.38,1721198898342
-2.63,-2.29,10.83,-0.09,0.21,-0.06,1721198898352
-1.31,-2.21,9.72,-0.05,0.06,0.12,1721198898362
2.71,1.65,6.29,0.01,0.24,-0.04,1721198898372
3.11,1.33,10.98,-0.10,0.19,-0.36,1721198898382
-2.60,1.41,6.85,0.13,0.00,-0.45,1721198898392
-3.66,-4.16,7.12,-0.16,0.30,-0.18,1721198898402
-4.07,2.32,15.24,-0.01,0.07,0.15,1721198898412
1.10,4.54,8.77,0.01,0.19,0.19,1721198898422
2.21,3.68,10.28,-0.10,0.11,-0.10,1721198898432
0.41,-3.43,12.33,-0.14,0.19,-0.30,1721198898442
-2.92,-0.08,17.35,0.04,0.13,-0.26,1721198898452
-3.62,0.36,5.72,0.22,-0.01,-0.04,1721198898462
-2.72,1.53,2.77,0.01,0.20,0.10,1721198898472
-0.79,1.81,8.32,0.03,0.07,0.12,1721198898482
0.65,-4.68,12.85,-0.10,0.08,0.03,1721198898492
0.70,-2.52,13.55,0.04,0.03,-0.04,1721198898502
1.14,-0.53,11.58,-0.11,0.25,-0.16,1721198898512
-3.08,3.25,10.34,0.04,-0.14,-0.10,1721198898522
-3.08,-2.37,4.26,-0.01,0.13,0.03,1721198898532
-0.85,-1.87,11.17,-0.03,0.08,0.26,1721198898542
1.74,-0.75,10.12,0.00,0.01,0.18,1721198898552
1.47,0.95,9.46,0.01,0.02,-0.11,1721198898562
0.48,-4.97,8.01,-0.20,0.06,-0.26,1721198898572
-3.46,-3.16,17.65,-0.18,0.09,-0.16,1721198898582
-2.71,2.69,16.38,0.15,-0.01,0.18,1721198898592
-0.86,4.50,6.54,0.07,0.00,0.12,1721198898602
-0.30,6.04,8.63,0.00,0.03,-0.04,1721198898612
0.19,1.89,9.71,-0.03,-0.06,-0.06,1721198898622
-1.80,-3.10,7.96,0.03,-0.11,0.03,1721198898632
-1.03,-1.07,11.58,0.07,0.10,0.05,1721198898642
-1.31,3.40,9.54,0.11,-0.21,0.09,1721198898652
-1.38,5.56,12.27,0.10,-0.03,0.03,1721198898662
-0.21,5.52,15.03,0.22,-0.05,0.12,1721198898672
-0.83,0.26,7.81,0.11,-0.19,0.10,1721198898682
-2.09,-0.67,4.54,-0.03,-0.11,0.05,1721198898692
-0.90,2.82,13.43,-0.07,0.03,0.18,1721198898702
1.24,5.44,13.73,0.11,-0.12,0.34,1721198898712
3.29,-1.91,6.26,0.01,-0.16,0.21,1721198898722
3.29,3.10,12.76,0.03,0.09,-0.11,1721198898732
0.87,5.12,7.73,0.08,-0.27,-0.21,1721198898742
-3.67,2.23,10.80,-0.19,-0.01,-0.24,1721198898752
-4.33,-3.08,13.92,0.03,-0.22,0.13,1721198898762
-2.38,-5.18,6.02,-0.07,-0.12,0.35,1721198898772
0.61,0.49,10.19,-0.02,-0.02,0.27,1721198898782
2.66,-0.42,8.86,-0.05,-0.13,0.16,1721198898792
-0.27,3.00,10.07,-0.01,-0.08,-0.02,1721198898802
0.64,2.06,8.56,-0.05,-0.08,0.01,1721198898812
-0.78,-2.24,9.84,-0.30,-0.15,-0.01,1721198898822
-1.36,-0.82,20.00,-0.09,-0.04,-0.11,1721198898832
-1.14,-2.86,6.44,0.08,-0.40,0.08,1721198898842
-1.43,1.62,6.38,-0.08,0.08,0.26,1721198898852
1.47,1.45,12.54,-0.05,-0.19,0.21,1721198898862
1.02,-0.96,11.70,-0.08,-0.13,-0.12,1721198898872
1.60,-1.89,7.78,-0.02,-0.19,-0.08,1721198898882
-0.17,-2.92,8.13,-0.22,-0.05,-0.04,1721198898892
-0.19,-3.30,17.48,-0.06,-0.10,0.11,1721198898902
0.64,2.60,11.09,0.18,-0.15,0.18,1721198898912
2.76,1.79,7.89,-0.08,-0.01,-0.00,1721198898922
-0.31,-0.67,11.61,-0.07,-0.20,-0.25,1721198898932
-1.06,-1.64,12.24,0.04,-0.02,-0.15,1721198898942
-1.61,4.90,11.25,0.22,-0.14,0.13,1721198898952
0.78,-2.33,5.11,0.02,-0.13,0.18,1721198898962
1.58,-2.52,14.84,0.02,0.05,-0.11,1721198898972
1.13,-0.63,10.47,0.09,-0.16,-0.26,1721198898982
-2.10,3.44,11.07,0.10,-0.02,0.02,1721198898992
0.50,4.49,9.31,0.26,-0.03,0.19,1721198899002
3.93,-1.43,5.50,0.01,-0.02,0.05,1721198899012
2.75,2.36,14.11,0.15,0.08,-0.31,1721198899022
0.75,-0.95,12.74,0.15,-0.11,-0.42,1721198899032
-4.52,3.97,8.96,0.39,-0.11,-0.08,1721198899042
0.41,-1.07,3.20,0.16,0.14,0.03,1721198899052
0.02,-1.36,12.20,0.04,-0.03,-0.09,1721198899062
-0.11,0.75,12.35,0.20,0.04,-0.28,1721198899072
-1.44,4.17,14.00,0.08,0.03,-0.14,1721198899082
-1.25,5.20,5.16,0.24,-0.11,0.06,1721198899092
3.74,-2.32,3.05,-0.13,0.16,0.07,1721198899102
3.82,-1.71,12.65,-0.08,0.05,-0.21,1721198899112
3.12,1.25,17.27,0.06,0.18,-0.50,1721198899122
-1.24,5.73,14.54,0.21,-0.05,-0.44,1721198899132
-3.16,6.04,1.54,0.17,0.02,-0.25,1721198899142
-0.04,-2.81,8.16,-0.42,0.28,-0.15,1721198899152
-1.98,-1.15,14.25,0.08,-0.23,-0.04,1721198899162
2.45,-3.01,3.48,-0.07,0.24,-0.15,1721198899172
-0.83,2.79,10.36,-0.09,-0.14,-0.29,1721198899182
-0.26,-0.26,6.98,-0.15,0.16,-0.24,1721198899192
-0.15,-2.39,15.45,-0.33,0.07,-0.09,1721198899202
1.08,-2.20,13.06,-0.02,-0.03,-0.03,1721198899212
3.67,-1.27,9.78,-0.16,0.24,-0.34,1721198899222
0.66,1.12,10.79,-0.08,-0.09,-0.47,1721198899232
-1.17,-1.00,8.98,-0.07,0.15,-0.38,1721198899242
-1.42,-4.62,9.32,-0.16,0.07,-0.19,1721198899252
-0.81,-3.68,12.42,-0.19,0.14,-0.16,1721198899262
-0.67,4.44,13.23,-0.07,0.10,-0.27,1721198899272
-1.65,1.30,8.66,-0.25,0.09,-0.41,1721198899282
-3.96,-2.36,12.18,-0.19,0.03,-0.24,1721198899292
-0.98,-0.19,13.73,-0.00,0.23,-0.05,1721198899302
0.31,3.93,9.91,0.02,-0.03,-0.01,1721198899312
0.22,5.07,11.54,0.02,0.24,-0.31,1721198899322
-0.50,1.82,9.83,0.01,0.04,-0.34,1721198899332
-3.87,-3.95,8.48,-0.09,0.06,-0.19,1721198899342
-2.03,3.90,12.55,0.22,0.21,-0.06,1721198899352
-0.41,1.87,6.59,0.03,0.03,0.00,1721198899362
-0.70,-0.39,14.50,0.04,0.18,-0.08,1721198899372
1.43,-1.49,8.31,0.25,0.07,-0.13,1721198899382
-1.26,1.09,8.22,0.02,0.14,-0.28,1721198899392
-2.52,2.60,14.81,0.19,0.09,-0.21,1721198899402
-3.09,-1.53,7.00,0.13,-0.01,-0.12,1721198899412
-2.18,-3.06,5.74,0.12,0.15,0.07,1721198899422
0.34,-3.48,7.11,0.01,0.10,-0.03,1721198899432
0.00,1.98,11.18,0.17,0.05,-0.15,1721198899442
0.45,7.38,11.06,0.23,0.21,-0.22,1721198899452
-1.99,-1.15,5.80,-0.07,-0.19,-0.27,1721198899462
-3.69,-4.03,20.24,-0.04,0.25,-0.13,1721198899472
-1.22,-1.14,4.53,0.36,-0.20,0.10,1721198899482
-0.84,-1.14,3.86,-0.18,0.27,-0.07,1721198899492
-0.35,2.77,22.92,0.15,-0.01,-0.02,1721198899502
0.12,0.21,6.30,0.28,-0.17,0.01,1721198899512
0.91,4.61,11.63,0.02,0.25,-0.17,1721198899522
-1.60,2.88,9.56,-0.00,-0.25,-0.32,1721198899532
-5.14,3.56,13.64,-0.01,0.13,-0.10,1721198899542
-3.12,3.73,8.40,0.21,-0.06,0.15,1721198899552
-1.44,0.02,2.49,-0.00,-0.06,0.23,1721198899562
2.53,1.13,10.42,-0.09,0.21,0.15,1721198899572
3.79,2.57,12.39,-0.02,-0.16,-0.02,1721198899582
0.98,6.53,7.58,0.16,-0.03,-0.19,1721198899592
1.35,0.03,9.98,-0.17,0.08,-0.23,1721198899602
-3.90,-8.56,10.59,-0.27,-0.20,-0.13,1721198899612
-4.07,0.84,19.74,0.09,0.28,-0.11,1721198899622
-3.49,-0.67,2.36,0.01,-0.42,0.09,1721198899632
-4.23,3.98,14.62,-0.12,0.33,0.27,1721198899642
3.39,0.46,10.20,0.10,-0.15,0.32,1721198899652
1.94,-4.81,1.98,-0.25,-0.05,-0.08,1721198899662
-2.21,1.75,8.87,0.18,-0.15,-0.22,1721198899677
-1.86,4.17,9.93,0.09,-0.27,-0.12,1721198899681
-2.59,8.83,9.42,0.08,0.13,0.08,1721198899691
1.22,-2.69,5.46,-0.23,-0.13,0.12,1721198899701
-0.48,-12.92,8.66,-0.38,-0.04,-0.09,1721198899711
0.20,-0.04,18.91,0.08,0.18,-0.17,1721198899721
-1.62,4.62,7.51,0.06,-0.21,0.15,1721198899731
0.14,7.56,4.72,0.08,0.13,0.32,1721198899741
6.93,-4.92,7.17,-0.35,0.08,0.02,1721198899751
0.80,-6.17,15.30,-0.11,-0.07,-0.43,1721198899761
-0.29,0.14,13.68,0.28,0.08,-0.34,1721198899771
-3.20,6.51,4.42,0.17,-0.11,0.07,1721198899781
1.56,-3.64,8.51,-0.13,0.21,0.18,1721198899791
2.72,-0.09,17.69,0.11,0.11,-0.13,1721198899801
-0.23,-0.20,4.91,0.12,-0.08,-0.46,1721198899811
-2.84,-2.38,6.34,-0.00,0.17,-0.21,1721198899821
-0.58,-0.71,9.93,0.14,0.12,0.19,1721198899831
1.12,0.49,17.94,0.11,0.18,0.07,1721198899841
1.37,1.77,23.89,0.23,0.02,-0.14,1721198899851
-0.00,3.27,9.41,0.33,-0.04,-0.14,1721198899861
0.65,4.54,3.30,0.11,0.28,-0.09,1721198899871
0.07,-2.05,9.46,-0.06,0.08,-0.03,1721198899881
-0.36,-2.10,10.49,0.28,0.17,-0.12,1721198899891
1.05,1.74,12.09,0.19,0.23,-0.06,1721198899901
-1.34,4.25,9.11,0.16,-0.11,-0.03,1721198899911
0.76,4.76,10.83,0.08,0.31,-0.07,1721198899921
1.11,0.12,9.29,0.12,0.02,-0.00,1721198899931
1.50,-5.14,3.42,-0.03,0.30,-0.18,1721198899941
-0.13,-1.54,10.18,-0.04,0.18,-0.29,1721198899951
-2.36,2.46,14.08,0.16,0.09,-0.18,1721198899961
-2.19,11.93,8.24,0.51,0.14,0.08,1721198899971
2.30,2.80,-9.17,-0.04,0.08,0.19,1721198899981
2.33,-10.07,3.47,-0.87,0.41,-0.20,1721198899991
0.23,-6.43,38.48,-0.11,0.46,-0.52,1721198900001
-3.32,0.56,7.93,0.64,-0.32,0.05,1721198900011
1.58,4.80,6.84,-0.01,0.60,0.22,1721198900021
2.22,7.01,14.64,0.05,-0.15,0.04,1721198900031
3.20,7.48,21.49,-0.14,0.35,-0.24,1721198900041
0.62,3.49,12.41,0.18,-0.18,-0.36,1721198900051
-1.77,-12.47,-0.22,-0.28,0.16,-0.39,1721198900061
-5.88,-9.59,8.13,-0.22,0.01,-0.02,1721198900071
-2.74,-5.28,13.18,-0.01,0.28,0.20,1721198900081
1.05,4.31,13.33,0.18,0.07,0.11,1721198900091
0.92,17.88,7.37,0.25,0.12,-0.10,1721198900101
1.43,3.74,1.73,-0.20,0.03,-0.10,1721198900111
0.34,-11.44,8.92,-0.46,0.15,-0.00,1721198900121
1.65,-8.09,16.02,-0.09,0.20,-0.22,1721198900131
-1.62,3.23,5.75,0.18,-0.13,-0.25,1721198900141
-4.50,2.28,5.37,-0.19,0.19,-0.16,1721198900151
-3.17,2.20,13.81,-0.10,0.08,0.15,1721198900161
0.09,-5.08,7.35,-0.20,0.06,0.28,1721198900171
1.68,-4.87,9.87,-0.27,0.11,0.01,1721198900181
0.49,-5.44,16.12,-0.32,0.08,-0.19,1721198900191
-2.05,-0.35,30.55,0.01,0.10,-0.24,1721198900201
-3.23,4.78,10.98,0.52,-0.19,0.03,1721198900211
-1.01,2.54,-2.31,0.05,0.11,0.23,1721198900221
0.75,2.76,5.20,-0.14,0.07,0.17,1721198900231
1.63,5.83,9.67,0.03,0.11,-0.10,1721198900241
0.40,-1.99,4.02,-0.14,-0.05,-0.21,1721198900251
-2.78,-5.85,17.63,-0.28,0.21,-0.22,1721198900261
-1.98,2.76,17.59,0.25,-0.04,0.09,1721198900271
0.42,1.30,7.22,0.07,0.06,0.02,1721198900281
-2.02,9.90,11.52,0.38,-0.14,-0.06,1721198900291
1.19,3.05,6.30,0.08,0.13,-0.12,1721198900301
-1.35,-5.27,13.73,-0.02,-0.10,-0.15,1721198900311
-1.74,-0.81,5.61,0.17,0.06,-0.08,1721198900321
-2.96,4.92,11.84,-0.05,0.07,-0.12,1721198900331
-3.11,2.66,7.83,0.33,-0.23,0.17,1721198900341
1.56,-3.49,7.05,0.15,0.14,0.31,1721198900351
2.75,1.15,12.72,0.20,-0.10,0.01,1721198900361
0.66,4.27,11.72,0.18,0.05,-0.40,1721198900371
-3.92,3.39,9.05,0.28,-0.20,-0.23,1721198900381
-4.78,-1.47,3.12,0.08,-0.05,0.22,1721198900391
0.44,-1.67,14.67,-0.02,0.15,0.49,1721198900401
4.48,5.89,11.71,0.26,-0.16,0.25,1721198900411
4.21,9.96,9.85,0.10,0.13,-0.37,1721198900421
-1.33,4.37,13.14,0.24,-0.17,-0.31,1721198900431
-4.36,-4.63,-8.64,-0.08,-0.25,0.11,1721198900441
-4.16,-8.63,16.87,-0.69,0.35,0.11,1721198900451
-1.30,6.86,32.74,0.53,-0.34,0.20,1721198900461
0.70,2.62,-2.15,0.05,-0.17,0.10,1721198900471
-0.69,4.07,10.18,-0.23,0.17,-0.04,1721198900481
2.49,-3.26,6.34,0.00,-0.24,-0.03,1721198900491
-1.17,-2.93,6.93,-0.22,0.09,-0.09,1721198900501
-2.82,2.20,11.37,-0.02,-0.12,0.02,1721198900511
-2.34,0.16,8.20,-0.13,-0.08,0.22,1721198900521
0.45,6.05,8.77,0.07,-0.08,0.31,1721198900531
4.56,3.30,4.64,-0.30,-0.02,0.05,1721198900541
1.22,-6.65,10.56,-0.46,-0.09,-0.34,1721198900551
-2.26,-9.56,13.71,-0.32,-0.08,-0.30,1721198900561
-4.97,-0.16,17.56,-0.07,-0.08,0.06,1721198900571
-0.94,3.40,8.67,0.01,-0.15,0.46,1721198900581
4.85,2.32,9.29,-0.30,0.10,0.21,1721198900591
3.06,-6.73,17.99,-0.36,-0.18,-0.38,1721198900601
-2.78,0.10,12.27,0.10,-0.10,-0.46,1721198900611
-4.31,0.37,7.99,-0.18,-0.01,-0.02,1721198900621
-3.59,6.21,11.99,0.06,-0.15,0.51,1721198900631
4.41,0.67,7.64,-0.02,0.02,0.33,1721198900641
4.92,-1.79,11.88,-0.19,-0.06,-0.18,1721198900651
-0.16,2.12,5.43,0.14,-0.15,-0.50,1721198900661
-1.07,0.17,9.86,-0.22,0.13,-0.16,1721198900671
-3.47,0.41,15.15,0.03,-0.20,0.08,1721198900681
0.71,-0.91,14.17,0.09,0.07,0.20,1721198900691
2.74,8.04,13.67,0.21,0.00,0.01,1721198900701
1.70,-0.18,5.86,0.03,-0.16,-0.19,1721198900711
-0.22,-2.34,11.17,0.05,0.19,-0.17,1721198900721
0.88,-6.63,11.33,-0.00,-0.07,-0.04,1721198900731
-0.43,3.56,13.07,0.23,0.08,-0.01,1721198900741
4.21,3.21,10.28,0.13,0.10,-0.19,1721198900751
-0.04,5.46,13.28,0.24,-0.07,-0.31,1721198900761
-0.00,3.49,3.51,0.32,0.15,-0.28,1721198900771
-1.30,-0.90,9.48,-0.04,0.17,-0.21,1721198900781
-1.62,2.21,11.16,0.28,-0.02,-0.01,1721198900791
2.37,0.92,4.75,0.05,0.19,0.06,1721198900801
2.14,2.00,17.13,0.04,0.16,-0.31,1721198900811
1.40,2.94,8.30,0.38,-0.03,-0.20,1721198900821
1.92,1.57,4.90,-0.10,0.32,-0.19,1721198900831
-1.86,2.65,13.80,0.03,0.07,-0.50,1721198900841
-2.53,-4.31,6.95,-0.09,0.13,-0.28,1721198900851
-3.62,1.07,12.19,0.01,0.22,-0.16,1721198900861
-0.33,-1.72,8.51,-0.12,0.16,-0.05,1721198900871
-1.07,2.37,15.75,-0.02,0.11,-0.11,1721198900881
2.05,3.60,10.45,0.16,0.17,-0.10,1721198900891
1.04,2.93,8.83,-0.15,0.16,-0.33,1721198900901
-1.92,0.43,11.63,-0.02,0.09,-0.43,1721198900911
-2.96,-2.19,3.90,0.07,0.08,-0.22,1721198900921
-1.56,-4.31,7.35,-0.19,0.23,-0.07,1721198900931
0.18,-0.05,16.11,-0.10,0.27,-0.07,1721198900941
-0.45,4.56,10.15,0.14,0.07,-0.25,1721198900951
0.39,-3.79,2.04,-0.22,0.13,-0.31,1721198900961
-1.74,-1.45,12.76,-0.08,0.18,-0.14,1721198900971
1.00,-3.25,10.04,-0.16,0.23,-0.10,1721198900981
-1.72,0.88,19.48,-0.04,0.08,-0.20,1721198900991
-2.21,3.93,12.84,0.20,0.11,-0.24,1721198901001
-1.99,5.70,7.70,0.06,0.17,-0.11,1721198901011
-1.47,-5.17,5.45,-0.12,0.09,0.00,1721198901021
0.14,-4.12,10.56,-0.13,0.28,-0.05,1721198901031
0.33,0.46,9.45,-0.02,0.06,-0.15,1721198901041
-1.75,-0.42,11.45,-0.08,0.15,-0.24,1721198901051
-2.35,2.33,16.39,0.11,0.14,-0.09,1721198901061
-2.18,3.60,10.06,0.21,0.04,-0.01,1721198901071
-0.72,-1.32,5.94,-0.00,0.18,-0.01,1721198901081
-1.24,-2.00,13.99,-0.01,0.12,-0.03,1721198901091
-1.19,2.05,7.38,0.19,-0.01,-0.04,1721198901101
-0.05,0.55,13.38,-0.05,0.32,-0.03,1721198901111
-1.17,4.11,7.95,0.33,-0.20,0.09,1721198901121
1.19,-2.47,3.86,-0.13,0.31,0.04,1721198901131
-0.29,0.60,17.76,0.04,0.03,-0.05,1721198901141
0.15,1.32,8.45,0.13,0.05,-0.10,1721198901151
-1.35,-1.73,10.32,-0.04,0.13,-0.16,1721198901161
-3.09,-1.66,15.71,0.00,0.04,-0.05,1721198901171
-2.08,4.12,14.43,0.23,0.10,0.04,1721198901181
0.51,4.11,8.30,0.18,0.09,0.06,1721198901191
-0.40,1.47,4.82,0.07,-0.03,-0.01,1721198901201
0.53,2.27,13.40,0.07,0.24,-0.02,1721198901211
-0.58,2.09,9.49,0.18,-0.08,-0.10,1721198901221
-2.23,0.40,3.08,0.05,0.01,-0.08,1721198901231
-1.38,3.18,12.31,0.03,0.19,0.10,1721198901241
-0.36,3.13,17.08,0.17,-0.00,0.15,1721198901251
1.42,-0.27,8.10,0.21,-0.04,0.18,1721198901261
2.09,2.83,5.03,0.20,0.14,0.02,1721198901271
1.15,0.97,9.13,-0.09,0.07,-0.15,1721198901281
-2.89,3.94,14.99,0.16,-0.08,-0.08,1721198901291
-1.74,0.82,1.41,0.12,-0.04,0.18,1721198901301
-0.45,-1.40,11.99,-0.20,0.17,0.13,1721198901311
-1.22,-1.53,13.07,0.07,-0.17,-0.02,1721198901321
-2.79,2.32,9.23,0.00,0.07,0.06,1721198901331
-3.22,4.11,10.51,0.05,-0.06,0.20,1721198901341
-0.51,0.39,7.66,-0.01,-0.03,0.30,1721198901351
2.13,-4.14,10.15,-0.17,0.02,0.22,1721198901361
0.73,0.79,12.36,-0.02,-0.12,-0.03,1721198901371
-0.00,0.68,11.26,-0.05,-0.07,0.02,1721198901381
-0.94,3.49,10.37,0.21,-0.14,0.22,1721198901391
1.77,-1.96,4.77,-0.08,0.01,0.21,1721198901401
0.98,-1.09,17.32,-0.15,0.05,-0.17,1721198901411
-1.86,-2.07,10.61,0.12,-0.23,-0.23,1721198901421
-5.31,-0.92,6.44,-0.02,0.01,0.05,1721198901431
-1.53,1.09,10.12,0.06,-0.04,0.54,1721198901441
3.52,-2.15,7.81,-0.11,-0.09,0.38,1721198901451
4.56,1.61,16.46,-0.02,0.08,-0.07,1721198901461
1.19,2.60,8.40,0.09,-0.23,-0.41,1721198901471
-3.02,-4.77,3.63,-0.16,-0.06,-0.13,1721198901481
-3.50,-3.90,10.92,-0.14,0.10,0.18,1721198901491
-0.23,0.72,18.63,-0.09,-0.01,0.21,1721198901501
2.48,1.00,12.76,0.21,-0.22,0.19,1721198901511
3.75,2.71,5.96,-0.05,0.12,-0.14,1721198901521
-1.49,3.84,10.06,0.05,-0.20,-0.25,1721198901531
-2.99,-2.96,8.88,-0.12,0.05,-0.27,1721198901541
-2.94,-4.95,15.36,0.01,-0.14,0.12,1721198901551
0.10,-0.94,5.02,0.11,-0.07,0.22,1721198901561
1.91,1.74,11.78,-0.08,0.09,-0.03,1721198901571
0.74,4.84,14.93,0.20,-0.19,-0.03,1721198901581
0.28,1.77,4.67,0.17,-0.05,-0.06,1721198901591
1.04,-0.37,6.04,-0.04,0.02,-0.08,1721198901601
-1.52,1.21,15.09,-0.06,-0.05,-0.27,1721198901611
-2.02,1.57,12.28,0.21,-0.12,-0.03,1721198901621
