AccX,AccY,AccZ,GyrX,GyrY,GyrZ,Time
3.60,-11.21,-11.41,-0.31,0.11,0.58,1721228747153
6.14,-10.22,-2.05,-0.99,0.83,0.30,1721228747158
4.09,-18.82,14.50,-0.47,1.00,-0.64,1721228747168
0.00,-10.94,62.14,-0.47,0.46,-0.40,1721228747178
-4.27,17.52,26.43,0.91,0.07,-0.34,1721228747188
2.85,5.23,-31.23,1.66,-0.14,0.00,1721228747198
0.31,-5.50,-8.67,-1.84,0.33,-0.02,1721228747208
2.92,8.46,21.97,-0.24,1.18,-0.14,1721228747218
5.77,-6.31,0.21,1.34,-0.29,-0.40,1721228747228
2.62,9.25,-15.06,-0.01,-0.34,-1.28,1721228747238
2.47,3.47,-5.65,-1.08,0.77,-1.24,1721228747248
-5.50,-20.45,20.47,0.31,-0.61,-1.01,1721228747258
-10.44,5.84,15.75,0.16,0.35,-0.33,1721228747268
-2.20,-3.22,2.64,0.03,0.03,0.11,1721228747278
-2.17,-1.19,12.15,-0.36,0.63,0.16,1721228747288
0.71,1.30,26.36,0.07,0.01,-0.20,1721228747298
2.25,4.91,15.73,0.06,0.26,-0.16,1721228747308
3.27,-5.09,6.49,-0.02,0.08,-0.16,1721228747318
5.37,0.82,15.28,-0.03,0.64,-0.18,1721228747328
1.92,0.98,2.37,0.30,-0.35,-0.42,1721228747338
2.86,-1.94,-8.74,-0.41,0.90,-0.62,1721228747348
-3.49,0.42,24.67,-0.07,0.30,-0.68,1721228747358
-3.23,3.33,19.18,0.32,0.13,-0.47,1721228747368
-3.11,-9.07,7.95,0.04,0.17,-0.45,1721228747378
-5.20,9.89,13.09,0.33,0.32,-0.17,1721228747388
-1.43,9.05,-3.91,0.88,-0.22,0.08,1721228747398
-3.19,-16.16,-10.80,-0.37,0.26,-0.19,1721228747408
-12.84,-40.22,49.68,-1.54,0.65,-0.57,1721228747418
-4.76,20.37,41.82,0.31,0.21,0.40,1721228747428
12.85,-30.51,-18.20,1.37,-0.67,-0.95,1721228747438
2.32,7.26,5.94,-1.61,1.64,0.42,1721228747448
-11.80,71.26,21.57,0.65,-0.66,-0.79,1721228747458
0.89,-1.02,6.03,0.67,-0.61,-1.00,1721228747468
7.50,-4.22,-31.82,-1.30,2.58,-0.60,1721228747478
8.58,-13.93,47.95,0.65,-1.05,-0.02,1721228747488
-22.10,32.88,20.85,-0.16,0.59,0.39,1721228747498
2.71,30.82,-10.05,1.44,0.01,-0.07,1721228747508
2.96,-8.60,0.65,-0.22,-0.18,-0.42,1721228747518
2.04,4.43,31.89,0.11,0.64,-0.24,1721228747528
2.76,-16.81,3.37,0.34,-0.26,-0.21,1721228747538
0.68,-8.38,5.96,-0.35,0.89,-0.59,1721228747548
-4.38,23.99,17.37,0.57,-0.22,-1.03,1721228747558
4.12,-11.91,-8.33,1.25,-0.76,-1.85,1721228747568
-4.18,4.69,-3.14,-1.44,0.82,-0.17,1721228747578
-6.26,-6.92,64.82,-0.98,0.57,-0.59,1721228747588
-10.69,19.34,28.16,0.68,-0.42,-0.64,1721228747598
-26.31,-55.37,-17.57,0.44,-0.26,0.13,1721228747608
-4.42,5.60,-4.31,-0.67,0.22,0.21,1721228747618
-2.69,5.50,0.81,0.38,-0.08,0.66,1721228747628
2.57,-1.15,0.62,0.13,-0.07,0.39,1721228747638
7.04,-3.26,10.65,-0.02,0.51,-0.21,1721228747648
2.12,-5.38,31.46,-0.20,-0.24,-0.44,1721228747658
0.10,-12.00,14.42,0.11,-0.22,-0.45,1721228747668
-1.00,27.21,5.62,0.10,0.04,-0.11,1721228747678
0.34,-0.53,-35.68,0.69,-0.55,0.15,1721228747688
3.45,-14.69,-21.27,-0.66,0.24,-0.23,1721228747698
-13.47,-15.69,60.87,-1.36,0.34,-0.15,1721228747708
-26.05,21.04,51.30,-1.03,-0.73,0.35,1721228747718
-3.26,39.49,25.21,-0.07,0.72,1.27,1721228747728
-2.63,-50.72,-36.26,1.05,-0.78,0.82,1721228747738
5.86,-6.02,-16.00,-2.07,0.69,0.22,1721228747748
3.96,9.11,2.44,0.55,-0.76,-0.11,1721228747758
8.64,-22.22,-14.08,-0.57,-1.18,-1.41,1721228747768
-10.18,5.41,54.03,-0.43,-0.78,0.03,1721228747778
7.60,22.41,33.10,0.77,-1.01,1.13,1721228747788
-0.28,-1.79,-22.37,0.89,-0.12,0.73,1721228747798
6.89,-4.12,-3.17,-0.74,0.66,0.62,1721228747808
7.60,-4.56,31.15,0.53,0.36,0.28,1721228747818
5.04,9.88,8.66,0.49,-0.33,-0.76,1721228747828
-9.08,-14.46,-2.45,-0.12,0.22,0.29,1721228747838
5.78,8.77,15.27,0.53,0.52,-0.01,1721228747848
-3.88,-17.13,10.39,1.35,-0.20,0.61,1721228747858
2.51,-7.41,1.67,-0.09,0.31,0.36,1721228747868
-0.70,2.68,19.56,0.28,0.18,0.33,1721228747878
-0.71,-3.50,5.21,0.21,-0.37,0.57,1721228747888
1.87,-10.67,9.89,-0.39,0.75,0.61,1721228747898
1.92,-1.88,18.73,0.39,0.06,0.44,1721228747908
3.01,3.69,2.66,0.61,-0.27,-0.11,1721228747918
10.29,27.55,-8.37,0.90,-0.35,-0.16,1721228747928
2.22,-9.05,-6.70,-0.89,0.04,0.21,1721228747938
-1.75,-23.85,31.42,-1.93,1.22,0.17,1721228747948
1.42,-14.17,26.47,1.18,-1.07,0.05,1721228747958
-0.48,3.39,-0.91,0.68,-0.08,0.68,1721228747968
7.39,2.55,2.37,-0.07,0.40,0.54,1721228747978
6.49,17.05,9.78,0.43,0.05,0.24,1721228747988
7.23,4.77,-14.79,0.19,-1.58,0.26,1721228747998
1.19,-19.92,-7.61,-1.60,1.12,0.04,1721228748008
6.13,-6.15,68.59,0.61,0.17,-0.26,1721228748018
-1.87,1.60,12.30,0.65,0.44,0.08,1721228748028
-13.15,17.97,-48.74,1.38,-0.26,0.50,1721228748038
4.24,-14.56,-14.16,-1.84,0.79,0.39,1721228748048
6.89,-20.70,28.57,-1.60,1.21,-0.19,1721228748058
6.09,11.57,55.70,0.42,0.44,-0.67,1721228748068
-30.50,33.18,6.63,1.57,-0.32,-0.27,1721228748078
-13.25,-18.04,-18.65,-0.78,0.89,-0.16,1721228748088
-14.70,11.71,5.30,-1.12,0.87,0.89,1721228748098
7.70,6.51,-3.68,0.29,-0.19,1.49,1721228748108
12.26,-5.10,-16.25,0.02,0.22,0.75,1721228748118
32.04,-37.97,57.85,-1.67,2.00,-0.97,1721228748128
-2.42,8.55,49.67,0.16,-0.86,-1.59,1721228748138
-7.30,-2.94,13.84,0.70,0.11,-1.69,1721228748148
-4.18,1.25,-3.47,0.00,-0.16,-0.51,1721228748158
-16.59,-2.54,1.07,-0.29,0.60,1.17,1721228748168
1.95,-4.78,6.56,0.35,0.59,1.58,1721228748178
8.63,3.72,-11.85,0.51,0.21,1.28,1721228748188
13.73,-44.19,-10.62,-2.44,1.65,-0.34,1721228748198
-5.69,28.42,57.24,0.19,-0.19,-1.59,1721228748208
-1.84,-23.94,23.59,1.03,-0.88,-1.46,1721228748218
-18.28,63.35,-25.39,0.41,0.24,-0.30,1721228748228
-10.95,-7.38,-12.46,-0.07,-1.03,0.52,1721228748238
-5.72,-12.22,1.01,-0.77,1.34,1.63,1721228748248
6.18,1.21,7.82,0.49,0.16,1.35,1721228748258
11.14,12.05,36.56,0.06,0.62,0.09,1721228748268
6.20,15.10,14.87,0.44,-0.88,-0.98,1721228748278
1.43,-2.03,-9.23,-0.34,-0.42,-1.60,1721228748288
-9.94,9.58,19.85,-0.44,-0.18,-0.44,1721228748298
-10.11,-32.11,30.21,0.10,0.25,0.45,1721228748308
-15.01,17.91,-12.84,0.69,-0.16,1.05,1721228748318
0.87,12.15,-28.12,1.16,-0.62,0.67,1721228748328
5.71,14.79,-4.24,-1.07,0.21,0.81,1721228748338
14.37,-23.80,70.71,-2.58,0.72,-0.13,1721228748348
-3.28,-16.73,52.24,0.47,-1.84,-0.43,1721228748358
-11.24,-0.81,14.96,0.42,-0.58,-0.36,1721228748368
-13.28,13.61,-6.39,0.57,-0.31,0.58,1721228748378
-7.36,-0.18,-9.17,-0.29,0.81,1.46,1721228748388
5.04,-3.56,-4.06,-1.01,-0.06,0.92,1721228748398
12.34,-0.62,53.42,-0.43,0.32,0.18,1721228748408
2.21,12.17,29.72,0.84,-1.51,0.08,1721228748418
7.08,-11.49,4.63,1.01,-0.63,-0.15,1721228748428
-7.88,-17.12,2.81,-1.44,0.63,1.17,1721228748438
3.49,-18.46,16.50,1.02,-0.42,0.67,1721228748448
2.05,7.12,3.38,-0.04,-0.16,0.62,1721228748458
6.09,-15.49,-2.33,0.51,-0.70,0.09,1721228748468
4.04,19.87,52.20,1.25,-1.00,0.63,1721228748478
1.16,17.60,10.91,0.64,-0.33,0.45,1721228748488
7.02,-22.80,-31.71,-1.01,0.72,0.50,1721228748498
24.56,-78.23,-46.97,-3.63,-0.57,-0.68,1721228748508
10.37,-13.62,38.49,0.74,1.23,-0.23,1721228748518
5.53,-4.23,-6.32,2.14,-0.86,-0.20,1721228748528
-12.32,7.57,10.34,-1.12,1.62,0.47,1721228748538
24.70,34.05,39.49,1.93,0.70,0.68,1721228748548
11.69,17.24,-1.53,0.84,-0.26,0.88,1721228748558
14.50,-35.13,-7.82,-1.47,1.05,0.66,1721228748568
10.80,-27.67,35.18,-0.02,0.21,-0.57,1721228748578
21.13,39.49,-0.46,0.96,-0.93,-1.56,1721228748588
6.58,23.76,-39.30,2.06,-0.22,-0.36,1721228748598
1.59,-12.98,-21.91,-2.82,0.44,0.10,1721228748608
2.35,-49.46,58.01,-0.72,0.81,-0.39,1721228748618
16.54,78.45,78.45,1.13,0.16,0.15,1721228748628
-13.50,-46.93,-78.30,3.95,-0.17,0.85,1721228748638
11.19,28.92,-78.45,-0.42,-1.01,1.37,1721228748648
12.86,-38.74,-41.40,-0.06,-4.37,0.74,1721228748658
19.69,-48.91,78.45,-3.31,4.37,-2.87,1721228748668
35.26,78.45,25.16,3.94,-4.37,-1.45,1721228748678
-19.25,1.10,3.47,2.01,3.30,-0.12,1721228748688
4.82,-11.78,-44.26,-0.02,-0.38,0.08,1721228748698
7.45,-73.87,-0.88,-4.12,3.88,-0.24,1721228748708
6.43,14.83,57.62,2.52,1.68,-0.74,1721228748718
21.20,-33.80,-16.24,0.06,0.38,-0.85,1721228748728
-25.37,11.43,35.97,0.34,-1.49,-1.26,1721228748738
-4.85,4.79,9.02,-0.02,1.00,-0.39,1721228748748
-11.68,6.33,-21.27,1.48,-0.39,0.63,1721228748758
2.63,-27.34,-7.75,-2.79,2.78,0.41,1721228748768
-4.51,4.84,2.05,0.09,0.16,0.64,1721228748778
4.16,-0.18,34.31,0.05,0.10,-0.06,1721228748788
1.33,3.58,7.68,0.05,0.04,-0.40,1721228748798
1.77,4.76,1.01,0.19,-0.32,0.14,1721228748808
6.41,-20.75,-30.96,-1.21,-0.42,-0.37,1721228748818
1.60,-42.23,73.21,-2.01,2.50,-1.26,1721228748828
-13.61,36.83,29.19,-0.12,-1.99,-0.53,1721228748838
14.80,-27.61,-6.76,3.34,0.13,-1.83,1721228748848
-25.47,19.04,-76.41,-0.78,1.65,-1.08,1721228748858
2.91,-30.84,24.68,1.14,0.17,-0.66,1721228748868
-8.85,68.24,34.36,0.09,-1.86,0.91,1721228748878
-8.79,-44.69,-33.78,2.12,1.12,0.16,1721228748888
20.17,-5.86,-13.96,-2.53,-0.32,-0.45,1721228748898
-19.28,50.92,78.45,-0.41,-1.47,-0.87,1721228748908
4.07,23.01,22.55,3.30,-2.37,-0.46,1721228748918
-9.78,-12.70,-59.05,2.11,0.66,0.07,1721228748928
-0.61,11.16,-32.03,-2.25,-1.30,0.85,1721228748938
4.90,-17.32,17.87,-4.02,2.02,-0.01,1721228748948
5.33,31.22,61.41,-1.77,-2.47,0.47,1721228748958
-6.85,-5.72,49.12,1.01,-0.60,-0.80,1721228748968
-9.98,33.90,-39.50,2.86,-0.70,-0.19,1721228748978
-1.24,-15.64,-29.89,-1.52,0.03,0.44,1721228748988
2.02,-23.91,-2.65,-1.78,3.19,0.48,1721228748998
13.40,-39.39,42.79,3.62,-0.22,0.60,1721228749008
25.73,58.22,42.06,1.44,-0.37,0.80,1721228749018
5.41,-4.28,0.46,1.39,-0.79,0.38,1721228749028
-2.60,-0.99,-18.68,-0.51,0.22,-0.30,1721228749038
0.44,-30.97,-0.19,-2.23,1.54,-0.84,1721228749048
-2.82,-16.68,15.05,1.67,-1.02,-0.57,1721228749058
-19.23,12.55,-3.18,-0.12,-0.01,0.46,1721228749068
-9.43,29.87,63.48,-0.89,1.94,0.92,1721228749078
-10.85,16.39,13.59,0.52,-0.27,1.12,1721228749088
11.04,7.17,-16.18,1.97,-0.44,0.50,1721228749098
-6.30,-62.00,-34.28,-1.50,0.67,0.62,1721228749108
-17.85,-1.32,78.45,-1.09,-1.26,-0.26,1721228749118
5.77,43.26,56.69,1.53,-0.98,-0.74,1721228749128
-0.64,1.51,-4.30,2.63,-1.11,0.04,1721228749138
0.71,40.97,-38.85,-0.25,-0.77,1.02,1721228749148
-1.60,-78.45,78.45,-3.25,2.37,-0.79,1721228749163
-11.63,-18.82,74.54,0.75,-1.59,-1.31,1721228749167
17.56,78.45,1.44,2.55,-1.13,-1.18,1721228749177
1.10,-7.42,-43.80,2.02,1.26,0.40,1721228749187
-1.93,0.21,-33.54,-4.37,-0.94,0.95,1721228749197
58.19,-78.45,46.49,-2.66,4.37,-1.28,1721228749207
-18.84,66.25,65.37,2.15,-2.59,-0.09,1721228749217
9.29,19.56,-13.01,3.24,0.15,0.06,1721228749227
5.92,3.19,-62.63,-0.13,0.21,0.28,1721228749237
-18.37,-70.92,-24.89,-3.65,0.16,0.07,1721228749247
10.32,50.42,78.45,0.77,-2.89,-1.19,1721228749257
8.23,24.98,-21.37,2.04,-0.79,-1.17,1721228749267
-3.39,-13.51,-31.35,2.84,-1.81,-0.25,1721228749277
-16.10,9.86,78.45,-1.04,1.27,-0.08,1721228749287
-10.72,62.91,-17.78,-0.03,-0.43,1.12,1721228749297
18.69,-78.45,-52.77,-0.86,-1.38,0.39,1721228749307
-7.15,-51.44,54.06,1.03,-0.61,1.06,1721228749317
13.76,67.09,27.34,-0.73,4.01,1.22,1721228749327
11.85,-27.21,-57.95,1.78,-0.72,-1.53,1721228749337
-13.51,11.54,-72.04,0.73,-2.11,-2.52,1721228749347
1.72,-14.96,0.15,-2.98,0.75,-1.53,1721228749357
4.14,-7.34,38.72,0.28,-0.62,-0.39,1721228749367
-12.33,-16.50,21.29,2.04,-1.80,-0.14,1721228749377
-5.53,5.39,26.49,0.98,0.37,1.70,1721228749387
3.21,38.24,-40.99,1.61,-1.14,1.46,1721228749397
17.46,7.46,-23.49,-1.08,0.75,0.59,1721228749407
-5.81,-6.62,78.45,-3.59,2.13,-0.38,1721228749417
4.13,-10.93,36.02,1.11,-3.02,-0.73,1721228749427
-8.58,-5.72,-2.41,-0.32,0.06,-0.55,1721228749437
-15.24,60.66,21.21,1.27,-0.54,0.11,1721228749447
-2.93,-2.13,-31.63,0.09,-1.31,0.77,1721228749457
9.42,-25.85,5.86,-3.50,2.92,1.00,1721228749467
13.41,28.09,78.45,1.31,-3.00,0.29,1721228749477
8.04,8.32,31.65,1.28,-0.65,0.16,1721228749487
4.84,-10.62,-27.95,3.22,-1.40,0.35,1721228749497
-1.55,-35.15,-31.59,-0.97,0.12,0.35,1721228749507
10.20,12.31,78.45,-4.00,4.26,-0.67,1721228749517
17.16,23.19,37.43,1.59,-3.13,-0.17,1721228749527
-25.69,-78.45,-42.41,1.66,-1.01,-0.53,1721228749537
14.09,-11.91,-46.46,-2.20,0.23,0.56,1721228749547
7.49,-0.97,37.82,0.28,2.15,1.40,1721228749557
9.03,78.45,73.60,1.53,-1.21,0.13,1721228749567
9.23,-14.63,0.97,3.60,0.20,-0.08,1721228749577
2.36,-20.60,-78.45,0.88,0.64,-0.86,1721228749587
4.99,-15.76,-6.63,-3.02,-0.77,-0.54,1721228749597
-71.18,78.45,0.60,1.60,-0.76,-1.20,1721228749607
7.15,-2.44,22.46,1.97,-1.09,-0.17,1721228749617
-13.60,-61.98,-59.57,-1.38,2.80,0.22,1721228749627
0.95,-2.98,-6.49,-2.00,-0.80,-0.13,1721228749637
-12.90,47.83,33.08,0.65,-0.10,0.39,1721228749647
17.10,-44.56,-20.14,3.85,1.03,-0.19,1721228749657
17.23,67.79,-78.45,1.49,-2.10,0.11,1721228749667
10.24,16.45,-32.42,-1.67,-0.80,-0.46,1721228749677
-2.57,-30.44,62.13,-4.37,3.82,-1.34,1721228749687
1.84,4.07,60.53,4.37,-4.37,-0.10,1721228749697
0.31,-4.06,-20.02,1.63,0.51,0.05,1721228749707
5.64,39.74,-57.94,1.09,-0.23,0.28,1721228749717
8.18,-16.44,-33.13,-2.29,-1.01,0.23,1721228749727
-2.72,-42.24,78.45,-3.06,4.37,-1.53,1721228749737
-0.55,8.00,44.95,0.73,-4.32,-1.00,1721228749747
-16.94,-47.83,-13.96,-0.60,1.92,-1.12,1721228749757
-5.78,28.72,36.53,1.01,-1.32,-0.39,1721228749767
-11.96,7.55,-24.10,-0.90,-0.18,0.70,1721228749777
-6.49,-23.72,-19.69,-0.75,-0.06,0.58,1721228749787
-14.45,-49.83,70.69,-0.40,-0.23,-0.04,1721228749797
-1.05,4.92,50.17,0.73,-0.55,-0.18,1721228749807
40.43,78.45,-12.22,4.37,-1.08,0.52,1721228749817
-4.19,4.96,-52.51,0.33,0.08,0.34,1721228749827
7.11,-28.17,-30.97,-4.32,-0.32,-0.64,1721228749837
-20.07,-42.87,76.01,0.30,2.11,-0.81,1721228749847
13.43,58.70,78.45,0.06,1.14,1.09,1721228749857
1.74,-23.80,-73.60,4.37,0.64,0.97,1721228749867
-4.19,-17.97,-67.88,0.08,-4.23,1.33,1721228749877
7.51,-4.59,1.47,-4.37,1.88,0.16,1721228749887
1.66,78.45,-11.16,-0.19,0.16,-0.99,1721228749897
17.77,-26.90,12.77,4.37,-3.68,-1.50,1721228749907
-48.20,42.96,12.83,0.32,0.94,0.98,1721228749917
4.46,4.52,63.54,0.62,1.75,-0.11,1721228749927
-4.44,4.63,21.70,0.33,-0.46,-0.16,1721228749937
-0.18,-8.64,-27.98,1.93,-0.86,0.41,1721228749947
-5.61,-37.42,-26.30,-2.44,0.49,-0.79,1721228749957
-11.84,22.10,52.29,-0.52,1.45,0.41,1721228749967
3.01,34.00,52.48,1.80,-1.19,0.99,1721228749977
-17.31,-73.74,-38.92,0.62,0.17,0.94,1721228749987
-33.22,46.34,-7.41,-2.21,-1.32,1.90,1721228749997
-3.29,-37.89,4.06,-3.20,3.47,0.05,1721228750007
-6.25,8.81,66.68,1.07,-1.60,1.85,1721228750017
14.44,14.56,25.14,1.43,0.40,1.69,1721228750027
32.95,27.08,-39.69,1.30,-1.22,-0.71,1721228750037
-7.27,14.20,-16.06,-0.67,-0.01,-1.29,1721228750047
12.45,-28.83,-42.75,0.70,-1.64,-1.71,1721228750057
-2.24,-78.45,-78.45,-4.37,0.94,-2.97,1721228750067
-44.85,53.91,60.03,-0.26,-0.66,-1.37,1721228750077
-25.95,35.02,22.29,3.49,1.13,0.94,1721228750087
78.45,78.45,-44.57,3.68,0.80,2.47,1721228750097
18.53,-47.00,-2.24,-3.89,0.01,0.65,1721228750107
17.80,-56.11,78.45,-0.56,4.37,-2.32,1721228750117
21.29,30.04,-29.46,-0.24,-4.37,0.92,1721228750127
-3.15,-1.69,-26.14,-0.52,1.36,-1.52,1721228750137
-8.76,-0.47,43.69,-0.69,-0.71,-0.98,1721228750147
9.89,-1.37,41.58,-0.15,0.31,0.30,1721228750157
10.02,11.59,-3.68,0.40,-0.05,0.13,1721228750167
9.62,-12.48,-20.93,0.29,-0.43,-0.64,1721228750177
-9.23,-22.23,18.53,-0.04,-0.34,-1.04,1721228750187
0.14,28.47,53.24,0.05,1.11,-0.98,1721228750197
-11.51,22.76,-14.07,1.37,-0.05,0.06,1721228750207
2.23,3.59,1.39,-0.71,0.69,0.67,1721228750217
-7.10,-74.21,43.23,-0.13,-0.31,0.47,1721228750227
4.28,1.17,15.84,1.01,0.74,0.68,1721228750237
17.06,8.12,-58.89,1.41,-1.31,-0.58,1721228750247
-4.66,-32.25,-27.87,-1.60,0.86,-1.34,1721228750257
-11.70,44.15,51.70,-0.77,-0.99,-1.30,1721228750267
-5.71,-14.44,36.22,-0.36,-0.64,-0.94,1721228750277
-6.51,-9.37,26.54,0.35,0.85,-0.11,1721228750287
-8.27,6.24,12.62,-0.33,0.05,0.51,1721228750297
-3.06,-16.69,-15.78,0.45,-0.62,-0.14,1721228750307
-1.90,-4.47,65.95,-1.20,1.51,0.09,1721228750317
10.51,-4.72,22.34,0.10,-0.64,-0.19,1721228750327
5.50,4.66,-1.64,-1.04,0.25,-0.34,1721228750337
7.96,-25.56,24.36,-1.74,1.32,-1.37,1721228750347
-2.09,13.48,10.94,0.76,-0.45,-0.85,1721228750357
-2.13,-14.60,-40.32,2.09,-1.03,-0.57,1721228750367
-17.08,-34.33,-24.15,-2.05,1.73,0.28,1721228750377
10.05,-8.97,76.03,0.83,-0.34,-0.00,1721228750387
2.87,44.40,78.45,-1.29,-0.37,0.78,1721228750397
8.66,-27.33,-26.44,4.07,-0.92,-0.24,1721228750407
-11.95,-64.10,-58.24,0.45,1.57,0.27,1721228750417
4.58,-4.59,-21.55,-1.93,-1.41,-0.44,1721228750427
21.21,13.25,78.45,-1.26,1.62,-0.87,1721228750437
-1.59,39.74,44.69,0.15,-4.37,0.50,1721228750447
-7.03,-4.03,-52.46,0.95,2.45,0.05,1721228750457
2.93,-40.31,-10.18,-2.21,-0.45,-0.14,1721228750467
-4.25,7.00,44.00,0.18,1.17,-0.55,1721228750477
12.40,-0.81,48.35,1.14,-1.55,-1.18,1721228750487
-10.20,-4.89,-18.83,0.76,1.51,-0.25,1721228750497
6.93,13.30,64.05,-0.67,2.62,0.16,1721228750507
3.70,55.02,37.83,-0.34,-0.45,-0.05,1721228750517
0.57,-1.75,-1.06,1.11,-1.01,-0.84,1721228750527
5.83,-9.43,-14.64,-0.13,0.82,-0.01,1721228750537
11.38,-12.50,20.55,-0.43,0.86,0.07,1721228750547
1.57,3.52,-8.38,0.92,-0.90,0.40,1721228750557
5.20,-33.79,2.80,-0.53,0.56,-0.09,1721228750567
-1.23,17.81,72.83,0.30,1.29,-0.33,1721228750577
-0.50,25.66,9.40,1.71,-0.36,-0.64,1721228750587
-22.10,-11.01,-45.28,3.51,-0.69,1.08,1721228750597
-0.28,-1.81,-49.59,-1.62,-0.39,0.43,1721228750607
2.57,-68.52,-10.90,-4.37,2.92,-0.53,1721228750617
-15.41,34.05,78.45,1.83,0.97,-1.09,1721228750627
-12.18,65.24,6.91,2.13,-1.58,0.05,1721228750637
-11.80,28.35,-34.57,4.37,0.25,0.60,1721228750647
9.91,-30.40,-67.54,0.08,-3.22,0.64,1721228750657
-23.81,-31.84,41.98,-0.33,2.54,0.16,1721228750667
-54.70,68.26,78.45,-0.31,-3.42,-0.65,1721228750677
43.78,-78.45,-12.87,1.72,1.68,-2.04,1721228750687
-35.52,35.77,36.91,0.33,-3.73,1.75,1721228750697
-26.85,-78.45,78.45,-0.39,-0.83,0.48,1721228750707
-10.12,49.43,29.92,1.68,-0.93,0.23,1721228750717
-15.19,23.87,-59.64,2.00,-0.41,0.49,1721228750727
2.92,-20.07,-18.02,-0.02,-0.95,0.82,1721228750737
5.63,-57.60,9.61,-4.13,1.95,-0.15,1721228750747
-3.66,2.55,-4.76,0.01,-0.52,0.15,1721228750757
7.75,-26.50,-36.12,4.12,-1.31,1.14,1721228750766
14.81,-48.90,-47.69,-1.62,-1.74,0.86,1721228750776
34.96,-64.33,38.54,-4.37,4.37,0.13,1721228750786
-63.93,73.15,78.45,1.93,-4.37,0.76,1721228750796
19.56,-59.05,-58.25,4.37,-1.02,-0.39,1721228750806
-17.65,-30.46,-78.45,2.29,-3.99,0.92,1721228750816
19.42,-7.45,-53.92,-0.84,3.50,1.76,1721228750826
54.35,-78.45,-72.62,-0.40,4.37,-4.37,1721228750836
76.10,39.36,78.45,0.64,0.37,-1.11,1721228750846
-4.23,-52.86,8.50,4.37,0.07,-1.73,1721228750856
20.02,0.56,23.04,-1.00,-0.15,0.04,1721228750866
-2.04,-8.03,43.58,-4.37,4.37,1.25,1721228750876
7.57,1.12,25.39,0.77,2.24,-0.37,1721228750886
-11.21,-51.38,-20.09,2.17,-1.05,0.58,1721228750896
11.84,2.49,33.70,-0.17,1.30,-1.31,1721228750906
-11.65,-3.94,51.40,-0.08,-1.50,-0.44,1721228750916
-7.57,43.97,36.52,0.40,-0.60,0.49,1721228750926
14.01,-16.23,-4.44,2.26,-0.71,0.19,1721228750936
3.22,-31.15,-4.01,-2.25,1.46,-0.09,1721228750946
-5.36,5.61,63.89,1.10,-0.81,-0.02,1721228750956
-6.50,16.36,3.88,1.30,-0.58,0.11,1721228750966
1.46,-7.06,-35.04,0.56,-0.56,0.86,1721228750976
-4.83,-5.32,42.77,-0.69,2.92,0.32,1721228750986
-0.71,-13.98,21.48,0.55,-0.56,-0.24,1721228750996
-4.34,-14.19,-13.73,0.94,-1.43,-0.77,1721228751006
-5.11,3.96,-32.39,0.39,-0.17,-0.09,1721228751016
-7.09,-12.90,-31.78,-0.60,-0.65,1.00,1721228751026
0.02,-78.45,31.20,-4.37,3.07,-1.48,1721228751036
-10.69,64.44,78.45,-0.20,0.73,1.79,1721228751046
-0.51,10.26,7.45,3.64,2.06,-0.03,1721228751056
3.96,-15.19,-78.45,4.37,-0.62,1.50,1721228751066
18.61,-18.96,-47.03,-1.42,-4.37,0.16,1721228751076
21.54,-32.32,-11.58,-1.13,4.37,-0.64,1721228751086
-77.97,17.64,78.45,-0.05,-1.18,-0.88,1721228751096
-16.48,57.11,78.45,0.95,-2.35,-0.85,1721228751106
-2.47,-7.17,-20.80,0.88,-0.89,0.20,1721228751116
-5.48,8.56,-5.18,1.75,0.53,1.91,1721228751126
13.95,-30.46,-54.27,-4.37,2.67,1.05,1721228751136
2.50,7.41,39.02,-3.78,1.13,-0.07,1721228751146
-35.12,78.45,78.45,1.62,-1.94,-0.79,1721228751156
-13.18,-78.45,-14.45,-1.25,1.50,-0.49,1721228751171
-22.78,-69.51,-45.70,-1.81,1.83,1.14,1721228751175
-7.99,-13.07,5.58,-1.65,-0.56,2.48,1721228751185
10.61,52.07,25.88,1.05,-0.17,0.37,1721228751195
13.74,37.00,-8.61,1.99,-0.85,-0.07,1721228751205
-2.37,-25.70,-15.96,-0.90,-0.99,-0.55,1721228751215
11.77,-32.93,13.72,-0.52,1.67,-0.19,1721228751225
8.05,26.91,6.33,0.89,-0.27,-0.48,1721228751235
15.89,-28.34,-30.75,-1.10,1.31,-1.27,1721228751245
9.59,-19.03,14.63,-2.02,3.63,-2.53,1721228751255
2.06,44.85,56.47,2.55,-2.91,-0.96,1721228751265
-5.70,2.22,-12.46,0.87,1.02,-0.30,1721228751275
-2.60,-1.99,-5.23,-1.05,-0.57,0.91,1721228751285
-1.65,1.08,15.93,0.85,-0.09,0.79,1721228751295
1.17,-16.18,-46.48,2.93,-1.60,0.26,1721228751305
8.60,-30.15,-43.34,-1.90,2.61,0.24,1721228751315
12.26,-4.71,78.45,-3.23,3.96,-1.35,1721228751325
-2.82,78.45,78.45,0.16,-2.24,0.26,1721228751335
-36.79,-78.45,-44.33,4.37,-0.28,-0.02,1721228751345
-9.60,4.04,-29.04,4.37,-1.11,0.59,1721228751355
15.76,-54.74,-67.91,-0.73,1.39,1.40,1721228751365
15.35,-66.84,21.60,-3.36,2.42,-4.37,1721228751375
51.38,78.45,78.45,-0.04,0.66,0.35,1721228751385
-23.25,-78.45,-78.45,4.37,4.05,-1.18,1721228751395
-21.30,-16.27,-78.45,-1.37,-4.37,0.22,1721228751405
37.89,-78.45,-21.21,-4.37,4.37,-0.94,1721228751415
-71.87,-6.39,-42.49,-0.19,-0.43,-0.80,1721228751425
5.44,42.75,78.45,-0.10,4.37,-1.88,1721228751435
-12.48,14.00,19.70,0.40,-0.47,0.02,1721228751445
-9.39,-23.89,-17.21,1.21,-0.83,-0.14,1721228751455
-1.10,9.93,28.01,-0.19,0.83,0.69,1721228751465
-4.09,-23.26,-20.39,2.01,-0.52,0.19,1721228751475
4.68,-10.90,-17.40,-3.67,1.34,0.66,1721228751485
-0.68,73.56,78.45,0.80,-0.59,-0.79,1721228751495
-10.43,39.43,43.09,3.05,-1.15,-1.80,1721228751505
-23.86,-41.94,-70.06,4.37,-1.14,-0.73,1721228751515
-25.40,-78.45,-57.98,-2.72,0.70,-0.37,1721228751525
2.61,-48.15,-3.78,-0.21,1.96,0.39,1721228751535
-1.75,78.45,0.75,-0.30,1.83,-2.90,1721228751545
-34.49,24.33,3.81,4.37,-0.40,0.27,1721228751555
-24.08,17.95,-72.12,1.28,-0.20,0.77,1721228751565
-3.51,-55.66,-8.08,-0.71,-1.03,0.95,1721228751575
-60.25,6.97,78.45,-1.40,2.02,0.65,1721228751585
23.78,28.94,-13.00,2.04,-2.54,-0.09,1721228751595
0.04,-28.64,-13.95,-1.02,1.58,2.24,1721228751605
2.75,15.05,78.45,-3.05,4.37,2.28,1721228751615
21.52,33.04,-5.61,0.70,0.57,0.13,1721228751625
11.19,-51.23,-30.36,4.02,-0.33,0.10,1721228751635
0.73,-15.55,-58.21,0.29,-2.60,-0.60,1721228751645
-15.86,-12.36,7.57,-3.15,-4.15,0.45,1721228751655
0.17,14.12,23.90,-2.69,1.35,-1.24,1721228751665
-43.74,72.68,21.32,1.45,-0.88,0.19,1721228751675
1.92,21.20,39.66,-1.05,0.41,0.58,1721228751685
8.32,-70.53,-12.03,-1.02,1.21,-0.21,1721228751695
-5.04,-16.67,-21.57,1.40,-0.40,0.27,1721228751705
0.47,-10.66,-23.56,0.23,-1.85,-0.38,1721228751715
6.86,-51.00,56.13,-3.23,3.21,-0.80,1721228751725
-0.62,39.49,78.45,2.50,-3.14,0.84,1721228751735
1.18,50.92,13.13,1.45,0.27,1.41,1721228751745
16.94,-27.33,-35.76,1.98,0.49,0.68,1721228751755
14.89,-29.68,-20.88,-1.74,0.57,-0.08,1721228751765
-6.99,-9.35,78.45,-1.31,1.06,-1.08,1721228751775
9.83,8.35,-2.87,0.79,-1.58,-1.01,1721228751785
4.27,43.76,10.92,0.26,0.19,-1.04,1721228751795
1.43,6.24,2.48,-0.26,0.10,0.61,1721228751805
-5.97,-40.51,-22.68,-0.12,1.27,0.25,1721228751815
-7.16,-40.19,52.46,-0.34,-0.88,-0.44,1721228751825
-3.46,33.09,70.55,0.72,-0.16,0.43,1721228751835
-7.97,49.28,7.93,2.12,-0.09,1.33,1721228751845
-7.58,-78.45,-34.12,-0.30,2.14,1.17,1721228751855
15.16,-44.25,-40.89,-3.47,-0.78,-0.74,1721228751865
3.46,48.69,64.25,-0.71,-0.25,0.46,1721228751875
-0.88,66.48,19.21,2.53,-0.86,-0.12,1721228751885
7.34,-11.62,-47.27,1.72,-0.42,0.19,1721228751895
12.90,-42.05,-25.41,-4.37,0.95,-0.16,1721228751905
-3.42,35.59,39.70,1.78,-1.85,0.89,1721228751915
7.47,-14.64,-17.77,0.17,0.19,0.21,1721228751925
-15.51,-37.30,78.45,-1.47,-1.57,0.45,1721228751935
3.95,22.01,64.55,3.19,-1.41,0.69,1721228751945
5.28,13.83,3.49,2.51,-0.03,0.15,1721228751955
-1.90,-37.84,-17.82,-0.60,-0.51,0.01,1721228751965
1.19,-7.95,-0.08,-1.68,0.75,-0.39,1721228751975
12.89,-17.89,-40.63,1.37,-0.67,0.81,1721228751985
11.13,-27.06,-39.17,-3.28,1.26,-0.03,1721228751995
-6.73,21.63,74.46,-0.74,-1.83,-0.36,1721228752005
-2.95,21.52,40.06,1.74,-0.87,0.30,1721228752015
-4.24,-9.10,-78.45,4.37,0.12,1.56,1721228752025
16.66,-27.57,-37.40,-3.18,0.48,0.93,1721228752035
37.68,-78.36,27.59,-2.45,3.27,-2.09,1721228752045
-28.22,10.22,56.74,1.60,-3.05,-0.88,1721228752055
-13.39,4.36,-12.68,1.68,-0.03,-1.44,1721228752065
-12.83,27.11,-6.42,0.13,-0.84,0.21,1721228752075
-4.22,-0.11,-5.12,-2.12,0.86,0.90,1721228752085
7.19,-47.06,23.49,-0.96,0.70,0.07,1721228752095
3.90,-9.22,59.06,-0.77,-0.04,0.25,1721228752105
11.28,38.46,0.96,2.16,0.24,-0.34,1721228752115
-2.53,-78.45,-20.23,-0.44,0.61,-0.37,1721228752125
-9.01,-7.14,77.72,-1.05,-0.10,-0.55,1721228752135
17.13,31.33,17.93,-0.32,3.01,-1.01,1721228752145
-1.87,7.54,15.58,1.11,-0.11,0.44,1721228752155
2.30,7.92,-45.63,1.50,0.48,0.44,1721228752165
-3.06,-78.45,-51.22,-2.42,2.31,0.40,1721228752175
-8.95,-36.08,29.45,-2.02,0.36,-1.21,1721228752185
0.37,42.80,62.17,-0.46,0.22,-1.16,1721228752195
-16.36,37.48,10.10,1.83,-0.86,-1.57,1721228752205
-7.06,-1.00,-13.31,0.02,1.69,-0.45,1721228752215
-12.89,-58.66,-30.97,-2.27,1.38,0.61,1721228752225
-14.14,-78.45,78.45,-1.82,2.30,0.66,1721228752235
8.91,9.79,78.45,0.12,1.16,0.18,1721228752245
2.59,26.22,18.76,1.25,0.20,-0.14,1721228752255
-3.07,24.98,-38.10,2.87,0.66,0.01,1721228752265
3.53,-15.09,-37.96,1.05,0.36,-0.02,1721228752275
7.75,-18.50,-40.01,-2.97,0.96,-0.33,1721228752285
30.41,-11.26,78.45,-3.78,4.37,-0.32,1721228752295
-0.40,10.53,78.45,0.07,-3.14,-0.13,1721228752305
-19.21,-71.85,-38.03,2.43,4.33,-0.54,1721228752315
-32.46,28.52,39.17,0.34,-2.06,0.80,1721228752325
-3.79,-19.93,-1.88,-2.77,2.41,0.45,1721228752335
14.06,12.97,34.90,2.31,-1.78,1.36,1721228752345
3.49,-10.10,2.33,0.04,0.87,1.46,1721228752355
4.18,4.40,7.44,-0.78,0.98,0.74,1721228752365
5.30,-19.66,-6.36,0.92,-0.33,0.14,1721228752375
6.69,21.10,-8.58,0.14,-0.60,-0.45,1721228752385
-4.30,16.94,17.11,-0.46,-0.01,-0.81,1721228752395
-3.59,-26.40,10.85,1.00,-0.09,-1.02,1721228752405
-33.90,24.09,-17.41,1.18,0.21,0.82,1721228752415
-20.04,-58.98,-11.82,-3.53,1.08,-0.11,1721228752425
-11.97,0.47,78.45,2.39,-2.05,1.09,1721228752435
-3.95,47.24,38.32,1.36,-0.00,1.34,1721228752445
5.80,-64.04,-57.62,3.81,-0.65,0.91,1721228752455
18.16,1.42,-37.70,-3.46,0.95,0.14,1721228752465
-2.77,-27.30,-6.22,-4.37,0.69,0.45,1721228752475
-78.45,78.45,78.45,2.17,-1.50,0.44,1721228752485
7.70,-51.77,-43.85,4.34,-2.19,-1.38,1721228752495
-9.56,-49.65,-78.45,-2.13,0.89,-0.92,1721228752505
-8.25,-25.06,78.45,-0.13,0.05,-0.60,1721228752515
-9.32,67.65,78.45,2.22,-1.04,0.74,1721228752525
0.60,3.50,-38.90,4.29,3.02,1.02,1721228752535
-7.92,-56.35,-73.89,-3.33,-0.38,1.01,1721228752545
1.22,-74.63,16.22,-1.75,-0.16,0.39,1721228752555
5.54,78.45,-15.43,1.47,-1.02,-1.08,1721228752565
-8.23,-47.69,-21.95,4.24,-0.23,0.36,1721228752575
9.25,0.34,-78.45,4.37,0.82,1.58,1721228752585
-0.20,-45.27,-49.85,-0.31,1.40,1.05,1721228752595
16.59,-36.09,78.45,0.00,4.37,-2.16,1721228752605
-66.37,29.59,72.57,-0.24,-4.37,1.17,1721228752615
12.31,-75.42,-57.42,4.37,4.37,2.69,1721228752625
20.89,-63.19,-78.45,2.48,-4.37,1.11,1721228752635
11.06,-22.02,-26.76,-4.37,4.37,-0.39,1721228752645
-63.25,-37.17,78.45,-0.03,-3.57,-1.53,1721228752655
33.89,5.22,62.44,0.01,4.23,1.08,1721228752665
-22.21,-53.16,-65.08,3.17,1.70,2.48,1721228752675
28.77,0.87,-74.43,1.52,-1.25,1.77,1721228752685
21.65,-78.45,-20.60,-4.37,2.81,-0.62,1721228752695
14.76,-7.85,78.45,0.00,2.10,-0.80,1721228752705
-10.83,78.45,31.66,1.60,0.38,-0.07,1721228752715
-19.35,-75.15,-58.13,4.37,0.46,1.50,1721228752725
6.24,-47.65,-78.45,2.43,-1.76,3.09,1721228752735
42.08,-13.24,-41.78,-0.77,-3.84,0.92,1721228752745
5.18,15.99,-0.57,-2.97,3.15,-1.07,1721228752755
1.97,25.26,32.82,-1.74,-2.63,-0.54,1721228752765
48.83,72.76,58.84,0.55,-0.01,-1.97,1721228752775
-12.98,32.94,12.20,1.92,-0.42,-0.28,1721228752785
-5.60,-78.45,-5.77,1.69,1.50,-0.17,1721228752795
-1.73,-10.01,-50.33,-1.88,0.57,0.20,1721228752805
4.73,-33.92,45.35,-0.61,-0.49,-1.44,1721228752815
13.68,27.85,64.26,0.39,1.26,-0.27,1721228752825
1.81,5.36,6.49,0.84,0.10,0.36,1721228752835
-8.32,-34.17,-1.87,-0.74,0.72,-0.06,1721228752845
-4.86,29.87,38.81,1.24,-1.40,-0.65,1721228752855
-3.73,57.43,6.46,2.46,0.96,0.00,1721228752865
5.07,-33.74,-34.67,0.13,2.14,0.25,1721228752875
3.55,-78.45,14.68,-4.08,0.64,-2.54,1721228752885
-6.11,64.74,78.45,2.71,-4.37,0.36,1721228752895
-18.26,78.45,54.58,1.42,0.21,0.33,1721228752905
-15.88,-39.96,-50.83,4.37,0.83,2.10,1721228752915
22.14,-69.83,-78.45,-2.68,-1.07,0.76,1721228752925
18.61,-59.23,3.09,-2.01,4.37,-2.20,1721228752935
-78.45,78.45,78.45,-1.81,-4.37,-1.77,1721228752945
5.24,9.73,2.57,1.43,2.17,-0.45,1721228752955
-28.57,-5.89,-51.66,0.30,0.26,0.68,1721228752965
2.73,-9.78,28.72,-2.09,-0.94,-0.45,1721228752975
2.73,-4.10,12.35,-0.45,1.06,0.67,1721228752985
0.15,-15.79,25.59,-0.48,0.56,0.74,1721228752995
19.78,21.05,15.68,2.24,0.06,-0.47,1721228753005
-2.04,-3.99,-40.96,0.15,0.58,-0.73,1721228753015
4.59,-6.84,15.73,-4.37,0.84,-1.33,1721228753025
-62.70,-5.17,78.45,0.58,-3.39,-1.65,1721228753035
-24.07,3.50,-18.45,4.37,1.88,0.49,1721228753045
-28.33,-19.70,-78.45,4.37,-0.62,1.44,1721228753055
12.74,-27.49,-78.45,-3.40,-0.24,0.07,1721228753065
-5.99,3.99,10.53,-3.18,-0.41,0.16,1721228753075
-0.72,78.45,62.92,1.59,0.62,-1.39,1721228753085
24.01,14.28,8.03,1.67,0.55,-0.93,1721228753095
-9.34,-43.67,-59.24,2.61,-0.70,0.13,1721228753105
0.72,0.66,-34.43,-4.08,0.25,0.07,1721228753115
2.83,40.06,-16.08,-0.92,1.15,-0.59,1721228753125
0.25,2.99,4.70,1.73,-0.77,0.28,1721228753135
6.90,-49.17,-22.12,1.87,2.44,0.04,1721228753145
10.84,18.22,-38.20,-3.31,-2.53,-0.05,1721228753155
3.37,76.27,74.91,-0.07,0.57,-1.63,1721228753165
-14.05,-78.45,-2.11,2.90,-0.65,0.36,1721228753180
18.22,-55.60,47.55,0.94,4.37,-1.34,1721228753184
16.69,48.43,6.40,-3.30,-2.16,0.64,1721228753194
-19.38,69.67,26.61,1.10,0.34,0.50,1721228753204
-8.46,-17.97,-42.87,4.37,0.20,1.60,1721228753214
-14.04,-58.96,-37.15,-4.01,0.32,2.34,1721228753224
1.42,-53.94,78.45,1.08,-0.30,0.15,1721228753234
11.22,73.06,78.45,0.39,-3.61,0.83,1721228753244
-1.19,-64.33,-66.41,4.37,0.13,0.44,1721228753254
-2.49,-67.96,-78.45,-0.51,-4.37,0.42,1721228753264
32.76,-78.45,-12.47,-4.37,4.37,-0.69,1721228753274
-18.92,-11.26,78.45,0.84,-3.54,-1.00,1721228753284
-0.61,78.45,78.45,-0.16,4.24,-0.47,1721228753294
-68.24,-62.94,-52.55,4.37,-0.55,2.57,1721228753304
4.13,16.41,-63.00,-2.27,-0.08,1.49,1721228753314
19.75,-20.29,2.80,-1.20,4.15,0.93,1721228753324
8.08,-25.02,-14.11,-0.47,0.90,-0.40,1721228753334
-3.06,23.47,32.33,0.83,-1.01,0.42,1721228753344
2.80,-0.07,4.81,-0.71,0.30,-0.21,1721228753354
5.45,51.08,51.97,0.31,-0.80,-0.92,1721228753364
0.10,-13.29,4.73,-1.30,0.12,-1.61,1721228753374
-12.07,-7.87,-8.78,-0.23,-1.16,-0.70,1721228753384
-0.82,7.28,11.64,-1.72,1.31,0.46,1721228753394
-5.96,4.07,9.45,2.56,0.14,1.12,1721228753404
-12.70,10.14,-37.67,-0.12,-0.20,1.94,1721228753414
18.57,3.71,78.45,-1.49,1.53,1.06,1721228753424
5.12,-3.77,16.02,-0.13,-0.07,0.55,1721228753434
-10.45,-30.77,-20.84,1.43,-1.04,0.29,1721228753444
6.86,-6.97,-9.75,-1.20,0.27,-0.91,1721228753454
1.22,1.87,61.96,-0.08,-1.49,-0.24,1721228753464
-4.82,36.17,40.27,0.73,0.36,-0.56,1721228753474
14.11,-23.65,-0.07,2.87,-0.08,-0.43,1721228753484
-2.54,-0.85,-21.49,0.29,-0.44,2.07,1721228753494
-5.99,-0.05,-9.04,-1.51,0.75,1.30,1721228753504
2.25,-14.11,58.90,-1.94,1.21,0.28,1721228753514
-4.04,4.68,41.10,-0.20,-0.88,-0.21,1721228753524
7.52,32.39,23.48,0.01,0.15,0.27,1721228753534
24.65,-74.68,-21.29,1.24,1.87,-0.73,1721228753544
6.82,-1.15,-8.95,-0.88,-0.70,0.25,1721228753554
-0.33,18.84,27.06,0.28,-0.75,-0.71,1721228753564
-1.40,10.59,22.02,0.42,0.65,-0.75,1721228753574
-28.12,-48.22,-17.68,1.04,0.16,0.31,1721228753584
-25.09,16.02,-35.89,1.85,-0.93,1.18,1721228753594
-1.33,-11.08,-4.19,-0.98,0.62,1.48,1721228753604
19.57,24.06,5.05,0.26,1.19,0.57,1721228753614
9.86,-10.13,-9.85,0.84,-0.47,-0.78,1721228753624
-20.09,-25.40,-10.96,-3.37,0.31,-0.57,1721228753634
-10.61,33.71,78.45,0.53,-3.50,-0.93,1721228753644
-22.33,8.62,28.44,1.24,2.43,-0.93,1721228753654
-17.48,-1.63,-50.58,4.37,1.12,1.29,1721228753664
2.04,-49.02,-78.45,-0.49,-4.37,-0.65,1721228753674
19.47,-26.96,38.07,-4.06,4.37,-0.55,1721228753684
-0.33,1.45,78.45,3.24,-2.48,1.32,1721228753694
56.18,78.45,-47.15,2.59,0.92,1.45,1721228753704
13.25,-42.14,-78.45,4.37,-0.98,1.72,1721228753714
7.08,-45.42,-28.83,-4.37,0.41,-1.69,1721228753724
-5.51,-56.22,78.45,-1.84,1.73,-1.04,1721228753734
-30.58,78.45,-13.50,1.43,0.94,0.27,1721228753744
-28.68,-74.98,-34.67,2.50,1.81,0.36,1721228753754
-2.79,9.01,-31.73,-2.38,-1.94,0.30,1721228753764
-42.72,33.32,1.75,-0.95,-1.54,1.20,1721228753774
2.13,36.63,1.28,1.36,2.74,1.11,1721228753784
-0.80,-27.13,-18.36,-0.49,0.36,1.04,1721228753794
13.08,-22.68,77.65,-1.61,1.44,-0.91,1721228753804
-8.56,74.00,-4.43,1.79,-0.02,-1.01,1721228753814
-2.82,-55.28,-59.89,3.66,-1.44,-0.84,1721228753824
-10.68,-73.14,-39.06,-0.72,-3.45,0.65,1721228753834
-36.94,-78.45,-12.02,-4.37,3.09,-1.37,1721228753844
-78.45,78.45,73.06,2.77,0.06,-0.06,1721228753854
10.66,-12.11,0.72,4.37,2.73,-0.07,1721228753864
-0.07,-7.43,-78.45,3.49,-2.90,-0.24,1721228753874
3.53,-20.18,-78.45,-0.09,-1.52,2.35,1721228753884
48.76,-26.95,-3.00,-2.74,4.37,-0.12,1721228753894
22.56,78.45,63.76,-0.45,-2.05,-1.30,1721228753904
-10.13,-11.66,78.45,1.30,-0.83,-1.72,1721228753914
-11.48,-21.29,-28.42,1.67,-1.25,-1.34,1721228753924
-7.92,-17.25,-18.30,-2.53,0.13,-0.24,1721228753934
-22.42,-21.47,20.60,-0.83,0.94,0.68,1721228753944
-12.22,18.38,-19.50,-0.06,2.15,1.10,1721228753954
-12.04,-40.77,-25.78,0.86,0.39,0.93,1721228753964
4.09,-10.44,17.73,-1.56,-0.20,0.57,1721228753974
-1.06,75.35,49.84,0.01,-0.50,-0.31,1721228753984
5.85,-5.41,3.23,1.92,-0.70,-0.66,1721228753994
4.36,-6.21,-38.84,2.60,-1.78,-0.48,1721228754004
1.46,-9.62,-32.68,-1.59,-0.02,-0.73,1721228754014
-2.50,-7.14,6.85,-4.37,1.23,-0.43,1721228754024
15.48,78.45,75.13,2.00,-1.60,-0.85,1721228754034
6.77,-10.11,-3.72,3.99,-0.13,-0.97,1721228754044
-3.71,-7.96,-48.66,-0.02,0.12,-0.03,1721228754054
12.71,1.38,0.06,-2.65,1.47,1.02,1721228754064
0.95,-2.35,-5.04,-1.43,0.25,0.62,1721228754074
0.68,-17.88,-10.43,2.59,-0.31,0.60,1721228754084
-7.65,-1.87,-20.69,0.60,-1.24,0.31,1721228754094
0.96,2.98,3.07,-2.12,1.07,-0.32,1721228754104
-12.14,54.75,32.83,0.30,-0.66,-0.28,1721228754114
7.66,-21.34,13.62,1.33,-0.16,-1.24,1721228754124
-11.14,-26.55,33.79,-1.88,-0.16,-0.42,1721228754134
-0.54,24.73,56.61,0.69,0.17,0.71,1721228754144
-12.14,18.47,-24.80,3.19,-1.22,0.62,1721228754154
-11.29,-32.64,-37.78,1.53,0.66,0.31,1721228754164
18.67,-58.91,-9.62,-4.37,1.76,0.87,1721228754174
-6.85,31.68,78.45,2.91,-1.98,1.82,1721228754184
41.01,78.45,10.77,2.95,0.34,0.47,1721228754194
-7.55,-78.45,-45.29,4.37,-1.20,0.86,1721228754204
-23.11,-73.00,-61.04,-4.37,1.20,0.65,1721228754214
15.51,-29.08,14.93,-2.35,4.37,0.65,1721228754224
-24.57,14.29,22.28,-2.74,1.28,-1.31,1721228754234
7.30,-1.57,47.69,0.77,1.16,0.89,1721228754244
-10.69,-20.57,-21.57,3.05,0.53,0.64,1721228754254
17.79,26.74,-39.49,-0.28,-1.77,0.73,1721228754264
4.41,-1.65,-1.70,-4.37,1.05,-0.42,1721228754274
-42.07,51.30,55.22,-0.27,-3.35,0.92,1721228754284
-11.35,-78.45,23.47,2.04,0.07,-1.00,1721228754294
8.17,75.70,-71.64,0.85,-2.29,-0.08,1721228754304
-9.26,-64.57,-35.87,-3.81,3.50,1.21,1721228754314
-30.53,7.13,63.83,-1.12,-1.26,1.99,1721228754324
-15.44,38.44,10.75,0.56,1.83,1.84,1721228754334
-11.48,-78.45,-31.79,0.17,0.47,1.52,1721228754344
7.33,-56.66,34.24,-2.72,1.39,-1.95,1721228754354
-1.39,27.66,-0.30,1.03,-2.84,-1.60,1721228754364
12.01,19.06,-28.23,4.37,1.57,-0.82,1721228754374
-19.16,-35.36,-29.84,-0.33,-1.21,0.67,1721228754384
8.42,7.95,-11.24,-2.60,1.20,0.39,1721228754394
-31.88,-45.84,49.83,-1.58,-1.88,1.19,1721228754404
2.37,16.34,42.01,-0.46,1.72,0.21,1721228754414
13.92,14.94,-30.73,1.41,-1.37,0.38,1721228754424
-5.16,-50.11,-50.22,-4.37,1.63,0.07,1721228754434
-3.99,-45.86,78.45,-0.09,-2.76,-0.15,1721228754444
-28.56,78.45,59.97,1.16,1.50,-0.07,1721228754454
-13.77,-77.08,-65.61,4.37,0.88,1.94,1721228754464
15.27,-15.06,-32.45,-3.27,-0.27,-1.11,1721228754474
-13.90,-32.60,44.06,-4.37,-0.17,-0.11,1721228754484
27.54,78.45,27.93,0.18,1.24,-0.42,1721228754494
15.12,-38.17,-75.40,1.56,2.62,-0.62,1721228754504
2.36,-0.76,-23.02,0.14,-2.75,0.15,1721228754514
-3.40,1.24,57.59,2.80,-0.54,0.02,1721228754524
16.36,-22.62,8.79,0.53,0.71,-0.10,1721228754534
-13.71,0.14,-6.10,-0.56,-0.16,0.85,1721228754544
0.21,-19.60,34.85,0.74,-1.98,-1.02,1721228754554
-8.66,57.90,44.17,1.02,-0.56,-1.01,1721228754564
8.94,-28.68,-25.37,2.92,0.47,-0.72,1721228754574
29.25,41.26,-7.41,-2.04,-0.17,0.50,1721228754584
-39.04,24.70,38.26,-0.19,-1.22,0.19,1721228754594
22.72,-42.55,13.87,1.03,1.28,-2.09,1721228754604
38.10,67.55,-31.67,0.75,-1.27,-0.83,1721228754614
-1.30,-5.38,-13.08,-3.10,2.00,-0.83,1721228754624
-17.01,-3.53,51.67,-1.23,-1.67,-1.60,1721228754634
-10.89,11.06,12.83,1.32,1.58,-0.72,1721228754644
-0.79,-0.71,-14.67,0.15,-0.65,0.39,1721228754654
0.45,2.92,1.27,-2.05,1.55,0.70,1721228754664
17.82,29.81,23.08,0.52,-0.41,-0.17,1721228754674
0.93,-2.78,3.26,1.16,-0.37,-0.73,1721228754684
-1.97,-6.94,-19.14,1.66,-1.04,-0.19,1721228754694
-5.03,-25.78,-13.91,-1.79,0.42,-0.52,1721228754704
-20.08,25.32,48.78,-0.98,1.60,0.03,1721228754714
-0.32,3.24,-21.84,2.24,-0.41,0.07,1721228754724
-3.19,-3.99,-10.51,-0.45,-1.03,0.95,1721228754734
-19.73,-78.45,78.45,-4.37,4.37,-0.80,1721228754744
-4.87,18.84,72.72,3.06,-3.65,0.72,1721228754754
18.20,13.11,-15.89,4.05,0.77,0.49,1721228754764
9.01,-45.43,-55.10,2.46,-1.09,-0.41,1721228754774
11.49,-21.90,-19.75,-2.96,-0.78,-1.20,1721228754784
20.02,30.41,67.99,-4.19,3.17,-1.81,1721228754794
-1.12,-17.46,78.45,1.58,-3.63,-0.94,1721228754804
-3.62,53.75,-3.83,0.25,-0.23,0.06,1721228754814
-4.41,-32.92,-39.95,1.63,-0.63,0.39,1721228754824
0.39,-14.04,-17.24,-3.39,0.85,1.67,1721228754834
9.87,-3.81,73.09,-0.48,-0.93,0.87,1721228754844
-18.60,58.96,37.03,0.75,-0.64,-0.06,1721228754854
5.28,-9.44,-21.78,3.85,-0.71,-0.73,1721228754864
4.28,29.24,-38.81,-0.33,0.70,-0.79,1721228754874
4.27,-23.83,-17.63,-1.50,-0.17,-1.02,1721228754884
-14.92,-78.01,64.67,-2.96,0.58,-1.25,1721228754894
-9.23,36.75,78.45,0.46,-1.64,0.75,1721228754904
-15.61,17.62,15.90,1.84,1.56,-0.65,1721228754914
-0.87,36.23,-2.27,3.06,-1.19,-0.48,1721228754924
-18.94,12.27,-39.33,-0.82,-1.01,0.46,1721228754934
-20.89,-73.39,-14.75,-2.63,0.19,1.06,1721228754944
16.36,20.80,-9.25,1.20,0.64,2.22,1721228754954
0.28,-42.89,17.50,-1.89,0.65,0.67,1721228754964
9.71,-0.62,73.59,1.40,-0.28,0.22,1721228754974
5.59,27.73,47.90,2.16,-1.26,-0.82,1721228754984
-16.30,-3.21,-47.45,4.37,-1.19,-0.71,1721228754994
-5.60,-20.23,-69.87,-0.90,-1.13,-0.31,1721228755004
-6.77,7.52,13.23,-0.13,-4.37,1.91,1721228755014
24.94,-18.63,3.22,-1.38,1.61,-0.66,1721228755024
32.50,49.34,-17.62,4.14,1.04,-1.39,1721228755034
-5.77,-9.54,-31.37,3.32,-3.39,-0.66,1721228755044
-22.11,15.26,-55.04,-0.94,-0.04,0.38,1721228755054
-9.87,-4.62,-32.03,-2.12,2.44,1.57,1721228755064
2.35,-2.44,13.50,-3.18,0.98,2.08,1721228755074
23.51,-46.80,78.45,-0.49,1.88,0.75,1721228755084
11.18,33.36,60.03,2.64,-1.83,1.63,1721228755094
2.20,18.43,-45.13,2.51,-2.67,-0.52,1721228755104
-14.79,-23.26,-72.27,0.08,1.45,-1.26,1721228755114
0.91,-31.99,-52.87,-3.50,-0.11,-1.27,1721228755124
-20.43,-48.29,65.07,-2.31,4.37,-0.02,1721228755134
-36.08,49.94,76.52,1.80,-1.43,1.00,1721228755144
1.69,-39.03,41.67,0.32,1.18,1.58,1721228755154
23.29,55.17,15.52,0.42,-0.27,1.10,1721228755164
2.71,-8.04,-10.48,0.26,0.35,-0.73,1721228755174
-3.51,-11.42,2.98,-0.71,0.28,0.69,1721228755189
0.06,8.06,25.96,-0.38,0.17,0.11,1721228755193
-5.20,-25.72,-0.93,0.99,-0.39,0.14,1721228755203
19.55,28.41,-1.93,0.67,-0.70,0.35,1721228755213
13.72,39.81,30.68,-0.60,0.59,0.97,1721228755223
9.98,-20.14,22.05,-0.28,-0.14,0.27,1721228755233
1.72,-50.15,8.66,0.12,0.09,-1.13,1721228755243
-39.07,61.84,23.44,1.45,-0.60,-0.70,1721228755253
-3.62,-20.82,-37.75,1.23,-0.70,-0.78,1721228755263
-22.18,17.88,-4.44,-2.18,0.59,0.62,1721228755273
-2.34,-3.78,-4.38,0.88,-1.42,0.39,1721228755283
-24.34,-8.99,78.09,-1.76,1.95,0.26,1721228755293
18.90,51.39,20.52,0.72,0.04,1.02,1721228755303
-13.20,-78.45,-21.04,-0.52,0.31,-0.69,1721228755313
3.47,-21.99,45.18,-0.81,-1.41,-2.09,1721228755323
6.17,27.97,42.67,1.85,-2.38,-1.55,1721228755333
-9.96,13.40,-38.31,2.61,0.69,-0.04,1721228755343
0.38,13.04,-50.34,1.66,-0.19,1.29,1721228755353
-9.49,-72.58,-41.35,-2.89,1.96,0.97,1721228755363
-39.09,-78.45,78.45,-2.20,-1.58,-0.57,1721228755373
-14.22,78.45,78.45,2.87,-2.45,0.94,1721228755383
13.32,-62.21,-50.79,4.37,2.51,-1.16,1721228755393
7.59,-12.12,-53.64,2.90,1.50,1.91,1721228755403
58.98,-29.20,-23.45,-1.13,1.97,-0.56,1721228755413
-62.31,-78.45,4.40,-0.36,4.37,-4.37,1721228755423
78.45,78.45,78.45,-0.08,-3.86,-0.06,1721228755433
10.37,-5.04,20.27,-0.09,4.37,-1.40,1721228755443
-22.88,-37.80,-37.87,4.08,-4.37,1.51,1721228755453
32.32,32.01,-78.45,-3.26,4.31,-1.23,1721228755463
-26.76,18.25,70.05,-0.41,-0.38,0.80,1721228755473
-0.86,2.96,3.10,0.93,1.22,0.60,1721228755483
0.00,-17.32,-14.14,-1.66,-1.53,0.95,1721228755493
-24.41,-21.74,78.45,-0.62,-2.57,-0.28,1721228755503
1.04,47.30,16.65,2.79,1.76,0.28,1721228755513
5.73,-13.92,-59.25,4.33,-0.94,0.71,1721228755523
-4.91,-51.62,-51.15,-4.37,1.33,-0.62,1721228755533
17.38,22.05,34.41,-4.37,0.67,-1.04,1721228755543
-23.56,-3.88,45.16,2.70,0.16,0.36,1721228755553
-59.71,-78.45,-2.90,-0.44,0.37,0.72,1721228755563
-2.50,-5.35,-7.93,-1.70,-1.61,0.29,1721228755573
-14.80,62.88,-2.97,2.29,0.23,1.79,1721228755583
11.42,-10.06,-27.66,1.37,1.91,1.08,1721228755593
22.99,-29.68,-32.04,-1.14,-0.90,0.14,1721228755603
-12.50,-78.45,78.45,-4.37,4.02,-2.92,1721228755613
25.21,78.45,78.45,1.48,0.97,-2.30,1721228755623
14.31,-28.74,-78.45,4.37,2.51,-3.02,1721228755633
-19.65,-63.12,-78.45,4.37,-2.73,-0.26,1721228755643
-21.38,-33.24,-20.36,-1.58,-4.37,0.02,1721228755653
3.95,-13.30,78.45,-2.24,-0.31,1.79,1721228755663
4.48,78.45,78.45,-0.66,1.54,1.05,1721228755673
28.32,-65.79,-37.69,1.69,3.15,-1.25,1721228755683
5.68,-17.13,-2.40,0.43,-0.31,-0.19,1721228755693
12.87,-31.59,69.03,-4.30,2.98,-1.76,1721228755703
-1.56,78.45,43.78,0.99,-0.23,-0.20,1721228755713
0.83,-11.52,-10.20,1.01,1.16,-1.13,1721228755723
2.83,-4.92,-27.77,-1.48,-1.59,0.97,1721228755733
0.73,2.04,78.45,0.90,-1.73,0.77,1721228755743
9.67,54.58,26.27,1.21,0.54,-1.74,1721228755753
-6.62,-16.95,-38.89,4.37,-0.95,-1.22,1721228755763
-5.85,-40.99,-65.56,-2.54,0.61,-0.05,1721228755773
34.12,45.54,-12.18,-3.92,1.82,0.69,1721228755783
2.48,4.80,-19.36,-2.25,-2.48,0.96,1721228755793
-15.68,-11.98,22.96,1.00,-0.28,0.36,1721228755803
-17.43,14.00,1.39,0.72,-2.60,0.61,1721228755813
1.23,11.19,21.69,0.24,1.18,-0.54,1721228755823
-0.81,11.65,11.50,0.48,-1.15,-0.33,1721228755833
-21.25,-54.07,-26.61,0.70,0.92,-0.04,1721228755843
10.07,26.83,-55.59,0.53,-1.58,0.84,1721228755853
-1.21,-21.51,6.68,-1.60,0.67,1.05,1721228755863
-3.13,2.55,21.72,1.72,-2.60,0.54,1721228755873
-34.42,63.87,52.11,2.22,-0.11,-0.61,1721228755883
3.68,-19.67,-58.85,4.37,-0.87,-0.98,1721228755893
-36.23,31.01,-47.80,-3.60,-1.22,-0.48,1721228755903
-3.83,-29.33,-42.89,-4.37,-1.70,0.87,1721228755913
16.22,47.30,39.35,0.51,0.93,0.05,1721228755923
2.08,-7.23,-32.01,1.74,1.47,-0.70,1721228755933
3.28,-14.09,-10.19,-0.68,-0.79,-0.76,1721228755943
3.42,16.99,68.83,-0.90,0.22,0.19,1721228755953
1.31,30.44,23.94,0.85,1.06,-0.84,1721228755963
-37.54,-56.16,-41.68,1.65,0.45,-0.03,1721228755973
4.44,-16.18,-25.64,-0.16,-1.65,-0.15,1721228755983
-1.86,-7.10,42.34,-3.42,1.26,0.46,1721228755993
13.20,16.10,-19.09,1.65,-1.86,2.26,1721228756003
-0.29,-9.45,-11.64,0.63,1.69,0.74,1721228756013
12.96,31.72,-18.64,0.74,-0.80,0.93,1721228756023
32.35,-54.83,-53.91,-3.13,-1.34,-1.83,1721228756033
-12.12,2.19,78.45,0.31,-4.37,-1.08,1721228756043
-12.08,64.53,57.09,1.32,0.56,-1.60,1721228756053
-53.68,-78.45,-54.86,2.97,1.10,0.37,1721228756063
3.99,-22.93,-78.45,2.70,-2.17,0.53,1721228756073
-5.58,-4.56,0.33,-3.21,-4.37,0.73,1721228756083
41.35,78.45,30.78,1.59,-1.69,1.19,1721228756093
17.51,4.16,42.39,2.98,3.50,0.98,1721228756103
13.05,-25.89,-55.70,4.37,0.25,2.02,1721228756113
30.29,-38.59,-36.70,1.25,-4.37,-0.05,1721228756123
-2.19,-78.45,78.45,-3.49,1.41,-1.94,1721228756133
-37.67,-5.89,71.49,-0.16,4.37,-3.42,1721228756143
-2.15,-69.75,-28.88,4.37,0.86,-1.39,1721228756153
17.10,-72.50,-78.45,4.37,-4.37,-0.91,1721228756163
-12.25,-78.45,-29.10,-1.40,4.25,0.30,1721228756173
-41.01,26.34,78.45,-0.35,-3.74,2.62,1721228756183
12.30,78.45,63.52,1.12,1.98,1.75,1721228756193
10.83,-65.50,-58.30,2.76,2.09,3.43,1721228756203
32.24,-31.05,-12.72,4.37,-4.37,-1.58,1721228756213
-9.60,-54.38,54.05,-1.58,4.37,-0.55,1721228756223
-15.44,-11.78,-56.68,-0.03,-0.93,-2.01,1721228756233
13.50,-3.51,48.76,-0.95,-0.47,-2.20,1721228756243
-42.39,32.64,4.07,1.15,-0.23,-0.47,1721228756253
-17.83,-28.10,14.42,-0.75,1.00,1.44,1721228756263
-7.71,9.58,49.26,0.22,-0.22,1.41,1721228756273
23.43,54.66,43.74,0.45,-0.07,0.75,1721228756283
25.28,-78.45,-29.38,0.74,2.95,-1.59,1721228756293
-2.99,-16.15,-40.28,-2.20,-1.07,1.03,1721228756303
13.49,9.65,-11.58,-1.44,0.33,-0.29,1721228756313
3.87,3.43,40.07,0.84,0.04,-0.36,1721228756323
-23.31,-57.16,29.18,1.02,-0.14,-1.04,1721228756333
-8.28,35.35,40.90,-0.10,-1.18,-0.66,1721228756343
-11.83,47.84,11.06,1.82,1.48,0.40,1721228756353
-12.44,-71.63,-17.73,0.08,0.42,0.07,1721228756363
3.92,-63.17,50.05,-1.76,-0.48,-0.89,1721228756373
-2.35,15.33,21.86,0.55,0.28,0.24,1721228756383
10.19,38.15,-27.61,1.24,-0.17,0.14,1721228756393
0.98,-29.40,-29.87,-0.28,1.26,-0.36,1721228756403
7.64,-24.42,-3.71,-4.37,1.02,-1.49,1721228756413
-8.40,8.95,78.45,3.30,-4.37,0.07,1721228756423
-8.40,49.91,46.42,4.29,0.10,0.61,1721228756433
-17.46,-65.43,-56.12,3.07,2.03,1.64,1721228756443
3.71,-5.57,-50.84,-2.53,-0.94,0.89,1721228756453
-6.06,-15.59,55.94,0.02,-0.80,-0.33,1721228756463
12.21,-27.06,16.90,-0.84,0.76,-1.53,1721228756473
0.00,3.32,30.40,0.93,-0.57,-1.36,1721228756483
-4.05,-10.31,12.46,-2.75,0.83,-0.49,1721228756493
-15.05,12.43,37.20,2.87,-1.62,-0.80,1721228756503
-19.68,19.35,-37.35,1.27,-0.48,-0.40,1721228756513
-17.41,-36.67,-20.14,-1.33,1.25,0.70,1721228756523
-12.36,-76.98,78.45,-1.83,-0.82,1.49,1721228756533
7.81,26.05,32.56,0.77,4.00,1.68,1721228756543
-1.49,-1.21,-34.02,2.60,-1.51,0.44,1721228756553
6.03,-0.76,-64.39,-0.12,1.66,-0.75,1721228756563
6.03,-19.38,-8.42,-4.37,0.44,-0.13,1721228756573
44.23,78.45,-71.62,-0.34,-1.83,-1.31,1721228756583
-8.66,9.62,6.99,1.53,-0.19,-1.57,1721228756593
-9.46,-35.60,-29.92,1.06,1.47,-1.61,1721228756603
-19.96,-21.95,-13.50,-2.68,0.12,0.16,1721228756613
-11.45,9.73,46.59,-1.26,-1.01,1.23,1721228756623
33.12,78.45,0.40,3.23,2.43,1.40,1721228756633
-1.84,-64.69,-31.75,1.25,0.20,1.49,1721228756643
7.77,-12.45,-5.23,-3.70,0.11,-0.25,1721228756653
49.48,78.45,69.69,1.53,-2.46,-0.30,1721228756663
3.46,8.11,11.60,2.35,-1.43,-2.07,1721228756673
-20.17,-12.21,-53.51,3.51,-1.98,-0.71,1721228756683
-19.17,-35.59,-31.29,-4.25,0.73,0.29,1721228756693
-29.63,15.05,77.79,-3.78,0.48,1.66,1721228756703
-4.55,-10.84,78.30,1.82,-0.06,0.01,1721228756713
0.03,4.04,-2.21,0.11,-0.97,0.86,1721228756723
4.20,-1.39,26.92,0.81,0.80,0.28,1721228756733
-1.41,52.36,13.75,-0.09,-0.09,0.37,1721228756743
6.17,-36.96,-6.29,1.44,0.10,-0.77,1721228756753
1.97,-11.23,27.65,-2.85,-0.38,-0.50,1721228756763
-6.68,-10.24,38.00,-0.64,-0.04,-0.25,1721228756773
-10.91,67.42,-17.66,2.59,0.11,-0.20,1721228756783
3.04,-35.03,-14.05,1.58,-0.24,-0.36,1721228756793
-1.92,38.50,-11.56,-2.55,-0.20,0.30,1721228756803
13.26,19.21,63.20,-0.27,-0.71,0.33,1721228756813
-51.88,-45.56,8.92,-0.14,1.99,-0.71,1721228756823
17.96,55.58,-5.69,1.18,-2.76,-0.04,1721228756833
8.11,-35.24,-36.38,0.43,2.28,0.42,1721228756843
-20.95,-42.71,19.34,-2.98,-1.62,1.18,1721228756853
-11.71,50.55,78.45,-1.32,-2.26,1.04,1721228756863
5.49,78.45,67.44,2.23,-0.10,0.54,1721228756873
1.94,-44.80,-78.45,4.37,4.10,1.13,1721228756883
15.64,-36.42,-78.45,3.14,-4.37,1.48,1721228756893
12.96,-69.42,-25.70,-0.91,1.19,0.33,1721228756903
59.56,-78.45,78.45,-1.74,2.58,-4.37,1721228756913
34.07,57.26,78.45,-0.70,-2.24,-2.44,1721228756923
-5.88,-78.45,-78.45,4.37,4.37,-1.84,1721228756933
42.24,-68.48,-4.98,4.37,-4.37,2.72,1721228756943
16.18,27.81,-78.45,-0.87,1.06,0.82,1721228756953
-33.44,-67.40,19.65,-4.37,4.37,-0.01,1721228756963
78.45,78.45,78.45,-0.14,0.04,1.16,1721228756973
11.53,-33.65,-19.44,-0.02,1.21,-2.46,1721228756983
10.62,7.18,22.06,0.24,-0.85,-0.27,1721228756993
27.46,78.45,-8.29,-2.23,-1.39,-0.79,1721228757003
23.03,-6.18,68.53,0.24,0.91,-1.11,1721228757013
-23.11,-78.45,-13.82,-0.37,0.07,-1.72,1721228757023
19.91,29.27,-0.39,-0.04,-2.30,-1.24,1721228757033
-13.48,-15.26,-6.79,2.16,1.49,0.03,1721228757043
-25.84,-30.76,-36.91,2.63,0.42,1.92,1721228757053
11.39,-15.81,-18.23,-1.22,-2.40,1.15,1721228757063
54.47,78.45,37.83,-0.55,-2.85,0.86,1721228757073
12.91,29.03,78.45,1.34,2.24,1.46,1721228757083
-2.39,-44.12,-51.23,4.37,1.44,1.02,1721228757093
28.01,-64.16,-78.45,4.37,-4.37,-1.09,1721228757103
8.07,14.77,22.64,-0.06,1.51,-0.85,1721228757113
-52.28,-26.80,47.20,-3.07,-0.62,0.01,1721228757123
18.32,66.98,14.33,-1.89,2.41,0.08,1721228757133
-24.18,-34.45,44.75,-4.37,0.38,-1.08,1721228757671
15.38,-19.93,64.81,-0.02,-1.17,0.90,1721228757675
-2.50,-6.37,78.45,-0.57,0.23,0.75,1721228757684
-6.95,-0.34,-3.02,3.33,0.71,1.29,1721228757694
-2.06,-2.04,-23.17,1.01,-1.93,1.29,1721228757703
5.24,-6.65,-19.44,-2.72,0.85,0.77,1721228757713
-2.74,-17.83,-9.12,-3.97,1.17,-0.93,1721228757722
32.14,3.38,78.45,2.28,-2.98,-0.20,1721228757732
13.44,78.45,-33.43,2.64,-0.49,0.24,1721228757741
7.68,-22.30,-37.43,4.37,-0.52,0.80,1721228757751
9.29,-30.47,-31.59,-1.42,-0.44,0.60,1721228757760
51.40,76.20,-3.15,-4.22,0.36,-1.16,1721228757770
7.59,78.45,10.27,3.00,-1.69,0.44,1721228757780
-9.17,-78.45,-50.13,0.49,3.24,0.48,1721228757790
18.04,-21.54,-14.74,-3.35,-3.74,-0.56,1721228757800
30.23,78.45,78.45,2.74,-4.37,-1.94,1721228757810
-3.59,18.66,16.85,4.37,3.41,0.17,1721228757820
-3.20,-22.13,-78.45,4.37,-0.95,2.22,1721228757830
19.60,10.23,-64.44,-4.37,1.86,0.15,1721228757840
21.21,-45.09,61.55,-4.37,4.37,-0.55,1721228757850
22.61,-27.04,24.33,1.24,4.37,-2.32,1721228757860
10.37,67.55,-68.34,4.37,-2.92,-0.75,1721228757870
25.67,-78.45,29.71,-1.66,3.39,-1.65,1721228757880
56.26,66.74,-26.18,-2.72,-1.06,-2.20,1721228757890
44.86,72.29,-19.16,-1.21,-0.16,0.74,1721228757900
3.07,-78.45,-5.69,0.02,2.75,-0.31,1721228757910
7.87,78.45,-30.97,0.68,-2.62,-2.01,1721228757920
12.37,-46.11,16.36,-2.62,1.53,-2.38,1721228757930
-36.69,-15.55,66.25,-0.22,-3.05,-0.30,1721228757940
-6.95,50.23,78.45,1.11,1.08,-0.34,1721228757950
3.41,-10.08,-59.70,3.52,0.53,-0.30,1721228757960
39.43,70.55,-23.08,0.17,-0.87,0.51,1721228757970
-2.98,1.06,-14.53,-3.40,1.43,0.29,1721228757980
41.11,65.27,-6.26,1.37,-0.13,0.52,1721228757990
-24.73,-78.45,-32.10,-0.51,2.69,-1.56,1721228758000
37.28,38.06,25.33,-0.84,-1.72,-0.65,1721228758010
5.75,29.62,44.25,1.71,-0.55,-1.62,1721228758020
-8.57,19.73,1.83,0.33,0.28,-0.18,1721228758030
-8.24,-45.86,13.95,0.27,0.73,-0.31,1721228758040
-10.84,-16.21,42.10,-0.28,-1.23,-0.64,1721228758050
20.02,42.93,3.18,1.62,0.76,-0.31,1721228758060
-35.90,-78.45,-39.03,1.08,1.62,1.78,1721228758070
31.37,54.36,-18.86,-1.04,-1.51,0.15,1721228758080
-0.97,21.63,78.45,-4.37,1.03,0.76,1721228758090
0.56,-32.27,46.67,0.17,-0.64,-1.12,1721228758100
-1.82,11.30,-1.41,3.08,-0.66,-0.66,1721228758110
-16.26,-78.45,-42.80,-1.59,2.28,-2.17,1721228758120
-20.20,42.09,33.60,0.83,-2.09,-1.49,1721228758130
2.99,-17.85,24.90,-0.70,2.02,-1.98,1721228758140
-46.37,16.96,-12.27,-0.23,-0.62,1.44,1721228758150
-5.31,0.05,-1.90,2.62,-0.37,1.89,1721228758160
12.26,-67.60,78.45,-1.98,1.64,0.40,1721228758170
72.07,78.45,78.45,1.17,-1.06,0.90,1721228758180
5.86,-19.97,5.65,0.44,2.35,-1.36,1721228758190
36.09,78.45,-34.53,4.37,-2.48,-0.47,1721228758200
-39.60,-78.45,-63.61,-3.57,3.05,-0.26,1721228758210
-5.43,-68.83,16.59,-4.09,1.01,-0.84,1721228758220
25.74,78.45,70.76,0.24,-0.03,-1.78,1721228758230
-65.10,2.29,-3.84,2.00,2.46,0.49,1721228758240
8.29,35.46,-25.59,1.75,0.54,1.28,1721228758250
-15.79,-33.97,-28.77,-1.97,-3.49,1.71,1721228758260
5.70,-24.33,46.21,-1.82,0.53,-1.73,1721228758270
-8.08,17.15,45.81,1.06,-0.11,-0.02,1721228758280
-3.54,-7.96,-39.28,4.37,0.73,1.71,1721228758290
8.28,-61.40,-65.22,-1.81,-0.09,1.30,1721228758300
26.81,78.45,-36.22,-4.37,0.53,0.72,1721228758310
4.51,8.86,34.20,-0.57,0.82,-0.72,1721228758320
8.20,-50.22,34.52,2.90,-1.80,-0.77,1721228758330
2.63,78.45,21.76,0.43,0.07,0.02,1721228758340
-9.70,9.86,3.52,2.09,-0.03,-0.29,1721228758350
-14.52,33.92,-58.00,1.55,-0.84,1.40,1721228758360
6.07,5.54,-31.47,-0.61,0.15,2.07,1721228758370
46.01,-78.45,-10.98,-4.37,2.99,-0.25,1721228758380
-16.41,-21.88,78.45,0.23,-0.83,-0.94,1721228758390
-21.60,78.45,74.33,2.47,-1.71,-1.98,1721228758400
-41.98,-78.45,-43.49,4.37,3.09,-0.88,1721228758410
-2.27,37.53,-1.23,0.53,-3.52,2.12,1721228758420
1.46,-9.18,37.21,-0.63,2.36,1.60,1721228758430
-37.21,-39.77,78.45,-2.79,-1.65,-0.43,1721228758440
7.43,-44.61,70.65,-0.20,1.40,0.55,1721228758450
27.58,66.14,43.92,2.42,-1.07,-0.18,1721228758460
11.81,26.45,-18.35,4.19,-4.37,-1.25,1721228758470
1.94,-38.53,-50.03,0.13,1.09,-1.06,1721228758480
-6.13,-35.08,-27.60,-4.37,1.91,-1.63,1721228758490
-78.45,-33.77,78.45,0.19,-4.37,1.60,1721228758500
-76.41,-6.43,78.45,-0.66,4.37,-0.33,1721228758510
-8.80,-69.27,-27.43,1.15,-0.37,0.71,1721228758520
9.09,-9.79,-8.56,2.05,-1.89,-0.40,1721228758530
-40.53,32.40,-2.02,-3.06,-0.63,1.80,1721228758540
5.64,-3.04,0.77,0.84,1.27,0.61,1721228758550
-0.60,13.44,16.12,-1.53,0.70,0.98,1721228758560
5.19,-46.26,52.50,0.17,-2.07,-1.19,1721228758570
-1.04,10.32,28.39,0.88,-1.13,-0.26,1721228758580
1.38,14.33,-4.70,-0.76,1.32,-0.01,1721228758590
-20.22,-6.53,-13.95,-1.41,1.03,0.20,1721228758600
3.72,-25.76,-3.00,2.23,-0.57,-0.68,1721228758610
-19.44,-21.35,-6.02,-3.46,0.11,0.31,1721228758620
-19.64,12.69,40.22,0.66,-3.18,1.26,1721228758630
-6.10,42.60,20.74,1.14,1.27,0.82,1721228758640
12.62,-78.45,5.33,0.23,0.80,-0.42,1721228758650
30.32,-57.21,-56.34,-0.21,0.14,-2.11,1721228758660
-46.43,38.31,6.32,-0.50,-1.45,0.17,1721228758670
2.04,-21.51,25.14,-0.54,0.26,-1.00,1721228758680
-13.34,17.25,24.03,-0.58,-0.73,-0.29,1721228758690
3.56,44.20,35.30,1.49,-0.90,-0.09,1721228758700
-11.32,17.14,-1.24,0.61,0.70,1.04,1721228758710
8.04,-2.01,-6.95,1.70,-0.52,1.47,1721228758720
1.10,-78.45,3.23,-3.81,2.00,-1.36,1721228758730
-10.83,13.79,13.36,1.83,-4.11,0.27,1721228758740
17.05,22.25,35.20,0.66,1.20,-0.21,1721228758750
-0.20,63.16,-17.24,1.57,-0.92,0.32,1721228758760
14.12,-61.25,-2.81,-0.62,1.67,-0.79,1721228758770
-17.50,-78.45,-63.52,-2.02,-0.44,-2.26,1721228758780
32.13,78.45,38.45,0.48,-2.57,-0.30,1721228758790
-22.58,32.86,7.39,3.24,2.38,0.59,1721228758800
7.39,23.18,-39.64,1.98,-0.82,1.91,1721228758810
-1.27,-78.45,-38.88,-4.37,2.52,-0.17,1721228758820
10.97,-67.23,17.85,1.73,-2.28,-1.29,1721228758830
-17.13,47.43,23.20,3.26,2.24,-0.13,1721228758840
-40.38,-45.58,-72.17,1.64,2.08,1.52,1721228758850
11.30,-39.78,-21.33,-4.12,-1.62,-0.94,1721228758860
-8.43,-46.36,78.45,2.55,-2.63,-1.80,1721228758870
-49.45,78.45,78.45,1.89,4.37,0.47,1721228758880
-23.81,-78.45,-45.40,4.37,1.74,3.43,1721228758890
20.18,10.70,-9.10,-1.57,-3.33,0.08,1721228758900
-8.32,-78.45,6.01,-3.93,4.37,-1.19,1721228758910
-3.30,78.45,78.45,-1.30,4.37,0.50,1721228758920
-4.84,-51.76,-62.18,2.79,1.07,-0.52,1721228758930
-2.02,-7.21,-6.86,2.84,-2.57,-1.45,1721228758940
8.86,28.92,-13.85,-4.37,0.61,-0.60,1721228758950
-19.22,5.72,45.44,0.55,-1.12,-0.51,1721228758960
-23.42,21.22,-13.99,2.09,-0.30,0.57,1721228758970
-2.54,-17.72,-30.38,-0.69,1.55,0.11,1721228758980
-1.54,-19.83,33.76,-1.32,0.01,-0.51,1721228758990
2.77,-10.70,39.33,0.66,-0.97,-1.20,1721228759000
-5.11,0.55,-3.90,0.93,0.52,-0.38,1721228759010
10.46,9.97,-11.43,1.45,-0.14,0.29,1721228759020
-19.77,-64.09,-23.19,-3.17,1.89,0.47,1721228759030
-8.36,22.23,54.99,2.91,-3.65,1.00,1721228759040
9.12,14.88,29.39,0.96,0.24,-0.20,1721228759050
2.67,-24.65,8.50,3.91,1.78,0.15,1721228759060
-0.06,-9.06,-29.83,-1.42,-1.79,0.76,1721228759070
5.77,-5.93,-12.48,-3.31,0.56,-0.18,1721228759080
60.36,45.14,34.82,0.90,0.94,-2.03,1721228759090
5.41,17.50,58.44,0.72,-0.47,-0.92,1721228759100
-4.02,6.92,-0.63,-0.65,0.24,0.01,1721228759110
-20.09,-30.39,20.24,0.17,0.54,-0.12,1721228759120
-17.87,12.73,-10.99,1.10,-0.64,0.67,1721228759130
-19.28,-48.43,-36.22,-1.82,2.08,0.41,1721228759140
3.36,5.58,28.81,0.12,-0.27,1.51,1721228759150
18.72,36.64,-3.76,-1.66,0.15,0.32,1721228759160
12.69,-29.40,41.14,-1.44,0.50,-1.28,1721228759170
0.94,50.08,56.99,-0.14,-2.03,-1.36,1721228759180
-0.24,-18.99,10.78,3.01,0.66,-2.54,1721228759190
16.35,78.45,-78.45,3.76,-1.54,0.50,1721228759200
-17.42,-17.16,-29.67,-2.37,1.45,1.69,1721228759210
2.65,-44.46,47.32,-4.37,4.37,-2.24,1721228759220
22.06,71.80,9.00,1.69,-0.56,-1.00,1721228759230
-14.90,-78.45,-41.87,4.15,-0.47,1.51,1721228759240
-12.59,10.55,-37.09,-1.62,-0.05,-0.22,1721228759250
18.05,21.25,-2.37,-2.59,0.86,0.19,1721228759260
-7.17,5.88,-12.20,-2.73,1.06,-0.75,1721228759270
-8.10,-25.00,32.67,2.36,-1.69,-0.58,1721228759280
-12.38,57.88,-10.67,0.41,0.03,-0.50,1721228759290
-2.98,-21.98,-30.57,1.05,-0.34,-1.13,1721228759300
-8.58,-18.25,66.19,-2.95,0.67,0.56,1721228759310
13.42,-1.08,45.82,2.93,-1.00,0.73,1721228759320
21.12,42.08,-7.49,3.08,0.16,-0.34,1721228759330
-5.00,25.30,-45.27,1.29,-0.50,-0.06,1721228759340
5.90,-9.03,-7.68,-2.95,0.92,-0.15,1721228759350
7.32,-78.45,78.45,-2.67,-2.39,0.23,1721228759360
15.25,78.45,27.01,3.86,-1.23,-1.97,1721228759370
0.30,-18.18,-51.92,4.37,-1.41,-0.51,1721228759380
-7.54,-71.75,-66.13,2.08,-0.90,1.23,1721228759390
48.49,78.45,-49.48,-3.99,-2.78,1.81,1721228759400
-32.82,28.33,41.25,-3.63,3.59,-0.25,1721228759410
2.41,-21.76,40.74,1.57,-0.32,0.55,1721228759420
5.60,-22.86,-23.22,-0.09,3.07,0.23,1721228759430
21.93,20.51,20.00,-1.32,-1.18,0.16,1721228759440
11.73,15.95,14.53,0.88,-0.68,-0.82,1721228759450
-13.61,-32.87,-24.11,0.46,2.49,-0.47,1721228759460
-8.47,-28.91,-7.93,-0.99,-3.37,-0.03,1721228759470
-39.66,-50.54,78.45,-0.67,2.03,0.04,1721228759480
-57.53,41.94,27.67,2.38,-1.40,2.08,1721228759490
7.48,-13.72,2.93,-0.62,1.50,0.20,1721228759500
14.10,23.98,15.11,-3.24,-0.13,0.32,1721228759510
26.80,45.71,49.19,1.48,0.65,-0.10,1721228759520
-29.11,-73.96,-16.04,0.74,1.87,-0.14,1721228759530
10.71,1.17,-32.87,0.43,-4.06,-1.21,1721228759540
23.07,-74.31,-1.79,-4.37,-1.08,-3.70,1721228759550
-11.49,21.76,13.64,-1.90,2.15,-0.29,1721228759560
-4.85,-2.41,24.69,0.62,0.74,0.02,1721228759570
-9.22,-23.29,-15.90,2.68,0.33,1.20,1721228759580
1.33,-24.84,-15.14,-0.21,-1.70,0.69,1721228759590
-31.84,58.37,-7.45,-1.12,-0.19,0.80,1721228759600
25.49,31.77,54.81,0.14,0.69,0.39,1721228759610
-4.66,-65.17,7.21,0.67,0.20,0.00,1721228759620
38.05,62.26,-19.32,0.84,-2.56,-0.96,1721228759630
5.94,-22.31,-4.03,-0.54,1.82,-0.89,1721228759640
-7.02,-0.60,-2.61,-0.61,0.17,-0.01,1721228759650
-2.49,-2.99,27.02,0.06,-2.19,-0.89,1721228759660
-9.18,78.45,42.84,0.83,-0.46,0.37,1721228759675
-8.59,67.28,22.13,0.65,0.94,1.03,1721228759679
-23.08,-78.45,-26.95,-3.17,2.46,0.97,1721228759689
-3.95,-39.81,61.81,1.09,-3.03,0.10,1721228759699
1.47,78.45,19.18,2.50,2.35,-0.63,1721228759709
7.59,-29.50,-29.08,1.76,2.02,-0.12,1721228759719
-0.90,-78.45,-74.90,1.00,-0.06,-0.46,1721228759729
-25.67,44.96,19.27,-4.37,-0.75,-1.52,1721228759739
7.22,78.45,78.45,-0.08,-4.37,-0.31,1721228759749
0.56,-3.67,-15.70,2.34,1.59,0.44,1721228759759
-3.85,-9.28,-34.36,-1.31,-0.41,1.32,1721228759769
12.10,-35.15,-14.60,-0.57,-0.04,-0.39,1721228759779
-13.43,-14.83,59.22,-1.71,-0.23,-0.52,1721228759789
-0.83,67.24,18.02,1.39,-0.23,0.17,1721228759799
1.52,2.26,-38.73,0.26,0.22,0.67,1721228759809
17.43,-78.45,-15.90,-4.37,1.57,-0.82,1721228759819
2.36,2.91,78.45,0.38,-3.38,-0.89,1721228759829
-0.87,76.11,30.02,3.22,0.98,0.30,1721228759839
-8.32,-12.66,-43.53,3.31,1.23,1.14,1721228759849
4.60,-57.95,-33.54,-1.70,0.06,0.48,1721228759859
11.86,78.45,-20.62,-3.55,-2.04,-0.80,1721228759869
-57.03,78.45,78.45,-3.36,-3.77,-1.30,1721228759879
-27.84,-53.83,6.99,2.88,1.72,-0.87,1721228759889
-20.33,15.63,-40.14,0.14,-1.23,-0.37,1721228759899
49.97,64.36,3.92,-2.68,1.66,-0.81,1721228759909
6.79,-7.41,26.63,0.61,0.87,-0.39,1721228759919
-1.34,2.10,17.05,1.05,0.23,-0.46,1721228759929
-4.04,-22.99,-44.30,0.65,-0.20,-0.40,1721228759939
8.49,1.53,78.45,-1.46,1.35,-0.27,1721228759949
18.09,39.72,26.58,-0.13,0.07,-0.78,1721228759959
-29.58,-60.92,-17.87,1.84,0.54,-0.39,1721228759969
-6.65,-10.66,-17.03,1.34,-1.49,0.34,1721228759979
-0.29,-7.43,2.86,-2.62,0.57,0.67,1721228759989
-10.44,19.67,16.60,0.82,-0.79,-0.47,1721228759999
-24.50,-78.45,0.18,2.09,-0.56,1.14,1721228760009
34.01,65.98,-21.46,-3.69,-1.17,0.99,1721228760019
34.34,78.45,78.45,-1.55,-0.03,0.17,1721228760029
4.42,-13.21,6.79,2.41,1.37,-1.98,1721228760039
10.72,6.99,-43.96,4.37,-1.26,0.30,1721228760049
-0.69,-78.45,-77.89,-2.86,0.31,1.46,1721228760059
-33.38,18.01,-14.04,-4.37,-1.17,1.65,1721228760069
-59.73,78.45,44.75,0.45,-3.34,-0.07,1721228760079
-1.41,-30.69,-21.03,4.37,0.35,-3.45,1721228760089
-33.56,36.38,-21.16,1.53,0.10,0.69,1721228760099
14.01,0.11,-5.71,-3.11,0.12,-0.54,1721228760109
10.65,-78.45,-7.47,-2.51,0.88,-1.63,1721228760119
78.45,78.45,-8.08,1.43,-1.98,-0.64,1721228760129
10.82,-23.68,40.33,-3.03,3.80,0.51,1721228760139
46.00,78.45,10.67,2.95,-1.61,-0.82,1721228760149
7.22,25.65,0.46,2.83,-1.99,-0.49,1721228760159
-15.57,-76.04,-32.38,1.11,2.78,-0.14,1721228760169
-8.05,5.49,-4.55,-1.51,-1.39,1.18,1721228760179
-21.56,1.66,20.28,-0.42,0.88,0.17,1721228760189
2.61,13.77,25.01,1.81,-0.65,0.01,1721228760199
-15.97,-71.96,-10.97,-1.86,3.18,-0.01,1721228760209
-0.08,5.86,45.04,0.00,-0.67,-0.70,1721228760219
-33.41,46.64,4.23,1.26,-0.37,-0.14,1721228760229
2.98,-78.45,-33.98,3.52,-0.46,-0.37,1721228760239
14.56,20.62,26.14,-4.37,-0.65,1.80,1721228760249
18.66,-46.25,51.50,-0.71,1.59,0.55,1721228760259
-33.62,78.45,-36.99,0.76,-0.90,0.60,1721228760269
6.08,-78.45,-35.92,4.30,-0.54,-0.40,1721228760279
-25.38,5.52,-33.71,-2.07,-0.13,2.56,1721228760289
-24.39,50.69,-12.87,-0.29,0.30,0.81,1721228760299
1.18,-25.54,36.48,-3.15,-0.98,-0.56,1721228760309
1.64,-59.81,28.10,-0.71,1.55,-1.23,1721228760319
-10.30,14.17,42.34,0.52,-1.88,-0.45,1721228760329
-18.35,40.78,16.67,3.19,0.54,-0.33,1721228760339
-23.69,-78.45,-8.50,1.52,1.57,0.96,1721228760349
-26.30,-37.82,-54.61,-1.01,0.08,2.37,1721228760359
9.01,-4.01,6.50,-4.37,-0.36,-0.27,1721228760369
19.47,78.45,72.08,0.10,-3.35,1.43,1721228760379
10.98,9.27,-2.05,2.93,-0.38,0.72,1721228760389
-36.01,-78.45,-41.07,-1.53,1.64,0.65,1721228760399
19.71,-43.16,-15.18,-1.20,0.10,-1.69,1721228760409
-13.60,10.67,4.82,-0.61,-2.49,-0.52,1721228760419
-14.87,17.89,27.76,0.66,1.69,-0.08,1721228760429
-42.87,-78.45,-2.29,-0.71,-0.13,0.37,1721228760439
-17.17,28.33,26.22,-1.03,0.48,1.81,1721228760449
3.87,36.55,47.07,-0.07,0.61,1.79,1721228760459
14.72,-77.63,-7.08,2.70,0.35,-0.05,1721228760469
18.33,38.58,-56.05,2.62,-2.07,-0.57,1721228760479
6.27,-27.33,-49.14,-1.06,1.31,-0.84,1721228760489
-0.58,-14.85,-13.48,-3.73,0.17,-1.57,1721228760499
20.18,64.66,16.09,1.01,-0.17,-2.06,1721228760509
15.41,-26.53,60.64,2.49,-1.71,-0.65,1721228760519
-17.81,34.76,-18.42,-0.20,-0.76,0.84,1721228760529
-28.82,-78.45,18.11,-1.59,2.03,0.48,1721228760539
-6.56,-12.76,71.59,-1.24,-0.48,-0.52,1721228760549
32.71,78.45,8.35,0.63,0.71,0.09,1721228760559
-7.65,-43.18,-47.02,4.37,0.15,1.18,1721228760569
11.40,-1.93,-34.78,0.63,-0.50,0.26,1721228760579
17.85,52.55,-35.92,-2.64,1.62,0.05,1721228760589
7.70,-28.70,50.21,-1.76,1.10,-0.37,1721228760599
1.98,-5.60,56.89,-0.61,-0.58,-1.12,1721228760609
4.80,71.75,48.11,-0.09,-1.06,-1.04,1721228760619
2.00,23.47,3.60,1.24,0.51,0.30,1721228760629
2.01,-78.45,-1.28,-2.14,0.57,-1.60,1721228760639
-3.30,7.15,3.87,1.09,-0.43,0.45,1721228760649
6.49,-27.57,-11.60,-0.17,0.57,-0.60,1721228760659
-3.56,-0.30,71.36,-1.54,0.79,-0.61,1721228760669
51.22,78.45,78.27,2.10,-1.13,0.60,1721228760679
-0.78,-8.00,12.26,0.03,2.11,0.08,1721228760689
39.78,78.45,-6.68,4.37,-0.82,0.78,1721228760699
13.75,-32.57,-52.38,1.42,-1.50,-0.03,1721228760709
-0.14,-4.69,-7.84,-4.37,1.70,-0.16,1721228760719
-43.01,-53.02,78.45,-1.04,-4.37,-2.46,1721228760729
-20.18,78.45,38.60,3.95,0.84,-0.90,1721228760739
-47.31,-78.45,-51.37,1.94,2.81,2.49,1721228760749
14.83,-18.33,-38.60,1.43,-4.37,1.85,1721228760759
9.06,-2.28,-2.65,-0.48,3.05,0.60,1721228760769
-71.47,38.73,-73.49,4.32,0.71,1.37,1721228760779
-16.59,-54.99,53.52,-0.47,0.67,-0.50,1721228760789
-8.55,65.06,-21.67,2.82,1.00,0.37,1721228760799
8.42,-22.96,-25.42,0.46,-0.19,0.33,1721228760809
10.63,-64.95,-21.19,-4.37,2.08,-1.85,1721228760819
10.93,53.90,65.57,1.64,-4.12,-1.19,1721228760829
-6.09,78.45,71.32,-0.55,1.15,-1.16,1721228760839
-36.18,-66.62,-35.15,1.28,-0.14,0.31,1721228760849
-4.93,-16.75,-10.50,-3.09,0.26,0.62,1721228760859
-30.77,78.45,78.45,1.81,-0.98,2.37,1721228760869
2.02,-2.75,30.14,1.63,0.33,0.83,1721228760879
5.74,-9.01,-40.62,4.10,-0.24,0.99,1721228760889
10.02,-78.45,-67.19,-2.44,0.36,-0.03,1721228760899
-6.60,-18.85,32.99,-3.98,-0.07,-0.90,1721228760909
38.74,78.45,33.83,0.37,0.88,-1.76,1721228760919
6.78,22.99,-8.05,3.22,-0.71,-0.85,1721228760929
-14.26,-17.43,-16.71,-2.59,1.05,0.29,1721228760939
10.27,-56.13,-12.85,-1.88,0.36,-0.75,1721228760949
-5.78,-3.77,9.22,0.95,-1.37,0.82,1721228760959
-2.86,10.17,3.24,0.65,1.24,1.49,1721228760969
14.99,-18.52,-2.35,1.89,-0.14,0.05,1721228760979
3.29,5.70,35.12,-0.47,0.06,-0.34,1721228760989
-17.71,78.45,34.05,-0.72,1.43,-0.92,1721228760999
-0.73,1.39,-1.07,0.84,-0.24,-1.43,1721228761009
-21.22,-78.45,-35.58,-0.48,1.33,-0.03,1721228761019
-0.45,0.62,-12.62,-2.20,-0.39,1.81,1721228761029
-4.92,-3.97,45.96,0.41,-0.78,-0.18,1721228761039
11.02,20.02,39.52,1.47,-1.20,0.73,1721228761049
2.62,6.87,-25.50,0.45,-0.25,1.47,1721228761059
8.29,-65.20,7.16,-2.38,1.53,1.13,1721228761069
9.52,41.47,44.79,-0.88,0.51,0.20,1721228761079
20.10,64.67,27.89,0.03,-0.67,-0.63,1721228761089
-6.93,-78.45,-25.59,2.95,-0.66,-1.35,1721228761099
4.14,-12.08,-22.78,1.53,2.13,-1.31,1721228761109
-1.86,53.08,-24.08,0.09,-1.62,-0.14,1721228761119
-27.87,-74.40,36.69,-1.13,0.67,0.57,1721228761129
12.26,-29.31,50.08,0.52,1.41,-0.29,1721228761139
5.66,78.45,23.48,0.39,-1.04,0.58,1721228761149
6.93,44.49,-2.48,2.57,-0.26,1.21,1721228761159
7.45,-15.35,-14.50,1.80,-0.37,0.84,1721228761169
7.54,-76.31,1.90,-2.33,0.13,-0.17,1721228761179
5.27,8.37,39.12,1.31,1.61,0.83,1721228761189
-41.02,45.63,-30.80,-2.21,-1.24,-0.84,1721228761199
-5.78,-10.73,18.33,3.47,-1.55,-0.66,1721228761209
26.80,67.44,-16.97,1.59,-0.52,-0.36,1721228761219
-14.07,-78.45,73.82,-3.02,-1.15,-0.37,1721228761229
-10.45,-58.01,78.45,2.14,-0.54,0.30,1721228761239
-51.39,78.45,10.41,1.00,1.38,1.20,1721228761249
-1.86,-17.27,-18.55,4.20,-0.63,1.80,1721228761259
-22.72,-78.45,-57.94,0.64,1.51,2.29,1721228761269
4.19,-2.82,-46.16,-2.02,-2.27,-0.63,1721228761279
-23.70,57.77,78.45,-0.55,4.37,0.01,1721228761289
5.86,-40.02,78.28,-1.48,-1.24,-0.46,1721228761299
-1.31,-13.32,70.47,0.58,-0.25,-1.58,1721228761309
-8.26,49.47,6.16,2.74,-0.38,-0.62,1721228761319
-12.59,28.57,-36.65,-0.54,-0.73,0.40,1721228761329
-19.28,-59.07,-16.63,-2.44,1.53,0.62,1721228761339
-17.15,-58.29,-44.36,0.40,-0.03,0.36,1721228761349
4.39,-3.46,78.45,-2.52,0.82,0.14,1721228761359
22.08,26.92,53.84,-0.26,-0.04,1.26,1721228761369
-22.82,-69.37,-19.58,2.36,2.16,0.90,1721228761379
-24.68,64.27,-54.11,-1.23,-3.19,0.15,1721228761389
-6.56,23.01,-4.36,-4.05,1.85,-0.39,1721228761399
17.26,72.96,31.47,0.12,0.20,1.37,1721228761409
36.86,-78.45,-35.67,3.28,-0.08,-0.30,1721228761419
0.11,-42.89,-63.34,1.31,-0.27,-0.81,1721228761429
-16.25,-20.35,66.26,-3.02,-4.37,-3.05,1721228761439
-78.45,78.45,-26.04,4.37,-1.20,-1.96,1721228761449
-11.01,78.45,12.84,4.37,1.91,0.38,1721228761459
-35.07,-78.45,-78.45,-0.19,1.69,1.92,1721228761469
72.26,78.45,-31.68,-4.37,-4.37,-0.04,1721228761479
71.76,78.45,14.84,1.87,0.30,3.04,1721228761489
17.36,-18.20,-0.02,3.57,1.38,1.37,1721228761499
25.73,-47.24,-12.65,1.12,-2.41,-1.05,1721228761509
42.84,78.45,-78.45,-1.12,-2.14,-4.37,1721228761519
12.56,63.82,-66.37,0.17,-0.82,-0.52,1721228761529
21.52,-78.45,48.33,-4.37,4.37,-1.83,1721228761539
-19.91,10.65,78.45,1.69,-4.37,-1.90,1721228761549
44.32,77.61,-8.61,1.64,1.09,-0.35,1721228761559
-42.17,20.82,-43.58,4.37,1.22,1.91,1721228761569
6.28,-55.27,-78.45,1.26,-2.38,0.58,1721228761579
-25.51,-11.08,-13.03,0.26,-4.37,-0.67,1721228761589
-26.55,-14.41,63.88,-3.24,-1.02,-0.40,1721228761599
-58.95,54.16,-22.22,0.91,2.37,1.29,1721228761609
21.11,-25.62,-37.37,2.17,0.47,1.51,1721228761619
-2.23,-54.74,-45.09,-4.37,1.00,-0.24,1721228761629
-3.00,-78.45,78.45,-0.52,0.22,-1.62,1721228761639
7.62,78.45,78.45,1.29,-1.58,-0.93,1721228761649
22.20,-78.45,-38.49,3.35,4.13,-0.79,1721228761659
-26.13,-48.55,-69.42,0.19,0.34,-0.59,1721228761669
-49.72,-70.46,78.45,-1.91,-2.68,3.09,1721228761684
22.50,78.45,59.11,1.55,-3.54,-1.21,1721228761688
2.26,76.00,-1.16,4.30,0.03,1.59,1721228761698
9.03,-25.93,-25.86,2.06,1.86,1.78,1721228761708
31.53,-55.22,-18.73,-4.37,0.04,-1.34,1721228761718
-0.23,-5.85,46.05,3.32,0.17,-0.41,1721228761728
-9.20,78.45,20.56,2.52,0.39,-0.26,1721228761738
-20.41,-11.78,-40.15,0.68,0.20,-0.34,1721228761748
15.48,-65.52,-19.11,-4.37,2.44,-2.37,1721228761758
-7.14,10.16,38.13,4.37,-4.37,-0.68,1721228761768
-5.21,27.95,-26.08,2.96,1.68,1.41,1721228761778
0.41,-11.15,-51.72,3.02,-0.70,1.77,1721228761788
-0.52,-11.48,-37.77,-3.23,0.19,0.97,1721228761798
5.71,2.65,78.45,-4.37,4.37,0.86,1721228761808
5.46,-78.45,44.84,3.11,-0.61,-2.02,1721228761818
15.72,78.45,-21.19,0.78,-1.39,-1.48,1721228761828
-20.39,-78.45,-37.51,2.60,1.46,-0.19,1721228761838
-17.74,-23.58,-54.13,-2.44,-2.92,1.43,1721228761848
9.16,-34.95,32.39,-4.37,3.84,-0.78,1721228761858
-40.41,41.81,78.45,-1.50,2.85,1.14,1721228761868
5.46,-46.62,-32.53,4.37,1.91,0.33,1721228761878
-30.28,-53.52,-78.45,2.77,-2.21,1.42,1721228761888
25.94,5.72,0.02,-4.37,0.92,-0.58,1721228761898
28.51,38.95,18.26,-4.19,0.42,-0.85,1721228761908
-15.94,9.67,34.22,-0.45,-1.15,-0.63,1721228761918
-19.35,5.50,20.81,-0.81,0.89,-1.03,1721228761928
17.80,60.06,-12.84,2.48,0.38,0.09,1721228761938
-9.18,-24.57,-18.91,2.05,-0.77,0.98,1721228761948
-13.58,28.81,-3.44,-1.95,2.27,3.39,1721228761958
-14.89,12.96,56.77,-2.85,0.61,2.02,1721228761968
11.87,-42.71,10.37,-0.58,2.80,-1.22,1721228761978
8.78,33.55,-35.71,3.95,-1.56,-0.33,1721228761988
0.22,-2.99,-46.57,2.57,-0.00,-0.55,1721228761998
17.43,-58.50,-11.06,-4.37,-2.95,-1.46,1721228762008
-28.49,17.00,78.45,1.25,-2.47,-2.15,1721228762018
-21.04,41.77,23.01,2.28,0.25,0.19,1721228762028
16.78,-37.51,29.65,4.37,0.84,-0.98,1721228762038
0.94,-10.24,-78.38,-4.37,-1.37,0.42,1721228762048
-47.63,-76.01,78.45,-2.17,4.37,0.16,1721228762058
-78.45,61.90,-15.11,-0.51,-3.37,0.97,1721228762068
14.31,-40.29,4.24,4.37,-0.57,-0.46,1721228762078
-19.02,-55.32,-41.87,-0.72,0.07,0.46,1721228762088
22.61,10.58,18.17,-2.17,-0.17,0.72,1721228762098
2.51,48.72,37.81,-0.67,-0.34,0.17,1721228762108
-18.69,-78.45,-15.32,0.83,-0.77,-0.05,1721228762118
-19.02,-58.02,-16.97,-2.37,0.32,-0.60,1721228762128
5.20,17.67,60.87,1.45,-1.13,0.47,1721228762138
-1.38,2.74,6.83,1.25,0.20,0.06,1721228762148
0.41,3.06,4.74,2.55,-1.42,1.26,1721228762158
55.70,56.47,23.43,-0.20,-0.09,1.25,1721228762168
35.09,-68.13,20.58,-1.26,1.09,-1.28,1721228762178
-28.64,-78.45,39.06,-2.31,-0.05,-1.28,1721228762188
3.39,35.77,-1.19,-1.68,1.91,-1.18,1721228762198
10.85,23.98,-20.45,3.25,0.07,0.34,1721228762208
-13.59,-31.47,-19.03,1.96,-1.39,0.70,1721228762218
3.50,-10.63,-4.84,-3.33,-0.14,1.06,1721228762228
-3.47,-2.68,13.29,-1.58,-0.11,0.31,1721228762238
-17.34,11.93,39.24,0.44,2.30,-0.54,1721228762248
-0.81,-20.68,-15.11,4.06,-1.15,0.07,1721228762258
-2.25,-22.97,-7.84,-2.86,0.77,0.06,1721228762268
4.94,8.98,-2.85,-3.02,-1.59,-0.06,1721228762278
13.07,50.70,4.27,0.07,1.24,0.60,1721228762288
18.25,-72.31,5.42,0.97,-0.01,-0.02,1721228762298
33.23,64.12,36.43,0.12,-1.50,-0.44,1721228762308
10.06,-78.45,35.02,0.03,-0.14,-2.81,1721228762318
-55.56,54.73,5.54,-0.36,-1.26,1.47,1721228762328
3.91,10.69,12.48,0.57,1.33,0.39,1721228762338
-2.31,38.05,-1.76,1.08,-1.15,0.32,1721228762348
5.82,24.20,-10.30,0.10,0.23,0.85,1721228762358
23.55,-72.22,-8.55,-4.37,1.98,-1.23,1721228762368
-7.81,-17.47,61.56,-0.28,-2.75,-0.39,1721228762378
17.68,75.30,38.21,0.05,2.85,-0.86,1721228762388
8.12,-17.89,6.22,2.82,1.61,-0.15,1721228762398
8.45,-13.25,-9.42,-0.17,-1.20,0.50,1721228762408
1.04,8.49,70.97,-0.67,0.65,0.93,1721228762418
21.46,-10.21,71.68,-0.70,1.87,0.47,1721228762428
-3.69,23.31,19.47,0.22,-1.01,-0.03,1721228762438
3.99,50.91,-9.58,2.32,-0.20,0.03,1721228762448
1.32,-78.45,-65.88,-1.12,2.76,-1.31,1721228762458
0.45,-49.84,15.57,1.95,-3.18,-0.40,1721228762468
-16.65,-24.54,78.45,-3.92,1.58,-0.28,1721228762478
15.85,78.45,64.51,-0.44,1.34,0.51,1721228762488
19.50,-35.95,3.75,2.40,1.49,-1.45,1721228762498
-4.32,-3.90,-5.32,1.51,1.39,-0.64,1721228762508
6.27,26.89,-31.09,-0.16,-1.69,0.25,1721228762518
0.14,-12.79,-7.06,-1.67,0.46,-0.80,1721228762528
8.96,2.16,78.45,-2.88,2.63,0.27,1721228762538
-2.09,3.32,-6.81,2.16,0.32,-0.27,1721228762548
-2.43,28.04,-49.43,3.88,0.52,0.35,1721228762558
-26.92,-78.45,-39.59,-2.51,1.72,0.15,1721228762568
-7.09,-39.57,-26.48,-4.37,0.15,-2.02,1721228762578
-13.28,78.45,78.45,-1.61,0.39,1.59,1721228762588
-21.67,-78.45,-3.05,0.92,2.72,1.35,1721228762598
0.62,1.50,0.72,3.92,-1.51,1.28,1721228762608
9.04,-2.56,-14.86,-3.26,1.00,-1.11,1721228762618
-3.72,-0.91,-15.39,0.05,0.24,0.02,1721228762628
0.15,-7.00,26.43,0.42,1.61,-0.31,1721228762638
-10.51,33.17,-26.49,1.75,-0.28,0.61,1721228762648
2.99,-28.86,-12.92,-1.27,1.31,0.16,1721228762658
-11.77,-40.33,71.78,-3.79,-0.14,-0.91,1721228762668
-18.53,45.76,35.33,-0.57,0.48,-0.71,1721228762678
8.34,-12.36,-20.18,4.37,2.28,0.04,1721228762688
6.07,-24.49,-42.59,0.76,-1.23,-0.81,1721228762698
-1.53,38.30,-15.04,-2.09,-2.32,-0.86,1721228762708
-42.77,44.52,32.86,-0.98,-1.59,1.19,1721228762718
-3.25,-17.23,-5.32,0.64,4.20,-1.21,1721228762728
0.57,-0.06,-2.90,0.30,-0.81,0.42,1721228762738
-0.13,-1.30,-2.81,-0.37,0.33,0.69,1721228762748
9.43,-3.83,-14.23,1.33,0.27,0.34,1721228762758
-3.44,-18.57,20.78,-1.42,0.36,-0.21,1721228762768
-17.74,35.77,15.02,2.89,-0.67,-1.10,1721228762778
2.62,-3.72,0.82,0.31,-0.26,-0.89,1721228762788
-1.97,-18.35,15.34,-1.53,0.88,-0.17,1721228762798
-4.64,-6.33,30.39,-1.00,-0.22,1.23,1721228762808
-9.42,21.75,14.55,0.52,1.97,0.60,1721228762818
-0.45,-18.98,-17.51,0.93,0.24,-0.75,1721228762828
4.59,6.47,-7.23,-0.99,0.02,-0.32,1721228762838
-2.34,1.74,59.06,-0.60,-0.94,-0.57,1721228762848
-20.23,28.14,3.40,1.96,-0.23,-0.44,1721228762858
-0.65,-3.10,-10.74,1.29,-0.46,-0.07,1721228762868
-6.57,-32.84,-47.41,-4.17,2.47,0.19,1721228762878
-33.10,-71.03,78.45,-1.94,-0.38,1.12,1721228762888
-4.88,78.45,78.45,0.00,0.41,1.47,1721228762898
-11.34,-78.45,-12.60,4.11,0.08,0.11,1721228762908
-3.28,-0.09,-28.89,-1.62,0.10,0.03,1721228762918
-9.72,-47.13,-8.91,-3.59,1.56,-0.19,1721228762928
-12.67,-19.25,24.72,-3.45,-0.93,0.26,1721228762938
-39.78,78.45,78.45,-0.93,0.45,-1.20,1721228762948
-11.33,5.71,28.96,3.45,0.71,0.20,1721228762958
16.26,-36.21,-10.33,3.34,-0.79,-0.35,1721228762968
-2.93,3.06,-10.04,-4.37,-0.38,2.24,1721228762978
9.73,19.75,65.47,-0.23,1.86,-0.18,1721228762988
-10.28,5.26,18.97,0.51,-1.60,0.19,1721228762998
-9.94,-10.33,17.33,2.48,3.33,-0.66,1721228763008
-21.71,23.99,-26.69,-1.09,-1.90,-0.02,1721228763018
-2.47,-20.34,25.47,-0.95,-0.03,0.41,1721228763028
7.10,-4.51,47.68,1.30,-1.66,0.77,1721228763038
4.19,47.50,-16.01,0.82,0.15,0.76,1721228763048
9.75,-78.45,30.40,-0.05,-0.84,-1.35,1721228763058
0.51,29.00,7.81,0.52,0.11,0.23,1721228763068
-4.84,10.25,-14.71,1.84,-0.95,0.11,1721228763078
-6.79,-14.32,-12.64,-0.46,1.20,0.05,1721228763088
-2.88,-18.61,39.47,-2.68,-0.12,0.00,1721228763098
5.84,63.59,36.45,1.32,-0.28,0.05,1721228763108
15.83,-57.63,14.04,0.92,-0.27,-2.11,1721228763118
-31.67,26.93,-2.85,-0.10,2.19,0.40,1721228763128
-3.22,-10.87,-13.32,-1.15,-1.14,0.51,1721228763138
-8.56,-10.16,30.83,-2.84,1.95,0.67,1721228763148
6.26,-29.63,67.18,0.91,-1.62,-0.36,1721228763158
16.11,77.47,-15.77,2.44,-1.01,-0.61,1721228763168
3.13,-31.92,-46.80,3.38,-0.79,-1.01,1721228763178
-8.31,60.25,-8.69,-1.93,0.03,0.40,1721228763188
-1.84,-36.16,64.75,-2.63,2.73,-0.23,1721228763198
1.40,-5.60,9.37,1.21,-0.78,0.16,1721228763208
6.50,-22.23,-12.06,2.02,-0.71,-0.11,1721228763218
3.78,-0.99,-6.26,-2.71,0.48,0.46,1721228763228
-2.81,14.30,48.13,0.32,-2.12,-0.18,1721228763238
24.05,29.54,0.18,0.37,0.32,-0.45,1721228763248
-17.31,-37.81,-1.40,0.08,-0.57,0.71,1721228763258
-6.27,12.00,30.62,-1.07,-0.64,0.53,1721228763268
4.50,26.03,34.44,-0.28,0.89,-0.31,1721228763278
2.33,1.52,2.32,1.51,-0.19,-0.13,1721228763288
-4.68,-3.71,-9.66,0.53,0.08,1.01,1721228763298
9.89,4.84,-29.66,0.45,-0.89,0.34,1721228763308
8.20,-21.45,11.88,-2.35,0.85,-0.31,1721228763318
4.72,19.01,46.85,1.27,-2.18,-0.11,1721228763328
-1.30,48.77,46.28,-0.18,-0.11,-0.08,1721228763338
2.40,1.06,-22.70,1.88,-0.09,-0.20,1721228763348
-4.26,-78.45,-34.60,1.57,1.68,-0.98,1721228763358
4.44,-15.10,-40.52,0.92,-2.23,-0.68,1721228763368
-20.82,7.74,-39.99,-4.37,1.72,-0.28,1721228763378
23.32,13.45,27.93,3.16,-1.29,0.57,1721228763388
-6.13,-17.68,-4.90,0.16,0.35,0.91,1721228763398
-2.43,7.96,19.14,3.21,-1.84,0.95,1721228763408
7.30,-37.62,-20.54,0.10,1.49,0.30,1721228763418
58.89,78.45,49.05,-2.37,-0.15,-1.29,1721228763428
27.64,78.45,66.19,-0.92,0.58,0.39,1721228763438
-6.92,-78.45,6.53,-1.23,1.66,-0.94,1721228763448
-1.76,-78.45,-29.97,3.14,-1.36,-1.16,1721228763458
-33.06,65.29,12.85,-2.10,-2.70,-1.34,1721228763468
17.72,-78.45,48.86,0.82,0.32,-3.08,1721228763478
-78.45,75.63,21.02,0.38,-0.51,-0.66,1721228763488
-18.61,29.46,17.48,1.20,-0.43,0.15,1721228763498
-3.91,66.35,-68.11,1.57,0.29,1.89,1721228763508
-4.34,-78.45,-34.10,-0.01,1.85,1.68,1721228763518
22.25,-59.68,-18.31,-1.35,-0.71,-1.87,1721228763528
-64.76,78.45,3.38,-2.20,-3.71,-1.96,1721228763538
-0.55,56.44,29.07,0.32,1.08,-0.77,1721228763548
-20.46,-78.45,-32.65,2.67,0.72,-0.55,1721228763558
3.33,-18.15,-30.02,-1.14,0.61,-1.48,1721228763568
-2.55,-5.80,78.45,-1.43,-1.91,-1.21,1721228763578
-5.96,78.45,78.45,0.74,-1.79,0.46,1721228763588
11.70,-25.60,-78.45,4.37,1.21,1.16,1721228763598
33.81,-32.55,-78.45,1.76,-1.40,-0.66,1721228763608
-26.66,-54.06,-58.23,-0.77,-4.37,-1.78,1721228763618
-60.37,-78.45,66.08,0.94,-0.01,-2.02,1721228763628
53.34,78.45,45.59,0.74,1.07,1.21,1721228763638
-10.48,-78.45,-60.79,4.37,-0.33,-0.24,1721228763648
65.38,78.45,-19.91,-3.11,-3.03,-0.36,1721228763658
10.38,-51.36,52.39,-0.73,1.33,0.59,1721228763668
-10.09,-73.41,-10.55,-0.89,0.69,0.30,1721228763678
10.46,16.07,-15.45,0.15,-1.14,-0.98,1721228763693
5.71,72.79,45.60,0.63,-1.35,-1.74,1721228763697
-7.52,44.66,-14.94,3.66,0.11,-0.42,1721228763707
-39.68,-78.45,-56.15,-2.79,1.14,0.58,1721228763717
-17.30,-78.45,61.63,-1.44,0.76,-0.44,1721228763727
78.45,78.45,71.45,-0.59,4.37,-0.91,1721228763737
0.61,9.78,-4.81,2.79,-0.96,0.78,1721228763747
1.59,5.13,-33.01,1.08,-0.28,0.13,1721228763757
4.21,0.16,14.12,-2.61,1.13,0.48,1721228763767
-3.69,-1.18,8.18,-2.76,1.75,-0.54,1721228763777
-5.71,-12.47,-12.80,3.45,-0.88,-1.07,1721228763787
-8.88,3.58,-35.13,1.11,-1.94,-0.58,1721228763797
-4.85,-39.50,78.45,-3.84,3.98,-0.77,1721228763807
13.17,78.45,66.98,2.88,-1.13,-0.16,1721228763817
11.24,-18.10,-70.89,4.37,-0.27,-0.41,1721228763827
0.15,-12.58,-50.05,-2.21,-0.94,0.69,1721228763837
33.80,-27.89,78.45,-1.75,0.34,0.46,1721228763847
-27.81,78.45,78.45,-0.81,0.61,-0.51,1721228763857
22.79,-1.14,-45.44,4.37,-1.60,-0.36,1721228763867
-1.76,-23.42,-78.45,-0.74,0.58,-0.52,1721228763877
-11.75,-56.09,-7.88,0.19,-4.37,1.32,1721228763887
-9.32,-69.86,78.45,-3.65,3.58,0.65,1721228763897
32.63,78.45,78.45,0.05,-3.87,0.24,1721228763907
16.89,-78.45,-23.98,3.26,2.32,-1.35,1721228763917
-6.44,-6.96,-46.07,0.76,-1.21,0.76,1721228763927
-8.31,-36.09,-35.61,-1.63,2.25,-0.39,1721228763937
-3.53,-10.91,4.74,-2.29,-2.30,0.61,1721228763947
-31.15,49.70,78.45,-1.18,-0.57,0.92,1721228763957
11.84,16.26,60.61,-0.41,1.30,-0.03,1721228763967
-2.10,65.34,14.19,1.67,-0.46,-0.43,1721228763977
-2.10,-49.25,-26.89,3.27,-0.30,-1.47,1721228763987
-36.98,-73.33,-78.45,-3.69,0.71,-1.35,1721228763997
-9.53,-41.87,25.71,-4.37,-1.96,0.11,1721228764007
7.85,57.81,38.46,0.92,-2.32,-1.18,1721228764017
16.58,73.11,-11.01,4.37,-1.65,0.84,1721228764027
-5.23,-14.60,-62.47,0.73,0.77,0.57,1721228764037
12.44,-32.11,-7.23,-4.37,-0.00,-0.16,1721228764047
-2.78,-19.34,-6.10,2.20,-0.58,0.53,1721228764057
-19.12,25.29,55.27,0.85,-1.21,0.09,1721228764067
-1.73,-5.40,-34.82,0.64,-0.81,0.46,1721228764077
11.10,-20.37,21.93,-1.34,0.85,0.97,1721228764087
-0.70,5.00,-3.55,-1.62,-4.03,3.14,1721228764097
-9.73,67.70,69.25,1.16,0.49,-0.92,1721228764107
1.68,0.73,-6.32,1.57,-0.77,0.08,1721228764117
-7.31,-22.53,-47.79,-0.69,1.47,-0.42,1721228764127
20.50,-63.65,31.00,-4.37,1.13,-3.80,1721228764137
4.70,78.45,78.45,-0.62,1.05,-0.88,1721228764147
15.48,-22.03,-63.25,4.37,1.86,-0.29,1721228764157
-31.50,-78.45,-78.45,1.73,1.14,2.20,1721228764167
-9.84,-10.25,24.77,-4.37,-4.37,-0.46,1721228764177
-36.16,-23.66,78.45,-1.94,-3.35,0.93,1721228764187
-27.37,22.68,26.63,-1.23,3.50,2.24,1721228764197
15.34,-30.11,-8.47,1.35,-0.71,0.95,1721228764207
55.97,78.45,71.48,-1.35,0.38,-0.88,1721228764217
16.25,78.45,38.17,1.09,0.33,0.72,1721228764227
2.02,-78.45,-9.26,4.35,2.99,0.48,1721228764237
22.78,-61.71,-53.32,-0.59,-1.96,-1.76,1721228764247
3.43,-78.45,78.45,-1.25,0.12,-4.37,1721228764257
-78.45,78.45,78.45,-0.43,4.37,-0.46,1721228764267
-72.47,-62.15,-68.40,4.37,3.19,3.73,1721228764277
23.95,-66.63,-78.45,4.25,-4.37,1.60,1721228764287
8.12,-5.69,-46.29,-1.53,3.11,-0.21,1721228764297
-78.45,52.49,78.45,1.01,-3.26,1.91,1721228764307
20.31,10.16,71.40,-1.18,4.16,2.65,1721228764317
40.17,-49.57,4.90,2.02,-1.05,0.18,1721228764327
-10.25,12.65,5.61,2.15,-2.88,-0.22,1721228764337
22.06,-19.48,-19.82,2.05,3.18,-0.81,1721228764347
-10.36,-21.11,-50.00,-1.93,-0.06,-1.57,1721228764357
-12.04,-15.36,-6.48,-4.37,-1.27,-2.55,1721228764367
32.23,78.45,78.45,0.69,-4.37,-0.79,1721228764377
10.59,47.41,-10.14,4.37,1.78,0.87,1721228764387
-21.36,-64.26,-78.45,0.78,1.56,3.60,1721228764397
36.53,-40.83,-47.62,-1.86,-1.31,-1.88,1721228764407
8.83,-19.45,-29.31,1.19,-2.74,-0.98,1721228764417
11.87,-78.45,34.09,-3.69,0.92,-2.13,1721228764427
-28.03,-10.26,78.45,2.15,-4.37,-0.44,1721228764437
-17.60,78.45,49.97,3.94,1.08,-0.73,1721228764447
0.40,-11.89,-55.09,4.37,0.32,0.06,1721228764457
3.56,-11.41,-49.19,-0.32,-0.54,0.10,1721228764467
-10.52,-42.10,-30.95,-3.82,-1.12,-0.66,1721228764477
-35.76,-8.54,78.45,-0.76,0.93,0.83,1721228764487
-4.01,31.12,19.76,0.54,3.04,0.56,1721228764497
-2.17,-55.27,-8.15,2.34,-0.70,1.41,1721228764507
-17.54,17.77,3.15,-2.27,-0.99,0.27,1721228764517
-3.62,11.94,24.07,-1.50,0.48,-1.81,1721228764527
-14.86,-21.85,26.17,0.05,-1.25,-0.53,1721228764537
-1.74,24.99,46.86,0.36,0.84,-0.02,1721228764547
-0.19,78.45,-20.44,2.90,-0.32,0.46,1721228764557
14.00,-16.38,-32.93,-0.68,0.56,-0.13,1721228764567
-2.86,-43.31,9.65,-3.36,-2.61,-0.49,1721228764577
-32.25,-1.95,78.45,0.41,-0.56,0.99,1721228764587
13.57,12.45,47.42,0.54,0.80,0.15,1721228764597
-0.61,-6.59,-19.80,1.29,-0.46,-0.52,1721228764607
-9.21,0.07,-28.06,-0.98,-0.04,0.81,1721228764617
-1.66,-6.23,62.70,-1.66,2.42,0.41,1721228764627
9.36,10.86,59.34,-0.83,1.81,0.32,1721228764637
17.94,-61.58,-5.66,0.94,0.31,-0.43,1721228764647
0.64,-2.22,0.11,-1.90,1.61,-0.36,1721228764657
-37.00,34.88,4.15,3.26,-0.49,-0.25,1721228764667
-9.08,-78.45,-3.16,-0.88,1.12,-0.43,1721228764677
-0.16,-23.52,21.86,-1.27,-1.44,-1.25,1721228764687
-1.08,10.09,60.10,1.21,-0.63,0.23,1721228764697
-18.79,33.50,0.59,1.30,0.32,1.21,1721228764707
-3.21,-32.08,-6.58,2.38,-0.08,0.91,1721228764717
-19.58,25.91,5.30,-3.52,0.05,2.03,1721228764727
21.95,78.45,-2.43,0.27,-1.40,-1.51,1721228764737
6.34,-9.03,-3.00,2.15,0.16,-1.23,1721228764747
-4.12,-7.96,-21.20,1.13,-1.75,-0.25,1721228764757
-1.18,-48.88,62.10,-4.37,4.37,0.82,1721228764767
12.49,9.09,44.91,-0.11,-0.38,0.14,1721228764777
10.26,-21.85,-9.20,4.37,-0.45,0.72,1721228764787
-26.78,-62.31,-24.72,-2.87,0.17,0.27,1721228764797
-5.20,-39.16,78.45,-1.39,0.74,0.55,1721228764807
2.50,30.41,38.72,-0.77,0.74,-0.23,1721228764817
-2.14,4.58,-18.27,4.37,-0.62,-0.25,1721228764827
-6.79,-13.01,-52.84,2.81,-1.29,0.06,1721228764837
6.64,1.14,-29.81,-4.37,1.17,0.78,1721228764847
22.22,-59.07,78.45,-0.15,1.64,0.81,1721228764857
-0.27,2.28,78.45,2.71,-0.31,-0.21,1721228764867
24.25,-42.32,-35.44,4.37,0.06,-1.08,1721228764877
38.12,78.45,-55.89,-4.12,-0.19,0.01,1721228764887
-7.64,-45.06,18.09,-3.44,3.05,-0.29,1721228764897
-11.86,-13.18,53.95,-0.28,-2.04,-0.84,1721228764907
-11.14,41.85,61.31,0.22,0.35,-0.27,1721228764917
-12.50,9.27,14.92,2.85,0.20,0.33,1721228764927
-18.26,71.83,-46.21,1.54,-0.82,0.64,1721228764937
5.68,-13.06,-43.94,-0.08,-0.29,0.83,1721228764947
43.53,-53.90,-31.42,-4.37,2.35,-0.16,1721228764957
-21.21,-78.45,78.45,1.71,-1.40,-1.53,1721228764967
-76.29,78.45,78.45,2.58,0.21,1.35,1721228764977
28.71,-21.81,-26.72,4.37,2.10,-2.38,1721228764987
-51.56,-78.45,-78.45,4.37,0.98,-1.63,1721228764997
-30.38,26.83,-16.66,-0.08,-0.13,-0.19,1721228765007
12.69,-0.45,-9.36,-0.53,4.37,-2.72,1721228765017
24.59,70.99,78.45,-0.24,-2.36,-1.23,1721228765027
-24.72,17.45,40.73,0.23,0.26,-1.62,1721228765037
0.19,22.36,-28.00,4.37,-3.37,1.72,1721228765047
-14.08,-49.67,-78.45,4.37,1.26,2.99,1721228765057
3.12,-40.10,-78.45,-1.62,-0.88,0.26,1721228765067
6.80,60.40,-36.62,-4.37,1.58,-0.19,1721228765077
-28.50,78.45,78.45,-1.72,-3.32,0.04,1721228765087
0.63,59.65,74.48,2.53,0.24,0.95,1721228765097
-4.90,-13.82,-34.77,1.44,3.30,2.06,1721228765107
13.74,-78.45,-38.33,-0.90,-3.56,-1.14,1721228765117
-3.80,38.48,-24.42,-0.56,0.37,-1.90,1721228765127
-23.70,9.79,-21.22,-3.65,0.39,-0.02,1721228765137
5.38,-48.50,-28.18,-4.37,0.95,-3.08,1721228765147
38.21,29.18,78.45,-0.73,4.37,-1.66,1721228765157
22.60,78.45,12.04,4.07,-1.73,1.28,1721228765167
-31.46,7.80,-40.68,3.84,4.08,3.26,1721228765177
20.69,-17.38,-78.45,2.53,-1.45,2.04,1721228765187
12.82,18.87,23.29,-0.11,-4.37,-0.39,1721228765197
37.39,-2.35,78.45,-4.37,0.64,-2.60,1721228765207
78.45,78.45,30.34,1.74,-4.37,-3.47,1721228765217
23.07,-25.71,-9.63,4.37,2.67,-3.41,1721228765227
-78.45,-78.45,-78.45,4.37,2.38,-0.03,1721228765237
-26.90,22.41,-1.49,0.74,-4.37,-0.62,1721228765247
35.41,-64.20,13.14,-4.37,4.37,-0.24,1721228765257
-33.63,51.99,47.88,0.68,-4.36,3.06,1721228765267
-1.19,40.28,78.45,1.05,1.75,-0.25,1721228765277
6.28,78.45,-25.22,2.37,-2.26,0.77,1721228765287
12.46,-78.45,-17.05,1.99,2.94,0.68,1721228765297
-0.33,-77.28,-51.02,2.34,0.31,-1.47,1721228765307
32.86,28.01,-29.60,-2.89,-2.10,-2.50,1721228765317
-50.02,-78.45,0.67,-2.86,1.55,-1.25,1721228765327
31.23,34.57,69.66,1.92,-0.11,-0.61,1721228765337
7.16,59.61,-31.14,0.89,-1.62,0.49,1721228765347
-27.90,-78.45,78.45,-4.37,4.37,0.38,1721228765357
-37.58,64.99,78.45,0.38,-2.97,-2.38,1721228765367
-15.56,22.11,-78.45,4.37,0.58,0.41,1721228765377
9.33,-56.97,-78.45,4.37,-0.64,1.37,1721228765387
-1.40,-14.57,-20.74,-0.06,1.30,0.40,1721228765397
11.74,61.69,-26.03,0.49,4.37,-1.10,1721228765407
13.82,-14.16,52.68,-0.76,0.07,-0.71,1721228765417
37.51,1.72,78.45,1.86,1.85,-2.05,1721228765427
-52.10,78.45,78.45,2.42,-2.79,0.79,1721228765437
2.84,46.33,-35.47,4.37,1.09,3.28,1721228765447
-4.92,-78.45,-53.71,0.45,-1.71,2.75,1721228765457
34.14,-78.45,-56.49,-0.47,0.81,-2.85,1721228765467
-5.15,-4.44,78.45,-1.72,3.50,-2.38,1721228765477
-5.63,-4.39,78.45,0.36,-2.15,-1.30,1721228765487
-4.90,-47.54,-8.39,2.97,0.01,-1.87,1721228765497
-14.40,19.55,38.57,-2.12,1.14,0.94,1721228765507
-4.55,78.45,37.36,0.53,3.95,1.54,1721228765517
3.02,-78.45,32.67,1.25,1.89,1.99,1721228765527
23.16,-78.45,-58.75,0.82,-4.37,-1.50,1721228765537
6.03,-29.16,-18.64,-4.37,4.37,-1.15,1721228765547
-35.54,54.83,78.45,0.03,-4.37,-0.95,1721228765557
-49.28,68.24,24.33,1.36,1.74,-0.62,1721228765567
-12.76,-69.38,-24.03,4.37,0.18,0.90,1721228765577
7.00,-67.74,-11.25,-4.37,-0.22,1.00,1721228765587
-20.44,22.80,49.40,1.42,-0.90,2.20,1721228765597
0.68,78.45,26.05,3.64,0.06,1.99,1721228765607
18.12,14.63,-28.61,1.97,-0.70,1.29,1721228765617
6.14,-40.09,-35.67,-4.37,0.44,-0.33,1721228765627
44.76,-78.45,78.45,-0.15,1.18,-2.08,1721228765637
9.04,-17.09,-54.43,-4.37,0.31,-4.37,1721228765647
-5.37,-29.42,-23.05,2.12,-0.78,-3.21,1721228765657
-19.38,-5.44,-1.67,-1.28,1.24,0.12,1721228765667
-28.49,35.86,-45.30,2.00,-0.65,1.73,1721228765677
-1.69,15.27,-30.52,1.86,0.16,1.70,1721228765687
24.99,-35.58,7.73,-2.50,2.16,0.13,1721228765702
8.97,4.62,43.34,-1.19,0.51,-0.13,1721228765706
9.52,47.42,25.44,-0.19,-0.47,-1.61,1721228765716
0.35,8.43,-5.93,4.28,-1.40,-1.01,1721228765726
-10.46,-10.10,-34.14,-1.49,-0.19,-0.32,1721228765736
-5.94,-18.79,-15.54,-4.37,1.45,0.24,1721228765746
-15.33,18.80,73.09,-0.12,-0.78,-0.47,1721228765756
1.53,11.27,78.45,0.46,0.03,0.26,1721228765766
-3.97,21.63,1.26,0.39,0.42,0.06,1721228765776
-11.55,10.94,-18.18,3.85,-0.17,0.28,1721228765786
4.39,-38.71,-54.16,2.44,-1.71,0.17,1721228765796
50.37,78.45,-43.15,-3.98,0.19,0.88,1721228765806
-22.63,34.56,19.28,-4.37,2.88,0.53,1721228765816
2.07,-6.47,0.90,2.13,-2.40,-1.85,1721228765826
-4.36,-22.47,-11.76,0.56,-0.07,-1.67,1721228765836
-30.00,35.94,36.39,-1.08,-1.05,-1.04,1721228765846
-6.40,1.73,32.43,2.25,-0.33,0.10,1721228765856
-29.86,-26.65,-28.49,-0.93,0.33,1.86,1721228765866
19.46,-35.90,77.81,-3.63,1.81,0.75,1721228765876
13.12,63.94,78.45,-0.61,1.97,0.25,1721228765886
2.72,47.25,14.56,3.71,-2.12,0.53,1721228765896
0.07,11.93,-23.56,1.15,0.45,-0.07,1721228765906
-8.54,-78.45,-35.35,-1.88,1.47,-0.21,1721228765916
-7.87,-78.45,-26.66,-3.34,-1.65,-1.11,1721228765926
-19.95,51.23,78.45,1.91,-3.57,-1.04,1721228765936
-14.55,40.09,15.43,3.56,0.17,0.12,1721228765946
-30.18,-29.15,-78.45,2.27,0.03,2.25,1721228765956
-0.14,-78.45,-78.45,-4.37,0.45,1.52,1721228765966
43.01,-62.43,78.45,-4.37,4.37,-0.67,1721228765976
-20.02,78.45,65.16,1.36,-2.09,0.14,1721228765986
16.51,-39.94,-29.65,4.37,1.27,-0.42,1721228765996
2.48,-78.45,-78.45,-1.55,0.35,0.19,1721228766006
2.49,-78.45,27.44,-1.69,4.37,-1.50,1721228766016
-37.99,2.34,78.45,-3.91,-3.49,-4.37,1721228766026
-78.45,37.99,-63.02,1.16,3.56,2.32,1721228766036
32.41,-40.41,-26.09,0.02,-1.29,1.95,1721228766046
10.79,-49.02,-59.75,-4.37,3.01,-1.13,1721228766056
18.47,78.45,78.45,-0.81,-0.11,-0.97,1721228766066
-2.10,-17.00,-33.81,4.37,4.37,2.71,1721228766076
29.48,-57.35,-78.45,0.14,-1.43,1.92,1721228766086
21.11,-78.45,-48.02,-3.47,4.37,-1.60,1721228766096
-39.78,-78.45,78.45,-4.12,2.16,-2.29,1721228766106
-71.51,-47.32,21.34,-0.12,-3.76,-4.37,1721228766116
8.79,-34.43,-10.92,3.06,4.37,-2.38,1721228766126
-17.52,-9.65,-63.71,2.10,-2.79,1.02,1721228766136
-22.37,-44.07,-30.44,-4.37,3.15,0.58,1721228766146
61.08,78.45,66.45,0.28,-2.33,1.58,1721228766156
6.31,-26.03,-11.44,3.90,2.03,2.43,1721228766166
32.09,-32.93,-65.69,0.95,-2.21,-0.34,1721228766176
32.44,-36.79,78.45,-2.05,0.22,-1.62,1721228766186
-52.81,78.45,78.45,-1.06,4.37,-0.63,1721228766196
13.28,-30.69,-37.92,2.84,1.54,-1.57,1721228766206
-4.43,-16.03,-32.65,0.43,-1.79,-1.79,1721228766216
-3.89,-12.83,-47.55,-2.04,-0.64,-1.75,1721228766226
-40.07,-44.49,66.75,-2.32,0.85,0.24,1721228766236
4.61,11.25,46.01,-0.69,0.94,0.60,1721228766246
7.46,3.00,21.97,-0.04,-0.88,1.70,1721228766256
-4.48,61.55,18.20,0.82,1.27,0.77,1721228766266
6.37,-9.53,17.14,0.19,0.78,-0.63,1721228766276
7.60,-24.68,-19.55,3.14,-0.70,-0.49,1721228766286
-6.34,-8.29,-40.29,-1.81,-0.18,-0.91,1721228766296
10.74,6.90,62.57,-0.48,1.52,-0.15,1721228766306
-0.25,-4.70,62.10,0.45,-1.16,0.49,1721228766316
11.08,-48.48,-10.16,3.39,-0.50,-0.68,1721228766326
5.54,1.47,-18.50,0.37,0.37,0.91,1721228766336
14.35,-62.77,29.32,-3.69,2.60,-1.38,1721228766346
-33.29,69.73,77.71,1.50,-1.68,1.26,1721228766356
12.36,-13.35,10.85,4.37,0.41,-0.16,1721228766366
-7.96,13.44,-26.78,-1.76,0.21,0.45,1721228766376
7.74,-6.97,15.60,-1.79,3.01,0.46,1721228766386
-13.83,-8.86,44.89,-0.26,-1.12,-0.28,1721228766396
-19.01,39.90,-1.92,3.94,-1.26,-1.03,1721228766406
0.24,-15.48,-11.16,1.87,-1.84,-0.22,1721228766416
15.56,61.17,-22.43,-3.46,0.29,0.15,1721228766426
-23.15,-6.01,28.47,-3.07,0.75,-0.72,1721228766436
3.76,-6.24,29.20,2.62,-1.34,-1.21,1721228766446
1.51,-38.15,42.88,-1.53,0.34,-2.08,1721228766456
-4.50,16.14,35.81,1.23,-0.07,-0.45,1721228766466
-11.86,12.74,3.62,0.96,0.01,-0.04,1721228766476
-5.93,50.26,-12.04,0.44,0.70,-0.11,1721228766486
0.26,-8.41,-2.43,-0.29,-0.27,-0.20,1721228766496
6.17,-42.94,-4.06,-0.41,0.63,0.73,1721228766506
3.61,-23.88,30.07,-0.44,-0.79,0.44,1721228766516
-9.81,23.00,26.94,-0.44,1.31,0.59,1721228766526
0.35,4.62,-17.99,-0.35,-1.24,-0.68,1721228766536
0.43,78.45,14.07,0.43,-0.01,-1.13,1721228766546
11.94,-16.86,-2.08,-3.17,1.72,-0.84,1721228766556
-15.55,-78.45,78.45,-0.13,-1.32,0.14,1721228766566
-4.07,78.45,78.45,2.04,1.82,0.96,1721228766576
-0.02,-54.53,-64.62,4.37,0.93,1.06,1721228766586
18.42,30.04,-78.45,0.78,-4.37,-0.55,1721228766596
0.23,18.30,-17.19,-0.13,1.08,-0.10,1721228766606
-31.77,-22.96,20.89,-1.07,4.37,-1.55,1721228766616
-13.89,65.72,78.45,-3.66,0.50,0.73,1721228766626
-27.88,-78.45,-3.83,4.37,0.08,-0.61,1721228766636
-10.04,-58.85,-31.45,1.56,-0.45,2.90,1721228766646
2.56,-58.53,-19.49,-4.37,4.37,0.71,1721228766656
26.82,78.45,-21.42,0.12,0.13,-0.22,1721228766666
15.72,-17.33,78.45,-1.08,-0.59,-0.01,1721228766676
-51.08,67.83,9.32,-0.77,0.54,0.66,1721228766686
19.63,-35.82,17.48,0.11,-0.71,-1.03,1721228766696
4.32,0.85,13.54,0.17,2.90,0.27,1721228766706
18.70,-19.80,-34.08,1.37,-3.95,0.14,1721228766716
-18.74,-34.17,-0.50,-3.30,-0.60,-0.22,1721228766726
7.43,-29.87,58.94,1.96,2.95,-0.71,1721228766736
-7.77,-3.01,77.17,-1.97,3.75,-0.75,1721228766746
18.48,34.08,-35.72,2.98,-0.66,1.13,1721228766756
6.02,27.39,-16.86,-0.87,0.00,0.71,1721228766766
7.45,8.70,5.32,-1.23,0.14,0.09,1721228766776
2.51,7.39,-17.42,1.15,-0.64,0.10,1721228766786
-18.84,-78.45,5.72,0.29,-2.09,-0.77,1721228766796
-25.95,35.40,23.35,-0.51,-0.86,0.37,1721228766806
-2.37,-5.32,14.77,1.39,-1.36,0.03,1721228766816
-36.74,32.93,-3.09,-0.22,0.27,2.63,1721228766826
10.54,23.84,36.32,-0.89,0.41,1.25,1721228766836
2.56,51.17,1.92,1.91,-0.77,0.57,1721228766846
8.74,-72.80,-28.16,3.68,-0.59,-0.29,1721228766856
-10.30,-78.45,-78.45,-0.40,0.46,-0.80,1721228766866
19.85,-64.06,45.09,-4.00,2.85,-1.40,1721228766876
-60.70,71.57,78.45,2.37,-2.75,-0.82,1721228766886
17.30,-55.06,-46.77,4.37,-0.48,-0.64,1721228766896
-37.89,-51.90,-78.45,2.77,1.62,0.64,1721228766906
-19.38,-10.57,-12.99,0.08,-3.56,2.08,1721228766916
-78.45,78.45,15.80,1.94,0.76,-1.62,1721228766926
-6.33,-18.68,-32.90,4.37,-0.50,-1.36,1721228766936
-5.29,-37.34,-78.45,2.83,1.00,1.03,1721228766946
2.26,-26.67,-45.34,-4.37,1.56,0.26,1721228766956
37.69,-33.26,47.71,-1.88,4.37,-0.86,1721228766966
17.08,45.74,-0.04,0.64,-4.37,0.22,1721228766976
10.44,44.29,17.10,0.12,1.08,0.70,1721228766986
0.43,20.03,17.96,0.14,-0.43,1.20,1721228766996
13.77,-54.64,-13.65,-0.03,1.00,-0.18,1721228767006
6.27,-13.01,-21.46,-1.87,-0.13,-0.62,1721228767016
6.35,1.68,60.96,0.03,-0.79,-1.01,1721228767026
1.92,35.29,-9.31,-0.55,-0.80,-1.05,1721228767036
-8.93,3.72,2.92,2.51,-0.87,-1.03,1721228767046
-1.53,18.83,6.14,-1.84,-0.43,-0.01,1721228767056
-16.20,-10.13,31.21,-0.96,-0.24,0.80,1721228767066
-5.11,-10.21,-7.63,1.40,0.13,1.12,1721228767076
2.06,-13.79,-17.36,-0.16,-0.61,-0.50,1721228767086
2.92,-3.82,3.39,-1.57,0.48,-1.27,1721228767096
0.32,10.84,-30.88,1.57,-0.57,-0.66,1721228767106
-10.85,14.37,-9.99,1.80,-0.21,0.18,1721228767116
2.89,3.70,-4.33,-0.86,-0.49,0.61,1721228767126
13.88,-32.46,-5.38,-0.77,1.15,-0.86,1721228767136
-6.48,-17.98,39.18,2.39,-1.94,-0.39,1721228767146
15.33,4.73,-78.45,2.99,-0.65,0.96,1721228767156
2.96,5.96,-33.99,-0.68,-0.63,0.43,1721228767166
4.87,-9.29,2.50,-2.64,1.06,-0.59,1721228767176
21.14,60.47,61.83,0.32,-1.76,0.19,1721228767186
4.63,-26.66,9.11,2.12,-1.38,-0.90,1721228767196
3.23,0.40,-5.62,-1.37,0.35,-0.23,1721228767206
-12.68,14.26,14.78,-0.23,0.73,-0.49,1721228767216
2.64,11.74,-16.64,1.59,-0.07,0.33,1721228767226
-2.18,-26.14,-15.00,0.76,-1.33,0.25,1721228767236
-1.02,1.21,5.41,-0.80,2.06,-0.25,1721228767246
9.01,19.24,-9.84,1.31,-0.62,-0.10,1721228767256
-11.48,-76.40,-9.03,-1.84,1.51,-0.31,1721228767266
-36.31,-78.45,78.45,0.26,-0.57,-0.81,1721228767276
-9.56,39.42,63.40,1.08,-0.08,0.29,1721228767286
-7.98,8.34,-12.41,1.58,0.17,0.46,1721228767296
4.93,-3.33,-28.71,-1.12,1.06,1.28,1721228767306
38.72,-78.45,52.26,-2.34,3.51,-0.53,1721228767316
65.41,78.45,59.26,0.85,0.02,-1.77,1721228767326
2.46,-4.63,-7.34,0.24,-0.58,-0.40,1721228767336
6.13,-2.59,-21.12,-0.87,1.69,-1.60,1721228767346
-9.36,-19.37,1.08,-0.80,0.04,-1.11,1721228767356
-2.27,10.11,12.73,0.66,-0.52,-0.57,1721228767366
-26.86,-43.31,1.23,0.20,0.93,0.08,1721228767376
-29.30,37.52,37.16,1.52,-0.18,1.05,1721228767386
1.20,1.87,10.47,-0.59,0.43,0.21,1721228767396
5.37,-26.24,15.46,-0.32,0.90,0.16,1721228767406
-9.87,41.08,5.40,1.17,-0.98,0.33,1721228767416
8.02,-13.57,-13.04,1.54,-0.68,0.14,1721228767426
-0.03,-31.76,-14.64,-2.70,1.41,-0.45,1721228767436
0.02,-7.32,76.73,1.28,-0.70,-0.64,1721228767446
-4.29,78.45,41.72,1.82,-1.08,0.56,1721228767456
-11.01,-75.19,-2.92,2.38,0.75,1.11,1721228767466
-37.15,-78.45,-38.44,-3.02,1.15,-0.12,1721228767476
10.38,19.37,68.64,-1.21,1.04,0.25,1721228767486
25.57,78.45,1.07,2.30,-0.43,0.25,1721228767496
0.47,-78.45,6.69,1.68,0.31,0.25,1721228767506
-47.69,-78.45,-8.86,-4.37,1.67,0.55,1721228767516
-14.66,69.11,78.45,1.38,-3.29,-0.25,1721228767526
33.26,78.45,-78.45,3.27,-1.49,0.57,1721228767536
2.25,-62.81,-45.18,4.37,-1.46,1.14,1721228767546
39.47,-53.76,-29.01,-4.37,-2.93,-1.18,1721228767556
31.58,78.45,78.45,-3.31,2.34,-0.04,1721228767566
-32.70,8.76,68.46,0.95,-1.12,0.71,1721228767576
28.00,-78.45,-27.96,4.37,-0.40,-0.15,1721228767586
-0.14,-65.24,-69.51,-3.28,-1.81,-1.21,1721228767596
26.15,78.45,78.45,-4.37,4.20,-0.63,1721228767606
-0.81,70.46,21.52,4.37,-1.63,1.32,1721228767616
2.99,-78.45,-43.74,3.71,3.21,1.65,1721228767626
5.38,-32.83,4.50,-4.37,0.60,0.24,1721228767636
20.51,78.45,78.45,-0.48,-1.68,-1.86,1721228767646
