AccX,AccY,AccZ,GyrX,GyrY,GyrZ,Time
-0.90,0.77,10.47,-0.02,-0.10,0.01,1721228590128
-1.13,0.68,10.28,-0.00,-0.13,0.02,1721228590133
-0.44,1.12,10.28,-0.01,-0.11,0.01,1721228590143
-0.38,1.06,9.76,-0.00,-0.11,-0.04,1721228590153
-0.90,0.49,10.22,-0.01,-0.11,-0.07,1721228590163
-1.14,0.54,10.32,-0.00,-0.13,-0.05,1721228590173
-1.04,1.06,10.33,-0.02,-0.10,-0.01,1721228590183
-0.79,0.92,10.39,-0.00,-0.08,0.00,1721228590193
-0.50,0.97,10.14,0.00,-0.06,-0.06,1721228590203
-0.67,0.51,10.18,0.00,-0.09,-0.08,1721228590213
-1.28,1.29,9.96,-0.01,-0.08,-0.08,1721228590223
-1.60,0.41,10.13,0.01,-0.07,-0.05,1721228590233
-0.88,1.03,10.90,-0.01,-0.04,-0.01,1721228590243
-1.26,1.87,10.73,-0.01,-0.03,0.02,1721228590253
-0.31,2.80,10.50,-0.02,-0.06,-0.00,1721228590263
-0.29,1.47,10.06,0.00,-0.01,-0.02,1721228590273
-0.57,1.36,9.71,-0.02,-0.13,-0.04,1721228590283
-0.95,2.09,10.30,-0.02,0.01,-0.07,1721228590293
-0.51,0.81,9.63,-0.01,-0.03,-0.04,1721228590303
-0.49,1.12,10.29,0.00,-0.00,-0.01,1721228590313
-0.42,1.35,10.22,-0.01,-0.01,-0.01,1721228590323
-0.22,1.18,10.50,-0.00,0.00,-0.04,1721228590333
-0.71,1.19,10.27,0.01,-0.02,-0.07,1721228590343
-1.18,1.22,9.94,0.01,0.00,-0.07,1721228590353
-1.40,1.18,10.44,0.01,-0.00,-0.06,1721228590363
-1.44,0.90,10.04,0.00,0.01,-0.04,1721228590373
-1.30,1.18,10.11,0.01,0.02,-0.04,1721228590383
-1.47,1.25,10.09,-0.00,0.02,-0.06,1721228590393
-1.72,1.12,10.29,0.00,-0.00,-0.07,1721228590403
-2.04,1.08,10.28,0.01,-0.00,-0.05,1721228590413
-1.96,1.26,9.96,0.01,0.01,-0.02,1721228590423
-1.89,1.39,9.94,-0.00,-0.01,-0.02,1721228590433
-1.80,1.14,9.84,0.01,-0.02,-0.04,1721228590443
-2.08,1.19,9.95,0.01,-0.03,-0.04,1721228590453
-1.99,1.32,10.19,-0.00,-0.03,-0.04,1721228590463
-2.27,1.16,10.16,-0.01,-0.05,-0.04,1721228590473
-2.49,1.23,10.16,0.01,-0.06,-0.06,1721228590483
-2.55,1.15,9.71,0.00,-0.06,-0.04,1721228590493
-2.64,1.44,10.00,-0.01,-0.08,-0.02,1721228590503
-2.71,1.21,9.97,-0.00,-0.10,-0.03,1721228590513
-2.25,1.09,9.93,0.00,-0.09,-0.01,1721228590523
-2.02,1.24,10.41,-0.01,-0.11,0.01,1721228590533
-1.74,0.83,10.41,-0.01,-0.13,0.00,1721228590543
-1.80,1.02,10.46,0.00,-0.14,-0.03,1721228590553
-2.07,1.35,9.49,-0.01,-0.18,-0.06,1721228590563
-2.30,1.18,10.21,-0.01,-0.18,-0.05,1721228590573
-2.46,0.66,10.27,-0.01,-0.19,-0.01,1721228590583
-1.77,1.28,10.05,-0.00,-0.19,0.02,1721228590593
-0.84,1.51,9.25,-0.02,-0.19,0.00,1721228590603
-1.31,1.39,9.51,-0.04,-0.24,-0.02,1721228590613
-1.45,0.87,11.37,0.03,-0.22,-0.03,1721228590623
-1.50,-0.63,10.41,0.00,-0.23,-0.02,1721228590633
-1.74,0.19,9.41,-0.01,-0.26,0.03,1721228590643
-1.13,0.03,11.71,-0.04,-0.08,0.03,1721228590653
-0.85,-0.06,10.48,0.05,-0.33,-0.00,1721228590663
0.52,1.03,8.58,-0.06,-0.06,-0.03,1721228590673
-1.71,1.70,9.90,-0.02,-0.43,-0.02,1721228590683
-1.62,0.28,11.28,-0.02,-0.18,-0.06,1721228590693
-0.91,1.05,9.84,0.01,-0.23,-0.07,1721228590703
-1.79,1.50,9.60,-0.03,-0.26,-0.01,1721228590713
-1.25,1.69,10.35,-0.01,-0.23,0.04,1721228590723
-0.36,1.11,10.82,0.03,-0.20,0.03,1721228590733
-0.51,1.01,7.92,-0.02,-0.28,-0.02,1721228590743
-1.15,1.33,9.16,-0.05,-0.25,-0.04,1721228590753
-0.88,0.61,11.97,-0.00,-0.22,-0.01,1721228590763
0.18,0.88,11.99,0.02,-0.39,-0.01,1721228590773
2.71,1.86,7.38,-0.05,-0.30,-0.08,1721228590783
-1.96,-1.19,11.43,0.02,-0.40,-0.02,1721228590793
-4.25,1.29,7.52,-0.05,-0.21,-0.05,1721228590803
-0.79,1.75,11.78,-0.01,-0.25,0.04,1721228590813
0.70,0.27,8.54,-0.06,-0.24,0.08,1721228590823
-0.13,2.09,12.31,-0.06,-0.30,0.03,1721228590833
0.32,-0.13,8.93,-0.01,-0.33,-0.04,1721228590843
-0.48,0.64,10.59,-0.02,-0.26,-0.07,1721228590853
-1.55,0.19,10.37,-0.00,-0.29,0.03,1721228590863
-0.10,0.54,10.45,-0.03,-0.30,0.13,1721228590873
0.49,0.18,10.37,-0.01,-0.20,0.07,1721228590883
1.03,1.13,9.49,-0.03,-0.25,-0.08,1721228590893
1.60,1.35,12.33,-0.03,-0.16,-0.09,1721228590903
0.99,0.79,10.88,-0.01,-0.25,-0.01,1721228590913
-0.16,-0.41,10.70,-0.04,-0.18,-0.08,1721228590923
0.23,0.46,9.75,0.03,-0.30,-0.09,1721228590933
-0.48,0.87,9.56,-0.00,-0.23,0.01,1721228590943
1.52,0.70,10.20,-0.04,-0.06,0.10,1721228590953
3.61,1.10,11.43,-0.06,-0.12,0.03,1721228590963
2.66,1.91,10.64,-0.01,-0.29,-0.20,1721228590973
0.49,0.33,9.77,0.01,-0.22,-0.27,1721228590983
-1.64,0.17,9.92,-0.00,-0.18,-0.02,1721228590993
0.32,0.51,10.36,0.01,-0.04,0.19,1721228591003
2.40,1.36,10.22,-0.01,-0.04,0.07,1721228591013
3.15,0.68,10.81,-0.03,-0.09,-0.12,1721228591023
1.62,0.64,11.66,-0.01,-0.14,-0.11,1721228591033
0.80,0.28,10.57,0.00,-0.01,-0.02,1721228591043
1.22,0.19,10.60,0.01,-0.07,0.00,1721228591053
1.64,0.40,10.49,-0.00,0.02,0.02,1721228591063
2.07,0.60,9.73,0.01,-0.00,0.06,1721228591073
2.96,0.80,10.50,0.01,0.07,0.02,1721228591083
2.80,0.84,10.81,0.00,0.07,-0.14,1721228591093
1.10,1.85,11.36,-0.00,-0.04,-0.23,1721228591103
-0.09,0.44,10.10,0.02,0.21,-0.17,1721228591113
-1.56,-2.73,11.25,-0.18,0.16,-0.13,1721228591123
-4.62,1.37,14.62,0.10,-0.02,-0.11,1721228591133
-4.30,-0.80,-1.29,0.08,-0.02,-0.03,1721228591143
-1.82,4.87,4.82,-0.18,0.16,0.27,1721228591153
2.06,-0.15,9.19,-0.15,-0.17,0.47,1721228591163
5.88,-2.52,17.58,0.02,0.27,0.30,1721228591173
8.71,3.21,16.31,0.17,0.11,0.01,1721228591183
7.40,4.34,10.02,-0.03,0.13,-0.49,1721228591193
0.38,-2.16,11.88,-0.06,-0.15,-0.79,1721228591203
-6.38,-2.32,8.98,0.15,-0.03,-0.63,1721228591213
-8.05,1.32,3.79,0.07,0.06,-0.03,1721228591223
-5.27,1.33,5.35,-0.16,0.17,0.42,1721228591233
0.32,-1.61,13.26,-0.12,0.22,0.31,1721228591243
2.16,0.16,18.37,0.10,0.07,-0.08,1721228591253
0.74,3.04,11.88,0.14,0.02,-0.21,1721228591263
-1.85,0.38,5.99,-0.05,0.01,-0.11,1721228591273
-2.16,-1.37,9.28,0.00,0.14,0.10,1721228591283
0.79,0.80,6.59,-0.04,0.15,0.20,1721228591293
2.78,1.29,11.70,-0.07,0.02,0.14,1721228591303
4.06,-1.23,14.83,0.06,0.09,-0.03,1721228591313
3.53,1.19,11.44,0.12,0.16,-0.23,1721228591323
1.90,3.41,8.49,-0.01,0.11,-0.34,1721228591333
-1.40,0.23,9.09,-0.09,0.07,-0.41,1721228591343
-4.19,-1.44,11.47,0.05,0.01,-0.34,1721228591353
-5.71,0.66,7.46,0.08,-0.03,-0.02,1721228591363
-3.61,0.98,8.53,-0.09,0.17,0.29,1721228591373
0.62,-0.34,13.64,-0.07,0.25,0.27,1721228591383
2.34,1.16,13.84,0.11,0.03,-0.05,1721228591393
0.17,2.60,7.63,0.09,-0.09,-0.26,1721228591403
-2.15,1.10,6.69,-0.08,0.04,-0.11,1721228591413
-1.62,-0.95,10.75,-0.09,0.13,0.18,1721228591423
1.15,-0.13,12.16,0.02,0.10,0.19,1721228591433
3.39,1.80,11.47,0.05,0.07,-0.05,1721228591443
2.66,0.96,10.58,0.03,0.01,-0.24,1721228591453
-0.28,0.84,10.07,0.05,-0.02,-0.28,1721228591463
-1.80,0.59,8.77,0.00,0.10,-0.22,1721228591473
-2.36,1.08,10.37,-0.06,0.07,-0.07,1721228591483
-2.16,-0.57,11.79,0.01,0.01,0.01,1721228591493
-0.76,-0.11,9.69,0.06,0.04,0.05,1721228591503
0.66,1.70,9.42,-0.01,0.12,0.08,1721228591513
1.81,0.65,9.84,-0.08,0.13,0.07,1721228591523
1.66,0.24,10.62,-0.03,0.09,-0.10,1721228591533
0.46,0.52,9.63,-0.00,0.04,-0.19,1721228591543
-0.95,0.73,10.65,0.00,0.05,-0.07,1721228591553
0.08,-0.46,11.65,0.01,0.15,0.08,1721228591563
2.49,0.11,11.79,0.03,0.19,0.05,1721228591573
2.87,0.96,9.96,0.07,0.09,-0.14,1721228591583
1.45,0.52,8.19,0.04,0.11,-0.28,1721228591593
-0.39,0.07,9.53,-0.01,0.13,-0.22,1721228591603
-1.33,-0.35,10.31,-0.03,0.17,-0.10,1721228591613
-0.57,-0.06,11.44,-0.02,0.20,-0.03,1721228591623
0.30,0.31,11.00,-0.01,0.16,-0.06,1721228591633
0.28,0.32,10.24,0.01,0.14,-0.10,1721228591643
0.24,0.34,9.80,0.02,0.19,-0.11,1721228591653
0.28,0.28,10.30,0.00,0.21,-0.09,1721228591663
0.17,0.33,10.46,0.02,0.19,-0.11,1721228591673
-0.01,0.16,10.29,0.02,0.18,-0.13,1721228591683
0.10,0.45,10.29,0.03,0.19,-0.10,1721228591693
0.62,0.61,10.39,0.02,0.22,-0.09,1721228591703
0.80,0.71,10.58,0.03,0.21,-0.15,1721228591713
0.15,0.35,10.09,0.05,0.19,-0.24,1721228591723
-1.07,0.15,9.90,0.06,0.18,-0.23,1721228591733
-1.77,0.19,9.87,0.05,0.22,-0.14,1721228591743
-1.39,0.41,10.60,0.06,0.21,-0.06,1721228591753
0.11,0.28,10.31,0.07,0.22,-0.03,1721228591763
0.73,0.75,10.00,0.06,0.25,-0.11,1721228591773
1.09,0.62,9.69,0.03,0.24,-0.13,1721228591783
0.92,0.33,10.39,0.01,0.28,-0.20,1721228591793
-0.80,0.13,10.37,0.05,0.16,-0.25,1721228591803
-1.53,0.32,9.72,0.03,0.24,-0.15,1721228591813
-1.12,0.45,10.11,0.02,0.28,-0.04,1721228591823
0.00,0.65,10.34,0.03,0.28,-0.09,1721228591833
-0.25,0.80,10.31,0.03,0.21,-0.19,1721228591843
-1.54,0.41,9.65,0.02,0.21,-0.19,1721228591853
-1.96,-0.24,10.07,0.02,0.26,-0.10,1721228591863
-1.41,0.21,10.00,0.04,0.26,-0.02,1721228591873
-0.25,0.80,10.00,0.02,0.27,-0.03,1721228591883
0.26,0.70,10.91,0.02,0.24,-0.10,1721228591893
-0.01,0.28,10.72,0.04,0.23,-0.18,1721228591903
-1.14,0.32,9.78,0.04,0.21,-0.18,1721228591913
-1.65,0.35,9.43,0.03,0.26,-0.12,1721228591923
-1.22,-0.32,9.86,-0.00,0.27,-0.06,1721228591933
-0.95,-0.52,13.96,0.07,0.27,-0.09,1721228591943
-1.12,1.07,10.89,0.14,0.16,-0.13,1721228591953
-1.55,1.81,8.93,0.04,0.24,-0.13,1721228591963
-1.62,0.90,11.08,0.03,0.24,-0.07,1721228591973
-1.25,0.55,11.20,0.03,0.23,-0.06,1721228591983
-1.03,1.25,11.51,0.09,0.22,-0.09,1721228591993
-1.07,0.50,8.66,0.08,0.20,-0.11,1721228592003
-1.33,1.21,9.63,0.07,0.23,-0.07,1721228592013
-0.66,2.12,8.64,0.06,0.24,-0.02,1721228592023
-0.03,2.17,9.83,0.00,0.28,-0.05,1721228592033
-0.11,1.22,11.24,0.02,0.21,-0.13,1721228592043
-0.90,0.45,10.78,0.04,0.22,-0.16,1721228592053
-1.41,1.01,10.77,0.06,0.24,-0.09,1721228592063
-1.14,1.11,9.38,0.06,0.24,-0.05,1721228592073
-0.73,1.35,9.53,0.08,0.24,-0.08,1721228592083
-0.43,1.17,8.09,0.04,0.24,-0.07,1721228592093
-0.49,1.89,9.38,-0.02,0.30,-0.05,1721228592103
0.13,0.88,12.05,0.02,0.31,-0.11,1721228592113
-0.68,0.22,11.84,0.09,0.21,-0.17,1721228592123
-1.86,0.89,9.15,0.10,0.25,-0.07,1721228592138
-2.15,2.72,8.38,0.03,0.38,0.03,1721228592142
-0.11,0.33,8.88,0.01,0.29,-0.02,1721228592152
1.51,2.28,9.73,0.16,0.11,-0.16,1721228592162
-3.18,1.71,10.01,0.01,0.45,-0.24,1721228592172
-5.93,2.19,10.01,-0.03,0.31,-0.19,1721228592182
-2.78,-1.96,12.78,0.04,0.41,-0.04,1721228592192
-0.21,-1.95,10.02,0.01,0.25,-0.09,1721228592202
-3.50,2.32,7.60,0.09,0.11,-0.31,1721228592212
-4.11,3.34,5.88,0.12,0.24,-0.21,1721228592222
-3.81,-1.47,5.71,-0.13,0.25,0.07,1721228592232
-2.80,-2.81,15.13,-0.05,0.36,0.15,1721228592242
-1.66,1.11,12.84,0.22,0.22,-0.12,1721228592252
-4.37,2.62,8.48,0.13,0.06,-0.35,1721228592262
-7.20,0.40,5.53,0.01,-0.22,-0.25,1721228592272
-8.33,-4.57,9.33,-0.01,0.12,0.11,1721228592282
-5.76,-4.24,8.65,-0.00,0.11,0.41,1721228592292
-1.41,0.16,11.86,0.02,0.25,0.40,1721228592302
2.09,0.26,15.31,0.08,0.14,0.15,1721228592312
0.74,0.61,8.48,0.12,-0.12,-0.02,1721228592322
0.21,0.66,6.19,-0.09,0.23,0.13,1721228592332
3.65,-0.48,14.55,0.00,0.37,0.29,1721228592342
4.52,-0.18,13.06,0.24,0.13,0.03,1721228592352
2.61,3.26,6.45,0.18,0.10,-0.40,1721228592362
-0.71,1.47,8.96,-0.15,0.12,-0.45,1721228592372
-4.96,-3.24,16.67,-0.08,0.35,-0.36,1721228592382
-6.33,0.03,14.28,0.32,-0.06,-0.36,1721228592392
-7.68,2.66,2.96,0.02,0.07,-0.35,1721228592402
-12.07,1.13,5.73,-0.18,-0.02,-0.10,1721228592412
-11.00,-6.08,10.90,-0.11,0.12,0.25,1721228592422
-7.30,-1.23,13.57,0.15,-0.03,0.44,1721228592432
-4.80,0.37,5.51,0.10,-0.10,0.23,1721228592442
-6.53,-0.32,7.78,-0.05,-0.19,0.01,1721228592452
-7.14,-2.77,10.59,-0.02,-0.38,0.19,1721228592462
-4.27,-2.01,12.30,-0.07,-0.10,0.47,1721228592472
-2.04,-2.27,11.42,0.03,-0.25,0.49,1721228592482
0.25,-2.66,7.76,0.08,-0.24,0.19,1721228592492
0.29,-0.37,6.00,0.08,-0.45,0.01,1721228592502
-0.95,3.46,7.80,-0.03,-0.28,0.12,1721228592512
-0.74,1.01,9.48,-0.21,-0.20,0.34,1721228592522
-0.10,-3.64,13.06,-0.12,-0.20,0.25,1721228592532
0.64,-2.79,12.37,0.07,-0.36,0.18,1721228592542
1.68,-1.05,3.69,-0.11,-0.24,0.33,1721228592552
4.64,-0.81,8.78,-0.15,0.08,0.36,1721228592562
6.91,-13.81,18.84,-0.28,0.10,0.06,1721228592572
0.87,1.02,26.53,0.48,-0.42,-0.36,1721228592582
-0.83,2.35,-4.51,0.23,-0.29,-0.36,1721228592592
-4.40,-0.65,4.66,-0.41,0.03,0.15,1721228592602
-2.95,-10.88,17.40,-0.15,0.26,0.73,1721228592612
4.21,-6.45,19.26,0.45,0.17,0.48,1721228592622
5.86,3.00,4.05,0.29,-0.23,-0.01,1721228592632
2.15,1.00,1.32,-0.19,-0.03,-0.13,1721228592642
2.53,-6.15,11.97,-0.21,0.32,0.21,1721228592652
5.00,-0.90,13.37,0.10,0.30,0.20,1721228592662
5.80,2.23,0.33,-0.23,0.07,-0.29,1721228592672
-0.40,1.51,7.84,-0.58,0.07,-0.53,1721228592682
-3.80,-17.31,31.53,-0.33,0.39,-0.21,1721228592692
-8.25,-1.30,13.51,0.35,-0.24,-0.05,1721228592702
-8.59,6.05,-12.72,-0.40,0.59,-0.10,1721228592712
-5.20,-11.85,13.41,-0.61,0.71,0.59,1721228592722
-3.17,-7.28,18.53,0.12,0.46,1.01,1721228592732
3.04,6.39,15.82,0.26,0.13,0.18,1721228592742
1.39,5.17,3.58,0.15,-0.48,-0.04,1721228592752
1.51,-5.53,-2.64,-0.36,0.57,0.56,1721228592762
8.16,-10.46,38.42,0.15,0.49,0.62,1721228592772
6.83,11.27,19.38,1.18,-0.33,-0.12,1721228592782
3.88,5.58,-8.39,0.32,-0.19,-0.71,1721228592792
-1.14,14.04,21.34,-0.19,0.52,-0.45,1721228592802
-6.52,-10.13,11.96,0.05,0.31,-0.29,1721228592812
-12.29,-2.18,5.12,0.25,-0.25,-0.33,1721228592822
-9.60,-0.63,-8.25,0.12,0.48,0.20,1721228592832
-3.50,-4.00,0.26,-0.38,0.39,0.95,1721228592842
-1.40,-3.86,18.11,-0.20,0.10,0.72,1721228592852
-1.53,-2.34,12.61,0.20,-0.05,-0.06,1721228592862
-5.23,-3.23,7.64,-0.39,0.02,0.23,1721228592872
-4.12,4.25,33.03,-0.14,0.54,1.03,1721228592882
6.24,-3.82,-1.56,-0.09,-0.03,1.11,1721228592892
9.82,-15.44,6.56,-0.76,0.60,0.56,1721228592902
8.07,3.26,40.46,0.44,0.41,-0.24,1721228592912
9.64,1.73,-10.37,0.53,-0.74,-0.46,1721228592922
0.74,19.66,-12.42,-0.66,0.47,-0.24,1721228592932
-3.63,-3.11,8.41,-1.09,0.51,-0.05,1721228592942
-4.63,-39.63,52.08,-0.83,0.96,-0.38,1721228592952
-12.86,10.99,20.79,1.70,-0.65,-0.25,1721228592962
-12.68,-17.60,-28.16,-0.76,1.01,-0.24,1721228592972
-22.75,17.89,42.83,-0.00,-1.22,0.40,1721228592982
-16.05,-2.26,-2.37,0.44,-0.79,1.10,1721228592992
-3.86,6.40,-18.02,0.18,0.02,1.25,1721228593002
10.50,5.56,-4.27,-0.70,0.48,0.89,1721228593012
5.62,-17.72,56.68,0.07,-0.47,-0.20,1721228593022
-10.07,10.94,29.11,1.12,-1.42,-0.92,1721228593032
-12.63,-0.29,-26.85,-0.58,-0.35,-0.84,1721228593042
-28.46,2.71,14.32,-0.85,-0.24,0.83,1721228593052
-6.14,-14.48,0.81,-0.16,0.04,2.54,1721228593062
14.43,8.57,39.64,0.40,0.66,1.83,1721228593072
19.54,26.54,6.76,0.90,-0.79,0.23,1721228593082
17.83,-1.15,4.44,-0.38,0.05,-0.95,1721228593092
0.11,0.01,25.11,-0.01,-0.93,-0.94,1721228593102
-8.63,3.52,-15.65,0.13,-0.36,-0.62,1721228593112
-11.26,2.74,12.63,-0.23,0.31,0.54,1721228593122
-6.07,-1.69,-7.30,0.00,-0.73,0.91,1721228593132
8.31,-2.59,13.40,-0.61,1.12,0.56,1721228593142
3.03,8.24,42.83,0.29,-0.80,0.31,1721228593152
3.32,2.37,-0.77,0.18,-0.39,-0.24,1721228593162
-2.49,1.69,12.48,-0.13,0.59,-0.32,1721228593172
-6.60,-3.70,3.76,0.07,-0.89,0.05,1721228593182
-5.46,-3.73,-2.82,-0.08,-0.02,0.54,1721228593192
1.65,7.91,12.60,-0.10,0.79,0.69,1721228593202
10.52,9.79,3.07,-0.10,-0.01,0.51,1721228593212
12.37,-9.37,8.08,-0.91,0.40,-0.08,1721228593222
5.42,10.64,47.35,0.49,-0.07,-0.98,1721228593232
1.86,-5.00,-6.64,-0.01,-1.53,-1.00,1721228593242
-18.80,9.82,6.37,-0.45,0.47,-0.92,1721228593252
-15.20,-3.60,7.53,-0.04,-0.38,0.27,1721228593262
-4.90,-3.38,0.76,0.01,0.57,1.13,1721228593272
12.79,5.29,6.05,0.17,0.67,0.53,1721228593282
13.32,-10.54,6.45,-0.20,-0.06,-0.69,1721228593292
0.93,-0.00,31.56,0.47,-0.44,-1.59,1721228593302
-5.42,2.43,4.70,0.34,-0.48,-1.20,1721228593312
-12.32,-7.96,13.16,-0.55,0.92,-0.37,1721228593322
-12.60,2.38,18.71,0.69,-0.42,0.22,1721228593332
-0.74,-3.50,-19.30,-0.36,1.03,0.15,1721228593342
-5.53,4.58,48.82,0.29,-0.56,-0.28,1721228593352
-1.73,4.88,2.61,0.62,-0.95,-0.72,1721228593362
-8.87,13.65,-15.34,-0.72,-0.44,-0.51,1721228593372
-5.04,16.89,29.13,-0.04,-0.35,0.05,1721228593382
-0.09,-10.18,-1.95,0.28,-0.69,0.50,1721228593392
5.89,5.22,-3.83,-0.79,0.31,0.23,1721228593402
0.85,-7.93,34.49,-0.21,-0.55,-0.52,1721228593412
-0.44,6.03,19.98,0.74,-0.45,-0.75,1721228593422
-2.26,0.12,-26.17,-0.39,0.18,-0.28,1721228593432
4.99,-2.51,40.31,-0.57,0.57,0.67,1721228593442
7.13,19.48,13.66,-0.15,0.56,0.17,1721228593452
12.78,9.73,-7.52,-0.61,0.11,-0.78,1721228593462
-2.73,-10.85,1.21,-0.64,-0.17,-1.20,1721228593472
-15.77,-10.14,0.62,-0.16,-0.32,-1.17,1721228593482
-21.53,-11.96,29.47,-0.99,-0.12,0.42,1721228593492
-10.73,24.79,35.89,0.02,0.59,1.85,1721228593502
10.68,-15.16,-10.68,-0.12,0.17,1.98,1721228593512
16.41,2.35,17.66,-0.68,1.46,0.72,1721228593522
15.85,1.28,-1.41,-0.36,-1.14,-0.53,1721228593532
6.40,1.31,-10.43,-0.38,-0.19,-1.73,1721228593542
-8.16,4.51,18.99,-0.35,-0.01,-2.00,1721228593552
-21.33,-3.95,29.68,-0.31,-0.89,-0.73,1721228593562
-21.32,16.01,28.54,0.22,0.23,0.72,1721228593572
-2.85,-6.16,-9.83,0.04,-0.43,1.80,1721228593582
3.13,-8.72,13.50,-0.46,0.74,1.60,1721228593592
11.91,-0.83,5.79,0.29,0.64,1.22,1721228593602
24.09,-2.64,-3.24,0.30,0.08,0.02,1721228593612
6.23,-8.11,30.89,0.08,-0.89,-1.08,1721228593622
-2.88,23.09,29.25,0.55,-0.70,-0.93,1721228593632
-2.42,-6.19,-10.81,0.58,0.22,-0.88,1721228593642
-4.03,-20.72,9.76,-0.07,0.53,0.37,1721228593652
-10.25,-1.72,22.08,1.04,0.12,0.39,1721228593662
-0.17,7.91,3.92,0.99,-0.20,0.73,1721228593672
1.54,24.94,17.63,0.59,0.02,1.03,1721228593682
12.65,-26.57,12.75,-0.56,0.17,0.62,1721228593692
6.91,-10.28,28.07,0.01,-0.22,-0.52,1721228593702
3.03,-8.07,-3.83,0.45,-0.96,-0.60,1721228593712
-7.38,-8.41,2.89,-0.09,0.27,-0.33,1721228593722
-8.12,9.38,33.45,0.58,0.24,-0.01,1721228593732
-3.02,-1.84,5.36,0.62,-0.22,0.50,1721228593742
-5.76,8.44,4.47,0.14,0.20,0.70,1721228593752
0.08,5.19,9.12,-0.08,0.26,0.77,1721228593762
6.73,-8.67,-2.69,-0.13,-0.26,0.62,1721228593772
9.66,-10.12,-2.28,-0.40,0.21,0.28,1721228593782
6.49,-10.12,26.98,-0.11,-0.20,-0.33,1721228593792
-2.93,24.58,29.05,0.64,-0.43,-0.42,1721228593802
-4.45,-4.92,-8.35,-0.05,0.01,-0.37,1721228593812
-12.60,-5.97,14.29,-0.25,-0.30,0.37,1721228593822
-3.46,-16.97,-12.19,-0.18,0.21,0.67,1721228593832
-3.19,-16.97,27.50,-0.27,-0.03,0.66,1721228593842
-5.59,7.40,31.80,1.09,-0.07,0.54,1721228593852
0.05,-6.52,-9.49,0.49,0.75,0.57,1721228593862
3.45,17.91,19.22,-0.05,1.19,0.59,1721228593872
8.39,26.49,0.92,0.16,-0.73,1.10,1721228593882
14.21,-23.87,-23.97,-1.16,1.09,0.35,1721228593892
8.54,-1.77,2.37,-0.46,0.20,-0.23,1721228593902
1.33,-24.49,30.39,-0.79,0.60,-0.53,1721228593912
-9.98,15.91,51.25,0.89,-0.56,-0.74,1721228593922
-17.28,-12.67,-8.43,0.75,-0.36,-0.35,1721228593932
-13.97,22.79,25.04,0.11,0.50,1.17,1721228593942
6.83,2.34,-5.26,-0.71,0.30,2.15,1721228593952
13.85,-24.21,-15.40,-0.94,0.67,1.27,1721228593962
14.99,-3.78,3.21,-0.18,0.60,-0.35,1721228593972
5.36,-13.28,21.95,-0.71,-0.18,-1.86,1721228593982
-14.06,11.45,38.89,0.52,-0.97,-1.36,1721228593992
-19.42,-7.84,5.93,0.33,-0.17,0.06,1721228594002
-12.47,2.39,9.11,-0.34,1.01,1.48,1721228594012
6.41,-4.34,0.07,-0.34,0.22,1.92,1721228594022
19.12,-5.98,4.82,-0.45,0.78,0.97,1721228594032
13.89,8.06,19.70,-0.40,0.33,-0.64,1721228594042
3.68,22.55,24.64,-0.34,-0.33,-1.45,1721228594052
-7.66,-8.26,10.33,-0.70,-0.35,-1.20,1721228594062
-19.18,-10.56,4.05,-0.27,-0.33,0.12,1721228594072
-10.14,-4.74,-5.82,-0.21,0.34,1.42,1721228594082
3.52,-16.05,23.97,-0.54,0.36,1.19,1721228594092
5.17,10.70,27.29,0.32,0.13,0.67,1721228594102
8.35,0.66,6.05,0.05,0.05,-0.02,1721228594112
2.05,12.33,22.69,-0.05,0.07,-0.58,1721228594122
-6.33,10.13,-2.48,0.16,-1.03,-0.03,1721228594132
-8.91,-22.05,-5.77,-0.50,0.56,0.92,1721228594147
-5.30,-26.92,18.20,-0.85,0.41,0.58,1721228594151
-3.70,-3.81,31.45,0.39,0.34,0.55,1721228594161
0.40,15.56,9.07,0.90,0.03,0.18,1721228594171
0.30,4.13,31.21,-0.41,-0.10,-0.20,1721228594181
-7.99,18.84,21.37,0.56,-0.82,0.29,1721228594191
4.12,-32.34,-18.57,-0.24,0.17,0.89,1721228594201
1.89,9.39,36.69,-0.06,0.72,0.68,1721228594211
-0.76,31.12,-6.46,0.71,-0.81,0.19,1721228594221
17.10,-3.03,-25.41,0.59,0.55,-0.56,1721228594231
-0.08,5.24,14.83,0.41,0.19,-0.53,1721228594241
-15.68,17.69,7.48,0.48,-0.37,-0.26,1721228594251
-7.00,-0.53,-4.74,0.08,0.33,-0.06,1721228594261
-5.20,-34.50,8.29,-0.84,0.37,0.95,1721228594271
-4.78,18.96,48.01,0.14,0.35,1.08,1721228594281
10.81,-3.69,16.22,0.08,0.11,0.98,1721228594291
3.54,4.48,-6.07,-0.41,-0.45,0.10,1721228594301
2.55,-16.35,-11.36,-0.44,-0.38,-0.11,1721228594311
-2.20,-28.37,27.41,-0.94,0.18,-0.02,1721228594321
-2.70,-13.24,35.23,0.68,0.02,0.72,1721228594331
3.79,-0.66,5.57,1.02,0.42,0.30,1721228594341
6.19,26.79,3.07,0.78,-0.48,0.15,1721228594351
6.72,14.77,-7.23,-0.96,0.08,-0.04,1721228594361
1.12,-24.49,1.29,-1.60,0.36,0.17,1721228594371
-8.93,2.19,51.48,-0.35,0.06,-0.60,1721228594381
-19.79,30.49,15.65,1.02,-0.68,0.35,1721228594391
-15.90,-18.62,-16.78,-0.53,0.94,1.13,1721228594401
5.40,-8.66,1.99,-0.84,0.01,1.74,1721228594411
15.65,-28.69,11.02,-1.17,0.59,0.54,1721228594421
5.71,4.81,48.18,-0.03,-0.44,-0.44,1721228594431
1.17,-6.67,-9.68,0.29,-1.35,-0.42,1721228594441
-6.68,43.61,8.49,-0.34,0.68,-0.41,1721228594451
1.38,27.24,1.17,-0.64,-0.77,0.44,1721228594461
2.03,-34.16,-10.78,-1.09,0.36,0.50,1721228594471
2.05,2.10,33.57,-0.50,0.19,-0.20,1721228594481
-5.47,5.78,-2.27,1.01,-1.24,0.25,1721228594491
-1.73,-23.61,-18.93,-0.65,0.04,0.54,1721228594501
-5.71,2.57,40.03,-0.53,-0.44,0.57,1721228594511
-0.48,-2.48,10.06,-0.14,-0.34,0.37,1721228594521
3.76,22.86,28.49,0.36,-0.29,0.80,1721228594531
12.55,-7.07,5.26,-0.31,-0.10,1.21,1721228594541
10.39,16.28,16.49,-0.39,0.92,-0.23,1721228594551
4.71,20.80,6.13,0.73,-0.79,-0.77,1721228594561
3.71,-1.12,-9.67,0.87,-1.20,-1.30,1721228594571
-6.68,-33.62,-13.27,-0.56,-0.23,-1.38,1721228594581
-14.99,-0.53,58.41,0.36,-0.26,-0.24,1721228594591
-15.58,27.25,17.24,0.06,0.00,1.06,1721228594601
-3.85,12.98,17.33,0.43,0.08,1.21,1721228594611
5.25,14.54,-1.82,0.68,-0.07,1.40,1721228594621
20.61,-36.35,-22.86,0.25,0.62,0.59,1721228594631
14.87,-8.15,7.28,-0.00,0.36,-0.76,1721228594641
2.84,-8.07,12.08,0.03,-0.30,-1.14,1721228594651
-9.75,19.74,21.36,0.48,-0.45,-0.71,1721228594661
-7.55,3.03,15.86,-0.03,-0.03,0.20,1721228594671
-2.41,-8.53,2.56,-0.41,0.09,0.85,1721228594681
-1.80,-48.77,0.63,-0.14,0.04,0.29,1721228594691
-1.45,3.84,34.96,0.85,-0.51,0.23,1721228594701
0.13,-6.21,-16.35,0.67,-0.53,0.22,1721228594711
-0.39,32.38,14.25,0.44,0.98,0.10,1721228594721
5.39,20.16,-4.20,-0.48,-0.36,0.40,1721228594731
2.27,0.44,40.65,-0.78,0.24,-0.42,1721228594741
-1.73,-32.05,26.44,0.17,-0.97,-1.18,1721228594751
-7.93,33.30,6.39,1.35,-0.50,-0.44,1721228594761
2.74,16.18,-30.58,-0.25,0.95,0.47,1721228594771
2.24,-3.12,-7.66,-0.66,0.75,-0.11,1721228594781
1.19,-10.04,-0.18,-0.73,0.28,-0.62,1721228594791
-6.26,5.07,44.91,-0.19,-0.34,-1.01,1721228594801
-11.38,9.30,35.77,0.59,-0.57,-0.45,1721228594811
-13.36,21.73,-5.30,0.47,-0.19,0.25,1721228594821
9.14,1.58,-23.12,-0.25,0.56,0.52,1721228594831
15.17,-37.54,25.51,-1.62,0.66,-0.56,1721228594841
-1.65,-4.82,39.02,0.19,-0.24,-0.95,1721228594851
-5.69,24.17,1.32,0.82,-0.41,-0.92,1721228594861
-2.35,20.38,-16.12,0.11,-0.39,-0.20,1721228594871
3.10,-20.02,-4.08,-1.45,0.84,-0.03,1721228594881
3.99,1.94,42.40,-0.64,0.72,-0.76,1721228594891
-7.76,2.81,4.87,0.61,-0.57,-0.80,1721228594901
1.79,5.86,-6.83,0.04,0.92,-1.41,1721228594911
0.20,25.80,22.41,0.37,0.12,-0.44,1721228594921
-6.78,-15.18,1.03,-0.82,-0.43,0.28,1721228594931
-1.58,6.23,32.05,-0.37,0.58,0.16,1721228594941
8.64,-29.23,-3.43,-0.39,-0.14,-0.14,1721228594951
4.11,24.53,17.77,0.08,0.64,-1.08,1721228594961
-4.98,31.16,-10.89,0.64,-0.73,-1.71,1721228594971
-8.61,-42.55,19.04,-1.39,1.40,-2.26,1721228594981
-21.20,6.36,41.92,0.78,-0.75,-0.83,1721228594991
-9.30,-25.52,-6.51,0.17,0.70,0.72,1721228595001
-1.08,-0.25,-0.86,0.28,0.57,1.35,1721228595011
11.01,-1.69,-15.67,0.70,0.22,0.49,1721228595021
14.82,19.31,-1.87,0.67,0.35,-0.35,1721228595031
5.85,-5.20,22.22,-0.56,-0.57,-1.85,1721228595041
-19.92,-28.26,46.32,-1.02,-1.00,-1.40,1721228595051
-14.06,4.19,14.33,0.92,0.15,0.64,1721228595061
3.92,-4.30,-18.02,0.31,0.49,0.94,1721228595071
0.45,11.68,4.36,0.21,1.08,0.03,1721228595081
8.89,-25.18,17.02,-0.23,-0.51,-0.32,1721228595091
-5.72,6.25,19.58,0.40,-0.15,-0.32,1721228595101
-5.11,11.14,-12.34,0.35,-0.51,-0.09,1721228595111
-7.14,14.43,4.88,-0.17,0.22,0.26,1721228595121
-0.08,-11.09,10.32,-0.42,0.46,0.50,1721228595131
4.00,3.01,28.95,0.13,0.27,0.50,1721228595141
0.47,16.34,7.55,0.18,-0.27,0.03,1721228595151
4.47,-2.97,-5.72,-0.35,0.31,-0.48,1721228595161
0.97,-24.47,30.15,-0.54,-0.32,-0.51,1721228595171
-8.42,10.27,33.63,0.73,-0.31,-0.15,1721228595181
-3.56,15.19,-1.53,0.76,0.09,-0.51,1721228595191
-5.37,15.44,-7.60,0.14,-0.69,0.21,1721228595201
-2.65,-30.64,9.13,-1.33,1.19,0.32,1721228595211
-0.85,9.02,43.81,0.12,-0.02,0.18,1721228595221
4.38,-9.05,-11.91,0.62,-0.92,0.35,1721228595231
-1.95,11.31,3.06,0.26,0.40,0.17,1721228595241
3.17,34.04,19.40,0.42,0.25,0.46,1721228595251
5.60,-5.39,-4.44,-0.69,-0.14,0.33,1721228595261
3.23,-16.16,31.17,-0.62,0.24,-0.86,1721228595271
-4.16,-7.31,17.91,0.70,-0.62,-0.95,1721228595281
-15.86,5.34,-6.85,0.56,-0.47,-0.15,1721228595291
-11.95,26.76,-1.53,0.75,0.17,1.05,1721228595301
5.52,-7.32,-17.76,-0.37,0.43,1.36,1721228595311
12.96,-5.84,-7.86,-0.50,0.49,0.63,1721228595321
16.75,-12.69,-9.86,-0.44,-0.15,-0.42,1721228595331
6.01,-41.44,67.07,0.36,-0.79,-1.61,1721228595341
-13.75,16.41,68.09,1.80,-1.13,-0.51,1721228595351
-13.06,24.54,-22.19,0.88,0.13,0.14,1721228595361
-1.84,-10.64,-5.02,-2.32,0.72,0.13,1721228595371
-7.72,4.84,43.62,-0.25,-0.35,-0.48,1721228595381
-2.19,2.05,-27.14,1.23,-0.35,-0.42,1721228595391
-11.21,3.79,-42.98,-0.33,-0.07,0.34,1721228595401
-4.83,-22.32,-9.94,-1.37,0.53,1.22,1721228595411
2.41,-14.89,78.45,-0.43,1.64,0.31,1721228595421
6.01,36.86,62.86,0.24,-1.28,0.46,1721228595431
-13.10,34.18,-17.09,1.27,-1.17,-0.24,1721228595441
9.33,-4.90,-21.88,-1.22,0.52,0.33,1721228595451
12.39,-6.51,39.33,-1.25,0.99,-0.32,1721228595461
7.54,8.02,7.50,0.82,-0.90,-0.98,1721228595471
-4.24,10.30,-8.91,0.14,-0.57,-0.98,1721228595481
-6.57,-21.25,9.63,-0.65,1.00,-0.16,1721228595491
-13.46,-4.28,49.91,0.32,-0.32,-0.21,1721228595501
-5.38,-1.22,-3.18,0.73,0.04,0.55,1721228595511
-2.87,23.52,-5.95,0.27,0.36,0.69,1721228595521
7.42,29.79,5.51,1.20,0.35,0.36,1721228595531
16.60,5.61,-18.57,0.78,-0.89,0.07,1721228595541
11.34,-73.11,31.12,-1.34,0.93,-1.19,1721228595551
-5.30,-12.35,64.66,0.26,-0.70,-0.99,1721228595561
-15.79,-5.15,-5.11,0.96,-0.39,-0.24,1721228595571
-6.70,26.00,-32.29,0.19,0.41,0.60,1721228595581
10.36,-22.41,-6.78,-1.29,0.83,0.54,1721228595591
3.63,15.11,52.99,0.47,-0.68,0.30,1721228595601
4.48,-7.30,18.94,0.45,-0.33,-0.58,1721228595611
-6.43,-0.20,-15.96,0.36,-0.99,-0.66,1721228595621
-0.25,-8.03,-24.65,0.40,0.38,-0.18,1721228595631
-1.03,-13.88,-9.15,-0.14,0.21,0.16,1721228595641
-4.60,-6.74,56.87,0.59,-0.08,-0.32,1721228595651
-5.14,57.62,70.73,1.10,-1.06,-0.02,1721228595661
-7.25,15.34,-33.80,0.67,-0.65,0.58,1721228595671
11.26,-35.95,-36.12,-1.79,0.74,0.80,1721228595681
-4.78,-31.47,41.70,-1.76,1.02,-0.24,1721228595691
-5.87,13.03,46.13,0.77,0.40,-0.76,1721228595701
-2.70,16.36,-44.46,1.79,-0.49,-0.06,1721228595711
4.21,17.26,-18.84,-0.78,0.40,-0.21,1721228595721
-0.25,-26.63,53.41,-2.52,0.87,-0.87,1721228595731
-13.11,-11.54,43.49,0.23,-0.56,-0.40,1721228595741
-7.30,-4.66,-28.42,0.98,0.43,0.03,1721228595751
1.45,-7.97,-5.70,-1.50,0.48,0.59,1721228595761
-5.18,39.26,68.65,-0.08,-0.66,0.63,1721228595771
4.97,-21.28,-8.85,0.60,0.07,0.39,1721228595781
13.53,-1.99,-27.06,-0.09,-0.40,-0.08,1721228595791
6.48,28.10,3.20,0.18,0.02,-0.11,1721228595801
0.62,-29.93,24.09,-0.85,0.30,-0.68,1721228595811
-11.10,-10.34,26.35,0.28,-0.63,-0.36,1721228595821
-14.22,-14.03,-0.39,-0.18,0.69,0.01,1721228595831
-12.47,24.72,42.50,-0.00,0.23,1.20,1721228595841
5.47,15.22,13.91,0.21,0.36,1.92,1721228595851
22.24,-10.95,-19.35,-0.08,0.68,0.79,1721228595861
15.52,-7.46,-5.45,-0.23,0.25,-0.33,1721228595871
4.91,-4.93,21.74,-0.25,-0.01,-1.47,1721228595881
-5.80,4.48,21.27,0.23,-0.86,-0.97,1721228595891
-15.24,2.33,-0.87,0.13,0.21,-0.71,1721228595901
-12.66,2.52,-13.09,0.20,-0.25,0.71,1721228595911
2.22,7.15,-22.44,-0.83,0.67,1.18,1721228595921
11.43,-34.91,39.38,-1.84,0.66,0.22,1721228595931
-3.99,6.25,78.45,0.64,-0.52,-0.84,1721228595941
-3.38,-3.94,-17.12,1.66,-1.20,-0.64,1721228595951
-1.34,1.59,-47.21,-0.68,0.43,0.13,1721228595961
-6.23,25.77,33.75,-1.56,0.64,0.77,1721228595971
19.03,6.52,39.08,-0.32,-0.49,0.60,1721228595981
7.35,2.57,-8.55,-0.26,-0.34,-0.35,1721228595991
8.70,-22.04,8.59,-1.41,1.28,-1.08,1721228596001
-9.93,-2.79,30.98,-0.06,-0.73,-0.81,1721228596011
-8.71,-8.84,-6.36,0.22,0.12,-0.35,1721228596021
-8.82,-7.95,7.23,-0.43,0.28,0.15,1721228596031
-1.04,6.25,33.57,-0.23,0.12,0.23,1721228596041
6.96,57.42,43.86,0.31,0.60,0.59,1721228596051
3.90,7.61,0.57,0.44,-0.30,0.54,1721228596061
9.27,-40.06,-33.34,-0.49,1.37,-0.27,1721228596071
0.82,-26.08,7.42,-0.67,-0.57,-0.26,1721228596081
-4.28,15.00,43.56,-0.00,0.68,-0.52,1721228596091
7.91,11.92,9.02,1.15,-1.10,-0.54,1721228596101
-14.61,5.38,24.31,-0.55,-0.32,-0.39,1721228596111
-1.51,38.71,35.70,0.57,-0.25,-0.22,1721228596121
-5.71,-33.24,-6.81,0.88,-0.66,-0.17,1721228596131
-8.21,7.09,-5.14,-0.40,1.02,0.31,1721228596141
2.32,12.55,-8.52,0.58,0.19,0.90,1721228596156
2.17,-16.12,-5.58,0.54,-0.22,1.17,1721228596160
3.51,1.99,11.06,-0.59,0.95,0.50,1721228596170
6.05,-6.74,38.28,-0.46,0.30,-0.52,1721228596180
1.91,18.21,31.74,0.70,-0.51,-0.34,1721228596190
0.45,-12.45,-12.68,0.65,-0.53,-0.63,1721228596200
-8.79,7.74,9.29,0.45,0.49,-0.18,1721228596210
-0.45,8.30,-12.26,0.60,-0.24,0.50,1721228596220
4.18,-7.46,-11.46,0.39,0.04,0.56,1721228596230
5.14,-6.62,-2.41,0.38,-0.36,0.66,1721228596240
5.19,-13.89,2.96,-0.34,0.40,0.47,1721228596250
12.37,-9.53,46.59,-0.46,0.75,-0.57,1721228596260
-0.85,11.76,58.84,0.45,-0.54,-0.71,1721228596270
-4.59,37.05,-2.91,1.11,-0.05,-0.15,1721228596280
2.81,5.54,-23.76,-0.32,0.35,0.03,1721228596290
-5.09,-6.00,-2.97,-0.39,0.09,0.36,1721228596300
-1.13,-41.45,0.60,-0.73,0.44,0.00,1721228596310
-3.94,14.16,43.34,0.34,0.03,0.00,1721228596320
-1.58,32.81,7.77,0.59,-0.30,0.37,1721228596330
-1.94,9.05,-14.85,0.10,-0.25,0.76,1721228596340
5.89,-42.26,-11.76,-1.61,0.85,0.39,1721228596350
2.13,13.96,49.80,-0.31,0.39,-0.79,1721228596360
1.14,21.17,1.00,0.97,-1.09,-0.84,1721228596370
0.33,1.29,-15.28,-0.14,0.78,-0.45,1721228596380
0.33,7.82,38.29,-0.89,1.53,-0.37,1721228596390
-7.66,-8.60,17.58,-0.29,-1.11,-0.20,1721228596400
-10.78,4.32,1.01,0.42,0.46,-0.39,1721228596410
-1.01,0.57,-16.44,0.41,0.17,0.54,1721228596420
3.58,9.32,11.11,0.18,0.85,0.35,1721228596430
6.97,7.99,27.31,-0.19,-0.05,0.35,1721228596440
5.76,-25.22,22.48,-0.52,0.17,-0.69,1721228596450
-7.04,24.09,21.44,0.78,-0.48,-0.63,1721228596460
0.69,-7.43,3.99,-0.07,-0.36,-0.08,1721228596470
-2.47,7.59,9.49,0.89,-0.38,0.15,1721228596480
3.44,-17.01,-11.80,0.11,0.22,0.24,1721228596490
2.18,3.20,9.23,-0.28,0.67,-0.30,1721228596500
-5.77,35.90,42.67,0.53,0.50,-0.28,1721228596510
0.99,-9.48,9.76,0.47,-0.16,-0.17,1721228596520
4.15,0.40,-2.11,-0.26,0.29,-0.33,1721228596530
-0.80,-12.70,-20.99,-0.05,-0.22,-0.76,1721228596540
-6.99,-48.28,14.92,-2.14,0.89,-0.67,1721228596550
-10.55,41.86,77.56,1.21,-0.21,0.17,1721228596560
1.90,-18.92,-7.17,0.92,0.72,0.41,1721228596570
-6.03,32.97,-8.67,-0.83,0.45,0.34,1721228596580
-6.04,-7.08,1.76,-0.67,0.41,0.45,1721228596590
2.86,-12.88,25.96,0.24,0.57,-0.06,1721228596600
3.02,11.30,-0.57,0.84,-0.72,-0.00,1721228596610
5.37,-4.71,9.22,-0.41,0.67,-0.13,1721228596620
-0.84,-14.60,23.68,-0.23,-0.11,-0.10,1721228596630
-3.47,11.59,14.63,0.20,0.38,-0.44,1721228596640
-5.32,13.11,-10.34,0.21,-0.40,-0.24,1721228596650
-5.03,-9.25,13.62,-0.44,0.48,0.19,1721228596660
-0.38,-8.25,10.41,0.24,-0.00,0.69,1721228596670
3.51,-10.08,-6.79,-0.15,0.70,0.13,1721228596680
3.37,13.86,10.21,0.09,-0.23,-0.15,1721228596690
1.97,16.91,2.19,-0.37,-0.22,0.17,1721228596700
0.60,6.58,16.23,-0.38,0.45,0.03,1721228596710
-0.40,-44.14,10.82,-0.79,-0.16,-0.36,1721228596720
-12.39,37.58,20.54,0.22,-0.09,-0.36,1721228596730
-9.01,-10.94,-20.42,-0.83,-0.06,0.13,1721228596740
-4.19,18.16,48.71,0.19,0.29,0.48,1721228596750
5.81,26.59,13.63,0.41,-0.47,0.84,1721228596760
7.53,-23.46,-26.06,-0.77,0.23,-0.06,1721228596770
6.04,-15.77,13.37,-1.22,0.70,-0.66,1721228596780
-6.08,-10.72,31.87,-0.21,-0.52,-0.63,1721228596790
-11.04,8.74,28.95,0.05,-0.29,0.34,1721228596800
-2.23,8.13,2.15,-0.06,0.09,0.98,1721228596810
10.82,-5.42,11.65,-0.88,0.82,0.49,1721228596820
4.48,33.60,34.49,0.31,0.05,0.49,1721228596830
10.45,9.87,5.41,0.82,-0.18,0.10,1721228596840
11.92,-37.27,-25.48,-0.10,0.34,-1.00,1721228596850
-20.20,-12.28,30.66,-0.36,-0.69,-1.31,1721228596860
-13.63,5.36,37.97,0.25,-0.30,-0.43,1721228596870
-9.81,-12.62,-4.45,0.30,-0.21,1.09,1721228596880
-0.74,-3.09,21.25,-0.01,0.68,0.98,1721228596890
4.71,-0.55,11.80,0.36,0.29,0.92,1721228596900
4.26,15.34,9.12,0.31,0.41,-0.02,1721228596910
5.54,28.80,12.10,0.60,-0.17,-0.24,1721228596920
3.17,-20.22,3.44,0.02,-0.06,-0.66,1721228596930
-4.81,-3.94,20.28,0.24,-0.18,-0.29,1721228596940
-3.28,-1.53,9.53,0.41,0.10,-0.00,1721228596950
-3.43,7.86,-4.32,0.51,-0.30,0.46,1721228596960
-0.02,-4.67,-10.72,-0.01,0.20,0.30,1721228596970
3.48,-13.33,-2.72,-0.27,0.08,0.23,1721228596980
2.17,5.91,46.94,-0.10,0.54,-0.48,1721228596990
-1.32,25.62,38.53,0.77,-0.96,-0.28,1721228597000
-5.23,8.12,-28.83,0.62,-0.87,-0.17,1721228597010
-4.55,-24.31,-27.55,-0.76,0.32,0.21,1721228597020
-1.56,-32.28,30.07,-1.32,0.22,0.17,1721228597030
-2.00,8.32,66.58,0.81,0.00,0.16,1721228597040
6.87,4.82,-1.74,0.90,-0.22,0.20,1721228597050
4.19,-8.86,-52.61,-0.18,-0.25,-0.04,1721228597060
-6.21,-20.08,29.42,-1.05,1.47,-0.21,1721228597070
2.91,6.82,56.86,-0.01,0.29,-0.11,1721228597080
1.16,-2.45,8.93,0.06,0.48,0.25,1721228597090
4.52,-8.12,-32.02,-0.27,0.23,0.14,1721228597100
2.26,-9.59,12.52,-1.20,0.83,0.08,1721228597110
-6.07,4.90,47.58,0.07,0.21,-0.19,1721228597120
3.78,-16.07,-1.34,0.30,0.20,-0.17,1721228597130
-1.33,-16.06,-19.31,-0.36,0.09,0.17,1721228597140
2.09,-2.88,21.32,-0.99,0.46,-0.12,1721228597150
-14.62,18.29,36.72,-0.14,-0.04,-0.33,1721228597160
1.61,-11.10,17.49,0.44,-0.21,0.12,1721228597170
4.04,-23.46,-1.03,-0.64,0.24,0.14,1721228597180
-0.47,15.91,33.29,-0.12,0.10,-0.28,1721228597190
3.71,9.14,16.88,0.03,-0.18,-0.35,1721228597200
-4.15,29.39,9.53,0.71,0.09,0.04,1721228597210
4.27,-19.74,2.66,0.07,0.14,0.22,1721228597220
1.20,1.92,24.26,-0.08,0.15,-0.20,1721228597230
-0.44,8.81,4.49,0.46,-0.32,-0.30,1721228597240
0.18,12.34,3.90,0.56,0.28,0.02,1721228597250
4.00,-7.11,-3.34,0.08,-0.09,0.08,1721228597260
-1.47,-1.18,29.10,0.50,-0.21,-0.76,1721228597270
-8.72,-3.06,7.99,0.45,-0.60,-0.50,1721228597280
-8.26,2.84,4.78,0.60,0.42,-0.23,1721228597290
-0.37,-15.59,8.95,0.39,-0.00,0.73,1721228597300
0.79,15.13,23.82,0.80,0.27,0.54,1721228597310
10.70,8.44,5.59,0.80,-0.01,0.35,1721228597320
11.82,20.41,2.77,0.35,0.03,0.02,1721228597330
9.17,-17.24,-13.33,-0.18,0.01,-1.03,1721228597340
-1.38,-11.68,3.98,-0.54,0.07,-1.41,1721228597350
-13.47,3.26,37.93,0.27,-0.08,-0.64,1721228597360
-10.34,1.12,7.27,0.83,-0.38,0.24,1721228597370
-3.94,-0.77,-3.58,0.11,0.50,0.44,1721228597380
2.87,22.47,29.02,-0.02,0.89,0.47,1721228597390
2.38,-10.60,11.14,-0.39,0.24,-0.36,1721228597400
-6.11,-14.16,-1.37,-0.21,-0.56,-0.73,1721228597410
-7.25,8.54,-5.45,0.24,0.18,0.01,1721228597420
4.00,14.41,-13.04,-0.17,0.60,0.93,1721228597430
12.15,-22.56,21.72,-1.68,1.28,0.19,1721228597440
4.78,-20.87,45.62,0.09,-0.73,-0.79,1721228597450
-1.42,5.27,0.17,0.31,-0.32,-0.62,1721228597460
-4.41,-7.34,0.79,-0.60,0.52,-0.45,1721228597470
-8.04,15.53,30.06,0.17,0.09,-0.68,1721228597480
-8.75,-2.77,-2.93,-0.23,-0.31,-0.20,1721228597490
-10.63,-9.05,9.78,-1.24,0.51,0.46,1721228597500
-1.73,1.78,42.53,-0.44,0.49,0.95,1721228597510
6.05,28.17,12.25,0.15,-0.09,1.26,1721228597520
15.25,-6.39,-9.47,-0.30,0.12,-0.18,1721228597530
6.11,-8.14,19.89,-1.00,-0.22,-0.81,1721228597540
3.33,-2.33,14.43,-0.31,0.50,-1.03,1721228597550
-6.15,10.92,10.21,0.39,-0.56,-0.87,1721228597560
-9.92,-2.42,0.30,0.04,-0.37,-0.31,1721228597570
-12.16,12.65,3.00,0.52,0.01,0.48,1721228597580
-3.76,-11.99,-13.39,0.03,0.10,0.95,1721228597590
3.27,-28.68,26.26,-0.81,0.67,0.57,1721228597600
3.51,8.30,48.55,0.69,-0.30,0.39,1721228597610
7.84,-10.47,8.66,0.49,-0.16,-0.03,1721228597620
-3.30,25.50,15.90,-0.09,0.12,-0.19,1721228597630
1.78,-10.92,1.67,-0.30,-0.89,0.40,1721228597640
-4.72,-8.97,5.23,-0.29,0.24,0.34,1721228597650
-2.05,5.35,0.49,0.50,-0.36,0.37,1721228597660
4.40,-13.65,10.19,-0.88,0.98,0.58,1721228597670
-0.92,31.27,48.73,0.51,-0.53,0.20,1721228597680
0.39,-29.40,-20.38,0.67,-0.70,-0.30,1721228597690
-1.56,-13.27,11.17,-1.03,0.87,-0.49,1721228597700
-1.79,43.04,43.33,0.89,-1.21,0.51,1721228597710
2.46,-18.12,12.84,0.56,-0.45,1.29,1721228597720
-0.25,0.76,-17.57,0.08,-0.07,0.73,1721228597730
7.64,4.73,-3.50,-0.41,0.61,-0.02,1721228597740
3.34,-7.12,18.02,0.01,-0.74,-0.49,1721228597750
-4.72,-15.02,5.79,0.00,-0.27,-0.46,1721228597760
-6.86,-2.66,5.51,0.22,0.12,-0.10,1721228597770
-0.79,-5.64,12.94,-0.18,0.15,0.67,1721228597780
-0.40,37.91,49.35,0.42,0.22,0.58,1721228597790
3.03,-5.00,2.12,0.50,-0.65,0.24,1721228597800
-2.97,-34.18,-18.91,-0.79,0.22,-0.53,1721228597810
-4.83,13.19,19.96,-0.05,-0.25,-0.09,1721228597820
-3.10,-3.92,8.71,0.66,0.28,0.30,1721228597830
-2.83,-18.58,4.80,-0.15,0.33,-0.07,1721228597840
-1.31,-8.56,31.07,-0.75,0.25,-0.51,1721228597850
-3.73,26.15,34.66,0.29,-0.43,-0.00,1721228597860
-0.70,-14.37,-11.15,0.13,-0.16,0.00,1721228597870
6.75,-1.75,-9.93,-0.12,0.35,-0.11,1721228597880
7.05,-6.38,-17.44,0.51,-0.47,-0.26,1721228597890
3.82,-9.28,-13.56,-0.25,0.31,-0.65,1721228597900
1.92,10.97,63.93,-0.39,0.52,-0.81,1721228597910
-2.81,28.52,52.57,0.38,-0.31,-0.05,1721228597920
-3.80,1.16,-0.43,-0.14,-0.01,-0.57,1721228597930
-3.62,-8.72,10.96,-0.81,-0.21,-0.41,1721228597940
-6.85,11.91,16.49,0.17,0.22,-0.58,1721228597950
-9.07,-3.15,-24.05,0.25,0.02,-0.19,1721228597960
-10.81,-10.04,-27.50,-0.38,0.61,0.12,1721228597970
-5.19,15.21,15.16,0.09,-0.04,0.90,1721228597980
5.53,-5.80,15.69,-0.60,0.59,0.26,1721228597990
8.62,-16.91,45.59,-0.31,-0.43,0.23,1721228598000
7.28,31.55,49.67,0.48,0.16,-0.78,1721228598010
4.09,26.33,14.24,0.45,-1.03,-1.28,1721228598020
0.60,-5.53,-29.43,-0.26,-0.04,-1.68,1721228598030
-14.38,-31.98,-15.15,-0.40,0.18,-1.39,1721228598040
-27.82,-14.12,-2.41,0.40,-0.79,0.54,1721228598050
-22.18,-18.62,18.16,-0.83,0.91,2.31,1721228598060
14.50,20.85,49.28,0.73,0.96,2.89,1721228598070
24.59,28.82,5.08,0.27,0.65,2.06,1721228598080
39.79,0.59,-18.93,-1.33,0.81,-0.57,1721228598090
6.99,-6.84,27.74,-1.52,-0.28,-2.97,1721228598100
-3.89,-5.74,21.54,0.39,-1.57,-2.82,1721228598110
-32.01,-31.47,-20.11,-0.11,0.09,-0.97,1721228598120
-28.25,7.94,33.61,-0.57,0.08,1.10,1721228598130
-8.49,27.38,39.23,0.27,-0.10,2.21,1721228598140
6.77,30.50,-1.47,0.57,0.57,2.19,1721228598150
20.68,-11.98,-27.89,-0.05,0.64,0.46,1721228598165
16.62,-24.05,-17.82,-0.36,0.31,-0.20,1721228598169
9.38,-5.49,21.02,0.13,-0.85,-1.65,1721228598179
-8.35,-3.30,38.31,0.43,-1.20,-1.97,1721228598189
-18.21,8.06,25.45,0.42,-0.10,-0.71,1721228598199
-15.61,24.68,23.59,-0.14,0.13,0.87,1721228598209
-2.06,-8.36,4.98,-0.77,0.56,1.73,1721228598219
10.31,-1.11,6.46,-0.26,0.60,0.73,1721228598229
6.10,-1.38,-16.85,0.96,-0.92,-0.22,1721228598239
4.76,3.31,-29.32,0.38,0.09,-0.93,1721228598249
1.31,-36.91,38.75,-2.13,0.26,-0.61,1721228598259
-12.11,39.21,68.37,0.50,-0.76,-0.35,1721228598269
-11.91,-33.88,-15.47,0.88,0.41,-0.49,1721228598279
-18.28,8.38,24.63,-0.57,-0.01,0.33,1721228598289
-4.68,13.02,13.27,0.45,0.87,1.81,1721228598299
13.91,1.58,-2.92,0.45,0.01,1.60,1721228598309
16.56,-11.04,-11.92,-0.08,0.50,-0.09,1721228598319
14.74,-14.97,-2.65,0.20,-0.85,-1.14,1721228598329
-6.39,-9.47,30.21,-0.02,-0.58,-1.64,1721228598339
-13.13,26.29,43.62,0.76,-0.90,-0.97,1721228598349
-14.51,-7.30,-5.16,-0.20,0.09,0.06,1721228598359
-8.87,6.90,34.23,-0.22,0.01,0.77,1721228598369
2.30,-36.79,5.20,-0.31,0.37,1.10,1721228598379
6.51,20.82,8.10,0.71,0.64,0.42,1721228598389
14.66,8.53,-26.81,1.87,-0.51,-0.00,1721228598399
8.80,12.31,-5.15,0.50,-0.06,-0.72,1721228598409
4.38,-15.22,15.63,-0.45,0.52,-0.96,1721228598419
-10.72,-14.55,48.99,-0.02,-0.61,-1.43,1721228598429
-13.41,7.32,19.35,1.02,-0.07,0.14,1721228598439
-5.56,19.09,11.18,0.47,0.22,0.70,1721228598449
2.23,-5.68,-8.69,-0.31,-0.25,0.73,1721228598459
4.86,-15.10,-9.56,0.19,0.10,-0.24,1721228598469
1.26,6.43,-8.96,0.59,-0.49,-0.05,1721228598479
4.30,-5.94,6.72,-0.86,0.41,0.19,1721228598489
-3.84,20.87,73.73,-0.09,0.38,0.68,1721228598499
9.89,-0.79,-13.58,1.01,-0.29,0.50,1721228598509
20.10,-13.01,-5.94,-0.29,0.59,-0.55,1721228598519
-3.15,10.10,50.19,-0.14,-0.76,-0.81,1721228598529
-6.37,-9.03,-0.31,0.39,-0.84,-0.70,1721228598539
-8.43,-0.01,-32.42,0.31,0.31,0.27,1721228598549
1.39,-2.67,-8.09,-0.97,0.88,1.00,1721228598559
4.03,-12.43,40.45,-0.16,0.11,0.48,1721228598569
0.29,2.95,59.06,0.40,-0.08,-0.33,1721228598579
1.95,20.28,-22.85,0.87,-0.70,0.06,1721228598589
9.94,-4.56,-37.97,-1.13,0.52,-0.03,1721228598599
9.27,-48.22,26.64,-1.97,1.44,-0.60,1721228598609
-5.52,-6.85,51.78,0.28,-0.43,-0.98,1721228598619
-9.65,-3.73,7.78,0.27,-0.30,-0.53,1721228598629
-9.97,22.14,18.53,0.44,0.32,0.57,1721228598639
5.19,27.61,-7.05,0.44,0.17,0.84,1721228598649
15.19,-12.22,-19.51,-1.37,0.13,0.16,1721228598659
18.88,-15.42,37.82,-0.91,0.53,-1.28,1721228598669
-1.85,13.26,31.35,1.16,-0.38,-1.53,1721228598679
-3.01,0.64,-34.86,0.55,-0.47,-0.98,1721228598689
-7.34,-4.52,-36.15,-0.67,0.63,-0.45,1721228598699
-7.51,-16.54,47.88,-1.72,0.36,-0.13,1721228598709
-5.97,18.69,68.83,0.52,-1.19,0.37,1721228598719
-4.68,3.43,5.66,0.76,0.19,0.65,1721228598729
10.86,-38.52,-43.00,-0.92,0.71,0.20,1721228598739
4.51,0.38,19.84,-1.02,1.87,-0.82,1721228598749
0.91,-10.48,41.98,0.33,-0.27,-1.07,1721228598759
-4.55,-4.56,-13.23,0.49,-1.12,-0.73,1721228598769
-3.45,-22.79,20.22,-1.04,1.53,-0.78,1721228598779
-8.19,17.24,56.89,0.36,-0.48,0.70,1721228598789
-0.84,-11.24,-1.82,0.97,0.44,1.46,1721228598799
21.94,49.86,-7.61,-0.58,1.33,-0.08,1721228598809
-4.86,29.24,16.05,0.35,-0.25,-0.96,1721228598819
3.41,-26.56,11.82,0.27,-0.25,-1.02,1721228598829
-8.12,-31.19,0.67,-0.49,-0.14,-0.43,1721228598839
-11.16,6.85,27.32,-0.05,0.02,-0.01,1721228598849
-7.22,19.99,16.98,-0.01,-0.30,0.13,1721228598859
0.93,17.68,4.61,0.86,0.05,0.39,1721228598869
8.28,-2.70,-9.73,0.53,0.11,0.20,1721228598879
4.62,-17.08,-16.19,-0.07,0.31,-0.39,1721228598889
2.89,-18.41,28.46,-0.27,0.37,-0.82,1721228598899
-9.26,6.39,43.56,1.17,0.16,-0.78,1721228598909
-6.46,12.22,-1.41,1.06,-0.45,-0.12,1721228598919
-1.25,-44.43,-11.53,-1.42,0.05,0.28,1721228598929
-6.42,12.08,46.09,-1.04,1.28,0.16,1721228598939
6.10,11.68,3.07,1.46,-0.29,-0.12,1721228598949
5.06,-12.27,-34.08,0.97,-0.45,-0.25,1721228598959
-2.63,53.53,16.01,0.49,0.58,-0.24,1721228598969
7.64,25.77,27.70,-2.12,0.22,-0.78,1721228598979
-7.99,-22.98,76.09,-0.53,-0.89,-0.07,1721228598989
2.03,-4.72,-24.36,1.61,-0.48,-0.54,1721228598999
7.06,8.01,-32.11,-0.35,0.05,-0.74,1721228599009
-12.05,-14.49,25.64,-0.89,0.06,-0.79,1721228599019
-10.54,-0.98,8.29,1.48,0.51,0.16,1721228599029
1.34,40.64,-2.20,1.01,-0.20,0.71,1721228599039
9.07,8.85,-14.77,-0.38,-0.31,0.64,1721228599049
8.69,-70.04,10.79,-1.52,0.03,0.14,1721228599059
5.00,20.31,49.23,0.52,0.00,-0.62,1721228599069
-4.07,21.46,-10.77,1.08,-0.62,-1.13,1721228599079
-16.48,-40.96,13.97,-1.14,1.78,-0.88,1721228599089
-8.99,-24.34,48.77,0.09,0.09,-0.08,1721228599099
-9.75,21.94,-14.84,1.12,-0.27,0.56,1721228599109
6.19,4.93,20.86,-0.24,1.37,0.30,1721228599119
-2.65,-5.16,15.35,0.80,-0.87,0.70,1721228599129
9.76,-41.12,-16.58,0.08,1.00,-0.03,1721228599139
-6.58,39.06,23.98,-0.12,-0.18,-0.29,1721228599149
1.17,37.39,-35.32,-0.27,-0.71,-0.25,1721228599159
-5.20,-78.45,6.81,-1.56,2.17,-0.33,1721228599169
-12.99,-17.03,72.31,0.70,-1.70,0.05,1721228599179
-1.27,42.04,20.17,1.48,0.21,0.18,1721228599189
-0.94,33.89,-42.80,0.15,0.06,0.32,1721228599199
2.43,-32.35,-19.85,-2.46,0.28,-0.34,1721228599209
-7.40,-43.45,48.60,-1.17,0.49,-0.48,1721228599219
-11.91,30.37,37.29,1.45,-1.33,-0.21,1721228599229
0.75,32.06,-2.17,0.31,-0.42,0.64,1721228599239
1.18,-1.14,-7.77,-0.89,0.11,1.52,1721228599249
8.50,-5.46,13.20,-0.70,1.52,0.61,1721228599259
13.23,-5.77,-8.29,0.58,-1.32,-0.59,1721228599269
4.58,8.14,-17.58,0.66,-0.22,-1.03,1721228599279
-3.47,13.16,-23.46,0.45,-0.50,-0.12,1721228599289
2.12,-78.45,38.54,-3.28,2.72,-0.58,1721228599299
-11.62,61.50,78.45,2.04,-2.29,1.02,1721228599309
11.59,-5.97,4.70,0.17,0.76,0.73,1721228599319
4.39,24.34,-43.43,-2.91,0.25,-0.42,1721228599329
9.12,10.91,5.04,-0.15,-0.10,-2.59,1721228599339
-9.94,1.49,3.71,1.98,-1.68,-1.04,1721228599349
-28.43,0.76,-52.60,0.68,-0.47,0.77,1721228599359
-6.35,-34.26,-22.06,-1.95,0.96,1.67,1721228599369
29.28,14.26,78.45,-1.37,1.22,1.63,1721228599379
-3.44,13.84,23.64,-0.08,0.89,1.54,1721228599389
25.77,26.05,-9.60,-0.02,-0.82,-0.04,1721228599399
17.48,-24.91,-14.80,-1.25,1.18,-2.44,1721228599409
-9.10,34.33,35.93,0.85,-2.21,-2.67,1721228599419
-15.73,-2.85,-36.38,2.03,-0.18,-1.20,1721228599429
-18.29,-37.92,-36.27,0.40,-0.12,0.24,1721228599439
-22.98,-72.20,29.35,-1.38,-0.35,0.87,1721228599449
9.00,28.20,78.45,-0.56,1.39,2.12,1721228599459
17.55,3.36,-1.43,1.16,0.67,0.93,1721228599469
22.86,29.21,-3.09,-0.26,0.44,0.36,1721228599479
21.50,-14.55,15.27,-1.07,1.48,-1.51,1721228599489
-4.09,-4.78,18.86,1.50,-2.23,-2.90,1721228599499
-19.22,26.33,3.24,1.76,-0.06,-1.58,1721228599509
-14.38,4.38,-37.02,-0.32,0.51,0.54,1721228599519
-7.81,-29.81,-30.57,-0.86,1.06,1.24,1721228599529
2.99,-29.55,23.38,-0.36,-0.21,0.58,1721228599539
12.04,-12.91,62.22,-0.17,0.14,0.07,1721228599549
7.21,16.55,34.09,0.80,-0.45,-0.14,1721228599559
5.43,29.66,15.14,0.24,0.28,-0.73,1721228599569
-0.14,-52.57,15.81,-1.01,0.41,-1.78,1721228599579
-17.73,-6.74,12.29,0.47,-0.87,-0.58,1721228599589
-10.33,-2.18,-37.86,0.47,0.55,0.56,1721228599599
-2.35,8.68,27.63,-0.05,0.59,1.26,1721228599609
15.60,7.25,30.82,0.05,-0.39,1.38,1721228599619
13.22,-4.76,-12.36,-0.30,0.26,-0.05,1721228599629
17.37,-36.47,17.81,-0.90,0.59,-1.19,1721228599639
-9.28,20.91,66.70,0.69,-0.78,-0.96,1721228599649
-6.05,5.49,-23.82,1.32,-0.13,0.14,1721228599659
-6.49,-36.68,-39.68,-1.47,0.51,0.92,1721228599669
-7.98,12.54,53.05,-0.04,-0.01,0.01,1721228599679
15.12,21.70,24.50,2.54,-1.58,-0.11,1721228599689
2.48,12.12,-37.75,1.27,-0.52,0.71,1721228599699
8.57,-37.73,-37.54,-1.58,0.54,-0.39,1721228599709
-14.15,-42.78,47.51,0.58,-0.75,-1.59,1721228599719
-28.93,47.58,68.30,0.87,-0.35,-1.37,1721228599729
-8.43,26.97,-60.66,2.02,-0.31,0.57,1721228599739
-5.20,-15.46,-37.30,-1.64,0.51,1.79,1721228599749
0.34,-4.19,46.53,-0.66,0.99,1.05,1721228599759
11.66,18.63,39.32,1.89,-1.29,0.10,1721228599769
17.35,33.65,-40.53,1.28,-0.18,-0.14,1721228599779
5.84,-10.68,-21.18,-1.77,0.72,-0.29,1721228599789
-0.55,-28.71,36.07,-2.59,-0.00,-1.05,1721228599799
0.31,-6.45,49.69,0.54,0.09,-0.84,1721228599809
-8.15,7.83,-4.18,0.53,0.01,0.34,1721228599819
-4.42,6.18,-1.42,-0.15,0.66,0.33,1721228599829
-1.98,34.79,1.91,1.23,-0.09,0.85,1721228599839
13.08,-11.31,-41.41,-0.18,0.29,0.71,1721228599849
12.71,-38.05,37.30,-2.03,3.06,-0.14,1721228599859
9.96,13.10,78.45,0.40,-0.37,-0.84,1721228599869
2.62,42.73,-9.64,2.14,-0.15,-0.08,1721228599879
-2.01,15.07,-51.67,-0.74,1.18,0.22,1721228599889
-9.45,-38.50,30.35,-2.35,2.51,0.76,1721228599899
3.19,-18.21,69.93,-0.03,-0.24,0.17,1721228599909
3.51,6.79,-5.37,0.70,-0.33,-0.16,1721228599919
-0.49,12.48,-34.06,0.13,0.17,-0.62,1721228599929
-10.93,-34.55,19.33,-0.50,0.64,-0.29,1721228599939
-7.85,1.10,55.15,0.45,-0.32,0.16,1721228599949
-1.67,33.86,28.19,0.52,0.82,0.62,1721228599959
1.25,22.80,-24.74,-0.04,-0.65,0.62,1721228599969
6.12,-28.42,-32.30,-0.70,0.49,0.14,1721228599979
6.96,-51.39,21.11,-1.36,1.61,-0.74,1721228599989
-9.37,2.57,78.45,-0.14,0.24,-0.78,1721228599999
-4.06,20.45,23.15,0.96,-0.80,-0.27,1721228600009
-8.61,11.29,13.65,-0.52,0.90,-0.79,1721228600019
-11.65,28.39,19.45,0.27,-0.99,-0.32,1721228600029
-6.86,-13.63,-11.06,-0.83,0.79,0.54,1721228600039
0.40,-12.29,6.90,-0.04,0.86,1.34,1721228600049
13.79,-19.91,1.92,1.37,-0.21,0.56,1721228600059
8.54,15.82,1.06,1.16,-0.18,-0.17,1721228600069
13.04,0.88,19.78,-0.50,1.17,-1.09,1721228600079
-12.31,16.23,37.15,0.45,-1.92,-0.80,1721228600089
-7.94,-8.54,-1.39,0.53,0.03,-0.47,1721228600099
-9.42,-18.26,-11.76,-0.19,-0.13,0.19,1721228600109
-10.87,9.72,17.83,0.87,0.06,-0.81,1721228600648
-13.12,19.39,16.11,1.25,-0.49,-0.09,1721228600652
-1.18,3.85,-4.42,0.10,-0.12,1.10,1721228600662
10.32,10.98,-12.52,0.43,0.27,0.98,1721228600672
15.38,-4.83,9.65,-0.81,0.70,-0.01,1721228600682
10.20,-25.57,46.76,-1.13,-0.00,-1.40,1721228600692
-3.67,1.05,8.25,1.26,-0.77,-1.86,1721228600702
-11.82,-12.47,-15.18,-0.27,0.08,-0.89,1721228600712
-17.03,2.06,47.22,-0.47,-0.53,0.57,1721228600722
-6.36,27.55,32.52,0.48,0.55,1.23,1721228600732
10.51,10.67,-6.64,0.06,0.70,0.95,1721228600742
12.99,-19.94,9.52,-1.12,0.20,-0.23,1721228600752
4.86,-4.83,1.70,0.58,-0.61,-1.61,1721228600762
-3.55,-11.72,-6.08,-0.06,-0.37,-0.71,1721228600772
-8.66,1.89,45.34,-0.28,-0.17,0.25,1721228600782
0.53,53.40,32.64,1.80,0.31,0.71,1721228600792
4.78,-2.71,-32.70,0.22,-0.61,0.09,1721228600802
-1.09,-6.22,35.21,-2.23,0.77,-1.23,1721228600812
-11.37,-1.87,37.30,1.23,-0.91,-1.61,1721228600822
-8.51,0.40,-12.60,0.72,-0.84,0.57,1721228600832
-0.40,7.65,18.53,-0.23,1.05,1.29,1721228600842
9.39,5.45,12.93,0.71,-0.20,0.50,1721228600852
13.39,22.24,-5.83,0.60,-0.06,-0.30,1721228600862
6.13,21.65,-21.28,-0.40,-0.13,-0.50,1721228600872
3.55,-60.35,26.82,-1.60,1.78,-1.16,1721228600882
-19.31,0.81,72.84,1.03,-0.77,-0.92,1721228600892
-16.57,19.61,-43.37,2.03,-0.51,0.78,1721228600902
-7.09,-62.25,-29.24,-2.77,1.14,1.10,1721228600912
-15.18,6.90,78.45,0.62,-0.46,0.65,1721228600922
-4.24,38.39,7.79,3.13,-0.67,1.17,1721228600932
12.83,-10.66,-78.45,-1.22,0.67,0.36,1721228600942
13.33,-54.59,78.45,-2.74,2.09,-0.44,1721228600952
18.54,-8.28,76.56,1.35,0.07,-1.11,1721228600962
-9.39,-7.15,-17.66,0.63,-0.39,-0.88,1721228600972
-14.56,-0.25,37.31,-0.85,1.83,-0.67,1721228600982
2.95,30.59,20.78,0.89,-0.59,0.24,1721228600992
-3.49,9.96,-31.30,-0.08,0.75,0.88,1721228601002
10.98,-30.04,-13.93,-1.72,0.84,0.13,1721228601012
3.38,-22.30,29.33,-0.49,-0.84,-1.48,1721228601022
-7.98,7.69,18.44,1.10,-0.43,-1.54,1721228601032
-13.57,2.61,9.22,0.11,0.48,-0.49,1721228601042
-13.04,24.54,40.27,-0.17,-0.01,0.80,1721228601052
0.06,31.90,18.42,0.32,0.33,0.96,1721228601062
12.69,-17.47,-10.71,-0.52,0.14,0.21,1721228601072
11.02,-21.35,-3.52,-0.77,1.02,-0.55,1721228601082
6.54,19.88,16.65,0.60,-0.60,-0.91,1721228601092
3.52,-13.88,1.50,-0.55,0.04,-1.40,1721228601102
-18.45,6.06,39.06,0.18,-0.87,-1.07,1721228601112
-11.97,35.13,7.76,0.90,0.64,0.25,1721228601122
-9.90,-7.76,-19.74,-0.52,0.27,1.34,1721228601132
6.93,-33.09,-1.54,-1.01,1.80,0.83,1721228601142
18.31,3.39,32.07,0.76,-1.01,-0.41,1721228601152
-2.55,21.88,4.98,1.03,-0.75,-0.91,1721228601162
1.14,-7.01,15.54,-0.07,0.81,-1.03,1721228601172
-12.44,-5.94,14.04,0.31,-0.63,0.07,1721228601182
-2.54,11.79,4.24,-0.05,0.72,0.41,1721228601192
4.83,-16.52,1.26,-0.86,-0.35,0.51,1721228601202
0.46,-10.11,18.70,0.11,0.21,-0.45,1721228601212
-0.85,7.78,-0.28,1.19,-0.26,-0.32,1721228601222
2.08,7.87,14.62,-0.09,0.64,-0.13,1721228601232
-12.06,36.74,43.13,-0.30,-0.54,0.27,1721228601242
3.03,-29.28,-27.38,0.00,-0.53,0.03,1721228601252
9.69,-8.63,-27.21,-1.41,0.90,0.09,1721228601262
2.95,19.27,21.46,-0.69,0.62,-0.77,1721228601272
29.65,0.93,58.50,0.58,-0.19,-1.08,1721228601282
-10.18,40.25,30.14,1.31,-0.15,0.01,1721228601292
-4.58,19.61,-27.91,-0.25,0.91,0.30,1721228601302
-5.22,-78.45,-17.16,-2.14,1.02,0.57,1721228601312
2.56,37.45,37.57,0.47,-1.07,0.37,1721228601322
1.67,21.59,-9.09,1.63,-1.11,-0.47,1721228601332
11.31,11.54,-32.81,0.14,-0.21,-0.26,1721228601342
-0.83,-3.29,28.10,-1.85,1.89,-0.00,1721228601352
3.21,-24.90,55.53,-0.62,-0.45,0.52,1721228601362
2.70,26.39,1.67,0.51,0.09,0.20,1721228601372
3.76,10.98,-9.80,-0.06,-0.33,-0.70,1721228601382
-3.22,-25.79,-4.85,-0.08,-0.12,-0.04,1721228601392
-7.40,2.96,3.67,0.65,-0.01,0.23,1721228601402
0.83,-7.94,3.44,-0.14,0.69,0.50,1721228601412
-7.62,-14.50,50.48,-0.34,0.23,0.65,1721228601422
6.53,39.12,24.24,2.67,0.15,0.44,1721228601432
11.78,26.67,-48.66,0.86,-1.29,0.61,1721228601442
5.20,-2.82,23.14,-2.93,2.29,-0.67,1721228601452
1.61,-39.30,78.45,-0.39,-1.58,-1.72,1721228601462
-22.65,32.81,-6.79,2.20,-1.35,-1.53,1721228601472
-20.71,6.86,-59.40,0.36,0.63,0.14,1721228601482
-15.00,-46.32,-19.68,-1.77,-0.34,2.39,1721228601492
17.49,-0.19,78.45,-1.80,2.68,1.82,1721228601502
-4.13,-1.67,62.15,1.10,-0.83,1.00,1721228601512
20.30,37.90,-8.85,1.65,-0.99,0.62,1721228601522
16.85,42.91,-9.88,-0.19,1.52,-0.46,1721228601532
-0.65,-14.67,-10.38,-0.32,-1.21,-0.78,1721228601542
-9.52,-59.43,-39.82,-1.05,0.81,-2.10,1721228601552
-40.26,-49.88,21.82,-0.09,-1.18,-1.26,1721228601562
-26.58,2.10,58.33,0.76,-0.28,0.42,1721228601572
-14.46,28.08,17.00,0.50,0.76,1.98,1721228601582
8.85,-3.72,4.43,-0.40,0.85,1.83,1721228601592
16.00,28.76,0.52,0.59,0.02,1.00,1721228601602
22.31,-20.78,-49.84,0.22,-0.04,-0.20,1721228601612
12.84,-70.55,38.55,-1.81,2.36,-1.46,1721228601622
-0.29,41.28,78.45,0.15,0.55,-1.73,1721228601632
-20.51,-14.59,-55.56,1.50,-0.60,-1.01,1721228601642
-14.66,53.41,-14.51,-1.73,0.54,0.81,1721228601652
17.77,-0.79,12.45,-0.96,1.03,2.01,1721228601662
14.56,-76.79,15.39,-0.66,0.27,0.52,1721228601672
0.57,-3.74,62.11,0.91,-1.00,-1.75,1721228601682
-8.14,1.20,14.89,0.93,-1.42,-1.06,1721228601692
-23.31,-29.09,-16.35,-0.57,1.72,0.19,1721228601702
-6.76,13.73,6.01,0.49,0.07,1.34,1721228601712
6.32,16.55,-16.12,0.10,0.94,1.48,1721228601722
17.58,-5.00,21.82,-1.00,1.04,0.55,1721228601732
12.73,-44.52,24.18,-0.53,-0.29,-0.73,1721228601742
1.83,30.76,9.09,1.30,-0.60,-0.93,1721228601752
-5.46,8.50,-19.02,-0.35,0.18,-0.45,1721228601762
-3.82,-8.76,16.35,-0.99,1.19,0.22,1721228601772
-3.69,-20.92,18.20,-1.03,0.43,0.06,1721228601782
-7.32,-0.56,46.33,-0.49,0.01,-0.23,1721228601792
-8.01,1.21,20.57,0.92,-0.46,-0.32,1721228601802
-5.14,4.31,-34.80,1.70,-0.59,0.79,1721228601812
-0.52,-8.48,-4.73,-0.87,0.84,1.09,1721228601822
6.24,-4.82,36.11,0.00,0.48,0.79,1721228601832
12.84,-11.69,-5.82,0.38,-0.78,0.17,1721228601842
5.99,-17.99,-23.04,-0.83,-0.11,-0.30,1721228601852
-8.22,26.95,55.24,0.07,-0.70,-0.45,1721228601862
-12.56,33.99,36.93,0.43,-0.64,-0.10,1721228601872
-3.99,4.72,-11.27,-0.58,0.14,1.16,1721228601882
12.77,-47.54,-5.32,0.40,0.67,0.88,1721228601892
9.08,28.19,17.89,1.03,-0.47,0.87,1721228601902
11.26,19.18,-57.96,-0.59,0.65,0.14,1721228601912
20.35,-78.45,71.39,-2.28,3.54,-1.27,1721228601922
15.96,24.18,78.45,1.52,-2.54,-1.42,1721228601932
-20.16,47.86,0.21,1.78,0.59,-0.37,1721228601942
-17.29,-14.04,-38.71,-1.22,0.64,1.32,1721228601952
-4.67,-12.72,20.33,-0.96,2.30,1.68,1721228601962
15.49,-21.15,7.97,1.57,-0.44,0.09,1721228601972
8.36,18.41,27.63,1.88,-0.75,-1.19,1721228601982
0.15,30.32,-9.23,0.66,-0.59,-0.94,1721228601992
-9.21,18.23,-29.01,-0.88,1.01,-0.60,1721228602002
-6.93,-20.65,43.56,-2.16,0.92,0.39,1721228602012
0.50,-22.96,36.94,0.47,-0.34,1.08,1721228602022
9.50,15.24,-28.76,1.70,-0.31,0.87,1721228602032
19.83,-33.30,-16.07,-1.86,1.20,-0.72,1721228602042
-12.69,15.37,78.45,-0.21,-1.37,-1.79,1721228602052
5.62,34.41,-18.52,2.26,-1.34,-1.07,1721228602062
-10.81,12.20,-78.45,0.55,0.22,-0.04,1721228602072
-13.80,-28.54,-40.29,-3.35,0.29,0.75,1721228602082
7.26,-66.40,78.45,-3.95,1.92,0.18,1721228602092
2.55,72.86,78.45,3.09,-2.90,-0.23,1721228602102
21.96,30.35,-25.94,2.30,-0.91,-0.26,1721228602112
-6.81,14.37,-78.45,-1.25,-1.20,-0.30,1721228602122
6.47,-44.39,-1.29,-0.57,2.77,-0.51,1721228602132
-58.44,-49.37,2.22,0.23,0.19,-2.02,1721228602142
26.81,53.34,40.14,0.28,2.20,-1.73,1721228602152
-35.35,9.94,-36.87,0.74,-2.23,-0.57,1721228602162
-14.41,12.13,32.19,-0.79,2.30,1.15,1721228602172
17.99,60.83,8.63,1.07,0.14,1.26,1721228602182
-9.41,-12.01,-36.40,1.47,-1.77,0.59,1721228602192
18.92,-52.22,0.82,-2.08,2.47,-0.37,1721228602202
-12.74,40.13,54.86,0.16,-1.46,0.26,1721228602212
41.65,-11.21,1.82,0.51,1.45,-0.63,1721228602222
-0.11,0.98,-5.34,0.59,-0.95,-0.14,1721228602232
-10.23,15.11,24.02,0.50,-0.56,-0.41,1721228602242
-5.23,18.21,5.49,0.54,-0.19,0.48,1721228602252
-5.99,-69.70,-16.38,-0.22,0.67,1.03,1721228602262
-1.00,10.90,-0.57,1.04,0.63,0.08,1721228602272
15.94,-21.97,-11.98,0.40,-0.60,-0.55,1721228602282
-7.66,-0.96,22.99,0.17,-0.36,-0.74,1721228602292
-6.76,27.27,44.52,1.22,-0.46,-0.20,1721228602302
-2.06,20.15,-0.92,0.28,-0.18,0.39,1721228602312
2.37,-6.85,12.13,-0.69,0.69,-0.18,1721228602322
-2.30,-44.26,16.83,0.03,-0.44,-0.15,1721228602332
-7.22,9.55,15.37,0.46,-0.11,-0.01,1721228602342
-8.40,23.93,-14.55,1.43,-0.73,0.37,1721228602352
1.20,13.17,-15.00,0.14,0.04,0.43,1721228602362
6.02,-17.33,14.78,-1.69,0.71,0.39,1721228602372
1.58,-31.47,55.68,-0.86,0.09,-0.24,1721228602382
-4.56,17.86,-0.89,1.28,-0.39,-0.62,1721228602392
-6.13,-13.28,-17.35,0.05,0.50,-0.57,1721228602402
-10.82,29.36,41.70,0.18,-0.41,0.94,1721228602412
8.74,27.69,-14.63,0.11,0.28,1.31,1721228602422
8.50,-39.37,-13.97,-2.01,1.17,0.30,1721228602432
-0.61,-1.87,70.73,-0.12,-0.29,-0.87,1721228602442
-18.31,14.16,-4.10,1.49,-1.07,-0.67,1721228602452
-13.58,-24.65,-37.38,-1.73,0.68,-0.14,1721228602462
-12.23,12.61,73.57,-1.54,0.28,0.88,1721228602472
-8.26,20.14,7.51,2.02,-0.33,0.90,1721228602482
6.01,-14.78,-39.75,-0.20,0.85,0.20,1721228602492
11.48,11.97,26.42,-1.26,1.29,-0.77,1721228602502
15.44,8.32,44.21,1.63,-0.67,-1.17,1721228602512
-11.95,8.14,-19.16,0.35,-0.49,-0.23,1721228602522
-7.96,-23.79,-32.62,-2.15,1.41,0.05,1721228602532
1.03,-15.93,78.45,-0.40,-0.49,0.17,1721228602542
-7.62,1.12,37.34,1.66,-1.07,0.39,1721228602552
1.90,-2.65,-33.97,0.54,1.62,0.49,1721228602562
11.91,21.21,3.52,-0.43,0.64,0.48,1721228602572
-3.75,11.49,33.47,-1.09,0.70,0.04,1721228602582
0.34,-27.59,23.30,-0.45,-0.10,-0.74,1721228602592
-5.39,-2.09,5.77,0.64,-0.76,-0.76,1721228602602
-3.61,3.69,-39.44,0.35,-0.11,0.46,1721228602612
0.99,-36.95,-14.19,-1.61,0.91,0.76,1721228602622
-6.43,9.55,78.45,1.18,-0.13,0.33,1721228602632
13.69,61.26,27.28,1.58,-1.07,0.73,1721228602642
-0.27,23.78,23.21,-1.38,1.35,0.01,1721228602657
2.41,-6.73,44.61,-1.74,0.14,0.18,1721228602661
-2.96,-19.86,-5.01,0.08,-1.10,-0.60,1721228602671
-9.84,8.22,25.74,0.07,-0.10,-1.05,1721228602681
-0.32,-2.31,7.31,1.05,-0.23,1.05,1721228602691
1.95,-10.35,-20.18,-0.03,0.89,0.68,1721228602701
3.75,11.15,-9.40,0.20,0.18,-0.21,1721228602711
4.55,-36.26,11.67,-0.24,1.21,-0.74,1721228602721
-10.82,14.16,72.19,1.11,-0.48,-0.64,1721228602731
-8.37,50.41,27.38,0.78,0.57,0.34,1721228602741
0.25,-7.42,-30.45,-0.09,-0.07,0.97,1721228602751
7.23,-24.52,12.37,-0.69,0.50,0.73,1721228602761
12.32,6.92,-10.65,0.51,-0.62,-0.44,1721228602771
5.89,1.96,5.54,-0.23,1.04,-1.14,1721228602781
-12.32,-2.40,41.86,0.61,-1.03,-1.14,1721228602791
-13.26,-15.19,6.68,0.64,-0.05,-0.52,1721228602801
-16.92,16.20,27.04,0.27,0.04,0.66,1721228602811
0.28,38.14,12.26,0.95,0.52,1.90,1721228602821
15.85,-9.62,-44.57,0.10,0.02,1.42,1721228602831
34.77,-64.00,35.12,-2.64,1.97,-0.83,1721228602841
-0.77,46.68,67.65,0.87,-1.84,-1.99,1721228602851
-5.94,26.59,-22.48,2.07,-1.47,-0.22,1721228602861
-6.71,-28.52,-21.46,-2.11,1.19,0.48,1721228602871
7.36,27.50,75.46,0.08,1.55,0.82,1721228602881
-7.34,-1.52,-0.85,-0.97,-0.38,0.51,1721228602891
-3.99,-15.98,5.20,-0.98,0.42,-0.66,1721228602901
-4.06,29.95,40.85,1.40,-0.38,-0.54,1721228602911
-1.23,20.75,-42.31,0.64,-0.00,0.77,1721228602921
11.11,18.50,-33.53,-0.27,1.27,0.97,1721228602931
11.91,-9.66,-1.89,-1.90,0.42,0.47,1721228602941
-2.06,-52.97,47.18,-1.05,-0.85,-1.80,1721228602951
-9.20,43.78,78.45,2.28,-1.86,-1.06,1721228602961
-11.78,-5.42,-27.22,0.66,1.44,0.04,1721228602971
7.81,12.82,-19.56,-1.50,0.61,1.10,1721228602981
14.64,46.53,31.93,-0.01,0.49,0.72,1721228602991
21.01,25.82,5.08,0.55,-0.92,-0.04,1721228603001
4.99,-19.78,-51.35,0.12,-0.35,-0.79,1721228603011
-4.98,-23.41,-11.37,-1.81,0.79,-0.91,1721228603021
-15.62,17.99,68.46,-0.48,-0.71,-0.47,1721228603031
-5.42,8.91,49.52,0.83,-0.14,-0.38,1721228603041
-5.96,13.71,-1.34,0.24,-0.29,0.81,1721228603051
10.29,10.33,-20.79,-0.46,0.68,1.76,1721228603061
17.49,-34.99,3.19,-1.08,1.05,1.07,1721228603071
5.41,-24.51,66.81,-0.66,-0.17,-1.36,1721228603081
-5.82,76.57,1.22,2.23,-0.84,-1.90,1721228603091
-6.28,-4.98,-49.64,1.61,0.07,-0.95,1721228603101
-16.35,-1.90,4.35,-2.51,-0.28,0.64,1721228603111
-9.12,10.95,62.46,-0.64,0.60,1.05,1721228603121
-3.33,-47.71,22.17,-0.54,0.19,0.70,1721228603131
-12.43,-6.87,-17.58,-1.00,0.32,0.16,1721228603141
8.70,2.57,10.69,-0.07,0.14,0.68,1721228603151
7.01,-17.38,-4.13,0.64,-0.38,1.31,1721228603161
22.86,8.66,17.41,0.06,1.63,-0.96,1721228603171
3.91,78.07,35.69,1.54,-1.55,-1.11,1721228603181
-8.22,1.48,-13.10,-0.26,0.10,-0.79,1721228603191
-14.30,-53.51,-53.39,-1.06,1.00,0.49,1721228603201
-29.59,-19.80,32.61,0.82,-2.06,2.32,1721228603211
10.73,42.79,44.80,0.76,-0.54,2.45,1721228603221
18.14,-32.15,-24.16,-0.30,1.30,1.09,1721228603231
17.16,-8.77,27.43,-0.99,0.62,0.25,1721228603241
-3.95,-14.50,47.27,0.14,-0.43,-0.34,1721228603251
-2.66,-4.67,10.97,-0.08,-0.04,-1.48,1721228603261
-10.53,54.18,4.87,1.29,-0.16,-0.73,1721228603271
-18.68,18.93,-19.79,0.27,-0.35,0.38,1721228603281
-8.74,-18.16,-28.75,-1.73,1.05,0.35,1721228603291
-6.53,-49.45,43.92,-1.09,-0.64,0.59,1721228603301
-9.82,-4.93,64.18,0.32,0.25,0.06,1721228603311
-0.79,26.08,-22.13,1.90,0.25,0.62,1721228603321
4.82,-4.99,-36.82,-1.15,0.41,1.64,1721228603331
9.99,22.80,78.45,-0.89,1.15,0.32,1721228603341
8.86,78.45,78.45,-0.51,-0.15,-0.20,1721228603351
-14.12,-38.93,-54.32,1.42,-1.42,-1.47,1721228603361
-52.60,-13.66,-75.93,0.09,-0.25,-0.67,1721228603371
13.44,17.53,26.31,-0.85,0.79,0.50,1721228603381
-7.65,5.11,17.60,0.31,-2.32,1.63,1721228603391
-4.63,23.33,20.73,-0.84,3.07,0.28,1721228603401
5.26,42.64,8.82,1.22,-0.46,-0.47,1721228603411
-1.47,-46.99,-27.73,-1.37,-0.83,-0.94,1721228603421
-26.70,-39.48,57.42,-0.77,2.13,0.04,1721228603431
-3.16,35.18,64.16,0.67,2.67,0.94,1721228603441
-6.33,-0.24,-54.02,2.83,-1.20,2.17,1721228603451
14.80,-4.03,-35.92,-2.16,2.29,1.10,1721228603461
8.25,1.48,78.45,-2.70,4.14,-0.58,1721228603471
41.70,68.02,63.43,0.16,-0.22,-2.28,1721228603481
20.88,21.26,-47.89,0.98,-1.59,-2.01,1721228603491
-15.86,44.53,-69.01,-1.28,-1.22,-0.06,1721228603501
8.28,-16.09,-34.19,-1.58,4.37,1.01,1721228603511
-19.05,-77.72,77.57,-2.24,1.72,1.40,1721228603521
-23.33,78.45,78.45,2.13,-4.03,0.09,1721228603531
54.76,78.45,-19.82,4.37,-1.43,0.80,1721228603541
10.61,6.76,-78.45,-0.22,-0.10,0.28,1721228603551
16.17,-74.26,-15.43,-1.49,-1.62,-0.69,1721228603561
43.33,-21.96,20.43,-0.72,4.37,-4.37,1721228603571
-42.62,78.45,-17.70,2.68,-0.11,0.86,1721228603581
-6.95,-65.58,-78.45,4.37,0.30,3.03,1721228603591
10.80,-39.26,-40.21,-0.20,1.30,2.58,1721228603601
-64.02,-40.14,78.45,-2.07,4.37,0.15,1721228603611
53.56,78.45,-28.00,4.37,-4.37,2.09,1721228603621
18.03,-32.77,-78.45,1.02,4.37,0.73,1721228603631
17.21,-10.41,-25.59,-4.37,-1.26,-0.43,1721228603641
51.48,41.33,-2.38,-0.36,1.37,-1.37,1721228603651
4.37,-24.62,-25.46,3.51,-1.64,-3.26,1721228603661
-17.10,1.13,-24.36,-0.75,-1.08,-2.84,1721228603671
-25.86,61.29,46.99,1.51,-0.43,0.16,1721228603681
-28.53,-23.50,-37.70,1.14,1.08,1.70,1721228603691
4.72,-0.68,17.55,-1.36,1.23,2.94,1721228603701
11.67,69.81,72.16,0.06,1.85,2.58,1721228603711
34.65,-44.99,-32.64,0.83,-1.23,0.71,1721228603721
9.65,-1.47,-31.09,-2.53,-0.73,-2.08,1721228603731
-0.98,25.30,57.65,1.13,-1.86,-3.41,1721228603741
-5.96,-22.02,-0.56,2.20,-2.07,-2.03,1721228603751
-33.00,-0.23,-63.14,1.36,-0.25,-0.45,1721228603761
-26.81,-22.48,75.60,-1.98,2.21,1.80,1721228603771
-14.52,35.24,78.45,0.04,2.51,2.97,1721228603781
8.94,-66.99,-27.00,0.44,1.33,1.07,1721228603791
17.29,3.09,-21.94,0.06,-1.32,-1.36,1721228603801
11.85,18.83,3.08,1.06,-0.32,-0.86,1721228603811
6.47,11.62,-9.26,0.52,-1.15,-0.81,1721228603821
3.85,15.93,-32.22,-0.35,-0.39,-0.26,1721228603831
-4.29,-78.45,61.18,-2.58,1.61,-1.15,1721228603841
-11.95,10.72,78.45,1.64,-2.07,-0.69,1721228603851
-9.27,-3.56,-38.42,2.77,-0.16,0.14,1721228603861
5.03,5.06,-51.96,-0.84,-0.18,1.17,1721228603871
1.98,69.85,27.84,0.08,0.37,0.15,1721228603881
12.70,1.10,7.84,0.82,-1.09,0.54,1721228603891
-7.77,-37.43,-39.93,-2.14,-0.24,0.56,1721228603901
4.23,10.80,77.29,0.83,0.44,-0.90,1721228603911
-0.77,14.30,15.65,1.20,0.34,-0.58,1721228603921
-2.82,-9.69,-53.02,0.54,-0.19,-0.81,1721228603931
4.82,37.28,40.99,-1.02,1.64,0.50,1721228603941
14.57,56.31,51.35,0.82,0.95,1.13,1721228603951
-1.65,-75.38,-69.88,0.86,-1.08,0.36,1721228603961
1.06,-66.98,2.51,-1.10,0.30,-0.44,1721228603971
-14.58,40.36,78.45,-0.57,-0.26,-0.41,1721228603981
-55.44,49.26,-6.70,1.58,0.21,0.21,1721228603991
-5.95,-23.00,-49.86,-1.79,0.17,-0.03,1721228604001
-23.90,5.77,74.24,-2.19,0.54,0.02,1721228604011
6.84,13.14,64.68,2.10,1.84,0.70,1721228604021
6.41,-30.55,-78.45,2.57,-1.09,1.55,1721228604031
12.84,18.68,-47.41,-2.49,1.29,1.06,1721228604041
25.38,21.36,78.36,-0.25,2.11,-1.65,1721228604051
-3.05,-21.77,41.27,0.19,0.18,-1.39,1721228604061
-15.48,0.43,-24.33,-0.25,-1.74,-0.99,1721228604071
-14.30,26.78,1.35,-0.38,0.49,0.73,1721228604081
-1.20,-31.32,4.34,-1.47,1.45,1.06,1721228604091
-4.80,-40.60,57.74,-0.98,-0.33,-0.72,1721228604101
-13.48,31.66,54.57,-0.76,0.27,-0.52,1721228604111
-3.27,-0.42,-29.88,1.09,-0.34,0.75,1721228604121
5.87,-45.83,-38.22,-0.61,0.55,0.56,1721228604131
11.63,17.22,53.59,-2.33,1.92,-0.56,1721228604141
21.10,78.45,68.43,0.51,-1.09,-0.47,1721228604151
-7.58,-32.28,-24.22,-0.44,-1.17,-0.67,1721228604161
-8.52,-2.83,-8.67,-2.47,1.19,-0.74,1721228604171
-3.11,15.95,28.79,1.15,-1.45,0.60,1721228604181
0.93,-20.21,-14.98,1.42,0.68,1.42,1721228604191
19.64,1.64,-33.20,1.00,0.18,1.09,1721228604201
11.54,2.90,45.72,-0.78,1.36,-1.03,1721228604211
15.44,75.85,78.45,-0.28,-2.15,-1.95,1721228604221
-6.73,-22.98,-13.30,1.63,-0.67,-2.48,1721228604231
-19.89,-25.11,-37.34,-0.15,0.18,0.15,1721228604241
-8.04,-19.28,0.06,-0.29,1.78,2.37,1721228604251
7.12,2.58,22.98,1.59,0.33,2.15,1721228604261
20.40,-25.46,-10.30,0.62,-0.76,0.96,1721228604271
26.27,23.07,38.11,-0.19,0.43,-1.77,1721228604281
5.94,47.41,38.81,0.74,-2.23,-2.06,1721228604291
-13.73,19.85,-61.05,1.82,-0.82,-0.80,1721228604301
-16.75,-2.09,-36.80,-0.23,0.50,0.87,1721228604311
-14.31,30.75,-10.69,0.29,-0.22,1.78,1721228604321
6.54,-70.17,-19.97,-3.20,0.09,0.72,1721228604331
0.64,24.19,78.45,-0.13,-0.14,-1.23,1721228604341
5.91,22.86,8.17,2.98,-1.86,-1.54,1721228604351
-4.24,-25.18,-62.39,0.00,0.55,0.08,1721228604361
-17.79,-32.94,78.45,-1.04,3.63,1.40,1721228604371
12.43,0.09,36.59,-0.16,-1.14,2.02,1721228604381
1.80,-6.28,-31.92,0.01,-0.51,1.10,1721228604391
16.36,-3.41,41.32,-0.38,1.16,-0.52,1721228604401
20.34,72.93,9.11,0.06,-0.54,-0.85,1721228604411
-13.81,45.70,-26.58,0.95,0.06,-1.03,1721228604421
-2.26,-52.29,-0.88,-2.36,-0.25,-1.30,1721228604431
-13.67,12.93,57.25,-2.53,1.12,-0.82,1721228604441
-15.27,3.59,63.42,0.72,2.38,0.37,1721228604451
-13.07,-11.81,-13.10,0.52,-1.13,1.77,1721228604461
-0.78,15.95,-25.50,0.98,0.20,2.45,1721228604471
21.68,14.36,-11.30,0.88,0.85,1.42,1721228604481
29.93,56.93,-2.52,1.47,-0.01,0.58,1721228604491
27.15,-20.70,1.82,-2.25,0.09,-0.87,1721228604501
-25.96,-32.00,78.45,-1.79,-2.58,-2.41,1721228604511
-12.07,1.57,12.43,2.37,-1.39,-2.53,1721228604521
-23.82,-54.20,-63.70,1.35,-0.17,0.13,1721228604531
-18.61,-12.29,-34.30,-3.94,1.80,2.39,1721228604541
4.80,78.45,78.45,-1.31,-0.46,3.40,1721228604551
7.30,-29.72,-17.93,-0.33,0.09,2.31,1721228604561
21.35,30.52,29.54,-2.47,-0.47,0.32,1721228604571
1.51,63.19,24.32,-0.11,-1.28,-0.19,1721228604581
15.68,-43.77,-38.22,3.31,-1.44,-1.28,1721228604591
13.67,-42.89,-78.45,1.60,0.74,-0.76,1721228604601
-4.74,-14.24,-14.08,-1.84,0.04,-0.64,1721228604611
-25.10,-27.59,78.45,-1.71,-1.03,-0.87,1721228604621
67.44,78.45,1.56,1.13,1.07,-1.00,1721228604631
10.89,5.07,-21.58,2.03,0.92,1.08,1721228604641
11.81,-10.99,-77.20,2.34,-1.14,1.81,1721228604651
9.31,-78.45,7.14,0.34,-4.37,-1.07,1721228604666
48.46,-46.16,78.09,-1.25,4.37,-0.79,1721228604670
-26.37,14.17,42.93,1.72,-1.60,-0.03,1721228604680
-3.59,-7.22,-8.09,0.80,-2.06,-0.38,1721228604690
-17.05,-56.17,38.27,-1.63,-0.55,-0.43,1721228604700
-21.74,71.09,78.45,0.50,1.67,1.87,1721228604710
9.22,-0.77,2.04,0.47,1.22,2.43,1721228604720
13.09,-27.14,-40.08,-0.78,-0.95,0.21,1721228604730
27.65,-63.76,56.87,-0.11,0.83,-1.76,1721228604740
12.99,24.92,-0.99,0.82,-1.84,-1.06,1721228604750
-19.53,-49.38,-65.83,0.23,1.04,-1.13,1721228604760
-2.17,-39.34,7.54,-2.45,0.75,-1.16,1721228604770
56.91,27.89,74.85,0.71,-0.24,-0.16,1721228604780
-0.68,-1.21,33.67,-1.40,0.84,1.91,1721228604790
-26.18,39.55,-16.12,2.34,-0.36,2.27,1721228604800
32.46,19.39,-27.21,0.80,1.08,1.45,1721228604810
23.47,-19.26,-42.79,-0.66,0.45,-0.53,1721228604820
-3.62,-49.57,28.16,-1.06,-0.51,-3.66,1721228604830
3.66,3.85,78.45,1.28,-3.30,-3.21,1721228604840
-20.29,11.72,-3.59,1.23,0.72,-0.72,1721228604850
-23.43,-39.26,-59.93,0.53,-0.12,1.01,1721228604860
-34.65,58.29,34.83,-0.81,1.87,1.39,1721228604870
-7.14,3.42,5.54,-2.03,1.98,1.17,1721228604880
-3.77,-48.95,29.82,1.09,-1.20,-0.24,1721228604890
8.03,33.98,-4.69,1.93,-0.24,0.78,1721228604900
6.51,-31.43,-59.02,-0.48,0.98,1.40,1721228604910
30.56,-20.60,78.38,-1.84,2.72,-0.81,1721228604920
6.64,78.45,67.59,0.57,-2.57,-0.24,1721228604930
-7.63,-78.45,-78.45,2.13,0.16,-0.89,1721228604940
-41.80,2.78,-53.60,-4.37,2.15,-0.80,1721228604950
-18.44,78.45,78.45,0.31,-0.17,-0.09,1721228604960
-44.39,10.58,7.69,2.25,0.74,0.92,1721228604970
1.71,-23.33,-61.30,-1.94,-1.35,0.37,1721228604980
-2.55,-47.57,78.45,-2.30,1.86,-0.74,1721228604990
-21.82,8.95,54.51,0.71,0.80,0.81,1721228605000
-19.86,-38.52,-67.28,0.38,-1.26,0.71,1721228605010
6.32,11.17,31.39,-0.78,4.01,-1.22,1721228605020
-25.86,71.13,41.41,0.14,-1.79,-0.66,1721228605030
-12.66,-3.99,-35.83,-0.34,0.57,-0.55,1721228605040
2.80,19.80,8.69,-0.05,0.76,0.41,1721228605050
-5.68,36.56,-14.72,1.15,-0.34,0.68,1721228605060
8.04,-25.27,-35.84,-1.62,0.28,-0.96,1721228605070
-12.73,-78.45,33.16,-1.49,-1.31,-1.94,1721228605080
-15.77,63.02,78.45,1.09,-1.37,-0.45,1721228605090
8.00,12.86,-36.86,1.26,-0.81,0.24,1721228605100
4.26,38.64,-76.02,-0.82,0.99,0.39,1721228605110
-6.09,-78.45,54.58,-4.37,1.02,0.39,1721228605120
13.26,26.93,78.45,-1.79,1.67,-0.44,1721228605130
4.51,65.41,-5.89,0.85,1.42,0.82,1721228605140
11.33,20.74,-67.72,2.24,-0.81,0.15,1721228605150
8.00,-26.90,-64.08,-0.48,-4.12,-0.13,1721228605160
19.80,-5.72,65.77,-3.24,4.37,-0.14,1721228605170
78.45,73.14,-5.53,3.43,-2.43,-1.41,1721228605180
-3.16,-42.36,-25.06,0.37,1.33,-0.58,1721228605190
4.55,5.24,-15.83,-1.45,-1.64,0.54,1721228605200
4.49,46.56,24.41,0.66,-0.57,0.85,1721228605210
-1.83,-9.06,31.10,1.06,-0.39,-0.46,1721228605220
0.77,46.56,17.79,1.14,-0.21,-0.56,1721228605230
-6.48,49.22,-11.54,1.16,-0.27,0.09,1721228605240
-18.59,-78.45,-43.40,-2.26,0.72,0.20,1721228605250
1.31,-78.45,77.58,-0.17,2.93,0.79,1721228605260
21.12,56.66,78.45,2.34,1.06,1.19,1721228605270
36.48,-47.92,-48.56,3.41,-2.11,-0.42,1721228605280
3.21,-78.45,-44.62,-3.79,-1.71,-1.86,1721228605290
-78.45,78.45,72.41,2.40,0.82,-2.57,1721228605300
29.70,5.27,5.62,3.82,-2.59,-2.02,1721228605310
-64.58,10.59,-64.26,0.09,-0.38,1.05,1721228605320
7.64,-22.49,-70.30,-3.74,1.75,0.92,1721228605330
-31.11,78.45,78.45,2.09,-1.27,0.27,1721228605340
1.99,-39.19,-27.07,2.01,-0.12,-0.37,1721228605350
3.68,7.43,49.55,-0.07,-0.22,-1.51,1721228605360
6.76,13.96,-7.69,1.99,-1.61,-0.55,1721228605370
-3.02,-42.56,-71.74,-0.22,0.49,-0.58,1721228605380
-17.65,-57.42,78.45,-1.02,3.78,0.22,1721228605390
10.12,56.80,72.03,2.13,-1.47,0.50,1721228605400
10.91,43.49,-58.16,2.10,-1.42,0.56,1721228605410
4.53,-11.16,-78.45,-1.56,0.02,0.40,1721228605420
8.08,-70.48,-11.93,-0.37,4.37,0.10,1721228605430
-17.05,18.41,78.45,-0.13,-1.90,-2.39,1721228605440
51.94,47.34,78.45,1.36,-3.09,1.32,1721228605450
-19.89,-78.45,-78.45,4.37,-0.07,0.73,1721228605460
-15.81,75.20,-12.66,-0.57,-4.37,0.57,1721228605470
18.44,-13.12,-27.42,-0.77,4.37,-1.08,1721228605480
-33.12,78.45,45.56,-0.17,-4.37,-1.87,1721228605490
3.25,-13.59,78.45,0.21,3.56,-2.07,1721228605500
30.02,46.19,-78.45,0.92,-3.12,0.10,1721228605510
-7.74,-78.45,53.98,-1.25,4.37,2.45,1721228605520
-38.75,7.22,27.97,-0.77,4.37,1.54,1721228605530
41.88,-1.76,-50.22,3.31,-0.80,-0.33,1721228605540
7.38,-17.24,-78.45,-1.40,-1.47,-1.08,1721228605550
52.99,-78.45,78.45,-2.81,4.37,-2.10,1721228605560
-10.06,78.45,78.45,-0.46,0.28,0.31,1721228605570
-0.21,-13.64,-1.65,4.37,-1.41,-1.22,1721228605580
-3.32,-10.04,-70.38,-0.14,-1.45,-0.74,1721228605590
-43.01,7.20,78.45,0.81,-1.99,2.05,1721228605600
3.38,-23.31,1.43,0.36,0.91,0.96,1721228605610
15.79,-40.82,59.00,-1.89,0.94,-0.47,1721228605620
8.60,39.16,62.97,1.35,-1.87,-1.74,1721228605630
-6.62,-40.02,-32.17,1.76,-1.18,-0.71,1721228605640
-15.17,78.45,-26.37,-2.05,-0.45,-0.51,1721228605650
-25.58,-59.05,78.45,-1.07,1.18,0.15,1721228605660
-0.05,-11.48,5.39,1.58,-1.05,0.50,1721228605670
0.70,-20.82,-63.54,0.43,-1.23,0.31,1721228605680
4.05,-10.51,60.67,-2.34,2.32,0.56,1721228605690
-0.54,37.42,69.03,2.00,-1.12,1.39,1721228605700
23.12,-31.95,-28.28,1.43,0.05,0.29,1721228605710
33.89,54.25,-0.49,-3.63,1.05,-2.05,1721228605720
3.55,78.45,1.81,2.00,-2.69,-2.90,1721228605730
-6.19,-23.97,-63.20,2.29,-0.35,-0.17,1721228605740
0.01,-45.05,-78.45,-0.95,-0.88,-0.09,1721228605750
19.46,-55.31,63.86,-1.14,4.37,-0.42,1721228605760
23.15,65.87,78.45,-0.61,1.64,0.25,1721228605770
13.43,-34.82,-58.03,1.78,0.99,0.13,1721228605780
-14.76,40.48,-36.98,1.31,-1.64,-0.70,1721228605790
4.51,-36.81,-70.07,-1.15,-0.69,-1.01,1721228605800
-6.45,-78.45,78.45,-3.09,2.59,-1.86,1721228605810
11.51,72.01,4.91,-1.05,0.52,-1.28,1721228605820
4.82,31.43,-12.45,1.39,-0.22,1.28,1721228605830
11.64,32.88,1.53,0.37,1.06,1.65,1721228605840
15.79,-18.42,12.56,-0.68,0.50,1.25,1721228605850
17.59,-9.12,9.70,-0.72,0.44,-0.95,1721228605860
26.15,48.12,2.74,1.13,-0.31,-2.53,1721228605870
-2.19,24.80,-24.13,0.52,-0.70,-1.39,1721228605880
-6.24,-22.26,-30.01,-1.87,-0.09,-0.95,1721228605890
-19.50,-48.00,15.75,-0.42,-0.69,-0.62,1721228605900
-8.84,52.26,60.25,2.25,-0.70,1.05,1721228605910
9.32,-14.38,-31.21,0.77,0.94,1.25,1721228605920
13.56,25.44,0.78,-1.92,0.50,-0.23,1721228605930
-11.12,12.95,33.67,0.14,-0.35,-1.09,1721228605940
-5.05,-7.32,-26.60,1.92,-0.69,-0.87,1721228605950
-5.36,-30.77,-26.43,-4.18,1.49,-0.24,1721228605960
-15.59,38.72,78.45,-0.08,0.86,-0.86,1721228605970
3.12,36.15,5.31,2.05,0.39,0.53,1721228605980
5.11,-61.84,-62.51,-2.03,1.36,1.08,1721228605990
-2.71,8.69,78.45,-2.05,1.58,0.41,1721228606000
12.03,35.44,10.59,1.24,0.12,0.24,1721228606010
16.35,-30.71,-55.34,1.83,-1.13,-0.86,1721228606020
7.80,-40.76,-12.51,-2.92,-0.30,-1.39,1721228606030
-51.32,78.45,78.45,-0.43,-0.19,-0.23,1721228606040
-16.47,-26.35,-3.29,0.29,0.57,0.22,1721228606050
-8.11,26.73,-0.82,-1.24,0.09,0.84,1721228606060
-0.65,29.32,27.02,0.80,0.42,0.34,1721228606070
19.43,-38.60,26.11,0.72,-1.05,-0.15,1721228606080
-3.22,-23.97,11.01,-0.59,-0.64,-0.38,1721228606090
12.52,45.24,-26.79,1.54,-0.38,0.05,1721228606100
0.38,-46.81,-30.14,0.10,-0.56,-0.65,1721228606110
-4.82,-14.16,36.58,-1.93,1.80,-1.10,1721228606120
41.85,78.45,58.51,3.72,-0.62,-0.89,1721228606130
-7.20,-4.80,-14.97,-1.12,0.02,0.92,1721228606140
-8.26,-36.27,22.34,-2.32,0.91,-0.47,1721228606150
-8.03,29.09,62.63,1.53,-0.64,0.22,1721228606160
-9.80,-33.51,-60.96,0.87,-0.93,0.21,1721228606170
14.68,19.74,-14.63,-3.35,1.82,0.63,1721228606180
-0.57,54.59,60.60,0.92,-0.46,1.11,1721228606190
14.19,52.61,2.37,2.18,-0.49,0.11,1721228606200
8.48,-23.17,-64.25,0.28,-0.37,-0.93,1721228606210
-6.04,-78.45,-43.29,-2.73,-1.32,-0.68,1721228606220
5.71,50.75,78.45,-1.02,0.65,-2.04,1721228606230
15.93,43.25,78.45,1.73,-0.49,-1.07,1721228606240
-24.70,-78.45,-69.68,4.37,-1.58,0.60,1721228606250
5.03,17.75,-54.22,-3.96,-0.62,2.61,1721228606260
45.21,-25.85,62.81,-3.85,4.37,0.47,1721228606270
-26.49,-16.36,78.45,1.90,-2.82,0.11,1721228606280
7.20,6.28,-0.44,0.81,0.41,-0.63,1721228606290
6.52,-1.69,-57.98,-0.60,-0.92,-0.74,1721228606300
17.92,-29.05,78.45,-3.31,3.22,-0.64,1721228606310
5.01,19.49,78.45,1.23,2.00,-0.19,1721228606320
-3.28,-56.53,-78.45,3.79,-1.17,-0.47,1721228606330
-11.40,-42.32,-71.50,-2.68,0.81,0.04,1721228606340
15.19,-78.45,78.45,-2.67,4.37,0.47,1721228606350
42.29,78.45,-7.59,1.83,-2.85,1.31,1721228606360
-6.02,-12.22,-72.00,2.67,-1.76,-0.09,1721228606370
-24.84,-54.51,-78.45,-3.69,0.46,-0.86,1721228606380
12.20,-49.41,9.61,-0.72,4.37,0.14,1721228606390
-24.02,11.30,78.45,-1.93,-1.40,-0.51,1721228606400
-2.84,23.92,-4.25,4.37,-3.06,0.52,1721228606410
2.75,-2.41,-78.45,2.59,-1.12,1.67,1721228606420
11.96,-42.40,-25.22,-1.41,-4.37,1.47,1721228606430
-43.29,6.65,-21.41,0.37,2.72,-2.12,1721228606440
50.22,49.02,38.61,4.37,-3.78,-0.19,1721228606450
2.05,-26.63,-67.40,2.76,-0.85,-1.80,1721228606460
-50.50,-42.47,-64.60,-0.12,-2.13,-0.52,1721228606470
56.83,-43.01,40.67,-0.67,1.41,-0.66,1721228606480
-12.56,47.92,78.45,2.20,-1.27,1.73,1721228606490
-6.31,-44.19,-45.30,1.87,-2.22,2.18,1721228606500
32.05,-31.30,45.60,-4.37,4.37,1.43,1721228606510
-78.45,5.09,78.45,-2.68,-2.68,0.82,1721228606520
23.86,-31.38,-47.57,3.25,-0.04,-0.97,1721228606530
-1.70,-9.08,-78.45,3.28,-2.81,-1.04,1721228606540
16.12,-46.99,-32.13,-0.91,2.66,-0.53,1721228606550
-78.45,78.45,38.56,0.73,1.07,-2.94,1721228606560
-13.98,78.45,78.45,1.95,-4.37,0.80,1721228606570
-23.28,-78.45,-78.45,3.03,2.70,2.33,1721228606580
56.39,61.00,-64.45,0.70,-3.77,1.27,1721228606590
43.86,-10.33,-44.53,-0.47,4.37,-0.87,1721228606600
-11.47,-33.47,12.49,-4.37,2.72,-1.98,1721228606610
78.45,78.45,78.45,0.76,-3.39,-3.68,1721228606620
-11.80,15.55,23.37,3.50,-3.13,-1.28,1721228606630
-24.97,-1.70,-78.45,0.95,2.22,1.94,1721228606640
-29.58,-27.20,-78.45,-0.52,-0.56,3.06,1721228606650
72.38,47.83,39.89,-0.93,3.70,0.89,1721228606660
24.76,5.95,12.67,1.32,-2.75,-0.31,1721228606675
36.74,-52.44,21.43,0.76,-0.89,-0.28,1721228606679
13.56,9.02,29.01,-3.22,3.43,-0.76,1721228606689
0.03,46.47,7.78,-0.01,0.54,-0.29,1721228606699
-8.35,-25.89,-23.24,-0.06,-0.34,-0.25,1721228606709
-3.20,-32.17,41.39,-1.16,1.58,-0.79,1721228606719
-11.11,14.02,4.31,1.71,-0.77,-0.23,1721228606729
-3.86,-7.04,-60.33,-1.32,-0.32,0.92,1721228606739
-4.29,5.17,78.45,-1.20,0.87,0.64,1721228606749
-57.42,16.53,78.45,0.06,0.10,1.19,1721228606759
3.84,-78.45,-78.45,3.82,-1.37,-0.05,1721228606769
8.46,10.00,-64.34,-2.24,0.79,0.18,1721228606779
40.03,39.05,23.33,-1.46,3.84,-0.84,1721228606789
23.83,9.49,16.23,1.91,-0.90,-0.48,1721228606799
0.72,-23.32,-49.71,0.33,-0.78,-1.29,1721228606809
-25.44,-34.90,27.08,-0.65,-0.76,-2.47,1721228606819
-24.71,35.72,78.45,-0.26,1.90,-1.41,1721228606829
-13.57,78.45,31.50,0.91,2.31,0.14,1721228606839
-13.18,19.05,17.17,0.89,-1.24,1.97,1721228606849
9.41,-78.45,-42.55,-1.98,1.61,1.52,1721228606859
17.15,0.33,44.76,1.24,2.21,0.14,1721228606869
5.68,-9.96,-36.61,0.69,-0.57,0.45,1721228606879
4.72,-62.28,-38.94,-0.78,0.99,-2.61,1721228606889
-1.71,48.17,45.27,0.63,-2.16,-3.36,1721228606899
-23.57,44.62,-0.21,1.11,0.81,-0.28,1721228606909
-15.00,-44.28,-25.66,-2.05,1.48,1.32,1721228606919
16.02,-0.14,54.54,-0.97,1.30,1.14,1721228606929
11.22,-5.32,-8.21,0.38,-0.74,0.31,1721228606939
18.51,-34.77,38.00,0.17,0.33,-0.87,1721228606949
6.49,-17.27,62.49,1.78,-0.52,-0.53,1721228606959
1.81,-2.48,7.39,-0.28,0.42,-1.01,1721228606969
-21.69,23.36,-3.45,0.17,0.00,-1.16,1721228606979
-11.38,-11.66,-14.09,-0.42,-0.52,-0.64,1721228606989
-12.30,25.47,8.40,-0.49,0.51,0.29,1721228606999
-0.63,-19.72,-27.84,-0.12,-0.13,0.48,1721228607009
2.96,-32.42,-16.05,-2.08,1.15,1.06,1721228607019
0.34,2.97,78.45,-0.82,-0.44,-1.02,1721228607029
-1.46,61.10,63.93,2.02,-2.20,0.16,1721228607039
-6.43,-2.09,-78.45,4.37,-1.50,0.81,1721228607049
14.27,-13.35,-78.45,-0.19,-0.65,0.33,1721228607059
30.83,-38.00,-14.08,-1.46,2.28,0.12,1721228607069
-20.63,6.86,-7.03,-0.48,0.43,-3.35,1721228607079
40.83,78.45,48.34,2.16,-0.14,-1.01,1721228607089
-40.72,-63.81,-76.66,3.72,-4.17,0.54,1721228607099
-3.67,-27.87,-68.50,-0.68,2.28,0.77,1721228607109
2.89,-15.00,68.18,-0.31,3.23,0.74,1721228607119
11.39,32.18,34.92,1.61,-0.44,0.88,1721228607129
-0.00,17.18,6.18,0.77,-0.41,0.06,1721228607139
3.74,15.94,5.24,0.07,0.07,0.01,1721228607149
-3.74,-41.45,-5.35,-0.50,-0.07,0.01,1721228607159
1.66,-15.49,27.28,-0.76,0.67,-0.59,1721228607169
-9.18,40.40,19.57,0.77,0.11,0.39,1721228607179
-4.97,-14.97,4.81,0.77,-0.09,0.52,1721228607189
-0.16,26.13,33.26,0.54,0.35,0.56,1721228607199
-3.20,55.76,0.77,1.08,-1.35,0.83,1721228607209
-14.17,-73.06,-9.25,-0.28,-4.37,0.17,1721228607219
11.85,-78.45,41.30,-2.62,4.37,-1.51,1721228607229
15.40,31.09,78.45,2.59,-3.52,-0.14,1721228607239
7.99,19.23,-65.52,3.47,0.57,-0.19,1721228607249
6.68,-18.82,-75.31,2.09,-1.48,0.59,1721228607259
-18.56,-30.83,16.20,-1.21,-4.37,1.21,1721228607269
40.82,78.45,47.33,-1.50,0.80,-0.45,1721228607279
9.22,7.19,78.45,-1.05,2.41,0.53,1721228607289
6.20,-49.14,-78.45,1.31,-0.88,0.00,1721228607299
-3.54,-7.32,-78.14,-1.95,0.31,-0.59,1721228607309
3.63,-10.69,51.15,-1.33,0.31,0.18,1721228607319
3.19,25.12,24.19,2.63,-0.37,0.34,1721228607329
8.91,-33.55,-53.58,0.85,-0.11,0.24,1721228607339
9.01,-38.63,29.80,-1.81,0.48,0.14,1721228607349
-0.97,15.56,78.45,-0.32,-0.85,0.62,1721228607359
22.57,21.09,2.91,0.35,1.28,0.23,1721228607369
12.98,-17.94,-43.97,0.87,0.49,-0.68,1721228607379
-2.91,-34.96,-20.19,-1.06,-1.18,-0.98,1721228607389
-10.84,19.79,53.61,-1.26,-0.28,-0.42,1721228607399
-13.11,46.48,55.92,1.35,0.52,0.01,1721228607409
4.21,-18.04,-59.57,1.22,-0.79,1.29,1721228607419
20.17,12.94,-35.75,-1.59,0.44,1.61,1721228607429
5.77,-19.11,23.39,0.37,0.80,-0.54,1721228607439
-11.54,45.74,78.45,-1.21,1.22,-1.09,1721228607449
6.85,40.33,-33.54,0.92,-1.04,-0.86,1721228607459
-18.64,-74.45,-78.45,-2.06,0.46,-0.54,1721228607469
-20.89,-67.19,23.19,-4.37,-0.45,-1.68,1721228607479
71.74,78.45,78.45,0.68,-0.31,-0.64,1721228607489
-1.02,-40.41,-43.09,4.37,-0.06,0.81,1721228607499
40.43,29.67,-78.45,2.31,-3.11,0.25,1721228607509
-14.89,-18.77,-53.29,-1.78,1.26,-0.45,1721228607519
3.40,78.45,5.41,0.12,0.74,-0.45,1721228607529
11.18,-78.45,14.44,4.37,-2.73,-0.74,1721228607539
5.58,60.75,-47.30,-0.97,-0.53,-0.31,1721228607549
4.27,72.35,47.54,1.54,-0.98,-0.49,1721228607559
2.94,4.84,3.16,0.77,0.73,-0.10,1721228607569
0.69,-8.40,1.42,-1.39,0.41,0.64,1721228607579
2.23,-48.73,-6.91,-0.08,0.14,-0.30,1721228607589
-18.31,56.97,34.78,0.06,-0.14,-0.28,1721228607599
-3.38,4.64,-0.56,0.99,-0.16,0.10,1721228607609
9.16,-27.22,-34.57,0.34,0.52,0.25,1721228607619
11.97,-4.70,5.82,-1.16,1.61,-0.18,1721228607629
-7.49,49.80,57.95,1.31,-1.09,-0.65,1721228607639
-13.34,-50.65,15.61,-0.20,0.71,-1.33,1721228607649
-1.24,13.36,12.72,0.30,-0.14,-0.45,1721228607659
-6.52,25.97,-20.03,0.49,-0.11,1.06,1721228607669
11.84,-43.43,-15.73,-0.67,1.30,0.45,1721228607679
3.62,11.45,49.19,0.58,-0.09,-1.05,1721228607689
18.16,71.60,-19.89,-0.10,-1.33,-0.34,1721228607699
-7.65,-38.71,-15.67,-1.49,1.48,-0.18,1721228607709
-9.68,42.54,78.34,0.63,-0.16,-0.20,1721228607719
-21.16,23.54,22.11,0.65,0.82,0.69,1721228607729
15.31,-14.31,-56.34,-0.69,-0.26,0.30,1721228607739
-4.53,-36.59,75.02,-3.46,3.22,-1.45,1721228607749
-12.09,-11.51,59.95,0.71,-2.75,-1.13,1721228607759
-18.39,-16.31,-14.48,-0.35,0.58,-0.54,1721228607769
1.56,24.47,-6.22,-0.77,0.83,1.24,1721228607779
0.39,13.72,18.66,0.15,0.91,0.60,1721228607789
8.26,16.35,8.67,0.60,-0.30,0.02,1721228607799
6.04,20.35,-11.27,0.25,0.15,-0.24,1721228607809
1.53,-72.85,-32.76,-0.55,-0.54,-0.37,1721228607819
-11.79,-33.71,60.81,-0.76,1.67,-1.47,1721228607829
-1.05,78.45,54.46,1.85,-1.00,-0.67,1721228607839
-9.00,-28.40,-78.45,2.53,-0.47,-0.47,1721228607849
-9.07,-42.28,-43.25,-2.68,0.57,-0.35,1721228607859
4.98,40.79,51.68,0.05,0.51,1.67,1721228607869
0.68,-10.93,22.76,-0.57,1.32,1.00,1721228607879
10.81,-5.85,-30.99,0.77,-1.20,-1.22,1721228607889
8.24,44.40,14.65,0.13,1.81,-1.73,1721228607899
-1.93,-42.01,13.01,-0.28,-2.01,-0.66,1721228607909
-6.18,16.22,35.58,-1.33,0.12,-0.50,1721228607919
-12.57,58.43,22.34,1.06,-0.23,1.10,1721228607929
-6.96,-56.55,-11.07,0.43,0.41,0.92,1721228607939
8.63,1.57,47.64,-1.25,1.29,0.57,1721228607949
63.27,78.45,-32.36,0.83,-0.78,-0.39,1721228607959
18.49,-78.45,-12.33,1.13,-0.57,-1.88,1721228607969
9.56,-56.13,19.81,-0.42,0.41,-1.82,1721228607979
19.66,78.45,9.14,0.51,-0.83,-1.50,1721228607989
-16.32,-10.16,0.08,0.27,0.17,0.06,1721228607999
-17.00,-28.00,20.21,-0.74,0.00,0.86,1721228608009
-0.57,13.84,2.40,1.29,0.17,1.55,1721228608019
9.15,-36.92,-36.29,0.84,-0.81,1.17,1721228608029
27.65,-58.40,71.01,-2.19,2.76,-1.85,1721228608039
-17.90,73.56,78.45,0.02,-1.16,-0.47,1721228608049
-11.24,-0.50,-16.28,2.74,-0.15,-0.38,1721228608059
0.34,-11.34,-40.43,-0.46,0.95,0.02,1721228608069
-22.31,-12.79,57.39,-1.04,1.06,1.52,1721228608079
0.68,-14.75,40.01,0.76,0.27,1.21,1721228608089
20.77,18.64,13.24,1.02,0.28,0.67,1721228608099
3.91,26.65,-24.44,0.94,-1.14,-0.14,1721228608109
-0.42,-51.81,-41.12,-1.26,0.15,-1.41,1721228608119
-7.55,-16.26,43.78,-0.77,1.44,-0.47,1721228608129
-16.12,1.69,18.46,1.10,-1.00,-0.09,1721228608139
-8.44,-9.30,60.76,0.22,0.53,0.71,1721228608149
-2.34,78.45,25.25,1.69,-0.22,2.00,1721228608159
19.81,-47.30,-78.45,0.26,0.12,0.93,1721228608169
4.02,-78.45,-58.84,-3.58,-0.19,-0.68,1721228608179
0.51,49.05,78.45,-0.60,-0.35,-3.56,1721228608189
-15.82,61.63,37.25,3.52,-1.99,-1.52,1721228608199
-27.51,-46.07,-62.35,3.00,0.30,0.91,1721228608209
3.39,58.45,-63.27,-4.37,1.33,1.33,1721228608219
-78.45,78.45,19.89,0.89,0.26,2.02,1721228608229
20.30,-78.45,-48.60,0.51,0.64,-0.39,1721228608239
21.62,-71.90,-12.00,1.98,-2.07,-0.10,1721228608249
-25.43,-4.33,78.45,0.67,1.01,-0.71,1721228608259
-20.18,77.48,36.02,1.51,0.26,0.40,1721228608269
10.66,-78.45,-78.45,2.78,-1.80,1.25,1721228608279
26.32,11.49,-0.70,-4.37,3.12,-0.53,1721228608289
0.08,78.45,78.45,0.06,-1.94,0.87,1721228608299
-5.87,-78.45,-45.88,3.30,-0.27,0.19,1721228608309
18.17,-25.17,-78.45,-3.32,2.29,-0.93,1721228608319
15.46,-72.58,78.45,-2.85,4.37,0.31,1721228608329
-12.99,75.39,12.26,0.07,2.94,1.05,1721228608339
9.51,16.13,-28.23,1.08,-1.95,0.92,1721228608349
-5.02,-22.57,-16.82,-3.04,2.52,0.96,1721228608359
2.88,-25.76,35.95,1.53,-1.15,-0.13,1721228608369
1.01,22.49,-20.12,2.73,-0.68,0.51,1721228608379
5.06,-10.99,-25.11,-0.12,0.26,0.14,1721228608389
0.74,45.80,49.00,0.69,-0.67,0.03,1721228608399
2.87,-7.39,-8.22,0.62,-0.83,0.20,1721228608409
-0.54,-15.54,-29.93,-0.80,-0.47,0.66,1721228608419
-28.66,47.53,78.45,0.07,-0.38,0.20,1721228608429
-15.70,32.69,70.54,1.19,0.54,1.46,1721228608439
3.42,-34.84,-64.82,3.10,-0.57,1.19,1721228608449
6.96,-12.69,9.05,-4.37,4.03,-0.43,1721228608459
-43.71,13.79,78.45,0.10,-2.27,0.94,1721228608469
14.99,-52.62,-76.78,2.65,1.36,1.12,1721228608479
14.60,-10.02,-54.65,-3.60,0.25,0.73,1721228608489
-42.39,78.45,78.45,1.32,-2.20,-0.52,1721228608499
17.12,-30.39,-31.89,2.54,-0.12,0.08,1721228608509
45.49,-9.90,-68.68,-2.28,0.78,-1.07,1721228608519
-10.40,-16.72,-36.37,-4.37,4.37,-2.27,1721228608529
-78.45,78.45,78.45,3.89,-4.37,-2.99,1721228608539
-28.29,11.44,15.41,4.37,0.56,0.17,1721228608549
-12.12,-52.03,-78.45,4.37,-0.83,3.25,1721228608559
26.66,-43.49,-74.03,-0.09,0.83,1.30,1721228608569
17.63,-45.45,76.93,-1.51,4.37,-0.41,1721228608579
-66.70,12.51,28.56,-0.00,-1.21,-0.01,1721228608589
10.57,-70.50,-46.79,1.45,1.55,-0.83,1721228608599
12.78,-0.23,-0.50,-0.68,0.11,-0.55,1721228608609
-14.99,26.00,3.18,-0.61,-1.40,0.22,1721228608619
-16.80,-25.89,-4.16,-0.88,1.29,-0.57,1721228608629
-3.04,-3.25,16.12,0.73,0.10,0.26,1721228608639
4.13,-5.05,-45.95,1.07,-0.35,0.74,1721228608649
5.92,-38.41,-3.74,-2.76,1.90,0.74,1721228608659
4.75,78.45,78.45,0.20,-2.27,-0.26,1721228608669
-1.59,-78.45,-56.84,1.38,-1.52,-0.17,1721228608684
7.67,-68.26,-42.12,-1.91,1.18,-0.20,1721228608688
-14.69,58.09,78.45,-1.18,-0.49,-0.43,1721228608698
-35.14,43.25,37.43,2.42,-0.88,0.00,1721228608708
-7.36,-54.25,-50.36,4.37,-0.23,0.03,1721228608718
7.82,-76.58,-70.63,-1.10,-0.99,0.66,1721228608728
15.39,-26.62,31.04,-2.03,2.35,-0.10,1721228608738
-24.22,36.04,37.57,0.24,-1.83,0.10,1721228608748
4.15,-9.42,4.11,0.04,0.90,-0.93,1721228608758
-3.00,-12.38,30.94,-0.34,0.49,-0.19,1721228608768
-2.10,6.51,1.82,0.34,-0.73,-0.05,1721228608778
3.56,57.49,-14.44,0.97,0.44,0.20,1721228608788
-1.42,-50.55,-21.85,-2.71,-0.41,-0.22,1721228608798
12.96,-50.81,47.50,0.47,-0.29,-0.70,1721228608808
17.78,78.45,50.48,0.30,0.67,0.87,1721228608818
13.30,-67.68,-32.43,1.38,0.03,-0.56,1721228608828
-1.29,-19.51,11.04,-1.33,0.28,0.01,1721228608838
4.28,29.18,36.52,0.63,1.10,-0.21,1721228608848
5.78,-16.81,-5.67,0.05,0.51,-1.19,1721228608858
-7.80,27.61,-1.59,0.27,0.13,-1.21,1721228608868
-17.68,6.79,-19.38,1.27,-0.44,-0.19,1721228608878
-12.29,3.13,-6.72,-1.32,-0.49,0.06,1721228608888
-6.18,-55.45,45.55,-1.65,0.41,1.00,1721228608898
13.43,33.16,56.58,1.44,1.05,0.91,1721228608908
1.92,3.88,-17.50,-0.71,-1.33,0.08,1721228608918
-0.81,-13.11,-47.37,-0.60,0.77,-1.62,1721228608928
-2.06,-55.31,56.55,-0.93,1.56,-0.93,1721228608938
-4.81,3.24,56.28,1.34,-0.37,-0.29,1721228608948
2.70,71.80,-8.07,1.64,-0.06,0.39,1721228608958
-0.69,12.77,-6.66,-0.94,-0.21,0.59,1721228608968
-3.40,-78.45,37.49,-2.75,-0.01,-0.09,1721228608978
3.57,6.63,53.15,1.57,0.79,-0.44,1721228608988
0.29,15.90,24.50,0.65,-0.70,0.33,1721228608998
-7.78,15.04,-68.04,1.22,-0.69,0.05,1721228609008
4.94,-24.61,-20.34,0.73,0.94,-0.50,1721228609018
-2.29,26.13,56.27,0.12,-0.79,0.03,1721228609028
-2.46,-6.34,26.80,-0.55,0.83,0.55,1721228609038
2.77,-20.06,-22.36,1.09,-0.24,0.52,1721228609048
1.15,14.47,-15.84,-1.55,0.04,-0.51,1721228609058
-0.85,-29.60,29.36,-1.10,-0.09,-0.61,1721228609068
-0.19,-27.49,36.01,0.44,0.25,-0.35,1721228609078
-10.10,35.11,24.60,0.69,-0.42,-0.20,1721228609088
-7.68,-9.00,-11.06,-1.44,-0.65,0.48,1721228609098
-6.31,24.30,61.23,-0.27,0.10,0.46,1721228609108
16.91,43.20,18.67,0.92,-0.17,0.62,1721228609118
11.95,-78.44,-52.62,0.73,-0.86,-0.42,1721228609128
27.28,58.86,-76.98,-0.63,-1.96,-1.09,1721228609138
16.35,-14.11,34.91,-0.49,4.21,-0.99,1721228609148
-10.04,-58.12,71.85,-0.56,-0.05,-0.27,1721228609158
-13.51,65.79,78.45,0.75,-1.89,1.00,1721228609168
11.93,49.59,-2.66,1.51,1.18,2.11,1721228609178
12.83,-56.33,-78.45,-0.39,0.63,1.82,1721228609188
24.62,-31.70,-54.54,-0.11,0.77,-1.25,1721228609198
-3.90,-29.36,-27.53,-2.10,1.98,-1.95,1721228609208
-39.61,-19.74,63.75,-0.04,-4.35,-1.01,1721228609218
-78.45,67.09,69.16,-1.60,1.81,-0.65,1721228609228
-6.89,56.66,-17.50,1.24,0.47,0.79,1721228609238
-1.94,-4.84,-61.87,0.35,-0.02,1.43,1721228609248
15.47,-44.08,-39.05,-2.22,1.58,1.10,1721228609258
9.82,6.95,12.64,1.23,-0.17,0.30,1721228609268
2.29,-0.15,4.80,1.37,-0.59,-1.03,1721228609278
-9.17,-10.74,17.69,-1.14,0.44,-0.18,1721228609288
-15.02,6.90,76.59,-0.42,-0.32,-1.07,1721228609298
-4.92,27.97,16.70,1.63,-0.35,-0.06,1721228609308
-4.12,-25.59,-37.83,0.56,0.97,0.74,1721228609318
11.16,-9.35,-6.70,0.46,0.92,0.15,1721228609328
6.17,-9.02,-40.60,1.18,-0.56,-1.06,1721228609338
-3.76,-15.96,-29.76,-0.88,1.19,-1.67,1721228609348
-14.67,-6.63,78.45,-1.25,-1.58,-1.20,1721228609358
-4.02,78.45,78.45,-0.02,0.77,1.27,1721228609368
-16.75,-59.32,-73.60,3.44,1.94,0.98,1721228609378
32.60,-16.89,-78.45,3.55,-3.45,1.18,1721228609388
12.81,-13.55,-37.36,-0.75,1.20,-0.18,1721228609398
8.66,20.68,26.90,-0.47,4.37,-2.47,1721228609408
0.31,-11.43,52.27,0.89,-2.46,0.09,1721228609418
-25.62,-34.92,-20.30,-2.88,2.16,-0.86,1721228609428
-17.71,67.37,78.45,0.12,0.09,-0.57,1721228609438
-2.33,17.45,-21.02,1.40,0.05,1.68,1721228609448
32.42,-1.21,-56.80,0.01,0.27,1.89,1721228609458
45.34,-58.18,-12.90,-4.37,4.37,-2.20,1721228609468
-15.30,78.45,78.45,-0.71,-0.87,-2.96,1721228609478
-19.54,-33.95,29.46,0.23,1.96,-1.59,1721228609488
-41.96,-16.42,-71.00,2.03,-0.93,-0.43,1721228609498
-29.34,4.93,-14.69,-1.96,-0.49,0.08,1721228609508
2.95,5.17,36.98,-2.66,2.81,0.89,1721228609518
4.02,-13.73,20.99,3.35,0.29,1.04,1721228609528
12.93,23.13,-59.47,1.66,-0.02,0.93,1721228609538
26.14,-4.38,-31.82,-1.69,0.32,-0.80,1721228609548
-6.92,-2.69,34.64,-0.74,0.42,-1.97,1721228609558
-13.93,-51.69,16.76,2.42,-1.45,-1.53,1721228609568
-13.96,3.07,20.60,-1.08,-0.18,0.31,1721228609578
3.96,49.31,4.71,0.99,0.77,2.10,1721228609588
7.46,-46.59,-43.21,1.25,-0.39,1.90,1721228609598
30.38,26.17,-6.33,-1.36,1.41,0.10,1721228609608
20.65,77.99,39.65,-1.04,-0.70,-1.56,1721228609618
4.93,-47.58,28.19,-2.43,-0.28,-2.51,1721228609628
-5.84,-1.85,62.60,-1.43,-0.29,-1.86,1721228609638
-0.91,61.39,12.30,0.41,-0.36,-1.13,1721228609648
-6.18,-5.12,-39.02,2.30,-0.34,0.82,1721228609658
-12.10,-22.23,-34.74,-0.68,-0.26,1.63,1721228609668
10.01,-17.40,77.84,-2.76,3.36,0.00,1721228609678
-8.40,-9.72,46.79,0.44,-1.56,-0.15,1721228609688
1.53,-5.39,4.46,0.41,-1.06,-0.28,1721228609698
4.13,42.62,11.59,0.58,1.24,0.19,1721228609708
8.36,3.11,9.89,0.80,-0.70,-0.18,1721228609718
-4.73,-64.14,0.19,-0.88,0.04,-1.13,1721228609728
-17.91,36.67,12.77,-0.33,1.07,-0.80,1721228609738
-5.56,-0.89,-0.25,0.34,-0.50,0.58,1721228609748
2.83,-2.78,10.28,1.19,0.91,0.08,1721228609758
21.26,33.49,-5.99,1.73,-0.26,0.20,1721228609768
4.88,48.90,-19.35,1.71,-0.17,0.11,1721228609778
-0.03,-8.75,-37.16,-1.09,-0.60,-0.60,1721228609788
-15.12,-78.45,43.61,-3.48,-0.60,-0.68,1721228609798
-7.16,54.82,78.45,3.46,-1.93,1.05,1721228609808
15.22,-40.70,-20.90,2.75,0.40,0.73,1721228609818
0.03,-15.95,-78.45,2.56,-2.29,0.37,1721228609828
11.77,-25.18,3.45,-2.80,-1.88,-0.17,1721228609838
-12.62,78.45,36.89,1.39,-1.64,-0.57,1721228609848
-3.83,-39.79,-10.38,-0.31,0.83,-0.72,1721228609858
6.77,-28.70,-16.76,-0.78,-1.58,-1.06,1721228609868
-11.28,36.34,37.63,0.64,-1.12,-0.28,1721228609878
-11.25,-10.18,-58.00,1.83,-0.37,0.70,1721228609888
9.15,-6.78,-40.68,0.13,0.25,1.81,1721228609898
12.77,-28.02,78.45,-1.79,-0.76,0.22,1721228609908
-14.13,78.45,78.45,0.28,1.00,1.40,1721228609918
14.66,-43.48,-42.49,3.55,-0.44,-0.84,1721228609928
-22.89,-26.91,-78.45,3.09,-1.82,-1.25,1721228609938
-28.45,-2.83,-40.59,0.26,-3.81,-0.78,1721228609948
24.03,53.44,10.52,-2.41,4.37,-4.04,1721228609958
18.16,-78.45,48.56,-2.50,0.44,0.05,1721228609968
-5.62,38.00,78.45,-0.01,1.29,0.26,1721228609978
-13.61,18.89,78.45,-1.16,0.03,1.30,1721228609988
-13.45,59.26,-71.74,4.37,-1.30,1.02,1721228609998
13.50,-10.97,-73.35,0.61,-2.68,0.18,1721228610008
44.58,-27.03,18.62,-0.67,4.37,-0.95,1721228610018
12.85,-77.67,78.45,-0.07,-2.08,-2.45,1721228610028
-78.45,78.45,78.45,0.32,-0.37,-0.56,1721228610038
-49.52,-78.45,-78.45,4.37,3.05,-0.59,1721228610048
-21.51,78.45,-66.19,2.44,-4.37,1.42,1721228610058
60.13,54.32,-56.40,-4.37,4.37,2.48,1721228610068
-5.19,-78.45,78.45,-0.20,-1.46,1.18,1721228610078
73.77,78.45,78.45,-0.09,4.37,0.87,1721228610088
8.95,-78.45,-62.62,4.37,-4.37,2.91,1721228610098
8.41,-13.27,-73.14,-0.52,4.28,0.58,1721228610108
-8.78,14.41,25.74,-0.10,1.36,-0.80,1721228610118
30.12,38.34,59.46,-0.24,-0.78,-2.14,1721228610128
-22.24,23.23,-50.52,0.06,-0.22,-1.79,1721228610138
-14.40,-8.41,-6.81,-1.69,0.45,-0.15,1721228610148
-3.81,-65.74,68.77,-1.42,-1.00,0.39,1721228610158
-23.65,30.59,65.74,1.92,-1.75,2.34,1721228610168
6.57,14.81,-22.99,0.98,0.37,1.12,1721228610178
12.83,-20.10,-13.56,-1.41,0.13,0.57,1721228610188
12.30,42.13,27.29,0.47,0.69,-0.89,1721228610198
13.84,17.51,26.84,1.27,-0.15,-0.53,1721228610208
-3.20,-45.65,-28.45,0.07,0.08,-0.44,1721228610218
-11.61,0.13,14.11,0.39,0.47,-0.25,1721228610228
-3.59,7.50,28.57,0.57,0.11,-0.22,1721228610238
-3.00,31.55,26.75,0.95,0.31,0.77,1721228610248
11.32,-0.53,7.32,0.01,0.62,0.58,1721228610258
5.21,-34.25,30.02,-0.68,-0.06,-1.36,1721228610268
-9.98,19.39,-3.35,1.18,-1.07,-1.13,1721228610278
-11.23,-37.48,-37.42,-0.14,1.00,0.53,1721228610288
-9.50,7.68,78.17,-1.03,2.66,1.09,1721228610298
-10.67,30.62,31.17,1.57,-0.86,1.69,1721228610308
10.37,-65.60,-47.76,-0.27,0.29,0.40,1721228610318
12.46,10.31,41.54,-0.88,0.49,-1.20,1721228610328
-9.48,55.27,54.24,1.47,-0.64,-0.90,1721228610338
3.33,-11.01,-48.28,0.30,-0.27,-0.79,1721228610348
5.92,-5.99,13.40,-1.17,0.88,-0.45,1721228610358
-3.98,48.97,55.34,-0.26,0.80,0.64,1721228610368
10.28,11.36,-3.71,0.16,-0.92,0.06,1721228610378
12.17,5.01,-4.14,-0.39,0.32,0.44,1721228610388
9.38,-17.02,-9.39,0.52,-0.31,0.55,1721228610398
-7.86,-67.19,38.04,-0.45,0.05,-0.73,1721228610408
-0.79,43.42,53.73,1.71,-1.34,-0.71,1721228610418
-3.71,-4.85,-51.14,1.38,-0.09,0.08,1721228610428
15.26,7.91,-16.68,-2.45,0.37,0.44,1721228610438
29.68,60.05,78.45,-0.13,0.41,-0.64,1721228610448
12.11,-69.59,-0.02,0.68,0.01,-0.26,1721228610458
-20.79,78.45,5.89,-2.14,-0.85,-0.08,1721228610468
17.26,74.68,22.63,0.14,1.15,0.89,1721228610478
6.71,-26.08,-50.59,1.37,-0.33,-0.54,1721228610488
16.59,9.20,-12.01,-1.54,-1.87,-2.32,1721228610498
-33.34,30.10,59.17,-1.13,-0.15,-0.46,1721228610508
-0.13,44.24,69.13,-0.06,1.20,0.91,1721228610518
3.67,-15.92,0.79,-1.56,0.49,1.17,1721228610528
21.84,-14.10,-18.03,-0.84,-0.15,0.16,1721228610538
22.49,18.75,-26.65,0.42,-0.44,-0.88,1721228610548
6.66,-33.16,-22.44,-0.39,-0.37,-0.48,1721228610558
-4.75,3.49,78.45,-0.47,-0.07,-2.74,1721228610568
-13.21,28.49,54.50,0.83,-1.13,-1.91,1721228610578
-26.79,-2.01,-22.46,-0.09,-0.11,0.63,1721228610588
-12.33,-9.32,-5.45,-0.15,1.35,1.88,1721228610598
4.55,10.50,13.25,0.85,0.92,2.25,1721228610608
21.08,11.79,28.82,-0.54,0.67,0.68,1721228610618
10.25,-11.77,24.10,-1.25,0.05,-0.23,1721228610628
16.24,-12.37,17.14,-0.09,-0.19,0.33,1721228611195
12.31,29.43,22.14,-0.41,0.83,-0.09,1721228611199
7.25,-7.35,-6.33,-0.45,0.03,-0.23,1721228611209
2.10,-3.54,-17.86,0.92,-0.45,-0.93,1721228611219
-3.55,23.89,16.69,0.42,0.79,-1.82,1721228611229
2.59,66.65,56.52,-1.30,-0.33,-0.08,1721228611239
-5.11,-0.19,-20.35,-0.17,-0.31,0.50,1721228611249
14.83,-33.34,-4.11,-0.46,0.10,0.59,1721228611259
1.75,7.61,41.90,0.31,-0.53,1.14,1721228611269
4.13,11.80,-4.31,1.14,-0.65,-0.40,1721228611279
-2.63,-17.65,-5.88,0.20,0.20,-0.26,1721228611289
12.03,70.98,51.80,1.07,-0.67,-0.64,1721228611299
1.92,2.07,2.94,0.28,0.66,0.46,1721228611309
1.63,-37.11,-24.31,0.04,-0.50,1.04,1721228611319
3.99,2.22,33.09,0.38,0.57,0.24,1721228611329
23.52,56.35,-15.78,1.21,-1.00,0.11,1721228611339
10.42,-28.41,-25.40,-0.00,0.49,-0.10,1721228611349
18.43,-71.91,78.45,-3.79,1.84,-1.51,1721228611359
-55.39,-23.06,78.45,-0.18,-2.15,-1.84,1721228611369
-3.46,-9.17,2.82,2.59,0.08,-0.60,1721228611379
-7.91,33.61,-54.17,1.48,-1.00,2.16,1721228611389
9.29,-31.74,-42.62,-2.51,1.72,1.09,1721228611399
2.82,34.34,71.39,0.10,-0.56,-0.63,1721228611409
8.01,4.21,20.71,1.46,-1.45,-1.47,1721228611419
12.95,-9.68,-60.04,0.06,0.49,-0.23,1721228611429
0.14,-26.79,-19.77,-2.67,1.07,-0.50,1721228611439
-27.71,57.35,78.45,0.55,-2.34,-0.86,1721228611449
-16.64,27.51,2.50,1.07,0.86,0.70,1721228611459
-8.65,-60.41,-66.11,-0.82,0.45,1.22,1721228611469
23.68,-41.15,78.45,-2.36,4.37,-0.24,1721228611479
-15.73,-4.33,28.28,1.02,-2.21,-0.17,1721228611489
-6.96,-30.09,-15.36,1.97,-0.49,-0.50,1721228611499
-33.32,78.45,21.42,1.31,0.03,0.81,1721228611509
-1.53,34.64,-30.43,0.47,-0.37,1.07,1721228611519
8.54,-15.18,-28.61,-2.11,0.24,0.91,1721228611529
3.99,-78.45,60.76,-1.32,-0.08,-1.09,1721228611539
11.46,35.76,78.45,1.45,-1.01,-0.17,1721228611549
-3.22,61.39,-70.20,3.09,0.56,0.74,1721228611559
6.85,-11.78,-50.54,-2.17,0.49,0.17,1721228611569
2.06,-78.45,78.45,-3.39,4.37,-0.84,1721228611579
-5.82,78.45,78.45,0.97,-1.89,0.62,1721228611589
-4.67,-78.45,-12.88,1.15,0.86,0.26,1721228611599
-19.47,7.95,-68.99,-0.55,-0.45,0.60,1721228611609
34.67,59.61,35.15,1.54,1.16,-0.35,1721228611619
-0.01,5.06,-2.64,2.20,-1.10,0.38,1721228611629
15.24,16.52,-32.40,0.61,0.79,-0.34,1721228611639
-0.10,-27.55,54.49,-2.43,1.29,-1.07,1721228611649
-1.70,10.97,78.45,0.54,-1.13,-1.20,1721228611659
-11.18,-8.55,-16.29,0.45,-0.39,0.67,1721228611669
-15.10,22.58,-19.20,0.62,1.41,1.31,1721228611679
7.87,28.64,-8.07,0.56,0.63,0.42,1721228611689
17.35,18.32,-20.28,1.30,-0.75,-0.03,1721228611699
-4.22,-78.45,-49.99,-2.92,0.09,-0.14,1721228611709
-36.01,11.88,78.45,2.00,-3.54,-0.78,1721228611719
-26.24,39.57,78.45,2.03,-1.13,1.19,1721228611729
-17.48,-53.39,-72.51,1.62,-0.12,1.40,1721228611739
19.61,-13.88,6.67,-1.99,2.08,-0.02,1721228611749
-2.06,29.07,54.91,0.64,-0.19,0.71,1721228611759
19.62,-43.50,-3.86,-0.37,1.45,-0.62,1721228611769
4.43,18.26,28.06,0.29,-0.74,-1.60,1721228611779
-13.75,12.69,-33.05,-0.15,-1.30,-0.44,1721228611789
-15.83,-51.66,-26.14,-1.93,1.02,0.39,1721228611799
2.11,44.33,65.92,0.71,-2.25,0.79,1721228611809
-3.37,66.23,-4.26,1.89,-0.54,1.46,1721228611819
17.04,-33.61,-57.10,1.42,-0.05,1.22,1721228611829
21.50,-62.87,-58.23,-1.89,-0.24,0.44,1721228611839
29.03,-78.45,78.45,-1.64,2.40,-1.70,1721228611849
-26.57,-8.04,50.38,-2.42,4.37,-0.96,1721228611859
-6.15,-42.11,-78.45,4.37,-0.67,-1.26,1721228611869
-30.25,-12.08,-78.45,3.84,-2.18,-0.34,1721228611879
-14.70,-16.07,-18.21,-1.61,-2.84,1.91,1721228611889
-26.76,-38.43,78.45,-2.17,4.30,-0.60,1721228611899
4.90,31.22,53.88,1.39,-0.80,0.48,1721228611909
1.27,-15.92,-40.46,1.65,-0.73,-0.48,1721228611919
7.63,7.29,-32.77,-0.07,-1.43,-0.69,1721228611929
15.97,15.41,0.98,-0.90,2.95,-1.15,1721228611939
-2.24,12.04,47.83,1.40,-1.44,-0.59,1721228611949
2.47,78.45,69.16,0.39,-0.79,0.01,1721228611959
0.51,14.66,5.71,0.01,0.43,0.22,1721228611969
-7.41,-78.45,-34.97,-0.75,-0.13,0.75,1721228611979
-0.63,-75.73,17.37,1.05,1.17,0.26,1721228611989
4.99,7.23,54.02,1.12,-0.74,0.29,1721228611999
7.55,17.46,-37.82,1.51,0.26,-0.22,1721228612009
-5.00,-11.44,-5.41,-1.32,0.97,-0.01,1721228612019
-16.56,19.41,67.45,-1.24,-0.20,-0.42,1721228612029
1.66,5.60,31.38,0.84,-0.12,-0.63,1721228612039
-0.91,-42.33,-70.23,1.59,-1.97,-0.50,1721228612049
-9.87,-30.67,-23.87,-1.99,1.39,-0.73,1721228612059
-17.88,48.58,41.44,0.63,0.20,0.12,1721228612069
-5.33,21.48,-12.30,1.48,-0.06,0.78,1721228612079
13.57,35.00,-28.54,-1.06,-0.33,0.87,1721228612089
5.04,0.30,76.18,-2.78,1.41,-0.73,1721228612099
5.75,-78.45,70.59,-0.74,1.08,-0.62,1721228612109
4.76,-4.04,-30.04,0.64,-0.51,-0.62,1721228612119
-13.60,31.59,-4.67,0.34,0.22,-0.78,1721228612129
-5.81,0.43,-23.92,0.53,-0.66,-0.11,1721228612139
0.74,13.25,-58.15,-0.07,-0.22,0.79,1721228612149
20.42,-78.45,78.45,-4.37,1.92,-0.47,1721228612159
-10.62,78.45,78.45,0.50,-0.09,-1.79,1721228612169
3.38,-4.72,-8.87,4.37,-0.70,-1.57,1721228612179
-57.01,-61.82,-78.45,4.37,-1.96,1.13,1721228612189
13.46,-13.64,-78.45,-0.09,0.07,-0.72,1721228612199
-15.53,-76.05,-47.09,0.69,4.37,-0.85,1721228612209
-75.79,78.45,78.45,0.25,-4.37,1.16,1721228612219
6.14,20.08,-4.31,4.37,1.28,-0.47,1721228612229
66.15,78.45,-78.45,4.37,-4.37,0.02,1721228612239
-3.19,0.89,-74.54,-1.77,4.37,0.16,1721228612249
-17.12,48.05,78.45,0.06,3.89,1.33,1721228612259
-16.19,-45.27,50.60,2.18,-2.94,0.65,1721228612269
-4.58,-31.13,-41.78,1.64,-1.31,-0.32,1721228612279
-15.08,-17.40,-18.06,-4.37,0.93,-0.09,1721228612289
2.85,48.29,69.13,0.93,-1.83,1.16,1721228612299
-0.51,60.70,-1.15,1.98,0.27,1.59,1721228612309
20.38,2.27,-56.37,1.10,-0.37,0.95,1721228612319
8.21,-46.28,-30.34,-2.42,0.46,-0.25,1721228612329
-0.20,-13.16,78.45,-0.74,0.05,-1.55,1721228612339
10.40,78.45,53.20,1.91,-1.58,-2.01,1721228612349
-0.87,19.40,-68.37,3.10,0.42,0.01,1721228612359
-3.92,-13.63,-50.96,-3.77,1.04,0.12,1721228612369
10.89,10.67,78.45,-1.25,1.84,-0.02,1721228612379
-9.11,1.23,11.05,3.29,-1.96,0.11,1721228612389
-5.33,-38.16,-62.37,0.85,0.27,0.95,1721228612399
9.15,7.09,-9.14,-2.92,3.91,0.71,1721228612409
9.14,-2.23,3.92,0.06,-0.39,1.01,1721228612419
11.75,-51.71,-29.35,1.43,-1.28,-0.42,1721228612429
-10.25,-2.80,51.07,0.44,-0.32,-1.02,1721228612439
-2.14,26.96,-4.89,1.57,-0.87,-0.36,1721228612449
-11.92,12.52,-60.37,1.44,0.63,0.65,1721228612459
-3.34,-78.45,78.45,-3.55,2.66,0.06,1721228612469
-14.88,18.73,47.46,1.12,1.01,1.57,1721228612479
14.59,-13.15,-26.06,2.25,0.56,0.66,1721228612489
18.47,31.67,-77.81,-0.08,-0.20,-0.49,1721228612499
-12.18,-64.02,-37.78,-3.99,-0.84,-1.16,1721228612509
-5.45,3.21,24.17,-2.12,4.37,-2.61,1721228612519
-5.87,9.55,38.97,2.43,-2.08,0.38,1721228612529
-18.76,-5.14,-73.08,1.61,0.16,1.19,1721228612539
12.28,-28.08,-7.28,-1.06,-1.73,1.62,1721228612549
21.19,1.82,78.45,-1.21,4.26,1.77,1721228612559
-4.01,54.66,78.45,0.90,-3.06,1.26,1721228612569
16.85,-0.06,-13.92,0.09,-0.52,-0.19,1721228612579
10.48,-11.11,20.78,-1.46,1.38,-1.27,1721228612589
-0.75,15.22,19.14,0.36,-1.42,-1.29,1721228612599
-12.16,-41.46,-18.12,0.12,0.99,-1.32,1721228612609
-13.46,3.73,14.18,0.57,-0.57,-0.51,1721228612619
-15.70,47.49,9.36,1.18,0.09,0.74,1721228612629
-0.88,2.03,-14.52,0.02,-0.38,1.15,1721228612639
7.44,-31.24,-43.65,-0.57,0.19,0.77,1721228612649
5.14,-78.45,78.45,-2.61,0.80,-1.62,1721228612659
53.58,78.45,78.45,0.32,0.34,-1.68,1721228612669
-9.13,42.61,4.93,3.53,0.43,-0.32,1721228612679
-7.84,52.90,-65.43,2.69,-0.90,0.03,1721228612689
-21.76,-41.70,-71.08,-3.72,-3.21,-0.58,1721228612699
23.17,-78.45,8.18,-4.37,4.37,-0.79,1721228612709
-57.62,78.45,-28.17,3.70,0.96,0.96,1721228612719
25.74,-40.01,-54.24,4.37,-1.68,0.52,1721228612729
10.10,56.07,-67.45,-3.47,1.08,0.79,1721228612739
-29.48,16.35,78.45,-3.57,-1.52,-1.89,1721228612749
-13.82,-73.63,41.13,2.53,-0.46,-1.23,1721228612759
52.82,78.45,-78.45,1.87,-0.44,-0.51,1721228612769
-27.18,-62.01,-16.72,-0.11,0.52,1.29,1721228612779
23.87,-35.39,14.97,-0.55,2.61,-1.29,1721228612789
16.13,10.76,-8.09,1.99,0.39,1.23,1721228612799
12.36,37.94,-30.90,0.73,0.64,1.40,1721228612809
18.07,27.60,8.84,0.72,0.86,-0.53,1721228612819
1.53,-4.50,-1.74,-0.35,-0.55,-0.75,1721228612829
-15.40,43.63,68.15,0.11,-1.07,-0.32,1721228612839
2.14,-6.81,20.84,0.33,0.88,1.26,1721228612849
12.07,-19.20,-45.95,2.70,0.39,1.96,1721228612859
2.87,-16.10,16.02,-0.93,-4.37,-0.31,1721228612869
-78.45,-12.65,72.76,-1.15,3.72,-1.59,1721228612879
-6.48,-33.47,15.67,0.73,2.11,-3.40,1721228612889
-32.39,-11.74,-78.45,3.14,-1.45,-0.23,1721228612899
-16.82,3.02,-38.25,-0.12,3.79,1.56,1721228612909
4.78,78.45,78.45,-0.45,2.12,0.43,1721228612919
41.26,59.11,26.70,2.06,-2.61,0.65,1721228612929
9.10,-78.45,-50.78,-4.37,3.55,-0.02,1721228612939
-4.16,34.95,78.45,1.69,-3.28,-1.16,1721228612949
-7.65,53.60,59.64,3.35,0.10,1.29,1721228612959
26.23,-7.85,-78.45,4.37,0.43,1.66,1721228612969
19.89,-0.93,-60.90,-2.31,-0.87,1.08,1721228612979
46.62,-32.12,29.87,-2.46,4.37,-0.21,1721228612989
-78.45,-78.45,68.10,-3.14,-1.28,-0.38,1721228612999
-51.53,78.45,-29.47,1.13,1.68,-0.82,1721228613009
-9.79,-17.49,-29.36,0.04,-1.86,0.80,1721228613019
-15.03,-47.29,-78.45,-2.60,0.33,0.12,1721228613029
-18.92,-75.09,78.45,-3.37,4.37,1.52,1721228613039
-7.62,9.77,70.51,0.97,-0.30,1.20,1721228613049
-2.90,-37.06,-46.06,2.15,-1.05,0.56,1721228613059
22.00,55.69,-63.38,-0.87,0.47,-0.36,1721228613069
-10.02,37.67,17.16,0.20,-0.06,-0.02,1721228613079
4.87,-12.88,-46.76,1.44,-1.26,-0.35,1721228613089
1.16,-42.55,-19.07,-3.74,1.44,-0.65,1721228613099
-18.02,22.69,78.45,0.61,-1.93,-0.64,1721228613109
-2.35,22.59,25.01,2.28,0.54,-0.25,1721228613119
47.62,78.45,-53.49,3.00,-0.19,1.06,1721228613129
6.48,8.38,-51.09,-1.76,-0.00,1.06,1721228613139
27.15,-37.29,57.89,-1.74,1.92,0.04,1721228613149
-8.06,2.20,78.45,-0.39,-0.17,-0.01,1721228613159
-12.73,4.89,41.70,-0.65,0.58,-0.05,1721228613169
-2.10,15.15,-4.37,0.16,-0.45,-1.35,1721228613179
-16.73,16.22,11.69,0.23,-0.13,-0.49,1721228613189
-3.16,-35.14,-15.79,-0.20,0.82,1.08,1721228613204
-11.79,-51.45,-26.59,-0.47,0.73,1.64,1721228613208
4.68,10.34,75.83,-0.16,-0.30,0.69,1721228613218
31.75,74.59,29.36,1.49,-0.32,0.49,1721228613228
11.65,-11.10,-76.22,2.31,-1.64,-0.20,1721228613238
1.20,-56.53,-59.51,-2.43,-0.56,-0.89,1721228613248
9.84,-73.46,78.45,1.82,0.68,-0.45,1721228613258
-51.34,31.63,78.45,2.91,-2.42,0.18,1721228613268
-20.51,-31.00,-78.45,0.68,0.57,-1.28,1721228613278
-36.34,-7.05,-78.45,0.42,-1.76,0.79,1721228613288
8.21,15.47,2.76,-0.44,0.43,1.64,1721228613298
27.71,-78.45,78.45,-1.48,0.38,0.42,1721228613308
35.75,78.45,54.76,0.95,0.54,-0.14,1721228613318
19.04,23.20,-23.02,2.56,-0.65,0.06,1721228613328
1.68,-15.28,-75.16,-1.23,0.43,-0.60,1721228613338
1.72,-63.19,28.95,-4.37,0.61,-0.34,1721228613348
-19.23,-53.07,78.45,1.88,-2.74,0.20,1721228613358
-54.73,72.67,-20.47,4.37,0.19,1.17,1721228613368
21.34,35.30,-46.70,3.18,0.01,-0.05,1721228613378
-10.71,-17.15,-1.24,-1.51,-4.37,0.54,1721228613388
26.79,-40.97,22.95,-3.43,4.37,0.24,1721228613398
9.69,46.95,78.45,3.83,-2.71,1.34,1721228613408
-23.86,-44.33,-76.17,-0.47,-4.27,0.00,1721228613418
-1.66,-7.20,-70.19,-1.17,1.67,0.83,1721228613428
9.94,-78.45,64.20,-4.37,4.37,1.65,1721228613438
61.09,48.50,3.78,2.42,-0.97,-0.98,1721228613448
4.26,-18.54,-28.50,-0.25,-0.35,-0.75,1721228613458
-0.27,43.42,-66.64,-0.24,-2.05,-1.61,1721228613468
16.26,-21.65,67.02,-2.37,-0.07,0.56,1721228613478
4.79,77.76,33.73,1.17,-1.54,0.43,1721228613488
-23.81,4.55,-50.07,3.57,-0.18,0.16,1721228613498
6.19,-37.59,-55.79,-0.24,-1.09,0.19,1721228613508
-17.51,-57.29,49.76,-1.19,-0.48,0.82,1721228613518
14.27,43.66,61.41,1.36,0.60,0.18,1721228613528
-31.15,20.71,-27.80,1.99,-0.34,0.29,1721228613538
9.45,3.98,-41.57,1.45,-1.03,0.41,1721228613548
20.07,21.91,78.45,-2.02,2.40,0.07,1721228613558
-16.58,-7.74,78.45,-0.41,-1.72,-0.17,1721228613568
-6.98,-23.34,-45.11,1.71,-0.84,-0.59,1721228613578
-12.65,-35.49,-37.79,-2.04,1.68,0.10,1721228613588
-11.05,50.78,75.35,-0.16,0.41,1.39,1721228613598
18.40,26.13,9.41,1.53,0.62,1.01,1721228613608
17.58,-19.12,-63.68,0.97,-1.10,0.35,1721228613618
2.79,-33.66,-16.89,-3.74,-0.56,-0.53,1721228613628
-35.92,24.20,78.45,-0.95,-0.14,-2.25,1721228613638
5.30,38.92,21.64,2.50,-0.23,-2.57,1721228613648
-39.35,-17.85,-49.74,2.14,-0.96,-0.54,1721228613658
-20.62,16.71,-14.83,-2.59,0.63,1.82,1721228613668
15.50,-4.27,8.93,-2.28,2.66,1.52,1721228613678
9.53,-24.78,65.94,-0.59,0.14,-0.19,1721228613688
-47.60,73.24,17.59,1.84,-1.22,-0.12,1721228613698
-6.29,-1.55,-73.36,0.59,-0.84,-0.13,1721228613708
3.95,-14.09,2.75,-4.00,0.59,0.32,1721228613718
-3.74,24.92,73.51,0.57,-1.32,0.34,1721228613728
2.81,-78.45,-27.67,-0.32,-0.04,-0.96,1721228613738
-9.31,8.47,0.19,-0.98,0.31,-0.99,1721228613748
-6.23,30.65,33.24,-0.05,-0.62,-0.12,1721228613758
-6.77,-9.79,12.51,0.39,0.50,0.49,1721228613768
-2.39,-9.85,30.70,0.57,-0.14,1.24,1721228613778
12.01,49.08,10.87,0.97,0.25,1.53,1721228613788
16.44,-14.90,-19.36,1.12,0.01,0.12,1721228613798
16.61,-9.70,43.33,-1.83,0.66,-1.37,1721228613808
-13.11,-5.28,19.49,1.01,-1.35,-1.72,1721228613818
-20.98,29.02,-20.86,1.37,-0.92,-2.16,1721228613828
-14.99,-3.01,-27.27,-0.75,-0.30,-0.46,1721228613838
-5.73,-78.45,56.28,-2.79,2.24,-0.10,1721228613848
-25.60,-37.74,78.45,-0.20,-1.22,0.72,1721228613858
-6.33,39.24,6.82,1.78,0.30,0.49,1721228613868
2.39,0.00,-36.54,1.50,-0.71,0.48,1721228613878
0.70,-16.15,-35.84,-0.45,0.62,-0.15,1721228613888
-2.56,-5.80,-9.19,-1.46,0.48,-0.00,1721228613898
-4.83,-6.56,78.45,-0.38,0.01,-0.59,1721228613908
-4.12,48.73,76.66,1.05,-0.47,-0.31,1721228613918
-3.42,-24.34,-43.22,1.42,-0.09,-0.01,1721228613928
0.74,-34.37,-13.05,-2.39,0.74,0.05,1721228613938
-5.63,19.76,20.20,0.48,-0.60,-0.07,1721228613948
7.00,-9.36,-12.16,2.86,-0.90,-0.63,1721228613958
-3.74,19.94,-22.12,-0.05,-0.55,0.08,1721228613968
-4.17,-33.89,-12.49,-1.42,0.00,-0.00,1721228613978
-2.92,-0.07,75.02,0.61,-1.67,0.28,1721228613988
12.96,26.53,21.40,0.40,0.16,0.66,1721228613998
4.90,-8.11,-11.30,-0.72,0.68,0.84,1721228614008
2.99,21.07,37.99,0.23,0.26,-0.44,1721228614018
4.89,-16.39,2.22,-0.27,-0.70,-1.01,1721228614028
-15.73,-21.46,77.74,-1.24,-0.85,-0.60,1721228614038
6.83,78.45,48.86,2.83,-0.59,1.72,1721228614048
-1.06,-37.96,-78.45,0.72,0.75,2.21,1721228614058
14.71,-16.74,0.83,-3.84,1.88,0.88,1721228614068
-23.63,13.93,35.94,-0.77,-1.98,-0.47,1721228614078
-6.30,16.33,-14.91,2.83,-0.22,-0.39,1721228614088
8.36,-8.01,-2.90,-2.50,0.31,0.20,1721228614098
-18.87,-24.83,53.86,-0.53,-0.77,-0.24,1721228614108
-3.06,11.18,-21.97,3.49,-0.99,0.53,1721228614118
1.44,-33.83,-24.84,-2.46,-0.02,0.72,1721228614128
-13.73,27.26,78.45,-1.08,0.04,-0.21,1721228614138
4.70,12.88,8.28,2.91,-1.57,-0.09,1721228614148
11.10,-3.09,-50.84,-0.60,-0.13,0.61,1721228614158
11.05,30.32,72.86,-2.04,1.62,-0.57,1721228614168
-7.67,-14.34,5.55,1.43,-0.84,-0.67,1721228614178
-3.99,-61.13,-37.74,-2.79,0.46,-0.33,1721228614188
-2.32,-19.39,78.45,1.49,-1.27,-0.62,1721228614198
-12.14,49.33,40.28,1.73,0.26,1.05,1721228614208
-15.02,-68.38,-66.43,1.86,1.00,1.59,1721228614218
12.67,-23.16,0.73,-2.64,0.54,-0.41,1721228614228
25.40,78.45,40.24,1.51,-0.20,0.07,1721228614238
19.46,5.96,-12.69,3.81,-0.13,-0.00,1721228614248
-8.02,-78.45,-45.95,-3.86,0.17,-0.16,1721228614258
-6.36,11.54,78.45,2.84,-2.24,-0.49,1721228614268
-28.72,72.39,36.12,2.12,0.22,0.48,1721228614278
5.72,-78.45,-59.69,2.27,1.72,0.18,1721228614288
-26.67,4.74,-59.25,-4.37,-0.15,-0.59,1721228614298
-2.73,78.45,78.45,2.08,-1.94,-0.93,1721228614308
-17.38,14.60,-14.91,1.04,-0.69,0.79,1721228614318
-0.72,-1.57,-36.28,-2.54,0.38,0.15,1721228614328
3.38,-49.74,78.45,-1.30,3.98,-0.63,1721228614338
-2.14,58.45,6.37,1.10,-0.47,0.50,1721228614348
8.97,-78.45,-32.09,0.76,-1.04,-0.86,1721228614358
-9.69,-55.21,67.31,-0.15,0.92,-0.09,1721228614368
-15.84,46.09,52.84,1.35,-0.87,0.00,1721228614378
-8.83,-21.23,-72.00,2.44,-1.10,0.30,1721228614388
-3.41,-40.10,-22.64,-2.82,0.11,0.62,1721228614398
19.73,46.34,45.26,0.49,-0.78,-0.47,1721228614408
0.45,-1.55,-18.96,0.82,-1.03,0.47,1721228614418
6.12,21.43,-51.14,-1.02,0.64,-0.15,1721228614428
21.89,11.98,78.45,-2.18,1.04,-1.32,1721228614438
21.10,-72.01,55.82,-0.92,-1.54,-1.88,1721228614448
-12.51,9.28,-4.18,-1.14,0.41,-1.07,1721228614458
-12.41,42.13,16.11,0.47,0.18,0.70,1721228614468
1.36,-24.82,-50.02,1.36,-0.36,0.91,1721228614478
17.65,-16.59,-30.23,-1.40,1.57,0.42,1721228614488
19.68,78.45,78.45,0.56,-0.41,-0.43,1721228614498
2.48,30.09,25.43,1.38,0.34,0.13,1721228614508
4.92,-55.59,-38.25,0.41,0.11,-0.67,1721228614518
-15.78,-44.42,78.45,-2.07,2.97,0.15,1721228614528
-4.63,38.61,36.30,0.40,-1.19,-0.68,1721228614538
-16.00,-6.43,-12.47,0.35,0.43,-0.27,1721228614548
-10.12,29.22,20.25,1.05,0.66,0.67,1721228614558
5.60,-20.37,-14.76,1.39,-0.38,0.72,1721228614568
3.90,-7.58,-30.23,0.72,-0.39,0.97,1721228614578
4.38,-8.41,0.96,-1.02,1.20,0.43,1721228614588
-4.87,19.32,57.35,-0.71,0.25,-1.25,1721228614598
-0.89,-10.46,1.53,0.84,-0.68,-0.40,1721228614608
-3.38,-7.84,2.83,-0.71,1.04,-1.10,1721228614618
-13.74,1.16,57.31,0.70,-1.25,-0.76,1721228614628
-13.49,59.82,14.63,1.28,0.60,0.56,1721228614638
-2.66,-15.09,-22.21,0.34,-0.07,1.15,1721228614648
5.23,-43.79,-20.33,-0.12,0.33,1.11,1721228614658
9.21,12.11,-8.15,0.36,-0.10,-0.12,1721228614668
5.71,-0.10,21.88,-0.03,0.73,-0.56,1721228614678
1.83,32.79,48.61,1.32,-0.35,-1.21,1721228614688
-3.60,14.91,-11.65,0.48,-0.42,0.06,1721228614698
-12.49,-21.13,17.95,-1.73,2.05,0.58,1721228614708
-3.39,-25.08,41.32,0.82,-0.66,0.42,1721228614718
7.83,18.05,-15.67,1.58,-0.53,0.60,1721228614728
6.00,-2.89,-26.34,0.14,-0.30,-0.46,1721228614738
-3.18,0.01,-6.45,-0.75,0.08,-0.76,1721228614748
-2.42,-25.61,57.04,-0.14,-0.21,-0.23,1721228614758
-15.29,75.15,62.28,1.50,0.06,0.27,1721228614768
0.24,34.06,-31.19,2.73,-1.17,0.79,1721228614778
6.80,-32.90,-75.76,-1.33,-0.03,0.53,1721228614788
21.94,-78.45,56.59,-4.37,2.65,-0.67,1721228614798
31.32,59.63,76.75,1.79,-1.53,-1.13,1721228614808
14.37,-30.44,-35.12,2.29,0.47,-0.63,1721228614818
-2.48,-9.10,-35.98,-1.51,-0.44,-1.08,1721228614828
-29.94,-37.01,55.82,-3.43,0.12,-0.37,1721228614838
-14.25,10.05,60.42,-0.11,0.77,-0.15,1721228614848
-7.88,18.62,-5.09,2.03,-0.44,0.78,1721228614858
6.05,18.50,-58.37,0.17,0.63,1.63,1721228614868
16.57,-4.25,-27.19,-1.54,0.58,0.88,1721228614878
10.98,-15.03,72.94,-0.94,-0.56,-0.56,1721228614888
36.54,-21.46,16.29,1.31,-0.86,-1.51,1721228614898
6.74,32.06,-5.62,-0.18,-1.52,-2.03,1721228614908
-23.25,-1.17,45.74,-2.29,0.90,0.28,1721228614918
-8.22,19.41,23.10,0.32,0.12,1.35,1721228614928
-4.22,-36.67,-21.60,0.36,0.15,1.03,1721228614938
8.50,19.27,9.48,-0.03,0.67,0.82,1721228614948
10.23,-18.53,-25.17,0.34,-0.85,0.38,1721228614958
21.68,-49.66,58.52,-1.33,0.54,-0.80,1721228614968
-3.63,37.63,61.93,0.84,-1.54,-0.53,1721228614978
-1.57,-6.54,8.03,1.31,0.39,-0.23,1721228614988
-3.73,26.57,23.25,-1.23,0.63,1.25,1721228614998
9.46,24.80,21.73,-0.47,1.21,0.65,1721228615008
4.06,-63.73,4.70,-0.31,-0.78,-0.74,1721228615018
-7.45,-2.68,10.47,0.05,-0.40,-1.00,1721228615028
-7.78,13.78,-6.02,1.77,-0.88,0.32,1721228615038
2.59,-21.80,-23.51,0.84,0.01,0.56,1721228615048
-2.83,-2.54,42.66,-0.88,1.72,0.94,1721228615058
-14.73,29.57,50.71,0.20,-0.14,1.23,1721228615068
0.82,-16.50,-28.85,-0.10,-0.30,-0.01,1721228615078
18.82,-18.78,18.61,-3.24,1.86,-1.00,1721228615088
16.36,56.29,51.34,1.03,-1.26,-1.58,1721228615098
2.82,-9.91,-6.97,3.60,0.08,-0.55,1721228615108
-4.91,3.63,-41.50,-0.93,-0.47,0.08,1721228615118
-10.12,-15.26,78.45,-1.63,2.96,-0.27,1721228615128
-26.89,23.18,33.96,0.30,-0.87,0.05,1721228615138
-2.77,-48.34,-57.93,1.36,0.07,0.15,1721228615148
6.82,9.26,-13.06,-2.26,0.94,1.10,1721228615158
7.03,3.73,-6.36,0.60,0.32,1.19,1721228615168
4.62,-40.37,-24.76,1.62,-0.95,-0.51,1721228615178
-8.80,-2.74,44.86,0.18,-0.07,-1.47,1721228615188
-22.67,-3.83,22.29,-0.16,-1.15,-0.12,1721228615198
-8.85,-5.01,-5.25,0.48,-0.46,0.65,1721228615213
-2.99,-10.30,-4.20,-0.10,0.03,0.95,1721228615217
2.68,32.40,6.62,1.07,0.34,1.63,1721228615227
19.74,-8.60,-30.76,0.94,-0.07,0.81,1721228615237
25.74,1.93,30.35,-0.95,0.55,-1.01,1721228615247
6.62,7.71,18.85,1.04,-1.06,-1.75,1721228615257
11.34,-16.68,-14.28,-0.53,-0.24,-1.87,1721228615267
-16.55,1.86,19.94,-0.90,-0.74,-0.88,1721228615277
-14.33,-0.37,35.19,0.48,-0.27,0.77,1721228615287
-14.19,10.73,38.20,-0.23,1.26,0.98,1721228615297
-2.61,26.01,35.37,0.42,0.05,-0.26,1721228615307
0.83,14.00,-21.16,0.27,-0.81,-0.08,1721228615317
0.00,-38.08,-15.34,-0.66,1.00,1.12,1721228615327
7.88,-22.36,40.61,0.66,0.13,0.53,1721228615337
8.41,9.77,-20.26,1.79,-1.10,-0.02,1721228615347
12.39,1.06,-5.39,-0.97,0.58,-0.54,1721228615357
48.40,78.45,78.45,-0.30,-1.49,-0.82,1721228615367
-3.93,9.57,-20.06,0.43,0.30,-0.70,1721228615377
-11.67,-47.59,-62.78,-0.28,-0.85,-0.19,1721228615387
-8.86,-2.64,-68.01,-3.98,-1.29,0.32,1721228615397
-46.61,27.54,78.45,-1.01,2.69,-0.36,1721228615407
9.39,0.19,39.05,1.73,-0.06,1.05,1721228615417
11.70,40.57,-19.89,0.93,-0.98,1.41,1721228615427
23.60,78.45,12.40,-0.25,1.47,1.11,1721228615437
21.09,-15.57,-32.33,-0.41,-0.63,-0.19,1721228615447
15.56,-78.45,-43.26,-1.49,0.84,-1.84,1721228615457
-41.34,28.95,52.77,-0.09,0.59,-0.96,1721228615467
-0.90,38.34,50.65,2.52,-0.40,-0.06,1721228615477
-17.27,-37.34,-52.41,0.57,-1.01,0.27,1721228615487
-13.96,5.57,21.98,-1.96,1.24,-0.54,1721228615497
-18.47,45.62,56.77,0.00,-0.54,0.49,1721228615507
-18.41,-78.45,-53.37,0.12,0.30,0.67,1721228615517
14.97,-26.86,16.24,-1.05,2.28,-0.42,1721228615527
14.78,48.01,44.75,0.94,0.02,-0.09,1721228615537
0.69,28.32,-65.91,1.09,-0.12,-0.29,1721228615547
14.48,-22.04,-19.82,-3.56,0.12,-0.92,1721228615557
-48.53,-3.57,78.45,-0.95,-1.08,-0.19,1721228615567
-37.21,-45.33,78.45,-0.04,-0.40,2.13,1721228615577
-18.68,-46.31,-56.27,1.82,-1.06,1.21,1721228615587
2.40,20.97,-10.08,-2.14,1.50,0.59,1721228615597
4.21,20.28,2.27,-0.40,-0.62,0.57,1721228615607
-3.66,-78.45,-9.51,-1.14,1.89,-0.75,1721228615617
-3.41,35.15,68.12,0.88,-0.74,-0.52,1721228615627
-6.62,-14.27,-7.73,0.41,-0.80,-0.34,1721228615637
-0.83,-7.97,-12.62,-1.39,0.50,-0.47,1721228615647
-6.22,67.99,55.62,1.58,-0.86,0.64,1721228615657
7.70,-23.71,-12.58,0.83,-0.73,0.10,1721228615667
19.20,5.89,10.24,-2.31,0.46,-0.50,1721228615677
-7.14,78.45,56.56,0.45,-0.03,0.16,1721228615687
4.87,-33.38,-30.17,1.47,-0.50,-0.43,1721228615697
3.12,-5.36,-17.80,-1.46,0.22,-0.44,1721228615707
-4.02,78.45,20.46,0.27,-0.92,-0.11,1721228615717
-3.49,-7.27,9.30,0.52,-0.52,0.09,1721228615727
1.36,7.62,22.82,0.48,-0.31,0.81,1721228615737
3.40,-15.85,-5.29,-0.38,0.04,0.69,1721228615747
4.40,4.67,34.56,-0.96,0.29,-0.15,1721228615757
-5.59,66.75,22.88,1.17,-1.12,-0.55,1721228615767
-2.52,7.00,-35.98,1.37,-0.34,0.03,1721228615777
-6.59,-29.29,-20.35,-1.31,-0.03,0.41,1721228615787
-0.94,-62.06,46.43,-0.78,-0.98,0.28,1721228615797
-2.83,40.87,51.07,1.10,-0.12,0.64,1721228615807
-0.23,-36.64,-65.33,1.28,-0.35,-1.03,1721228615817
-1.90,3.08,-58.69,-0.60,-0.35,-0.75,1721228615827
-7.71,66.42,42.30,0.32,-0.08,0.19,1721228615837
-2.76,4.04,-10.23,0.31,-1.22,0.00,1721228615847
