AccX,AccY,AccZ,GyrX,GyrY,GyrZ,Time
-10.13,-0.80,11.30,0.25,-0.16,0.23,1721228798136
-10.03,-1.03,2.05,0.05,-0.07,0.58,1721228798141
-2.13,-2.33,3.99,-0.16,-0.07,0.94,1721228798151
0.85,-2.05,6.03,-0.15,-0.07,0.67,1721228798161
4.80,-0.16,12.79,-0.10,-0.16,0.32,1721228798171
1.63,0.89,15.42,-0.08,-0.31,0.04,1721228798181
-1.37,-3.15,15.01,-0.20,-0.29,-0.37,1721228798191
-5.19,-1.69,19.64,0.01,-0.49,-0.36,1721228798201
-7.82,-9.37,7.37,0.02,-0.31,0.02,1721228798211
-6.00,-2.72,13.77,0.17,-0.18,0.50,1721228798221
-2.07,0.98,2.96,0.27,-0.30,0.63,1721228798231
2.49,1.34,-2.30,0.04,-0.08,0.48,1721228798241
3.34,-1.30,8.20,-0.14,-0.09,0.32,1721228798251
2.77,-3.14,14.50,-0.01,-0.11,0.08,1721228798261
0.55,-4.55,14.53,0.24,-0.39,-0.17,1721228798271
-2.49,3.16,6.27,0.20,-0.32,-0.11,1721228798281
-1.60,5.08,4.21,-0.11,-0.17,0.22,1721228798291
-0.72,0.10,9.95,-0.32,-0.07,0.48,1721228798301
1.64,-3.64,12.48,-0.06,-0.15,0.22,1721228798311
1.69,-3.98,4.22,-0.15,-0.23,-0.06,1721228798321
0.14,-5.67,22.46,-0.22,0.04,-0.03,1721228798331
-3.21,0.64,23.41,0.30,-0.14,-0.06,1721228798341
-2.33,4.00,-2.97,0.34,-0.24,-0.22,1721228798351
-5.47,-5.78,-8.63,-0.35,-0.28,-0.08,1721228798361
-5.51,-10.17,24.58,0.40,-0.28,0.65,1721228798371
1.57,4.85,13.05,0.37,0.03,0.66,1721228798381
5.17,-5.37,-0.98,0.13,-0.23,0.24,1721228798391
1.58,-7.26,30.66,0.15,-0.05,-0.48,1721228798401
-1.90,10.89,13.81,0.59,-0.90,-0.54,1721228798411
-0.47,-9.01,-19.28,0.20,0.36,-0.59,1721228798421
-4.96,-10.79,6.31,-0.96,0.50,-0.08,1721228798431
-3.36,-4.32,15.95,1.32,-0.57,0.13,1721228798441
-1.53,-3.38,-0.25,0.23,-0.43,0.29,1721228798451
1.49,1.24,-1.68,-0.09,0.27,0.19,1721228798461
-1.71,-8.33,4.83,-0.25,-0.23,0.14,1721228798471
-4.36,-12.04,9.71,0.00,-0.05,0.17,1721228798481
-1.35,-4.81,16.08,-0.14,0.01,0.19,1721228798491
-1.52,0.63,28.01,0.08,-0.26,0.25,1721228798501
-1.29,-2.24,14.63,0.14,-0.26,0.28,1721228798511
3.90,-18.73,6.34,-0.68,0.35,0.44,1721228798521
4.36,7.93,24.14,0.42,0.50,0.26,1721228798531
0.74,-4.71,-8.04,1.00,-0.56,0.30,1721228798541
6.06,-9.36,-16.48,-0.96,0.94,0.18,1721228798551
3.84,-23.87,66.18,-0.68,1.42,-0.17,1721228798561
-5.61,5.65,44.62,0.84,-1.43,-0.73,1721228798571
4.17,8.52,4.21,0.54,-0.19,-1.69,1721228798581
-18.35,1.04,-10.68,-2.11,1.14,-0.02,1721228798591
-2.89,-2.75,10.85,0.21,0.35,0.49,1721228798601
-12.70,7.82,-1.57,0.16,0.20,0.42,1721228798611
0.93,10.37,-17.83,0.07,-0.59,-0.14,1721228798621
-2.77,-19.60,-3.60,-2.46,0.55,-0.17,1721228798631
6.52,11.62,68.38,0.68,1.31,-0.04,1721228798641
12.93,39.55,11.46,1.17,-0.46,-0.93,1721228798651
-4.99,25.91,-11.95,0.28,-0.10,-0.61,1721228798661
-8.08,-6.38,1.17,-1.12,-0.76,0.23,1721228798671
3.30,3.51,8.41,0.32,0.60,1.37,1721228798681
7.77,3.18,-3.06,-1.21,0.22,1.14,1721228798691
12.61,5.79,53.79,0.31,1.48,-0.32,1721228798701
3.48,2.61,14.41,0.57,-1.80,-0.97,1721228798711
3.68,-1.31,-11.83,0.29,0.21,-1.77,1721228798721
-16.05,-0.35,-9.77,-0.19,-1.29,-1.32,1721228798731
-21.54,-0.67,0.95,-0.63,-0.30,-0.96,1721228798741
-19.45,-6.66,13.25,-0.30,0.13,1.06,1721228798751
-1.74,1.28,11.16,0.22,0.37,1.70,1721228798761
4.13,6.76,6.23,-0.32,0.15,1.68,1721228798771
8.01,-1.67,28.94,-0.26,-0.24,0.41,1721228798781
5.17,1.19,8.68,0.35,-0.92,0.21,1721228798791
5.40,-19.88,-8.75,0.30,0.75,0.28,1721228798801
11.72,17.79,10.98,-0.03,-0.12,-0.25,1721228798811
5.06,12.37,-10.19,-0.43,-0.26,-0.67,1721228798821
2.71,-6.49,34.75,0.24,0.22,-0.26,1721228798831
0.53,-14.88,5.22,0.04,-0.01,-0.41,1721228798841
-0.08,-18.37,0.01,-0.78,0.28,-0.81,1721228798851
-8.05,6.14,47.70,0.39,-1.04,-0.84,1721228798861
-11.88,13.10,25.68,0.01,-0.62,-0.37,1721228798871
-10.35,0.35,6.42,1.10,-0.14,0.50,1721228798881
-3.30,11.94,-17.53,1.12,0.01,0.98,1721228798891
4.78,6.83,-9.24,-1.07,-0.23,0.23,1721228798901
-8.15,-30.21,54.97,-2.27,0.90,0.48,1721228798911
1.72,5.60,38.76,1.56,-0.85,0.43,1721228798921
6.36,-7.48,-44.38,2.23,-1.47,-0.41,1721228798931
-0.26,19.13,-24.07,-1.12,-0.04,-0.44,1721228798941
2.55,-13.81,-1.69,-2.21,-0.30,-0.02,1721228798951
16.68,7.92,51.67,1.63,-0.07,1.55,1721228798961
22.89,8.14,-45.14,0.87,0.48,1.54,1721228798971
14.83,-7.51,-0.45,-3.57,2.56,-0.44,1721228798981
3.13,18.33,32.48,1.49,-1.96,-2.08,1721228798991
4.69,-3.00,13.93,2.23,-2.22,-2.50,1721228799001
-35.71,25.94,-26.77,-0.32,0.37,-0.36,1721228799011
-10.53,-9.84,9.15,0.67,-1.01,-0.31,1721228799021
-27.18,-28.77,6.28,-1.86,0.04,1.33,1721228799031
-5.52,4.81,50.05,0.31,0.81,1.61,1721228799041
-1.13,7.25,1.14,0.61,0.31,1.41,1721228799051
8.04,-7.64,-10.98,0.59,-0.93,0.26,1721228799061
13.81,-22.07,47.61,-0.65,0.44,-0.29,1721228799071
12.82,-8.48,19.30,0.79,1.73,-0.30,1721228799081
5.39,4.00,-8.82,0.38,-1.23,-1.11,1721228799091
-1.96,4.28,7.30,-0.75,0.60,-1.93,1721228799101
-9.73,4.61,33.88,0.33,-1.64,-1.26,1721228799111
-15.87,9.60,-15.92,0.37,0.72,-0.60,1721228799121
-15.44,-3.07,-22.23,-0.21,-0.85,-0.16,1721228799131
-11.99,-21.28,7.34,-2.67,1.46,-0.28,1721228799141
10.26,32.38,78.45,0.32,2.97,0.84,1721228799151
4.86,-6.59,-36.59,-0.36,0.03,1.30,1721228799161
1.87,18.22,-13.66,-0.11,-0.58,1.03,1721228799171
6.92,8.29,12.57,-0.11,-0.67,0.56,1721228799181
8.22,8.65,-6.14,-0.40,-0.78,0.54,1721228799191
26.87,-0.97,-10.64,0.77,0.66,-1.13,1721228799201
7.65,0.55,-14.51,-1.49,-1.24,-2.25,1721228799211
8.94,-8.36,59.15,-1.90,0.18,-3.22,1721228799221
-21.87,44.80,54.52,0.37,-2.15,-2.19,1721228799231
-28.57,-13.42,-2.21,1.53,0.76,-0.32,1721228799241
-25.40,-1.50,-18.27,-0.51,-1.01,1.47,1721228799251
-11.86,-3.07,1.32,-1.91,0.42,2.56,1721228799261
-2.15,-10.68,26.22,-0.39,-0.37,3.52,1721228799271
9.03,-0.59,11.40,-0.27,2.11,2.37,1721228799281
27.62,16.69,30.97,0.28,-1.55,0.80,1721228799291
19.57,1.19,3.86,-0.06,-0.31,-0.96,1721228799301
5.89,4.00,0.74,-0.17,-1.02,-1.83,1721228799311
-2.28,9.05,11.99,0.62,-1.71,-2.03,1721228799321
-5.13,-5.15,-8.09,1.21,0.68,-2.15,1721228799331
-16.41,-7.10,0.80,-0.15,-1.34,-0.12,1721228799341
-20.66,18.55,32.44,0.06,-0.57,1.33,1721228799351
-1.76,-0.65,14.60,0.34,1.52,2.09,1721228799361
6.00,-24.33,-6.50,0.52,0.34,2.11,1721228799371
22.73,-6.57,1.98,-0.40,0.46,1.07,1721228799381
18.72,13.69,20.08,0.44,0.01,-1.33,1721228799391
0.83,7.95,10.89,0.05,-1.60,-1.66,1721228799401
-0.74,8.04,24.38,0.02,-0.36,-1.63,1721228799411
-1.73,-9.21,11.17,0.48,0.29,-1.30,1721228799421
-10.45,-21.64,-5.33,-0.23,0.23,-0.09,1721228799431
-2.07,5.60,24.99,-0.16,0.21,0.19,1721228799441
3.45,5.65,8.41,1.10,0.37,0.38,1721228799451
6.19,-3.79,-14.05,-0.11,-0.17,-0.31,1721228799461
-1.71,-11.67,31.51,-0.98,0.57,-0.79,1721228799471
-2.30,3.68,29.13,0.56,-0.48,-0.55,1721228799481
1.67,-11.26,-14.14,1.01,0.20,-0.72,1721228799491
-3.61,5.71,0.46,-0.71,-0.06,0.24,1721228799501
1.36,3.14,10.75,0.74,0.05,0.14,1721228799511
-1.31,-4.62,-15.23,0.06,-0.28,0.17,1721228799521
5.39,12.37,15.20,-0.30,0.82,0.02,1721228799531
2.67,11.71,4.17,0.20,0.19,0.02,1721228799541
9.30,-9.50,-11.11,-0.29,0.03,-0.33,1721228799551
5.21,-31.36,28.90,-1.67,0.31,-2.01,1721228799561
-3.03,-5.12,70.99,-0.45,-0.61,-0.53,1721228799571
-2.04,26.20,42.39,1.69,0.30,0.60,1721228799581
11.53,-11.02,-5.45,2.12,0.59,0.21,1721228799591
-3.13,8.83,-23.10,-1.67,1.55,-0.46,1721228799601
-1.13,6.34,49.36,-1.69,0.53,-0.36,1721228799611
-6.64,-13.47,-26.39,0.85,-1.28,-0.73,1721228799621
-9.91,-2.03,-11.90,0.03,0.40,0.43,1721228799631
0.31,8.02,-12.80,-0.90,0.34,0.65,1721228799641
12.58,11.15,-3.43,-0.36,0.54,0.81,1721228799651
13.77,-6.83,-3.63,-0.01,-0.12,0.42,1721228799661
3.72,-25.95,28.88,-0.88,0.71,-0.75,1721228799671
-0.77,5.77,36.44,0.64,-0.70,-1.36,1721228799681
-2.56,-5.43,17.29,0.73,0.04,-1.36,1721228799691
-18.23,25.23,-6.66,0.49,0.48,-0.43,1721228799701
-1.75,-10.68,-19.13,-0.66,-0.06,-0.23,1721228799711
-12.82,-21.37,62.91,-2.20,0.56,0.37,1721228799721
2.60,-6.56,7.44,0.68,0.80,0.39,1721228799731
3.67,-6.31,-9.34,0.29,-0.11,0.00,1721228799741
8.11,9.34,-4.05,0.32,0.27,-0.79,1721228799751
2.12,-1.70,-1.20,-0.02,-0.26,-0.68,1721228799761
-5.46,2.15,33.20,-0.75,0.75,-0.44,1721228799771
3.68,19.08,24.17,-0.93,0.57,-0.13,1721228799781
-15.74,-44.57,-12.96,0.63,-0.26,0.16,1721228799791
7.72,-11.06,-9.22,-0.45,0.14,-0.25,1721228799801
10.18,-2.05,30.33,-1.60,1.08,-0.49,1721228799811
1.18,3.97,17.17,0.03,-0.57,-0.86,1721228799821
-3.85,1.28,11.98,-0.11,0.17,-1.14,1721228799831
-8.20,-2.20,18.43,-0.55,0.50,-0.99,1721228799841
-3.63,-3.48,20.15,0.11,-0.06,-0.12,1721228799851
0.01,8.32,6.87,0.43,0.34,0.02,1721228799861
-4.49,-10.06,0.30,0.45,0.03,0.49,1721228799871
3.22,0.86,10.76,-0.10,1.51,-0.03,1721228799881
0.75,7.75,7.92,0.79,-0.08,-0.29,1721228799891
0.45,1.97,5.44,1.15,-0.08,-0.71,1721228799901
-12.70,0.92,-6.68,0.60,0.37,-0.45,1721228799911
-7.28,-9.34,1.61,-1.12,0.89,-0.55,1721228799921
-7.42,3.90,34.12,-0.16,0.01,-0.12,1721228799931
-11.04,-13.20,13.28,0.17,-0.34,0.13,1721228799941
-14.22,-20.54,-2.77,-0.20,0.56,0.99,1721228799951
-3.69,11.14,33.20,0.30,0.04,1.62,1721228799961
-3.54,35.99,6.49,-0.41,0.25,1.51,1721228799971
0.46,-26.63,2.01,0.76,0.01,0.24,1721228799981
13.32,-20.04,-10.58,-0.51,-0.30,-0.69,1721228799991
3.26,-1.38,-5.26,-0.13,0.66,-0.68,1721228800001
-1.45,-14.70,1.43,0.24,-0.62,-0.74,1721228800011
-7.25,5.81,35.68,0.31,-0.23,-0.28,1721228800021
-8.86,13.17,16.90,0.18,-0.28,0.23,1721228800031
-7.00,2.47,-2.89,0.24,0.20,0.66,1721228800041
-4.75,-8.22,2.37,-0.28,0.05,0.88,1721228800051
3.80,-11.70,24.55,-0.23,0.40,0.86,1721228800061
1.41,18.63,26.93,0.63,0.21,0.96,1721228800071
7.63,17.59,17.07,0.50,-0.47,0.14,1721228800081
-1.13,-15.01,-21.46,0.15,-0.72,-0.53,1721228800091
-1.84,-5.01,-8.04,-1.36,0.39,0.05,1721228800101
-13.18,14.68,2.37,0.18,-0.57,0.69,1721228800111
-4.30,-17.44,4.09,-0.64,0.88,1.21,1721228800121
4.00,13.02,26.30,0.26,0.37,1.25,1721228800131
10.68,1.84,3.64,-0.72,0.02,-0.42,1721228800146
3.97,-15.63,4.97,-1.22,-0.58,-1.10,1721228800150
-4.94,11.91,28.77,-0.20,-0.69,-1.05,1721228800160
-11.11,-7.02,2.72,0.47,-0.48,-0.82,1721228800170
-8.96,15.93,-5.56,0.04,-0.14,0.90,1721228800180
-10.98,-13.79,-8.23,-1.01,0.54,1.62,1721228800190
-4.13,-9.05,2.28,-1.01,-0.01,1.92,1721228800200
8.84,-0.61,10.02,-0.16,0.24,1.77,1721228800210
3.89,-15.22,18.30,-0.20,0.56,1.30,1721228800220
13.71,34.02,19.18,0.45,0.22,0.34,1721228800230
15.91,-1.02,22.42,-0.34,-0.97,-0.38,1721228800240
1.55,-3.77,20.17,-1.13,-0.17,-1.38,1721228800250
-3.94,8.76,19.06,0.00,-1.00,-1.18,1721228800260
-33.17,-36.86,-13.46,0.91,0.89,-0.23,1721228800270
-4.89,-3.70,-8.53,-0.07,-0.93,1.10,1721228800280
-6.81,6.36,-2.63,-0.59,0.96,2.35,1721228800290
5.28,-9.03,0.68,1.22,-0.26,2.10,1721228800300
6.51,-24.35,1.89,-0.64,0.19,0.98,1721228800310
12.31,31.75,45.52,0.32,0.14,1.03,1721228800320
11.78,12.30,17.47,0.67,-0.78,-0.11,1721228800330
-4.07,-22.30,-19.49,0.77,0.22,-1.35,1721228800340
10.16,-26.13,-1.14,-1.71,-1.63,-2.18,1721228800350
-31.67,35.80,42.16,0.47,-1.55,0.34,1721228800360
-29.11,6.73,8.41,0.54,0.58,0.78,1721228800370
-8.71,-16.77,-7.93,1.63,-0.43,1.28,1721228800380
2.27,12.68,-27.31,0.23,-0.71,1.02,1721228800390
3.97,25.63,4.40,-0.72,0.61,0.87,1721228800400
3.93,7.63,23.78,-1.41,0.16,0.25,1721228800410
8.04,-13.09,19.94,-0.32,0.03,-0.99,1721228800420
-7.05,-17.57,0.70,0.80,-1.20,-1.41,1721228800430
0.92,25.91,-6.94,0.90,-0.83,-0.38,1721228800440
-9.95,-9.38,-17.80,-0.81,0.34,0.30,1721228800450
-7.76,8.77,48.07,-0.10,-0.04,1.85,1721228800460
6.81,8.18,26.56,-0.35,1.27,1.24,1721228800470
1.13,-14.89,-14.25,0.42,-0.65,1.22,1721228800480
10.27,-2.13,0.85,-0.66,0.19,-0.92,1721228800490
-1.36,-6.49,-2.13,-0.99,-0.46,-1.17,1721228800500
-7.56,14.20,36.33,0.46,-0.44,-0.55,1721228800510
-9.84,-10.60,20.15,0.74,-0.00,-0.69,1721228800520
-15.73,24.66,8.00,0.56,0.35,0.34,1721228800530
-0.40,29.14,-2.64,-0.43,-0.01,1.10,1721228800540
3.74,-10.13,-34.29,-0.23,-0.03,1.08,1721228800550
12.58,-16.84,-11.39,-0.29,1.18,0.92,1721228800560
16.02,8.94,-27.05,0.40,-1.12,-0.70,1721228800570
6.67,-19.41,-4.86,-3.24,0.76,-1.49,1721228800580
-13.10,-43.90,78.45,2.92,-4.21,-2.92,1721228800590
-25.49,78.45,78.45,1.26,2.89,0.15,1721228800600
-15.15,-47.55,-51.28,4.37,2.56,3.19,1721228800610
3.34,-2.87,-46.13,0.18,-4.37,2.73,1721228800620
7.01,-22.99,-39.80,-1.18,2.15,0.10,1721228800630
28.49,23.66,29.05,-0.06,3.51,-1.99,1721228800640
-2.22,10.34,4.66,-0.77,-2.59,-1.24,1721228800650
1.95,-78.45,78.45,-0.07,-1.30,-3.39,1721228800660
-35.62,3.75,36.25,-0.98,-0.86,-1.93,1721228800670
-12.54,5.62,39.78,-0.54,0.65,0.13,1721228800680
-18.69,-9.78,-4.09,-1.28,1.18,1.46,1721228800690
8.15,-13.77,23.50,0.46,-0.45,1.90,1721228800700
-1.57,38.47,16.99,0.57,1.65,2.70,1721228800710
38.21,-25.57,-11.07,0.43,-0.63,-0.07,1721228800720
9.31,1.73,17.63,-1.87,1.30,-1.60,1721228800730
2.77,9.13,13.69,-0.44,-1.06,-2.69,1721228800740
0.17,-16.38,16.83,1.34,-1.54,-2.55,1721228800750
-29.07,-12.26,15.89,-0.48,0.62,-1.41,1721228800760
-13.55,39.76,26.44,0.70,-1.14,0.47,1721228800770
-48.68,-78.45,-15.28,0.61,1.72,1.27,1721228800780
-13.51,11.03,7.76,0.47,-0.92,2.66,1721228800790
12.76,-3.08,22.82,0.39,1.21,0.88,1721228800800
11.97,2.31,-7.82,1.56,-0.41,-0.26,1721228800810
2.82,4.96,-6.90,-0.42,-0.42,-0.79,1721228800820
6.67,8.09,53.79,-0.61,0.91,-1.55,1721228800830
-4.73,-4.90,34.85,-0.31,-0.89,-1.00,1721228800840
-12.08,-20.57,-14.38,0.49,1.90,0.04,1721228800850
-5.29,2.38,-18.83,-0.63,-0.37,1.09,1721228800860
-0.48,-3.78,2.69,0.39,-0.96,0.66,1721228800870
8.42,-4.42,22.35,1.28,0.42,1.23,1721228800880
24.32,65.28,7.15,1.12,-0.12,0.01,1721228800890
9.74,28.82,-10.13,0.26,-0.37,-0.76,1721228800900
6.22,-9.84,2.54,-1.33,0.11,-1.47,1721228800910
-5.26,-38.55,-4.81,-0.90,-0.33,-2.40,1721228800920
-11.25,1.06,7.11,0.44,-0.06,-0.83,1721228800930
-14.04,0.51,-24.15,1.62,-0.22,0.45,1721228800940
0.04,11.10,-14.04,-0.71,-0.11,1.26,1721228800950
0.33,-78.45,78.45,-2.58,1.83,0.36,1721228800960
3.25,19.14,78.45,-0.98,1.13,0.35,1721228800970
13.01,21.66,6.11,1.66,-0.80,-0.52,1721228800980
1.75,-4.39,-41.50,1.15,0.24,-0.66,1721228800990
-6.87,-17.01,-23.44,-1.14,-1.18,-0.54,1721228801000
-1.55,0.32,31.00,-2.17,1.67,-1.05,1721228801010
0.11,44.83,37.76,-0.07,-1.82,0.77,1721228801020
9.35,-73.87,-23.14,1.44,1.66,-0.11,1721228801030
-0.90,-1.31,-24.86,-0.63,-1.17,1.90,1721228801040
9.76,-9.45,-8.06,-2.49,1.73,1.03,1721228801050
16.24,21.64,41.24,0.61,0.38,-0.05,1721228801060
10.82,9.80,16.73,0.44,-1.14,-0.47,1721228801070
4.57,-14.65,-23.46,0.86,0.38,-2.11,1721228801080
-4.50,-22.92,-0.30,-1.51,-1.07,-0.85,1721228801090
-5.73,-0.50,45.06,1.26,-0.40,-0.43,1721228801100
0.91,15.49,32.55,0.79,0.13,0.80,1721228801110
8.04,67.75,12.47,0.25,0.43,1.73,1721228801120
11.83,21.73,26.21,0.41,1.29,1.75,1721228801130
4.64,-3.45,-5.87,-0.05,0.62,1.10,1721228801140
11.94,-37.89,-25.85,2.60,-0.33,0.31,1721228801150
-0.92,-15.50,-37.66,0.73,-1.72,-0.73,1721228801160
10.90,-7.25,-11.49,-1.92,0.71,-1.49,1721228801170
-10.44,-59.07,77.32,-1.74,1.90,-1.22,1721228801180
6.46,57.56,59.37,3.07,-2.42,-0.67,1721228801190
-1.95,2.04,1.79,0.61,0.64,-0.31,1721228801200
9.22,18.64,21.53,-2.04,0.88,0.72,1721228801210
1.46,-7.25,27.39,0.38,0.64,-0.33,1721228801220
10.50,-27.35,-6.51,2.10,0.44,-0.76,1721228801230
-31.16,33.61,-0.78,1.93,0.02,1.34,1721228801240
6.31,-17.99,-25.39,0.12,-0.03,0.15,1721228801250
0.36,-2.15,-10.67,-3.22,-0.13,-0.42,1721228801260
-40.87,8.07,78.45,-0.57,-2.35,-0.47,1721228801270
4.01,19.43,78.45,-0.59,1.46,0.43,1721228801280
-20.50,-52.57,-24.84,3.18,0.97,0.82,1721228801290
-4.93,-3.44,-72.95,1.47,-2.01,0.68,1721228801300
13.95,34.70,-21.33,-0.57,0.74,-0.60,1721228801310
-0.89,-5.26,-7.70,-1.96,0.50,-1.83,1721228801320
-7.51,-9.07,10.59,-3.26,-0.20,-2.91,1721228801330
-13.42,8.08,-5.23,-0.39,3.25,-1.15,1721228801340
-9.16,-38.15,-39.01,2.38,1.68,0.53,1721228801350
-25.15,23.44,-1.00,2.82,-0.05,2.29,1721228801360
22.33,4.48,-35.50,0.30,-2.15,0.09,1721228801370
-2.70,0.55,-14.46,-4.37,0.92,-0.66,1721228801380
-18.73,56.75,71.03,-1.95,-0.44,-2.11,1721228801390
-2.25,-12.43,38.94,1.39,2.68,-1.82,1721228801400
-0.54,-17.13,-19.34,3.91,1.68,1.31,1721228801410
2.98,-14.68,-27.93,1.38,-2.03,2.22,1721228801420
20.14,21.72,-35.26,-2.48,1.89,0.34,1721228801430
6.58,-27.08,17.26,-4.37,0.80,-0.92,1721228801440
-8.81,78.45,48.04,-3.45,0.10,-3.73,1721228801450
1.29,13.37,62.43,3.46,-3.25,-2.31,1721228801460
-48.54,-46.79,-25.52,1.76,0.20,0.57,1721228801470
-12.28,-13.94,-22.12,-1.17,-0.00,1.15,1721228801480
2.69,6.41,3.75,-2.55,0.52,3.55,1721228801490
8.57,67.69,28.37,1.66,0.28,3.11,1721228801500
6.24,11.38,2.14,0.48,-0.23,1.24,1721228801510
35.35,29.68,21.23,0.34,0.07,-0.20,1721228801520
10.24,-3.28,16.52,-0.41,-0.38,-1.42,1721228801530
5.97,-21.41,-9.60,1.05,-1.35,-1.97,1721228801540
-2.41,-3.86,-18.67,1.09,-1.82,-1.59,1721228801550
-9.29,-17.36,-14.43,-1.00,-0.32,-0.91,1721228801560
-21.41,-78.45,78.45,-2.84,1.71,0.22,1721228801570
12.97,48.87,78.45,1.32,-0.42,1.24,1721228801580
17.05,27.80,-19.13,4.37,-0.32,0.26,1721228801590
-8.00,9.58,-65.01,0.94,-0.18,0.36,1721228801600
2.70,-60.79,-21.75,-4.37,0.39,-0.60,1721228801610
-13.05,-49.00,78.45,-3.85,3.62,-1.08,1721228801620
-19.25,31.31,16.65,0.69,-3.48,0.60,1721228801630
12.50,-3.90,26.82,4.37,3.98,0.64,1721228801640
-5.70,-75.55,-25.32,-3.98,-0.28,1.76,1721228801650
13.48,-72.75,78.45,-0.67,2.98,1.01,1721228801660
3.71,68.37,78.45,3.38,-0.92,1.42,1721228801670
6.29,-29.85,-62.12,4.37,0.55,-2.33,1721228801680
15.65,21.99,-66.46,-1.87,-1.57,-1.66,1721228801690
5.74,-39.21,-22.21,-3.14,2.37,-1.83,1721228801700
-31.94,-46.41,-3.80,-3.03,-0.44,-0.22,1721228801710
2.51,26.53,32.87,-0.39,0.29,0.67,1721228801720
0.19,14.10,16.95,1.00,0.17,1.66,1721228801730
9.45,14.11,5.61,1.17,0.21,1.58,1721228801740
11.16,-8.77,-6.76,-0.34,0.77,1.64,1721228801750
8.32,-27.77,65.34,-1.15,1.13,-1.01,1721228801760
-1.90,8.25,40.00,0.85,-2.36,-2.09,1721228801770
-3.44,14.49,8.02,1.59,-1.13,-1.96,1721228801780
-36.55,-21.66,-36.83,1.34,0.60,0.42,1721228801790
-29.62,-55.75,-25.02,-1.39,-0.65,0.69,1721228801800
-0.66,1.08,5.67,-3.55,1.08,1.37,1721228801810
35.88,52.72,37.64,1.70,-2.04,1.52,1721228801820
10.12,-18.57,-15.75,-0.91,1.72,-0.06,1721228801830
9.09,0.82,14.16,1.53,-1.88,-0.87,1721228801840
17.65,48.37,-14.57,0.54,-1.27,-1.31,1721228801850
-5.12,-2.57,-17.79,1.61,0.91,-0.82,1721228801860
-14.23,-28.67,-15.73,-2.15,0.26,-0.27,1721228801870
-2.26,-71.67,70.94,-0.86,-0.22,0.47,1721228801880
16.65,58.77,59.88,-0.12,0.74,1.55,1721228801890
4.43,-42.02,-19.02,4.01,1.10,0.74,1721228801900
20.08,-15.51,-51.17,0.31,-1.05,-0.57,1721228801910
26.53,33.31,-11.58,-4.37,-0.04,-2.13,1721228801920
30.59,-24.25,69.86,0.36,0.81,-1.97,1721228801930
6.43,-10.14,64.76,2.75,-3.02,-0.10,1721228801940
-11.49,16.84,-6.34,0.32,0.72,0.88,1721228801950
-20.90,-43.88,-12.10,0.91,0.04,1.97,1721228801960
-1.08,-13.21,-30.44,0.19,-0.84,0.65,1721228801970
3.82,-3.46,2.53,-1.05,0.94,0.48,1721228801980
4.50,7.05,14.70,1.19,-0.63,0.17,1721228801990
9.15,30.39,20.84,0.46,0.07,-0.23,1721228802000
-16.60,-73.03,-9.04,-0.91,-0.28,-0.95,1721228802010
-9.08,-3.20,47.15,-0.47,-0.86,-0.50,1721228802020
-3.11,1.60,10.52,0.94,0.37,-0.93,1721228802030
-15.57,-19.94,-39.27,2.76,-0.31,0.51,1721228802040
-2.78,-18.82,-20.79,-1.19,-0.43,0.84,1721228802050
5.47,-4.91,3.19,-3.47,0.56,0.57,1721228802060
17.15,41.93,30.39,2.11,-1.89,0.97,1721228802070
6.50,-10.06,-23.39,2.30,0.00,0.42,1721228802080
16.39,1.52,-10.93,-2.14,-0.17,-0.33,1721228802090
0.03,-63.99,78.45,0.08,-0.78,-1.10,1721228802100
-8.23,16.84,41.82,2.46,-2.50,-0.63,1721228802110
-30.69,-57.24,-49.46,2.98,2.26,0.03,1721228802120
-10.24,19.65,-32.88,-3.09,-1.50,1.52,1721228802130
0.18,-16.90,78.45,-3.70,4.37,1.65,1721228802140
2.61,-57.68,-36.91,3.82,0.64,-0.11,1721228802155
9.83,-22.87,-36.91,4.29,-0.27,2.03,1721228802159
-2.01,-19.97,-29.04,-3.66,-2.85,0.05,1721228802169
0.82,-40.72,54.09,-3.53,1.60,-2.10,1721228802179
-2.20,78.45,78.45,-0.13,-4.37,-1.68,1721228802189
-9.20,41.64,18.90,2.82,3.01,-1.72,1721228802199
-21.69,16.80,-34.95,0.01,-0.98,1.35,1721228802209
1.99,-42.93,-20.45,-3.01,3.18,1.23,1721228802219
12.12,-68.78,42.94,-1.20,-0.04,0.58,1721228802229
2.01,9.88,14.65,1.53,-0.83,0.77,1721228802239
-1.03,-4.82,-26.57,1.86,-2.73,-0.71,1721228802249
17.21,34.98,-20.99,-0.93,0.70,-1.65,1721228802259
0.31,-1.87,12.35,-3.32,-0.76,-0.82,1721228802269
2.50,40.96,53.24,-0.74,-0.47,0.84,1721228802279
11.17,-78.45,-28.38,3.26,0.32,-0.80,1721228802289
48.27,78.45,-31.99,2.26,-1.04,-1.29,1721228802299
34.51,-19.28,-36.55,-1.04,-0.49,-1.23,1721228802309
-25.41,-35.52,44.53,-4.37,-0.35,-2.50,1721228802319
-44.43,78.45,78.45,-0.97,-2.33,-1.03,1721228802329
-9.45,78.45,48.70,0.61,4.20,-0.86,1721228802339
-28.24,-40.46,-10.53,1.10,0.43,2.31,1721228802349
29.08,-60.28,-61.76,1.24,-2.13,0.11,1721228802359
7.31,-22.65,-30.69,-2.36,-0.30,-0.08,1721228802369
4.70,9.00,15.82,-4.37,0.30,-1.77,1721228802379
29.02,78.45,59.42,-0.75,-0.11,-2.87,1721228802389
13.66,-3.79,48.82,3.16,-2.52,-0.69,1721228802399
-17.48,20.41,-46.43,0.84,1.04,-0.46,1721228802409
-0.84,-9.09,-7.99,2.73,-0.15,-0.34,1721228802419
-16.37,-41.97,-23.40,1.62,-1.33,0.61,1721228802429
0.76,-11.42,-11.79,-4.36,0.77,0.46,1721228802439
4.80,-49.79,78.45,-1.05,1.39,0.05,1721228802449
10.82,2.78,78.45,0.60,1.35,0.36,1721228802459
7.93,3.32,-20.24,4.37,-0.48,-0.89,1721228802469
-1.47,5.95,-40.63,2.16,-0.46,-0.77,1721228802479
-16.28,-68.64,-26.38,-1.59,0.20,-1.31,1721228802489
-11.01,-20.40,-20.09,-4.37,0.36,-0.51,1721228802499
17.67,27.32,78.45,-0.33,1.11,-0.85,1721228802509
-1.14,-6.09,43.89,2.53,-1.02,0.10,1721228802519
-5.22,9.22,-13.62,1.96,0.46,0.52,1721228802529
3.91,9.08,-18.47,0.71,0.28,-0.24,1721228802539
2.02,15.07,-16.16,-0.49,0.22,-0.54,1721228802549
-2.10,-27.56,-14.46,-2.16,-0.36,-1.27,1721228802559
0.16,-16.12,69.41,-1.34,0.58,-0.94,1721228802569
4.37,15.04,40.87,1.33,0.26,-0.55,1721228802579
-8.91,-2.87,-4.36,0.73,0.11,-1.39,1721228802589
12.45,56.01,4.37,0.74,0.21,-0.49,1721228802599
7.99,-1.26,-5.43,0.60,-0.40,0.25,1721228802609
-3.52,-34.36,-14.90,-2.34,1.97,-1.19,1721228802619
10.13,-5.31,59.41,-0.50,1.59,-0.80,1721228802629
8.08,10.98,26.41,1.33,-0.64,-0.58,1721228802639
25.06,66.94,-26.49,1.34,0.09,-1.28,1721228802649
-1.07,19.60,2.66,-0.59,0.46,-1.31,1721228802659
-5.22,-2.78,22.69,-1.07,-0.20,-1.37,1721228802669
3.52,-41.67,-16.56,0.01,1.23,-0.25,1721228802679
-7.50,-11.53,8.69,-1.05,0.78,-0.23,1721228802689
4.15,-6.65,50.80,0.06,0.80,0.97,1721228802699
-4.45,12.24,5.96,1.64,1.03,1.07,1721228802709
24.50,16.88,-22.87,0.77,0.08,-0.02,1721228802719
12.40,12.05,36.68,-1.72,0.95,-0.92,1721228802729
-6.97,35.37,17.09,0.04,-1.60,-1.49,1721228802739
18.69,-74.02,-26.28,0.95,1.42,-3.37,1721228802749
-15.75,-4.10,-21.11,-2.09,-0.93,-1.56,1721228802759
-2.27,14.41,35.89,1.44,-2.38,-0.27,1721228802769
1.71,-1.75,7.21,0.46,0.58,0.38,1721228802779
5.48,17.11,36.32,-1.62,1.27,1.80,1721228802789
12.05,20.60,68.65,-0.18,2.20,1.25,1721228802799
5.10,6.53,-4.77,1.60,-0.81,0.11,1721228802809
11.12,-16.05,-41.03,2.05,2.33,-0.81,1721228802819
-3.55,-42.02,-31.16,-2.45,-1.09,-1.46,1721228802829
-9.57,10.35,78.45,-2.25,1.81,-1.78,1721228802839
-35.13,45.26,14.19,-0.92,-1.56,-0.40,1721228802849
3.89,-78.45,-34.26,1.93,0.56,-0.95,1721228802859
2.63,3.38,-31.68,-4.17,-0.31,0.31,1721228802869
-4.44,64.63,78.45,0.17,-1.61,-0.31,1721228802879
1.79,1.30,-2.16,0.23,0.04,-0.07,1721228802889
5.83,9.55,24.29,-0.17,0.95,0.25,1721228802899
1.23,-19.97,53.30,-1.13,0.03,-0.49,1721228802909
-16.22,7.09,30.82,-0.49,-0.13,0.36,1721228802919
-0.80,-9.59,-24.50,3.27,1.53,-0.24,1721228802929
-7.66,4.31,-11.40,3.48,0.48,0.48,1721228802939
8.35,16.63,-40.63,0.18,-0.32,-0.00,1721228802949
-1.76,-4.22,-12.76,-4.37,-0.13,-0.67,1721228802959
12.40,-39.05,78.45,1.23,0.34,-0.20,1721228802969
17.90,20.77,78.45,0.99,-1.01,1.20,1721228802979
-3.36,-21.65,-19.47,2.26,1.69,0.46,1721228802989
10.85,-0.27,-7.34,0.91,-0.30,0.28,1721228802999
-4.95,15.22,-18.09,-0.44,0.78,-0.09,1721228803009
0.02,1.02,-2.22,-0.69,-0.25,-0.97,1721228803019
-23.69,-28.42,54.91,-2.41,-0.25,-1.21,1721228803029
-0.68,19.74,46.61,0.71,0.85,-0.29,1721228803039
3.36,-11.65,7.18,3.86,1.98,0.40,1721228803049
40.50,56.83,-22.72,2.98,-0.21,1.23,1721228803059
3.70,-56.51,-30.85,-0.20,-0.15,0.42,1721228803069
12.98,2.90,-15.57,-4.37,0.17,-0.64,1721228803079
31.95,-38.67,78.03,0.99,3.12,-1.18,1721228803089
16.92,44.00,67.03,4.37,-2.86,0.35,1721228803099
7.42,-53.70,-47.94,0.72,3.09,-0.63,1721228803109
-3.11,2.97,-25.70,-3.37,-1.02,0.87,1721228803119
-3.75,-53.34,78.45,-1.53,1.89,0.63,1721228803129
27.05,61.77,34.18,-0.34,-0.37,0.73,1721228803139
7.48,-8.66,-9.45,3.48,1.78,-0.58,1721228803149
-1.93,-8.54,-23.51,1.25,-1.28,0.02,1721228803159
2.47,33.73,-25.38,-0.75,1.75,0.36,1721228803169
5.29,18.12,-7.36,-1.91,0.20,1.08,1721228803179
44.73,-78.45,46.37,-4.37,2.72,-2.58,1721228803189
13.70,-1.95,78.45,0.43,-0.70,-0.42,1721228803199
-10.65,31.49,38.19,2.10,0.88,0.93,1721228803209
2.35,-12.14,-43.37,4.37,0.61,1.73,1721228803219
17.22,-31.95,-58.24,0.72,-1.16,-0.64,1721228803229
-4.30,-6.90,-25.59,-3.64,0.16,-0.10,1721228803239
11.15,-23.71,78.45,-4.37,2.27,-0.11,1721228803249
-54.68,-35.03,58.48,1.61,-4.10,0.02,1721228803259
-20.60,-40.15,4.13,0.43,1.54,1.33,1721228803269
5.38,17.92,-24.98,0.19,-0.20,1.11,1721228803279
4.91,4.85,1.55,-0.38,0.44,0.90,1721228803289
3.67,-1.08,-1.28,1.19,-0.20,0.92,1721228803299
9.47,-5.54,-22.16,2.21,-0.11,0.33,1721228803309
5.71,-14.49,-25.75,-0.03,-0.77,-0.71,1721228803319
0.12,-1.44,3.73,-3.31,1.30,-0.71,1721228803329
-58.31,62.06,61.95,2.09,-1.94,-0.53,1721228803339
3.75,-9.81,11.23,3.47,2.46,-1.19,1721228803349
-1.79,-0.21,-46.94,1.51,-0.48,0.67,1721228803359
12.01,25.02,-20.57,0.03,-0.99,0.63,1721228803369
-20.42,8.19,-15.50,-0.90,0.27,0.41,1721228803379
0.49,-23.39,-5.81,-2.58,1.28,0.36,1721228803389
-21.86,15.88,78.45,-1.21,0.06,-0.00,1721228803399
5.74,3.06,57.55,0.41,0.54,-0.17,1721228803409
-0.83,7.86,6.35,0.22,-0.17,0.24,1721228803419
-6.18,28.47,-18.32,0.79,0.15,0.47,1721228803429
2.38,-32.48,-13.49,1.81,0.03,0.08,1721228803439
0.27,0.21,-8.52,-2.86,0.27,-0.77,1721228803449
1.15,30.24,62.08,0.66,-0.95,-0.89,1721228803459
7.09,31.42,24.59,0.95,-0.53,-0.84,1721228803469
-34.70,-59.11,-0.90,0.06,1.30,1.77,1721228803479
1.98,-24.98,4.20,-2.57,-0.48,0.50,1721228803489
-2.55,39.17,68.00,1.25,-1.88,2.07,1721228803499
10.92,32.14,-11.63,1.20,-0.20,0.95,1721228803509
10.02,-36.67,-25.15,1.30,-0.76,0.30,1721228803519
5.48,-22.13,-0.66,-1.82,0.32,-1.24,1721228803529
9.16,14.85,19.70,0.16,0.16,-1.07,1721228803539
-6.54,-1.67,-15.91,2.97,-0.32,-1.37,1721228803549
-14.15,-25.13,-9.58,-0.45,-0.28,-1.97,1721228803559
-13.35,-4.62,67.30,-4.36,1.29,-0.41,1721228803569
-10.98,65.96,78.45,0.69,-1.43,0.95,1721228803579
-1.91,-1.08,13.80,1.15,1.14,1.06,1721228803589
13.58,48.14,-1.49,2.53,-0.62,2.21,1721228803599
7.45,-12.25,-12.09,-1.41,-0.14,0.81,1721228803609
4.45,-0.72,6.94,-3.66,0.85,-0.22,1721228803619
1.46,-12.88,16.50,-0.65,-0.41,-1.28,1721228803629
32.59,46.09,16.70,1.53,-1.79,-1.94,1721228803639
-10.52,-24.27,-1.88,-0.42,1.23,-2.02,1721228803649
-21.63,-21.31,16.58,0.49,-0.93,-0.73,1721228803659
-14.55,25.68,13.44,1.12,-0.25,0.80,1721228803669
-5.32,-8.88,4.58,0.34,1.14,1.72,1721228803679
16.29,13.57,31.00,-0.28,0.77,1.91,1721228803689
16.29,20.75,45.21,0.10,0.25,0.67,1721228803699
10.93,-18.79,4.85,1.28,-1.02,-1.25,1721228803709
4.70,-14.47,-30.43,0.42,1.29,-0.21,1721228803719
-7.44,-16.32,-20.77,-3.05,-0.58,-0.44,1721228803729
7.20,10.24,16.88,-1.23,3.04,-0.69,1721228803739
10.54,-3.07,34.23,1.58,-1.80,-0.22,1721228803749
-9.29,-15.34,-7.12,0.34,0.41,0.05,1721228803759
0.78,-1.92,-2.64,1.34,0.26,0.70,1721228803769
-4.86,-10.41,-16.26,-0.05,0.42,0.58,1721228803779
4.16,2.56,0.76,-0.97,0.41,-0.22,1721228803789
-4.63,-15.87,33.65,-0.92,-0.49,-0.29,1721228803799
1.57,9.54,42.82,-0.37,1.01,-0.13,1721228803809
3.79,26.18,30.80,-0.40,-0.04,-0.02,1721228803819
-0.06,-31.01,-34.98,2.08,-0.18,-1.31,1721228803829
-7.92,-26.07,-25.48,0.14,-0.23,-0.05,1721228803839
-0.15,-18.48,-9.91,-3.06,0.43,1.41,1721228803849
19.94,-10.62,67.78,2.63,1.80,1.69,1721228803859
34.71,50.12,34.71,2.25,-1.23,1.01,1721228803869
2.96,-78.45,-48.99,2.48,0.88,-0.66,1721228803879
-9.36,1.49,-16.54,-1.16,-1.87,-0.88,1721228803889
-9.03,13.06,17.04,-2.16,1.88,-0.12,1721228803899
-23.84,12.30,-14.61,-1.77,-0.50,-0.49,1721228803909
9.26,4.54,6.82,0.82,-0.71,0.13,1721228803919
-34.33,-8.14,53.42,-1.21,-0.06,0.86,1721228803929
6.08,-41.92,26.52,0.93,-1.13,0.07,1721228803939
-0.01,6.00,23.80,-0.54,0.65,0.36,1721228803949
29.28,78.45,37.20,1.28,-0.53,0.06,1721228803959
1.81,-0.97,-17.11,1.50,-1.11,-0.46,1721228803969
-3.74,-11.82,-32.03,-0.49,0.11,0.48,1721228803979
-6.89,-27.89,-7.25,-4.00,-1.29,-0.15,1721228803989
7.17,-11.36,78.45,0.36,1.42,-1.06,1721228803999
9.11,-3.68,53.12,3.83,-3.26,0.66,1721228804009
-16.60,-27.36,-31.82,2.06,1.34,0.99,1721228804019
15.61,0.60,-21.89,1.76,-1.63,1.16,1721228804029
2.48,-13.46,-19.23,-2.07,1.13,0.56,1721228804039
-3.71,-60.04,78.45,-3.43,2.06,0.14,1721228804049
-11.54,78.45,47.73,0.62,-1.44,1.67,1721228804059
7.84,-2.05,-26.34,4.37,0.49,-0.79,1721228804069
-6.11,-4.46,-35.57,-1.71,-0.08,0.42,1721228804079
-4.93,-26.79,-4.49,-3.75,-0.20,-1.49,1721228804089
-11.89,5.41,13.53,0.37,-2.23,-0.71,1721228804099
3.68,9.43,-7.63,1.10,1.79,0.17,1721228804109
-19.75,2.94,-16.18,0.04,0.15,2.32,1721228804119
6.90,18.78,-13.51,1.03,0.22,1.66,1721228804129
2.32,-5.67,-6.60,-0.50,0.58,1.94,1721228804139
11.20,-39.27,61.31,-3.00,1.67,0.49,1721228804149
15.73,29.85,34.28,1.88,-2.34,-1.23,1721228804164
-2.43,12.97,9.85,2.43,-1.08,-1.35,1721228804168
-19.34,5.72,-43.48,3.02,1.20,-0.97,1721228804178
-13.32,-32.87,-23.72,-1.89,-0.80,0.23,1721228804188
-8.50,5.08,3.02,-4.37,0.08,-0.16,1721228804198
-1.32,46.92,47.21,-1.30,-1.42,0.13,1721228804208
-3.26,-78.45,-8.97,2.97,4.04,0.12,1721228804218
-56.31,-49.28,-78.45,-0.12,0.24,0.72,1721228804228
52.16,78.45,-4.96,-0.32,-2.45,-0.38,1721228804238
2.50,-1.13,8.10,-3.06,1.64,-0.08,1721228804248
-0.58,66.43,32.29,0.58,-0.47,-0.88,1721228804258
8.38,11.76,32.58,2.77,-1.63,-0.07,1721228804268
-4.04,3.42,-7.63,-0.25,0.75,0.56,1721228804278
0.91,-23.69,0.78,0.23,0.30,0.03,1721228804288
-1.53,-20.50,2.80,-0.45,-0.14,-0.41,1721228804298
-3.04,-10.34,11.91,-0.28,-0.33,-0.34,1721228804308
-7.06,22.59,12.39,0.79,0.18,-0.12,1721228804318
-1.76,5.93,-0.72,0.20,0.18,-0.41,1721228804328
2.85,25.36,29.91,-0.77,0.67,0.23,1721228804338
-3.96,-0.08,28.01,-0.47,0.17,-0.25,1721228804348
-25.07,-56.98,-6.91,2.12,0.08,0.56,1721228804358
-11.73,-1.43,-29.94,1.15,-0.51,0.60,1721228804368
5.14,-16.71,-24.38,-1.16,1.65,-0.08,1721228804378
4.38,-4.10,11.45,-2.25,0.96,-0.57,1721228804388
16.56,71.04,78.45,-0.87,0.81,0.25,1721228804398
3.71,-10.45,6.14,1.10,0.51,-1.02,1721228804408
1.39,-18.71,-23.79,2.85,-0.35,0.43,1721228804418
8.40,-14.54,-48.31,1.65,-1.20,0.60,1721228804428
8.39,0.78,-26.60,-3.92,1.07,0.46,1721228804438
11.10,-12.21,76.42,-2.35,0.51,1.14,1721228804448
11.22,-1.40,78.45,-1.10,0.27,-0.04,1721228804458
0.63,-9.33,13.74,-0.74,-0.62,-1.56,1721228804468
-4.83,-2.53,-19.76,0.81,0.72,-0.80,1721228804478
-6.68,-21.07,-22.71,1.83,-1.71,0.77,1721228804488
-15.57,-3.95,-25.83,-3.64,1.64,1.69,1721228804498
-23.30,-34.60,78.45,-0.61,-1.09,2.46,1721228804508
5.43,19.32,32.53,0.43,1.36,1.79,1721228804518
-13.88,-53.26,-25.75,1.96,-0.13,2.65,1721228804528
13.97,-13.18,-18.82,-1.76,-1.24,-0.16,1721228804538
10.46,-4.66,1.75,0.53,1.00,-1.47,1721228804548
1.21,-26.11,10.22,0.41,-1.47,-0.84,1721228804558
-15.04,28.20,63.17,-0.89,-0.83,-0.49,1721228804568
-11.99,12.70,23.59,0.26,0.45,0.16,1721228804578
-27.92,-25.50,-27.72,2.85,0.27,1.70,1721228804588
-4.92,-5.12,-43.04,0.93,-1.54,2.23,1721228804598
16.11,-6.56,-8.20,-1.74,1.08,1.05,1721228804608
-17.99,-39.16,78.45,-1.43,-0.04,0.20,1721228804618
-1.11,36.02,68.93,0.94,-2.46,-0.36,1721228804628
1.70,3.45,4.43,1.84,-0.16,-0.84,1721228804638
7.80,-8.49,-9.24,0.90,-0.50,0.56,1721228804648
-2.77,-17.80,-3.45,-1.66,0.33,-0.57,1721228804658
-2.51,78.45,23.79,2.15,-0.03,0.25,1721228804668
9.42,25.92,-0.61,1.37,-0.90,0.54,1721228804678
1.14,-12.80,-9.10,-0.66,0.69,0.03,1721228804688
3.22,4.00,42.76,-1.28,0.71,-0.37,1721228804698
5.03,-20.67,10.55,-0.45,-1.43,-0.33,1721228804708
-5.72,0.01,43.09,-1.42,0.72,0.09,1721228804718
2.80,19.76,17.27,0.87,-1.29,1.09,1721228804728
12.51,-36.70,-32.65,3.57,0.01,-0.11,1721228804738
5.43,-13.93,-38.85,-0.60,-0.03,-0.75,1721228804748
10.25,-27.26,-7.73,-4.37,0.40,-1.84,1721228804758
6.33,9.23,78.45,0.88,-0.90,-1.57,1721228804768
23.14,78.45,78.45,1.07,-1.30,0.42,1721228804778
-56.27,-78.45,-39.12,1.69,2.26,2.93,1721228804788
-1.13,-30.36,-65.80,2.75,-1.46,1.80,1721228804798
24.57,21.75,-56.23,0.47,3.19,0.95,1721228804808
20.72,-55.97,-45.29,-1.93,-1.25,-0.08,1721228804818
-2.61,-18.37,26.41,-4.37,0.73,-1.33,1721228804828
-36.55,78.45,78.45,-1.83,-1.14,-4.05,1721228804838
46.69,55.21,70.99,1.22,-1.66,-3.00,1721228804848
-78.45,78.45,6.22,3.96,2.26,0.83,1721228804858
-25.92,-78.45,-31.64,3.90,-2.30,1.89,1721228804868
-2.33,-60.60,-20.80,-3.37,-0.86,0.82,1721228804878
9.05,-0.39,13.06,-4.37,1.24,0.51,1721228804888
-12.45,78.45,17.67,0.21,-2.83,0.66,1721228804898
15.28,-23.22,13.93,4.37,-0.53,-2.28,1721228804908
13.39,78.45,-48.33,2.56,0.28,-2.20,1721228804918
-4.98,-34.27,-36.07,1.43,-2.12,-2.24,1721228804928
-12.61,11.64,-21.43,-4.37,-0.28,0.23,1721228804938
3.76,-7.39,78.45,-2.14,3.09,1.39,1721228804948
-32.40,-6.16,73.04,1.82,-0.88,1.85,1721228804958
7.11,5.77,-11.05,4.37,0.71,1.08,1721228804968
7.64,-23.36,-28.78,1.13,0.28,-0.11,1721228804978
10.37,3.89,-8.03,-4.09,-0.52,-0.77,1721228804988
26.88,8.76,78.45,-0.43,3.57,-1.71,1721228804998
-4.40,9.12,4.17,1.01,-3.06,-0.22,1721228805008
-11.65,-55.48,-52.53,1.54,4.37,-1.22,1721228805018
-23.11,-54.77,-32.76,-2.65,-1.17,1.37,1721228805028
-10.37,13.15,78.17,-1.10,0.21,1.17,1721228805038
-18.36,40.17,40.92,-0.64,-0.73,1.42,1721228805048
13.42,2.52,13.13,2.59,-1.46,0.85,1721228805058
6.78,33.06,36.35,0.08,0.58,0.59,1721228805068
17.69,-20.19,3.52,0.74,-0.77,-0.78,1721228805078
9.35,-32.69,-0.77,-2.50,0.74,-1.59,1721228805088
5.07,10.18,54.56,1.45,-0.37,-1.44,1721228805098
15.47,59.11,-21.24,1.04,-1.94,-1.15,1721228805108
-24.42,-52.69,-26.16,-0.28,3.03,0.83,1721228805118
0.81,-51.52,11.17,-2.68,0.14,1.23,1721228805128
77.71,78.45,49.14,-0.15,-0.70,-0.18,1721228805138
2.61,-14.30,-5.38,1.30,0.14,0.08,1721228805148
-12.59,11.14,-38.88,-0.64,-1.11,0.74,1721228805158
14.23,-1.65,75.85,-0.94,3.87,-0.28,1721228805168
-5.60,-4.70,-9.81,-1.56,-0.34,-1.71,1721228805178
5.64,-19.30,-5.30,3.39,-2.49,-1.20,1721228805188
-22.85,-26.31,13.62,-2.56,1.58,-0.05,1721228805198
-8.82,22.27,28.28,-0.06,0.26,1.15,1721228805208
-13.16,-10.64,-13.22,0.17,0.59,1.51,1721228805218
14.05,-0.15,18.28,0.07,-0.59,1.45,1721228805228
3.71,61.56,12.26,0.54,-0.23,0.74,1721228805238
30.15,-1.95,-18.51,2.67,-1.12,-0.46,1721228805248
-2.96,10.31,-30.51,0.68,0.55,-0.31,1721228805258
3.51,-62.24,-20.62,-2.94,1.13,-0.95,1721228805268
-12.21,-78.45,78.45,-0.19,-0.47,-1.79,1721228805278
-19.26,71.09,78.45,1.26,-4.23,-0.91,1721228805288
3.58,-16.54,-1.40,4.37,3.04,-0.81,1721228805298
-8.67,-5.47,-67.00,3.27,-1.66,1.19,1721228805308
-10.91,-9.73,-37.20,-3.94,0.02,1.14,1721228805318
12.12,-18.54,38.97,-2.88,2.98,0.24,1721228805328
8.56,19.33,12.26,-1.04,-0.84,0.28,1721228805338
-14.74,-78.45,-7.23,1.14,2.14,0.53,1721228805348
18.91,-31.20,-69.21,2.20,-2.38,-2.16,1721228805358
6.57,7.65,-3.17,-3.93,-0.09,-0.40,1721228805368
-1.36,31.37,78.45,0.71,0.83,-1.53,1721228805378
0.06,4.89,78.45,0.98,-2.13,0.01,1721228805388
-16.48,41.95,-11.66,0.80,1.06,0.91,1721228805398
2.06,-19.29,-11.54,2.18,0.35,0.86,1721228805408
10.69,-26.02,-12.76,-0.42,0.29,0.19,1721228805418
36.03,56.82,1.46,-2.28,-0.44,-0.59,1721228805428
7.46,-7.92,21.50,-0.15,0.75,-0.17,1721228805438
-5.28,7.19,3.40,0.12,-0.24,0.14,1721228805448
6.63,5.16,22.18,-0.23,1.11,-0.96,1721228805458
2.43,37.02,46.97,0.06,-0.83,-0.89,1721228805468
-0.99,0.55,26.76,0.30,0.31,-0.15,1721228805478
-7.05,-9.68,-11.68,1.59,0.84,1.22,1721228805488
12.42,-23.45,-14.91,2.98,-0.92,0.95,1721228805498
8.22,5.96,-39.80,0.93,1.27,-0.31,1721228805508
8.46,9.58,-29.18,-1.70,-0.59,-0.86,1721228805518
0.77,12.21,1.30,-4.37,1.53,-1.68,1721228805528
-50.41,67.33,68.59,-0.39,-2.74,-0.63,1721228805538
-5.51,-19.67,28.94,2.58,2.58,-1.66,1721228805548
-16.65,-14.49,-22.81,1.11,0.10,1.29,1721228805558
-2.30,3.89,-41.91,0.52,-0.17,1.84,1721228805568
8.35,4.38,-19.07,-0.42,0.41,1.14,1721228805578
9.38,-11.59,-11.49,-0.33,0.27,0.18,1721228805588
11.71,-43.81,42.49,-3.37,0.33,-2.02,1721228805598
-10.31,42.55,78.45,-0.11,-2.20,-1.23,1721228805608
-4.34,26.86,25.57,1.69,0.98,-0.97,1721228805618
-27.57,17.03,-14.30,2.88,0.25,1.21,1721228805628
-2.71,-25.68,-23.35,-3.28,0.17,-0.05,1721228805638
-16.74,-34.36,46.87,-1.28,0.36,1.22,1721228805648
5.98,40.79,10.32,2.81,1.98,2.87,1721228805658
3.18,-18.66,-12.90,0.36,0.37,2.05,1721228805668
21.31,-2.39,34.18,-2.11,2.51,0.41,1721228805678
10.62,9.60,35.98,0.24,-0.98,-1.07,1721228805688
5.64,-2.63,3.87,1.33,-1.72,-1.59,1721228805698
-3.76,-12.53,-7.78,0.24,0.31,-2.25,1721228805708
-23.60,24.66,-6.64,-0.56,-0.90,-0.37,1721228805718
-16.40,0.71,1.30,0.34,0.41,0.55,1721228805728
-4.75,-31.63,6.73,-0.37,0.58,1.50,1721228805738
3.66,15.56,25.31,-0.15,0.76,2.05,1721228805748
10.94,30.17,13.21,0.31,0.10,1.14,1721228805758
9.06,10.12,3.40,0.82,-0.04,0.50,1721228805768
15.54,-26.54,-13.64,0.25,-0.44,-0.65,1721228805778
6.42,-18.14,23.48,-2.37,0.94,-1.44,1721228805788
-3.25,24.19,41.32,0.65,-1.36,-0.88,1721228805798
-2.64,2.40,5.24,2.11,-0.28,-0.38,1721228805808
8.68,63.99,-32.03,1.21,0.43,0.33,1721228805818
-1.66,-31.89,-17.59,-2.59,0.35,0.29,1721228805828
-10.26,-78.45,78.45,-2.18,1.02,-0.61,1721228805838
4.64,60.36,78.45,0.95,1.44,1.40,1721228805848
12.38,-0.13,-15.20,4.37,1.52,1.20,1721228805858
31.26,56.43,-78.45,4.37,-1.32,0.46,1721228805868
9.63,-58.99,-78.45,-2.37,-4.34,0.72,1721228805878
30.80,-19.31,20.66,-4.37,4.37,-1.69,1721228805888
-72.56,58.51,0.28,0.14,-3.11,-0.96,1721228805898
2.18,3.55,-15.62,3.54,-2.64,0.24,1721228805908
-37.01,-31.44,-39.94,1.72,4.33,2.59,1721228805918
3.05,-43.43,-45.92,4.06,-4.14,2.11,1721228805928
-21.51,-0.40,-68.84,-0.26,-4.37,2.25,1721228805938
44.71,67.14,-8.71,-4.37,2.50,-0.30,1721228805948
-11.91,54.02,78.45,-2.67,-0.55,-1.26,1721228805958
56.61,78.45,-15.78,3.75,-1.77,-0.55,1721228805968
-18.89,-40.57,-45.04,4.09,1.69,0.56,1721228805978
18.11,34.34,-54.55,2.42,-1.37,0.39,1721228805988
11.62,-10.11,-52.86,-1.43,-0.43,0.75,1721228805998
24.78,-22.19,-8.28,-0.77,0.50,-0.00,1721228806008
21.10,-62.77,36.02,-3.43,4.37,-2.56,1721228806018
78.45,8.53,-18.61,-4.37,2.19,-4.37,1721228806028
42.02,8.45,-17.92,4.37,1.08,-1.57,1721228806038
-16.63,3.73,-55.25,3.22,-2.29,1.16,1721228806048
-8.34,-78.45,-78.45,0.76,0.04,0.47,1721228806058
16.99,-28.52,-7.20,0.59,-2.39,0.76,1721228806068
36.58,-53.31,78.45,-4.37,4.37,-0.51,1721228806078
49.81,78.45,44.64,1.28,1.96,-1.43,1721228806088
54.86,78.45,-23.17,4.37,-1.71,-0.65,1721228806098
-12.49,15.77,-33.10,1.67,-0.70,-0.21,1721228806108
-1.51,-33.44,-12.46,-0.79,0.01,0.12,1721228806118
2.70,-11.07,-7.57,-2.52,1.20,0.33,1721228806128
1.24,-1.19,2.84,-1.11,0.21,-0.04,1721228806138
-0.01,-3.39,13.98,0.25,-0.71,-1.15,1721228806148
-4.58,7.36,20.05,0.93,-0.80,-1.47,1721228806158
-9.82,35.34,35.75,-0.31,0.16,0.13,1721228806173
-7.37,28.69,38.63,-0.07,0.28,0.58,1721228806177
1.33,4.54,7.58,0.42,0.20,1.00,1721228806187
23.90,-59.42,20.77,1.01,-0.25,0.11,1721228806197
3.61,5.67,-1.11,-0.99,0.70,-0.01,1721228806207
-4.73,2.59,-5.23,0.11,-0.19,-0.68,1721228806217
-1.39,0.38,-4.21,0.94,-0.41,-0.80,1721228806227
-7.29,7.98,11.66,-0.39,1.08,0.19,1721228806237
5.43,9.37,30.36,0.02,0.48,0.24,1721228806247
9.71,-46.20,4.63,0.40,-0.11,-0.45,1721228806257
2.40,-2.10,20.11,-0.50,0.90,-0.66,1721228806267
15.71,40.51,-8.08,1.49,-0.82,-1.00,1721228806277
-9.47,-29.14,-23.10,2.34,-1.03,-1.96,1721228806287
9.12,32.53,-2.04,-2.10,0.27,-0.24,1721228806297
-25.95,56.85,35.82,-1.18,0.24,1.10,1721228806307
3.55,-11.66,34.31,-0.54,2.55,-0.51,1721228806317
4.95,-38.09,0.70,0.92,-0.99,0.07,1721228806327
20.37,29.18,0.02,2.49,-0.06,-0.30,1721228806337
7.91,13.64,-22.29,2.03,-0.68,0.26,1721228806347
4.58,-12.83,-29.10,-0.89,1.17,-0.45,1721228806357
6.55,-6.73,4.79,-2.80,-0.20,0.58,1721228806367
28.59,59.32,47.20,0.38,-0.47,0.47,1721228806377
-2.22,-3.33,32.53,-1.19,0.31,-1.02,1721228806387
-2.14,6.22,11.39,1.11,-1.20,-1.25,1721228806397
-14.09,-27.09,-18.45,0.67,0.61,-1.89,1721228806407
-11.45,15.42,-0.32,0.33,-0.22,0.79,1721228806417
-6.16,29.48,3.16,-0.57,-0.14,1.09,1721228806427
0.63,-7.07,-15.37,1.45,0.72,0.80,1721228806437
1.00,-31.78,-11.41,-1.80,0.70,1.45,1721228806447
-2.43,-14.48,48.89,-0.18,0.44,-0.41,1721228806457
5.44,20.64,39.70,0.45,0.08,-0.47,1721228806467
-34.91,-52.70,-28.41,1.62,-0.41,1.15,1721228806477
27.14,42.81,6.96,-1.90,0.01,0.19,1721228806487
1.39,46.35,15.17,0.39,-0.96,0.66,1721228806497
-18.11,-78.45,-21.39,1.43,0.51,0.94,1721228806507
3.29,-34.11,-16.74,1.24,-1.21,0.10,1721228806517
-4.55,3.85,-7.44,-4.37,1.33,-0.96,1721228806527
75.44,78.45,78.38,1.87,-2.54,-0.36,1721228806537
-15.85,20.89,-7.52,1.73,2.33,1.10,1721228806547
15.02,10.72,-18.05,2.10,0.51,1.13,1721228806557
-0.31,-30.76,-23.39,0.01,-1.06,0.28,1721228806567
13.78,-31.27,4.64,-4.37,-0.83,0.73,1721228806577
-10.11,78.45,75.23,0.74,-2.68,-0.72,1721228806587
6.29,-7.51,15.50,3.07,1.84,-2.19,1721228806597
47.58,78.45,-16.09,1.72,-0.95,-1.15,1721228806607
-1.44,-7.38,-4.89,0.73,-0.70,0.29,1721228806617
0.82,-38.97,48.76,-2.51,0.55,0.64,1721228806627
2.14,-9.88,35.63,-1.10,-0.35,0.40,1721228806637
32.33,32.51,9.79,0.49,-0.66,-0.75,1721228806647
-13.77,-71.06,-3.62,0.20,0.48,0.60,1721228806657
1.85,3.99,3.71,0.48,-1.90,1.36,1721228806667
10.38,21.11,63.42,-2.40,0.66,0.62,1721228806677
2.04,-11.07,25.62,0.71,-0.35,-0.47,1721228806687
-13.10,-34.26,-0.18,1.50,-0.77,-0.05,1721228806697
-6.85,-9.65,-25.26,0.57,-0.18,-1.00,1721228806707
-4.19,23.27,-0.65,-1.25,-0.15,-0.60,1721228806717
-8.06,48.95,30.67,0.43,-0.81,-0.06,1721228806727
4.73,-37.63,19.27,-0.24,1.04,-1.22,1721228806737
-4.42,-17.11,4.06,-0.35,-0.52,-0.29,1721228806747
-15.55,5.29,23.86,-0.44,-0.09,0.21,1721228806757
2.98,-2.48,8.23,-0.06,1.20,0.56,1721228806767
2.89,4.45,-1.92,0.43,0.17,0.87,1721228806777
2.80,-14.31,-6.72,0.94,-0.38,0.33,1721228806787
7.45,4.78,34.98,-1.26,0.93,-0.41,1721228806797
20.39,78.45,54.63,0.14,-0.53,-0.23,1721228806807
2.51,-6.05,0.48,1.40,0.64,-0.48,1721228806817
-16.45,-41.51,-34.37,0.63,-1.23,0.15,1721228806827
-21.14,47.20,-6.16,-2.07,1.53,0.80,1721228806837
-31.70,-15.73,78.45,-1.99,-1.36,1.16,1721228806847
2.72,1.31,14.61,2.21,0.14,0.09,1721228806857
-10.82,-8.53,6.89,-0.79,0.35,-0.11,1721228806867
-12.69,-4.53,24.56,-0.07,-1.59,-0.69,1721228806877
-5.03,21.12,38.71,-0.58,0.17,0.14,1721228806887
-6.38,-12.50,10.57,-0.01,0.38,0.76,1721228806897
3.87,-5.08,-2.83,0.46,-0.03,1.67,1721228806907
3.27,0.30,-8.57,0.01,0.68,1.04,1721228806917
8.26,-7.60,-6.22,0.17,-0.44,0.42,1721228806927
12.79,-16.00,39.36,-1.59,0.82,-0.88,1721228806937
3.05,70.30,57.82,0.29,-1.31,-1.66,1721228806947
-0.65,8.63,11.08,1.35,-0.64,-0.62,1721228806957
-10.34,-7.43,-2.67,1.39,1.04,0.41,1721228806967
34.45,42.03,-48.09,1.61,-0.43,0.34,1721228806977
0.92,-13.56,-5.33,-0.94,-0.08,0.56,1721228806987
0.60,33.04,-11.63,0.30,0.10,-0.19,1721228806997
-1.39,0.27,2.42,-3.88,0.35,-0.79,1721228807007
2.33,21.18,78.45,-2.02,-0.15,-0.95,1721228807017
-2.77,32.30,77.03,1.08,1.36,0.47,1721228807027
-24.44,-49.74,-27.50,4.09,1.63,1.91,1721228807037
-3.69,-5.83,-78.45,3.97,-1.83,1.14,1721228807047
9.43,-21.91,-59.92,-0.62,-1.99,1.41,1721228807057
28.80,41.28,-9.87,-1.59,4.13,0.44,1721228807067
-48.14,5.24,58.35,-3.23,1.07,-0.77,1721228807077
1.32,-7.50,24.53,3.83,-3.36,-1.02,1721228807087
-10.23,-43.24,-16.87,1.03,1.37,0.25,1721228807097
-15.33,-13.03,13.08,-4.37,0.55,-0.76,1721228807107
-37.81,73.96,78.45,3.62,-3.64,1.10,1721228807117
-6.43,-0.79,0.56,3.53,4.37,-0.30,1721228807127
5.33,1.67,-57.88,4.37,-1.74,1.14,1721228807137
0.50,-51.63,-78.45,-2.96,3.30,0.84,1721228807147
2.23,12.73,-15.48,-0.80,0.09,-0.58,1721228807157
-31.05,27.19,78.45,-1.84,-3.11,-1.12,1721228807167
32.70,36.98,4.28,-0.86,1.88,-1.74,1721228807177
-0.97,-4.47,-15.77,4.37,-0.83,0.61,1721228807187
-14.02,-4.05,-43.78,-1.47,-0.23,-0.62,1721228807197
3.95,-3.74,-8.12,-3.14,0.37,-0.37,1721228807207
-10.52,-14.31,30.66,-3.40,1.55,0.20,1721228807217
22.86,66.62,66.55,-1.24,2.72,-0.44,1721228807227
-2.35,-9.64,6.85,0.37,1.09,-0.31,1721228807237
-3.26,11.26,-21.14,3.03,0.13,-0.20,1721228807247
-26.19,-44.17,-37.08,2.05,-0.85,1.35,1721228807257
6.46,-14.56,-23.15,-2.26,-1.26,0.58,1721228807267
18.18,-26.55,78.45,-3.99,2.53,-1.07,1721228807277
19.08,66.86,78.45,0.42,-0.51,-0.87,1721228807287
-3.87,31.24,-12.94,4.37,-0.64,-1.09,1721228807297
-15.05,-57.20,-12.97,4.37,-1.53,-1.10,1721228807307
-24.42,3.80,-42.38,-0.97,0.26,-0.28,1721228807317
-17.56,2.02,-24.02,-2.80,0.61,1.16,1721228807327
-11.31,-1.33,66.22,-2.52,1.16,0.58,1721228807337
22.71,8.49,59.35,2.72,-0.83,-0.02,1721228807347
7.69,-4.67,19.70,0.62,-0.01,-0.21,1721228807357
-8.45,24.95,-11.33,2.29,-0.44,-0.76,1721228807367
-8.00,-7.79,-22.13,0.73,-1.31,-0.80,1721228807377
0.79,-16.21,2.85,-3.12,1.03,-0.64,1721228807387
14.50,20.42,49.16,2.96,-3.23,1.46,1721228807397
-9.30,-12.28,28.53,-0.11,2.05,-0.27,1721228807407
27.39,60.89,7.95,0.61,-0.86,-0.85,1721228807417
0.34,20.46,-5.93,0.11,-0.89,0.29,1721228807427
-2.24,-76.11,-33.16,1.29,-0.88,-0.22,1721228807437
8.16,-22.39,17.00,-0.98,-1.30,-0.42,1721228807447
-17.26,38.47,29.73,-2.05,0.58,-0.87,1721228807457
-9.87,4.85,20.09,0.95,-0.94,-0.99,1721228807467
-6.01,3.36,-4.60,-0.73,-0.42,-0.32,1721228807477
-6.35,-16.13,19.51,-1.77,0.56,0.87,1721228807487
-4.61,-40.50,5.72,0.57,-0.04,1.27,1721228807497
7.15,19.24,-3.66,-0.30,-0.11,-0.12,1721228807507
1.03,-2.95,3.29,0.94,-0.51,-0.44,1721228807517
1.86,2.36,-27.95,0.91,-0.43,0.13,1721228807527
-6.54,19.02,1.42,-1.01,0.19,0.14,1721228807537
-1.58,-4.97,16.76,-1.78,-0.09,-0.23,1721228807547
-3.04,-11.21,32.28,-0.35,-0.98,-0.14,1721228807557
-3.12,-1.13,-1.85,1.29,-0.05,-0.10,1721228807567
-4.87,-4.85,-13.59,0.52,-0.33,-0.09,1721228807577
-5.14,-3.35,1.86,-3.29,0.72,0.70,1721228807587
29.80,78.45,59.97,0.81,-2.74,1.49,1721228807597
-0.02,-1.69,-1.33,0.94,1.43,0.21,1721228807607
10.91,-17.68,-12.20,2.02,-1.85,0.92,1721228807617
2.67,-8.70,-9.71,-4.13,1.08,-1.11,1721228807627
-8.81,25.55,42.59,0.99,-2.17,0.80,1721228807637
15.93,8.64,43.48,2.58,2.69,-0.16,1721228807647
-3.85,-4.34,-5.52,0.12,0.25,0.91,1721228807657
3.95,5.61,2.86,-0.62,0.01,0.03,1721228807667
4.45,-6.43,19.99,0.16,-0.90,0.01,1721228807677
-2.44,-12.92,2.03,0.09,0.62,-0.46,1721228807687
-2.12,-4.96,5.42,0.33,-0.55,0.02,1721228807697
-15.90,25.42,17.65,1.31,-0.88,0.72,1721228807707
5.87,27.89,7.48,1.04,0.63,0.31,1721228807717
7.83,-24.49,5.38,0.29,0.20,-0.57,1721228807727
9.29,-48.64,5.15,-1.07,0.33,-0.96,1721228807737
0.26,6.20,20.31,0.80,-1.18,-0.16,1721228807747
6.43,-4.48,10.07,1.78,0.34,-0.89,1721228807757
-5.40,46.42,-7.62,1.42,-0.76,-0.41,1721228807767
-0.09,32.33,-21.02,0.75,0.62,0.23,1721228807777
2.40,-26.70,-9.57,-1.36,0.45,0.06,1721228807787
-5.22,-78.45,47.92,-3.11,-0.60,-1.89,1721228807797
67.16,78.45,78.45,0.99,0.36,-1.84,1721228807807
-4.46,4.13,17.02,4.37,2.74,-0.59,1721228807817
-1.51,30.98,-78.45,4.37,-0.84,1.26,1721228807827
-48.78,-28.81,5.78,0.49,-4.37,2.29,1721228807837
12.32,-78.33,23.94,-4.37,4.37,-0.71,1721228807847
-75.87,-78.45,78.45,1.42,-2.22,-1.03,1721228807857
43.50,78.45,-47.67,-1.67,1.61,-2.74,1721228807867
-51.52,-78.45,-39.04,1.76,1.33,0.82,1721228807877
23.24,15.33,-19.66,1.81,-2.58,0.03,1721228807887
-11.30,-18.78,-16.86,-3.38,2.04,0.72,1721228807897
4.71,-22.35,6.73,-2.81,-0.35,-0.61,1721228807907
-23.05,-47.68,78.45,-0.95,-1.49,-1.12,1721228807917
-24.00,69.53,78.45,0.27,0.38,-0.36,1721228807927
8.38,22.62,-2.29,4.37,1.24,0.38,1721228807937
7.25,-22.90,-62.63,3.96,1.15,1.72,1721228807947
13.17,-16.35,-78.45,-2.31,-1.83,-0.03,1721228807957
-3.24,-25.06,6.86,-4.37,0.02,-0.89,1721228807967
-25.81,0.30,47.18,0.21,-0.94,0.40,1721228807977
-20.32,6.90,78.45,3.72,0.14,0.09,1721228807987
-13.20,-28.01,-34.75,2.38,-0.14,1.79,1721228807997
5.48,-5.89,-43.92,-1.22,0.85,0.40,1721228808007
5.27,-10.51,0.20,-3.45,1.03,-0.79,1721228808017
-29.47,72.26,1.42,0.57,-0.32,0.21,1721228808027
2.28,-4.59,3.68,2.40,0.23,-0.82,1721228808037
0.46,4.36,-2.27,-1.25,-0.83,0.90,1721228808047
-33.64,0.15,64.81,-0.95,0.66,0.09,1721228808057
3.70,3.58,5.35,1.86,-0.12,0.29,1721228808067
-4.04,-1.60,-18.73,0.39,0.34,0.97,1721228808077
5.51,-14.51,-1.17,-1.30,0.11,-1.67,1721228808087
-3.37,-0.21,-6.34,-1.53,-0.58,-0.29,1721228808097
-31.58,-35.18,23.89,0.07,0.60,-0.79,1721228808107
5.83,3.66,5.31,0.51,-0.06,0.96,1721228808117
-16.83,49.18,4.48,2.42,-2.40,-1.69,1721228808650
8.04,-10.44,5.22,2.39,-0.66,-1.88,1721228808654
-33.61,-10.04,-26.16,-0.98,0.36,0.28,1721228808663
-0.78,-8.97,-2.64,-0.89,-0.43,-0.12,1721228808673
-30.68,49.62,63.96,1.48,-2.28,1.70,1721228808682
-6.37,2.80,32.68,-0.72,1.15,0.22,1721228808692
-28.10,-77.87,-14.00,0.36,-0.04,1.22,1721228808701
2.94,2.39,0.37,-0.53,-0.90,-0.55,1721228808711
-0.54,-1.90,-2.88,-1.18,0.09,0.58,1721228808721
-4.02,-8.84,10.73,-0.80,0.10,0.45,1721228808731
-5.04,78.45,36.71,-0.43,-1.34,-0.28,1721228808741
0.76,-1.65,25.78,-0.02,1.37,-0.66,1721228808751
-17.41,-27.10,-0.48,-0.59,-0.04,-0.59,1721228808761
-0.97,1.58,0.96,2.00,-0.96,0.80,1721228808771
-6.19,-10.34,-18.56,2.63,-0.08,0.69,1721228808781
8.29,-9.47,-24.56,0.77,0.19,0.38,1721228808791
0.68,15.16,-10.56,-4.37,-0.02,-0.37,1721228808801
-20.63,78.45,58.41,-2.77,-0.29,0.49,1721228808811
5.30,-31.74,68.78,0.44,2.97,-0.98,1721228808821
-6.57,-13.93,0.25,1.59,-0.15,0.35,1721228808831
-1.64,42.86,-37.74,3.99,0.56,0.72,1721228808841
8.28,-34.37,-54.70,4.23,0.67,0.72,1721228808851
15.86,-30.78,-49.78,0.83,-2.09,-0.72,1721228808861
-0.01,3.43,-11.12,-4.37,0.93,-1.27,1721228808871
-15.07,47.09,78.45,1.92,-4.37,-0.38,1721228808881
9.62,-38.98,-18.20,4.37,4.37,-3.26,1721228808891
70.07,78.45,-78.45,4.37,-3.86,0.22,1721228808901
-13.98,-17.77,-78.45,-0.65,2.54,0.39,1721228808911
-3.81,-20.61,13.43,-1.14,-1.15,0.01,1721228808921
34.20,18.23,57.59,-4.37,2.86,0.15,1721228808931
78.42,49.16,78.45,0.01,-0.96,0.12,1721228808941
23.96,-38.19,16.25,4.24,2.43,-3.77,1721228808951
30.79,9.44,-56.48,4.37,-4.37,-1.11,1721228808961
23.27,1.68,-69.18,0.00,2.30,0.37,1721228808971
11.88,-21.76,-38.18,-4.27,3.05,-0.18,1721228808981
-3.14,-67.57,-4.49,-4.37,-0.87,0.38,1721228808991
64.81,78.45,78.45,0.92,-4.37,0.77,1721228809001
-23.03,-9.33,-25.36,1.99,3.09,-0.01,1721228809011
-3.80,-10.15,-35.68,4.37,-1.41,0.11,1721228809021
-0.77,10.42,-40.38,-0.70,-2.40,-0.25,1721228809031
-10.38,3.46,-20.32,-4.15,1.76,-0.33,1721228809041
-48.90,-78.45,78.45,-2.13,-1.16,0.42,1721228809051
38.94,78.45,3.32,-0.03,2.59,0.33,1721228809061
-19.50,-78.45,-16.27,1.43,0.53,0.93,1721228809071
1.93,-7.76,-13.15,0.01,-2.09,0.94,1721228809081
18.63,36.96,-9.65,-2.07,-0.03,0.40,1721228809091
10.13,-3.54,45.25,-1.38,2.48,-0.94,1721228809101
-6.80,64.12,73.74,1.37,-2.72,-1.54,1721228809111
1.27,-3.05,-1.53,4.18,0.97,-1.75,1721228809121
-4.20,-20.80,-39.95,3.44,0.14,0.72,1721228809131
9.88,-21.53,-55.34,-2.70,1.33,1.45,1721228809141
-3.90,13.33,-14.61,-4.37,0.71,1.73,1721228809151
-25.11,78.45,1.53,2.41,-1.00,0.75,1721228809161
27.79,-63.18,26.40,0.08,1.14,-1.36,1721228809171
9.51,6.48,4.13,1.33,-1.68,-0.49,1721228809181
-10.69,32.74,29.73,-0.55,-0.95,-1.83,1721228809191
-11.84,18.38,30.49,0.16,0.25,-1.24,1721228809201
-4.94,2.69,-6.15,1.03,0.39,-0.28,1721228809211
-7.33,-7.41,-31.40,2.28,0.09,1.21,1721228809221
-12.36,-78.45,-13.97,-4.37,2.32,1.82,1721228809231
-7.57,-78.45,78.45,-0.51,-0.48,-0.67,1721228809241
-27.42,78.45,78.45,-0.86,4.33,0.28,1721228809251
-31.02,-78.45,-7.53,4.37,0.84,2.90,1721228809261
-22.10,9.39,-78.45,3.43,-4.37,2.03,1721228809271
13.49,-1.76,-50.68,-1.44,-2.65,0.40,1721228809281
32.73,-36.00,9.83,-4.32,4.37,-2.32,1721228809291
-34.63,-33.60,-5.53,-4.37,-0.01,-1.68,1721228809301
54.90,78.45,78.45,-2.85,4.18,-1.45,1721228809311
8.00,22.78,52.97,2.96,0.93,-0.88,1721228809321
-52.75,78.45,32.68,4.37,1.41,-0.65,1721228809331
-5.21,-22.69,-78.45,3.12,-4.21,0.29,1721228809341
9.49,-60.06,-37.65,-0.50,-2.38,0.28,1721228809351
78.45,38.69,-31.39,-4.37,2.88,-1.98,1721228809361
-11.14,21.93,76.16,1.13,-1.08,-0.36,1721228809371
-4.27,3.22,18.92,2.59,0.55,-0.51,1721228809381
-2.64,6.20,1.99,1.74,-0.66,0.46,1721228809391
5.80,5.69,-11.92,-3.71,-1.82,-0.15,1721228809401
-6.45,2.17,0.45,-2.78,2.14,-0.05,1721228809411
-3.71,-10.38,24.75,1.77,0.09,0.16,1721228809421
6.04,1.07,-8.84,1.14,-0.40,1.18,1721228809431
23.18,36.72,-13.24,-0.40,1.53,-0.06,1721228809441
1.53,-10.65,11.20,-2.59,-1.05,-0.52,1721228809451
2.32,-2.60,11.54,1.80,0.09,-0.81,1721228809461
2.15,2.61,-20.98,2.03,-0.13,-0.62,1721228809471
-13.01,-11.49,-15.70,-0.92,1.10,-0.38,1721228809481
-10.15,-7.81,23.46,-1.87,0.29,-0.25,1721228809491
28.09,51.40,78.45,-0.99,0.34,0.39,1721228809501
-25.09,-3.73,26.07,-0.03,0.11,1.20,1721228809511
3.46,45.75,15.81,1.23,0.40,1.29,1721228809521
3.31,-78.45,-2.79,3.27,-0.37,-0.13,1721228809531
8.22,-43.52,-78.45,4.37,-2.03,-0.62,1721228809541
12.33,23.14,-40.33,-4.37,0.24,-0.83,1721228809551
19.89,22.18,11.12,-4.37,3.90,-1.51,1721228809561
-15.67,-6.89,27.52,0.51,2.19,-1.15,1721228809571
15.88,-39.61,-5.31,3.16,-1.19,-0.10,1721228809581
-12.80,-23.33,-71.76,-3.11,2.96,0.38,1721228809591
-63.23,55.71,28.57,2.18,-0.43,2.11,1721228809601
7.39,42.67,12.46,1.25,0.32,0.76,1721228809611
1.84,-78.45,15.42,-0.05,1.07,0.52,1721228809621
0.87,-56.73,-11.02,-2.86,2.52,0.05,1721228809631
-1.01,6.48,78.45,-2.70,-0.38,-0.97,1721228809641
6.18,61.75,78.45,1.45,-0.81,-1.49,1721228809651
6.17,-38.12,-78.45,4.37,0.25,-1.79,1721228809661
3.05,18.63,-78.45,4.37,-2.50,0.61,1721228809671
-49.30,19.98,-66.45,-0.26,1.10,2.83,1721228809681
78.45,-50.90,2.10,-4.37,4.37,-0.52,1721228809691
8.61,40.15,78.45,1.01,-2.38,2.08,1721228809701
0.40,-2.72,78.45,0.99,-0.41,0.14,1721228809711
-24.11,-38.22,0.79,1.60,0.39,0.76,1721228809721
19.10,27.97,15.03,-0.63,-0.32,-0.59,1721228809731
-10.24,-3.86,-20.73,-0.40,0.89,0.19,1721228809741
-15.79,-44.40,-11.16,-3.02,1.80,0.38,1721228809751
-16.46,-37.30,42.03,-0.15,-0.84,0.64,1721228809761
5.32,78.45,77.24,0.88,1.16,0.51,1721228809771
13.15,-5.45,-5.76,4.37,0.14,0.55,1721228809781
8.97,-14.80,-34.81,1.77,-1.31,0.62,1721228809791
1.87,-54.26,-36.73,-0.07,-1.76,-0.70,1721228809801
-31.31,25.24,6.95,-4.37,2.11,-0.94,1721228809811
70.88,78.45,3.95,0.13,-2.10,-3.46,1721228809821
2.40,-8.60,2.47,4.37,2.50,-0.20,1721228809831
8.64,78.45,-9.87,2.51,-1.26,1.67,1721228809841
7.08,-0.46,-9.76,-4.37,2.13,0.78,1721228809851
-9.56,-68.19,-27.51,1.21,2.00,-0.20,1721228809861
-1.93,-10.77,-24.87,2.52,-2.35,-0.50,1721228809871
-6.20,4.92,2.94,-4.18,0.28,-0.26,1721228809881
-18.64,-1.78,44.09,1.69,-2.07,0.59,1721228809891
1.34,44.21,38.88,-0.45,1.58,0.84,1721228809901
-1.36,-16.36,-3.78,0.03,0.61,0.37,1721228809911
9.38,-39.03,0.56,0.39,-0.13,0.40,1721228809921
6.22,-22.00,-24.23,1.39,0.30,0.58,1721228809931
47.57,65.07,-4.10,0.20,-0.83,-0.43,1721228809941
-7.64,10.53,-4.90,-2.85,0.49,0.22,1721228809951
6.84,-21.83,55.42,-1.93,-0.20,-0.87,1721228809961
-7.89,12.62,52.61,0.79,-2.68,-1.24,1721228809971
-5.78,-27.49,4.43,1.50,1.30,-1.36,1721228809981
-20.40,-3.93,-10.83,2.10,-0.43,1.47,1721228809991
-1.51,4.88,-44.92,1.12,-0.11,1.32,1721228810001
-0.81,-11.20,-12.42,-2.02,0.45,1.34,1721228810011
8.74,-29.30,37.37,-1.55,1.11,0.14,1721228810021
13.05,56.72,57.04,0.89,0.40,-0.39,1721228810031
0.29,-29.71,-15.42,2.47,1.10,-0.78,1721228810041
15.02,41.84,-5.58,1.93,-1.29,0.09,1721228810051
6.40,-5.33,-1.51,-3.97,0.05,0.45,1721228810061
9.90,4.28,53.20,-1.30,0.01,-0.30,1721228810071
-26.06,-57.94,-5.13,1.66,-0.57,-1.50,1721228810081
-4.99,-1.62,-16.16,0.56,-1.48,-1.19,1721228810091
-5.07,-3.10,-9.68,-1.81,0.74,1.77,1721228810101
-15.79,27.70,26.17,1.63,-1.06,2.60,1721228810111
11.75,43.24,50.27,0.38,2.04,1.07,1721228810121
5.84,3.19,28.42,-0.46,-0.70,0.71,1721228810131
-14.77,-78.45,-18.40,2.77,1.06,0.34,1721228810141
19.43,35.02,-40.60,3.97,-2.49,-1.18,1721228810151
11.84,-20.43,-27.92,-1.99,0.02,-0.01,1721228810161
3.31,-23.77,3.66,-4.37,-0.55,-0.24,1721228810171
22.39,78.45,78.45,3.25,-2.57,1.54,1721228810181
2.83,33.21,19.53,3.49,0.25,-0.42,1721228810191
0.36,-41.00,-13.46,3.82,-0.73,-0.28,1721228810201
-2.69,-16.48,-52.67,-0.26,0.24,0.55,1721228810211
7.01,-6.47,-42.70,-4.37,-0.27,0.47,1721228810221
-1.41,7.93,30.01,-4.09,2.27,1.22,1721228810231
19.16,15.57,70.87,0.70,-0.42,1.63,1721228810241
-6.95,-17.20,-22.29,-1.75,0.38,0.69,1721228810251
1.80,32.33,31.91,-0.37,-0.23,-0.26,1721228810261
2.45,-0.57,7.26,-0.23,-0.32,-0.40,1721228810271
4.74,-28.94,-14.48,1.13,-0.19,-1.08,1721228810281
0.08,-0.47,-4.01,0.51,-1.29,0.32,1721228810291
-3.41,-20.99,-15.61,-2.94,0.68,-0.93,1721228810301
-11.49,-43.21,42.89,0.76,-1.52,-0.77,1721228810311
14.97,57.22,62.09,0.04,3.59,0.94,1721228810321
-21.43,8.02,-23.79,0.66,1.47,1.96,1721228810331
19.47,21.09,-7.77,-0.84,0.59,2.35,1721228810341
8.41,-12.70,-0.77,-0.44,1.57,1.70,1721228810351
13.18,-49.21,-2.66,0.67,-0.90,-0.09,1721228810361
14.94,10.53,16.09,0.04,-0.78,-1.74,1721228810371
8.54,-1.74,26.00,-0.73,-1.35,-2.86,1721228810381
-1.56,77.92,55.75,-0.62,-1.82,-3.42,1721228810391
-14.60,19.85,15.34,0.58,0.52,-1.14,1721228810401
-3.48,-52.23,1.07,0.29,1.97,1.16,1721228810411
-11.88,-13.16,-26.41,1.62,-0.88,2.15,1721228810421
22.00,10.41,-24.79,-1.92,-0.02,0.91,1721228810431
1.07,-4.93,-4.07,-2.98,1.57,0.32,1721228810441
-0.49,61.55,78.45,-0.08,-2.20,-1.20,1721228810451
8.40,-9.12,57.51,-0.32,0.44,-1.53,1721228810461
-14.51,-25.78,-0.51,0.63,-0.29,-1.96,1721228810471
-11.91,9.33,-7.45,2.05,-0.98,-0.25,1721228810481
-14.54,2.75,-14.74,2.41,-0.55,0.03,1721228810491
3.70,18.64,-41.58,2.53,0.49,1.13,1721228810501
-10.81,-78.45,-23.99,-3.64,1.65,1.79,1721228810511
38.38,-32.38,78.45,-3.75,3.51,-2.43,1721228810521
27.04,75.45,78.45,2.14,-2.17,-1.28,1721228810531
-0.65,-10.80,-9.12,4.37,2.32,-1.12,1721228810541
37.82,57.32,-77.88,3.26,-1.99,0.75,1721228810551
-12.30,-74.94,-73.14,-1.53,2.82,0.62,1721228810561
11.87,-24.68,-40.07,-4.37,0.75,-0.60,1721228810571
1.07,-7.99,78.45,-4.32,1.56,-1.97,1721228810581
13.42,10.03,10.29,-2.45,-0.08,-1.67,1721228810591
-31.36,12.46,10.94,2.27,0.10,1.35,1721228810601
-1.64,34.77,-21.78,1.93,1.08,1.69,1721228810611
-0.02,-22.60,-11.20,0.32,0.21,0.88,1721228810621
6.77,-30.38,-4.62,0.35,-2.34,2.00,1721228810631
16.73,66.09,7.76,-1.65,1.87,-0.15,1721228810641
-4.83,1.78,27.21,-0.02,-0.90,-2.67,1721228810656
1.00,2.75,32.46,1.06,-1.84,-2.41,1721228810660
-20.89,17.77,8.35,2.29,0.34,-0.70,1721228810670
-19.83,-6.30,-15.47,1.41,-0.43,0.21,1721228810680
-1.98,5.51,-8.05,-2.74,0.48,0.88,1721228810690
5.91,-1.72,67.21,0.43,-1.09,2.24,1721228810700
10.07,-6.31,11.42,2.23,2.23,-0.19,1721228810710
4.89,-4.84,-25.12,1.20,-0.77,0.30,1721228810720
-10.38,-27.79,-19.84,-3.23,-1.68,-1.40,1721228810730
-41.67,-10.63,63.74,-0.65,-0.43,-1.01,1721228810740
-0.61,-4.31,19.31,0.42,2.70,-0.43,1721228810750
-0.47,-16.10,-20.17,3.19,-1.24,0.66,1721228810760
-2.78,5.27,-17.06,-0.56,0.90,0.81,1721228810770
-0.38,65.75,-4.46,0.17,-0.61,0.89,1721228810780
11.77,-7.90,-32.35,0.80,0.45,-0.09,1721228810790
-17.74,-62.35,25.86,-2.87,0.18,-0.73,1721228810800
-11.42,-29.80,78.45,2.90,-2.79,-0.61,1721228810810
-8.29,78.45,65.06,2.41,1.09,-1.38,1721228810820
-62.01,-35.50,-27.16,4.37,1.05,1.34,1721228810830
-0.99,15.56,-60.23,0.38,-2.54,2.76,1721228810840
-58.13,-30.65,1.35,-1.17,-1.80,1.77,1721228810850
43.40,-61.18,60.76,-4.37,1.78,-1.31,1721228810860
-13.73,-9.16,-4.11,3.80,-0.94,-1.63,1721228810870
0.93,-27.52,11.32,2.71,-2.97,-0.01,1721228810880
-4.97,0.58,-7.64,-3.56,2.08,0.49,1721228810890
-12.39,23.91,53.07,1.54,-3.31,0.56,1721228810900
4.45,40.69,0.04,-0.07,1.87,0.63,1721228810910
11.49,40.15,31.06,-0.36,0.56,1.31,1721228810920
3.76,-10.44,-6.25,1.43,0.97,0.24,1721228810930
15.97,-55.39,-14.42,1.98,-1.12,-0.47,1721228810940
-3.11,24.44,-53.97,-2.15,-1.92,0.16,1721228810950
-10.29,-6.80,-2.66,-3.68,0.14,-0.20,1721228810960
0.13,-19.11,29.90,0.35,-0.80,0.51,1721228810970
-9.22,16.53,68.20,-1.48,-0.25,1.13,1721228810980
3.85,22.69,41.50,0.09,1.09,0.93,1721228810990
5.44,-78.45,-14.85,1.97,1.23,-0.59,1721228811000
-21.98,33.10,-64.62,2.66,-1.75,0.93,1721228811010
4.01,-78.45,-35.13,-0.61,-0.40,-0.09,1721228811020
-6.67,31.19,22.87,-4.37,-0.25,-0.15,1721228811030
5.75,31.16,41.16,1.43,-2.84,0.22,1721228811040
-3.82,-26.71,63.71,-1.44,2.85,-1.40,1721228811050
-9.78,-17.28,3.39,1.81,-3.18,0.43,1721228811060
2.13,-0.80,-20.96,-2.03,-0.28,1.35,1721228811070
-9.47,17.61,18.93,-0.45,1.25,0.42,1721228811080
-22.92,-27.43,13.27,0.88,-0.23,-1.17,1721228811090
-15.58,13.00,-10.89,1.64,-0.94,-0.36,1721228811100
-7.14,2.94,-0.38,0.11,0.52,0.39,1721228811110
-20.69,-47.23,2.42,-0.18,0.25,0.63,1721228811120
2.51,9.78,21.55,0.25,0.16,1.23,1721228811130
4.62,-0.74,29.98,-0.77,0.87,0.85,1721228811140
3.56,-6.52,7.69,-0.54,-1.08,0.28,1721228811150
-2.02,4.53,20.62,0.50,-0.71,-0.86,1721228811160
0.62,0.08,3.91,1.57,-0.10,-0.46,1721228811170
-43.20,15.95,-7.50,-0.48,0.00,1.25,1721228811180
-13.12,-31.76,27.06,-1.05,0.11,-0.48,1721228811190
-5.63,29.30,18.49,0.26,0.75,0.81,1721228811200
-6.11,-32.77,-44.17,2.54,1.07,0.77,1721228811210
-4.07,-70.71,-41.10,0.95,-0.88,0.34,1721228811220
-3.97,-12.53,29.61,-4.37,-1.16,-1.57,1721228811230
52.29,78.45,78.45,0.68,-2.42,-0.79,1721228811240
35.07,22.32,-1.38,4.37,2.45,-0.90,1721228811250
9.83,42.47,-58.98,3.35,-2.16,0.74,1721228811260
14.62,-40.60,-59.19,-3.39,2.69,0.10,1721228811270
18.51,-78.45,-3.35,-1.43,0.60,-0.85,1721228811280
-46.90,-6.67,18.38,3.63,-2.00,1.35,1721228811290
-5.02,-0.64,62.12,1.04,-0.78,0.51,1721228811300
16.80,-15.62,-31.82,0.31,0.78,0.96,1721228811310
5.73,66.42,-25.64,1.44,0.04,1.04,1721228811320
5.88,-11.04,-18.39,0.11,0.89,0.47,1721228811330
-6.96,-74.88,32.35,-3.21,0.04,0.06,1721228811340
-15.98,22.91,43.56,2.20,-2.61,0.70,1721228811350
6.61,30.48,-34.23,2.31,1.16,-0.84,1721228811360
-5.64,-22.49,-32.02,0.33,-0.62,0.37,1721228811370
-0.83,-27.06,-27.97,-4.37,1.90,-0.24,1721228811380
-6.33,66.80,76.95,1.39,-3.87,0.97,1721228811390
-3.98,-43.17,-9.67,1.17,3.18,-1.76,1721228811400
-3.93,-0.14,-5.38,1.34,-2.78,1.33,1721228811410
-27.36,73.65,41.23,1.27,1.06,0.69,1721228811420
7.28,-61.73,-29.05,1.26,0.96,-1.26,1721228811430
3.06,2.24,-8.15,0.29,-0.80,-0.96,1721228811440
5.64,-14.72,78.45,-0.78,0.76,0.15,1721228811450
5.84,50.41,32.87,-0.59,1.76,-0.35,1721228811460
-1.14,-3.95,-6.54,0.26,-1.41,0.06,1721228811470
-9.80,-78.45,32.58,-2.46,1.13,0.46,1721228811480
1.91,15.76,30.80,0.06,0.46,1.36,1721228811490
9.14,7.75,7.61,-0.06,0.62,-0.73,1721228811500
-3.04,-2.51,1.23,1.11,-0.66,0.18,1721228811510
-11.52,-1.85,-24.88,2.07,-1.37,-0.23,1721228811520
4.24,20.48,-0.75,-2.67,0.03,-0.01,1721228811530
-2.74,36.56,78.45,-1.57,-0.60,0.24,1721228811540
-0.57,-15.99,43.77,-0.71,0.59,-0.54,1721228811550
-4.25,-19.45,-10.25,4.37,0.19,0.39,1721228811560
2.84,-20.14,-40.89,1.66,-1.89,-0.26,1721228811570
0.50,-0.05,-21.16,-1.26,0.10,0.37,1721228811580
1.84,-6.34,1.06,-2.51,-0.34,-0.45,1721228811590
23.63,76.08,38.69,0.79,-2.36,0.66,1721228811600
-1.64,-6.29,12.75,0.87,0.91,0.09,1721228811610
8.76,-23.78,4.25,0.10,-0.88,0.06,1721228811620
4.23,-3.61,-3.21,0.51,1.32,0.76,1721228811630
4.31,-15.32,-16.01,1.94,-0.45,-0.55,1721228811640
-2.70,-22.66,-29.91,-3.76,1.26,-1.42,1721228811650
-6.61,-44.17,78.45,0.08,-0.60,-0.75,1721228811660
-5.89,18.58,72.68,-0.81,4.08,-0.55,1721228811670
-20.53,-21.31,-37.65,4.37,-0.72,2.37,1721228811680
10.59,-23.67,-32.79,3.08,-1.87,0.44,1721228811690
-2.87,22.50,-66.05,-0.49,-0.22,1.29,1721228811700
-4.69,-45.41,-5.24,-3.88,1.63,0.12,1721228811710
-27.01,-22.06,78.45,-3.15,0.22,-0.25,1721228811720
-5.26,-3.55,69.77,-1.39,4.37,-1.33,1721228811730
0.85,-5.24,-8.69,1.30,-0.48,-0.88,1721228811740
-26.75,20.23,8.90,3.06,-0.89,0.77,1721228811750
-6.54,-25.51,-19.56,1.80,-1.14,-0.11,1721228811760
6.22,27.33,-32.12,0.61,0.20,0.73,1721228811770
2.39,-17.66,-20.59,-2.16,0.37,-0.14,1721228811780
32.64,-44.86,78.45,-4.37,3.15,-0.69,1721228811790
17.71,78.45,78.45,2.95,-0.80,-0.48,1721228811800
1.22,-0.93,1.98,3.54,1.13,-1.32,1721228811810
4.94,-12.73,-66.45,4.03,-2.26,0.35,1721228811820
-21.08,-16.64,-45.90,-3.33,-1.33,-0.19,1721228811830
15.25,16.22,35.48,-3.33,1.17,1.03,1721228811840
-78.10,53.48,36.84,1.13,-1.47,0.33,1721228811850
-1.44,-16.23,16.92,-0.46,-0.27,-0.62,1721228811860
-5.00,7.04,-22.90,0.78,-0.57,0.28,1721228811870
1.27,-13.21,6.36,-0.54,-0.38,-0.86,1721228811880
-4.81,7.05,-0.97,-2.22,0.10,-0.52,1721228811890
14.06,16.56,3.66,0.70,-1.13,-0.21,1721228811900
-22.69,-71.97,-17.48,-1.33,1.63,0.61,1721228811910
-0.20,-11.76,48.24,-0.03,-1.51,0.13,1721228811920
24.17,55.16,63.58,-1.32,1.37,-0.14,1721228811930
-4.12,-49.14,-4.90,1.51,0.62,-0.17,1721228811940
1.64,-8.46,-34.96,2.40,-1.66,-0.10,1721228811950
-3.42,-13.46,-12.11,-1.96,0.92,0.77,1721228811960
0.69,-2.60,0.00,-2.20,-0.25,0.32,1721228811970
-5.95,78.45,22.86,-0.18,-1.32,0.00,1721228811980
-1.46,-7.07,27.39,-0.24,0.54,-0.40,1721228811990
1.27,-32.71,23.67,-0.20,-1.41,0.06,1721228812000
0.01,-1.47,29.15,-0.42,-0.88,0.76,1721228812010
-3.77,33.48,-0.46,0.87,1.06,1.55,1721228812020
-19.39,-78.45,26.60,2.47,-0.22,1.42,1721228812030
2.12,-3.64,-44.07,-1.78,-1.08,0.20,1721228812040
16.50,60.04,78.45,-2.77,3.83,-0.57,1721228812050
-13.38,-1.14,27.87,0.89,-0.85,-1.25,1721228812060
-9.03,-50.21,-16.80,3.50,-0.85,0.06,1721228812070
12.75,13.99,-26.90,0.87,0.06,0.70,1721228812080
3.22,4.20,-9.58,0.09,-0.44,0.47,1721228812090
-14.24,11.93,-5.73,-1.89,0.38,0.18,1721228812100
15.60,27.48,40.42,-0.44,-0.23,0.31,1721228812110
25.07,-78.45,-9.10,2.11,0.96,-2.05,1721228812120
0.35,-2.80,-9.18,1.15,-1.38,0.02,1721228812130
-5.77,-14.59,-17.62,-2.87,0.59,-0.54,1721228812140
-10.66,-10.31,28.24,-1.06,-1.23,0.02,1721228812150
10.80,59.44,52.45,0.37,1.21,1.12,1721228812160
10.27,-18.73,-0.93,2.01,0.82,0.68,1721228812170
17.35,-8.56,-20.92,-0.57,0.27,0.06,1721228812180
1.87,-24.90,-8.46,-2.42,-1.02,-1.13,1721228812190
-24.54,36.50,78.45,0.40,-2.86,-0.55,1721228812200
-18.46,51.31,35.30,0.81,1.80,0.02,1721228812210
-18.19,-66.57,-50.83,2.72,0.83,0.03,1721228812220
-5.39,-77.19,-55.89,2.30,-0.96,0.11,1721228812230
-5.14,-16.11,-14.89,-4.04,-0.90,-0.94,1721228812240
-32.36,-74.94,78.45,-2.94,1.45,-0.99,1721228812250
-57.96,65.64,78.45,-0.93,2.35,1.23,1721228812260
19.02,23.86,-9.58,3.43,-0.22,0.37,1721228812270
-18.65,-76.48,-37.58,1.16,1.65,0.60,1721228812280
-13.14,-30.11,-19.97,-0.19,-0.56,-1.31,1721228812290
-0.48,2.25,-3.89,-3.40,-1.16,-1.10,1721228812300
8.43,78.45,78.45,0.41,-1.00,0.29,1721228812310
0.45,-0.77,11.72,1.76,1.92,-0.01,1721228812320
0.80,-32.95,-27.61,3.37,-0.47,1.17,1721228812330
4.32,-19.22,-40.00,-0.09,0.81,-0.86,1721228812340
2.35,2.09,-17.97,-3.33,0.76,-0.70,1721228812350
-13.04,-29.15,78.45,-4.09,1.07,-0.15,1721228812360
-2.48,17.44,78.45,0.30,0.45,-0.60,1721228812370
-15.76,11.10,-16.88,1.97,-0.31,-0.20,1721228812380
-16.30,-35.52,-25.09,0.74,-0.64,-0.05,1721228812390
-3.73,-11.26,-11.47,-1.64,0.32,-0.24,1721228812400
-24.99,18.15,34.68,-1.45,-0.42,0.42,1721228812410
-0.20,-0.68,-5.54,-0.77,2.84,0.10,1721228812420
4.43,19.87,7.39,0.27,-0.69,0.53,1721228812430
3.51,10.08,-5.88,0.04,0.45,0.34,1721228812440
2.68,-15.49,-11.25,0.40,-0.16,-0.69,1721228812450
-4.32,-38.92,3.22,-2.65,0.29,-0.94,1721228812460
-28.75,15.67,76.41,0.27,-2.84,-0.85,1721228812470
-16.31,22.13,34.45,0.77,1.57,0.38,1721228812480
-30.89,10.42,-27.40,2.24,-0.17,2.52,1721228812490
11.14,2.11,-17.87,-1.07,0.16,1.01,1721228812500
16.81,-60.09,-20.71,-4.37,0.84,-1.46,1721228812510
-2.29,5.09,1.65,0.37,-1.44,-0.78,1721228812520
-1.29,8.84,1.72,0.16,0.30,-1.13,1721228812530
0.21,-15.86,12.65,0.71,-0.19,-1.06,1721228812540
-11.51,19.48,18.19,-0.65,-0.43,0.41,1721228812550
-1.61,29.19,37.26,-0.25,1.15,0.25,1721228812560
8.31,-32.27,16.21,-0.70,-0.01,-1.11,1721228812570
3.07,2.66,-7.54,-0.82,1.25,0.37,1721228812580
14.54,24.13,-19.21,1.09,-0.32,-0.82,1721228812590
2.19,-15.25,-10.52,2.60,-0.72,-0.80,1721228812600
0.73,1.48,-24.50,-0.58,0.22,-0.47,1721228812610
6.27,9.85,-3.02,-3.97,1.38,-0.51,1721228812620
17.30,39.65,78.45,1.64,-3.10,0.01,1721228812630
-1.06,-1.24,28.49,-0.40,0.93,-0.62,1721228812640
-8.36,-7.66,-19.95,2.65,-1.06,1.10,1721228812650
-12.84,5.53,-21.54,-1.37,1.63,1.37,1721228812665
9.03,6.26,-13.86,-1.14,-0.23,0.04,1721228812669
-2.67,-39.00,-5.10,-2.27,0.42,0.10,1721228812679
-0.11,-5.91,20.14,-0.51,-0.08,0.13,1721228812689
23.32,50.73,37.94,-0.74,1.66,-0.81,1721228812699
2.72,1.50,17.76,0.17,-0.40,-0.31,1721228812709
4.64,-26.44,-1.31,2.35,-0.51,-0.44,1721228812719
6.28,3.61,-31.82,0.56,-0.06,-0.26,1721228812729
4.47,14.69,-6.98,-2.20,1.01,-0.02,1721228812739
-20.79,-18.80,48.04,-1.85,0.46,-0.98,1721228812749
-5.24,22.49,45.21,-1.33,2.57,-0.78,1721228812759
-46.55,-70.72,-23.96,4.37,-0.53,0.90,1721228812769
2.96,-11.88,-43.45,0.99,-1.17,0.50,1721228812779
2.32,17.62,-8.83,-3.71,0.32,1.21,1721228812789
-21.95,16.88,35.45,-1.26,0.83,0.70,1721228812799
0.04,-7.61,10.20,2.35,0.04,-0.30,1721228812809
45.17,74.78,-18.11,3.03,-1.68,0.20,1721228812819
-2.84,-22.40,-16.79,-4.37,1.95,-0.46,1721228812829
-15.13,15.00,78.45,0.79,-1.49,-0.33,1721228812839
-8.49,2.01,76.65,-0.74,3.18,-0.96,1721228812849
-8.99,-12.05,-15.90,4.37,-2.44,1.07,1721228812859
-20.03,-18.20,-53.67,-1.23,2.73,0.72,1721228812869
-2.91,-11.23,-7.00,-3.12,0.42,0.72,1721228812879
-4.00,78.45,63.61,1.87,-2.83,0.98,1721228812889
-7.89,4.17,2.11,0.03,1.03,-0.28,1721228812899
9.32,-75.86,-8.21,0.57,-1.26,0.45,1721228812909
29.53,14.72,49.15,1.32,2.21,-0.48,1721228812919
13.91,42.11,16.00,0.61,-0.28,-0.25,1721228812929
-29.71,-71.11,-21.15,0.95,-0.85,-0.78,1721228812939
5.61,-15.30,-2.04,-2.76,0.70,-0.78,1721228812949
-0.26,17.62,49.94,1.71,-1.88,-0.45,1721228812959
-11.87,-11.88,2.15,0.49,1.16,-0.98,1721228812969
-20.74,3.48,-37.56,3.53,-0.69,0.45,1721228812979
-24.62,-30.53,-36.70,2.44,-0.32,1.78,1721228812989
15.86,23.75,-27.28,-3.13,0.95,1.17,1721228812999
-11.64,45.40,78.45,-4.37,1.08,0.95,1721228813009
13.79,-48.50,55.66,-1.29,-0.01,-2.77,1721228813019
11.79,41.75,-3.07,3.15,-1.48,-1.15,1721228813029
-18.72,-4.52,-9.22,-1.50,0.12,-0.98,1721228813039
-4.43,-25.36,-2.52,-0.75,0.39,-0.45,1721228813049
-9.61,-8.78,-0.79,0.46,-0.33,1.39,1721228813059
31.99,78.45,55.82,0.01,1.01,1.68,1721228813069
2.52,48.56,13.74,1.37,-0.59,0.95,1721228813079
18.68,-42.41,-18.40,1.03,0.02,0.05,1721228813089
-9.68,-54.31,-13.35,-1.45,-0.17,-0.96,1721228813099
5.46,15.16,-12.99,-2.36,2.52,-0.90,1721228813109
-11.21,3.77,42.42,-0.51,-2.71,-0.06,1721228813119
-32.05,-56.69,11.94,0.47,1.19,0.75,1721228813129
-9.00,-8.68,50.80,-0.17,-1.05,0.82,1721228813139
4.81,25.34,30.89,-0.95,1.39,1.23,1721228813149
-20.17,-28.96,-17.62,1.51,-0.42,2.19,1721228813159
24.24,22.04,-9.52,-1.58,1.18,-0.27,1721228813169
4.90,7.15,13.00,-0.44,-0.12,0.11,1721228813179
-23.34,-51.71,9.28,2.10,-0.71,-0.32,1721228813189
27.97,58.48,-13.06,0.29,-0.58,-0.69,1721228813199
-3.03,-5.22,23.04,-1.09,0.47,-0.82,1721228813209
-2.46,12.49,49.29,0.74,-1.64,1.00,1721228813219
-7.84,36.86,30.11,0.65,0.46,1.94,1721228813229
8.18,17.52,0.56,2.17,0.22,1.32,1721228813239
23.02,-78.45,-52.75,-1.30,1.36,-0.71,1721228813249
7.91,-9.19,-3.96,-0.44,-1.88,-1.82,1721228813259
-28.87,30.58,26.77,-1.72,-0.24,-2.05,1721228813269
-1.82,9.57,59.36,1.65,-2.16,-0.97,1721228813279
-36.57,-4.59,2.86,0.94,0.65,0.46,1721228813289
-18.03,71.48,29.86,0.60,0.08,1.53,1721228813299
6.37,2.22,15.31,0.99,1.39,1.64,1721228813309
7.72,-78.45,-30.23,0.75,0.97,1.23,1721228813319
27.56,78.45,29.37,4.37,-2.30,-0.25,1721228813329
48.71,25.89,24.40,-0.09,-0.40,-0.57,1721228813339
6.01,-8.58,-24.19,1.91,-0.62,-0.54,1721228813349
-3.97,-10.86,26.24,0.74,-1.42,-0.52,1721228813359
-12.44,78.45,63.99,-0.17,0.06,-0.67,1721228813369
-3.92,9.20,-9.14,0.33,0.22,0.35,1721228813379
2.32,-68.95,-39.74,-1.67,-0.43,1.21,1721228813389
9.45,-14.39,-2.31,-1.17,0.11,0.49,1721228813399
-20.16,-78.45,78.45,-3.29,2.74,0.18,1721228813409
-18.00,11.37,69.11,-0.75,1.76,0.86,1721228813419
14.25,-20.31,-29.19,4.37,-0.06,-1.31,1721228813429
-7.97,-4.16,-57.62,3.35,-1.85,-0.44,1721228813439
-4.75,-33.00,-56.09,-3.18,0.15,-0.86,1721228813449
21.16,0.65,78.45,-4.37,1.12,0.02,1721228813459
39.87,31.03,1.58,1.94,1.49,-0.87,1721228813469
1.84,-53.57,-36.18,4.37,-1.23,2.81,1721228813479
37.64,-17.31,22.82,-4.37,2.85,0.58,1721228813489
27.62,-68.94,11.91,-4.37,0.31,-4.37,1721228813499
1.24,28.47,78.45,-0.97,2.50,-1.35,1721228813509
-8.69,-40.35,-65.82,4.37,2.13,-0.90,1721228813519
6.80,30.54,-76.47,2.51,-1.85,1.97,1721228813529
-0.74,-7.39,-44.96,-1.99,0.61,1.32,1721228813539
25.36,3.47,-16.37,-0.78,1.76,0.25,1721228813549
5.52,18.29,-17.08,0.58,2.12,-0.75,1721228813559
-20.05,15.66,-13.84,1.57,-1.14,-0.73,1721228813569
-12.31,-0.44,28.95,0.93,-0.42,-1.50,1721228813579
2.08,-45.62,5.37,-4.37,0.76,-1.41,1721228813589
-4.10,62.84,78.45,0.77,0.62,1.32,1721228813599
-14.82,5.93,2.10,0.65,2.18,-1.14,1721228813609
15.51,20.53,-0.73,1.04,-1.77,-0.55,1721228813619
-5.75,35.35,-7.27,-2.98,0.11,1.36,1721228813629
16.08,27.03,66.84,-0.18,1.12,1.25,1721228813639
-31.74,-78.45,-18.49,1.76,1.45,0.90,1721228813649
60.63,36.31,-37.95,2.98,-1.21,-1.28,1721228813659
10.22,6.56,-11.07,-4.37,-0.46,-2.19,1721228813669
-24.61,78.45,28.36,1.31,-2.68,-1.95,1721228813679
4.14,-25.47,7.89,4.37,-0.26,-2.86,1721228813689
-33.86,11.52,-28.68,0.92,-0.39,0.12,1721228813699
3.67,21.14,-39.47,-3.92,1.26,1.42,1721228813709
18.89,76.92,-27.54,-0.10,-1.16,1.21,1721228813719
13.01,-78.45,-11.61,0.47,0.42,-2.07,1721228813729
23.33,57.27,-13.38,4.37,-1.95,-0.26,1721228813739
23.49,-64.37,-9.74,-4.37,-0.18,-1.55,1721228813749
-57.84,78.45,78.45,0.40,-4.37,-0.71,1721228813759
-11.63,31.01,25.11,3.37,0.97,-1.07,1721228813769
8.59,23.40,-19.10,4.37,-0.83,-1.11,1721228813779
7.50,-29.91,-78.45,-0.02,-1.14,0.83,1721228813789
-5.56,-78.45,-30.01,-2.14,4.37,-0.71,1721228813799
-21.57,-29.71,-8.19,-4.37,0.97,-2.00,1721228813809
51.31,78.45,78.45,-0.41,-2.99,-2.83,1721228813819
6.53,-11.12,42.06,3.39,4.37,-3.10,1721228813829
-24.43,13.53,-13.53,4.13,-2.17,2.32,1721228813839
-11.52,-78.45,-12.91,-1.56,3.66,0.15,1721228813849
-8.38,12.75,-15.86,-4.37,-0.21,1.78,1721228813859
-0.26,19.35,31.74,1.81,-0.89,1.04,1721228813869
15.13,-14.15,20.11,1.67,3.63,-1.27,1721228813879
-8.24,8.89,-2.65,2.86,-2.98,1.96,1721228813889
26.41,-19.54,-6.44,-1.65,3.34,-0.56,1721228813899
3.27,3.47,5.18,-1.53,0.91,-0.52,1721228813909
5.92,16.04,44.39,1.05,-1.69,-2.17,1721228813919
-22.24,36.83,24.84,0.90,-0.23,-1.02,1721228813929
3.97,-17.02,6.02,3.66,0.44,-1.45,1721228813939
-22.43,-54.26,-25.71,1.48,-0.26,1.18,1721228813949
-0.86,-3.51,-21.72,-1.65,0.25,2.24,1721228813959
7.44,-9.24,25.99,-1.69,3.89,1.89,1721228813969
31.55,58.59,46.90,-0.15,0.18,1.39,1721228813979
30.26,-78.45,-14.11,1.54,-0.86,-1.65,1721228813989
4.18,-2.15,-32.76,-1.65,0.64,-1.66,1721228813999
-5.37,11.18,-18.94,1.15,-0.44,-1.18,1721228814009
-3.36,-13.08,-24.36,0.35,-1.40,-0.90,1721228814019
-4.73,-14.88,-4.58,-4.37,1.29,0.34,1721228814029
8.04,78.45,78.45,2.84,-3.25,1.18,1721228814039
4.40,-6.21,-15.90,2.05,3.03,0.13,1721228814049
24.90,28.91,-38.14,0.32,-2.30,0.53,1721228814059
14.51,-43.41,12.35,-4.37,2.20,-0.52,1721228814069
-4.39,-5.28,44.01,-3.69,-0.07,-1.13,1721228814079
4.81,22.87,72.31,0.82,0.12,-2.09,1721228814089
1.38,-3.75,-10.18,0.80,-1.98,-0.79,1721228814099
-28.93,27.87,-12.56,-2.59,0.06,0.41,1721228814109
-47.70,-30.75,67.95,0.80,-0.24,0.49,1721228814119
-5.16,66.15,13.62,1.77,1.27,1.94,1721228814129
8.26,-57.52,-33.76,-2.49,0.74,0.94,1721228814139
24.61,-78.45,78.45,-3.54,2.83,-1.27,1721228814149
59.65,78.45,48.95,1.26,-4.37,-2.76,1721228814159
-5.45,-20.03,-41.64,3.69,1.36,-1.99,1721228814169
16.65,18.00,-40.28,0.28,-1.27,0.67,1721228814179
-9.11,-18.05,-10.77,-4.37,1.42,0.49,1721228814189
-53.85,51.77,62.06,-1.89,0.05,-0.34,1721228814199
-0.65,-9.15,53.88,0.62,1.68,-1.52,1721228814209
-7.76,1.28,2.25,2.34,-0.30,-0.11,1721228814219
-23.52,23.54,-6.44,3.49,-1.76,0.64,1721228814229
3.17,16.95,-13.00,-2.31,-0.67,0.41,1721228814239
3.24,21.54,67.54,-0.31,1.26,0.40,1721228814249
16.88,-5.83,36.90,1.64,-1.39,0.49,1721228814259
-8.36,-41.32,31.79,-1.02,-0.06,-0.75,1721228814269
20.46,78.41,20.51,0.48,-0.53,-0.47,1721228814279
-4.82,-14.83,-20.00,3.07,0.64,-1.12,1721228814289
-3.33,-0.25,-4.12,2.35,-0.58,1.15,1721228814299
-0.30,8.54,-10.68,1.91,0.66,0.98,1721228814309
4.52,-28.80,-25.68,0.84,-0.34,-0.20,1721228814319
6.96,-13.15,-10.33,-3.94,0.26,-0.31,1721228814329
-22.11,-49.19,78.45,-0.45,-3.07,0.36,1721228814339
-5.32,35.86,78.45,-3.43,2.88,-0.40,1721228814349
-30.11,-3.30,-44.80,4.37,-0.18,1.00,1721228814359
6.68,-66.24,-51.48,4.37,-2.43,0.56,1721228814369
-6.39,-73.01,-78.45,-0.88,-0.17,0.20,1721228814379
8.37,25.29,0.93,-3.79,-2.19,0.07,1721228814389
-17.90,-40.08,4.53,-3.70,-1.19,-0.40,1721228814399
2.24,34.37,78.45,-1.11,1.05,0.44,1721228814409
13.00,-19.92,5.08,2.31,-1.36,0.08,1721228814419
47.80,59.59,-24.62,1.18,0.86,0.23,1721228814429
-0.68,-24.06,-34.61,1.05,0.15,-0.41,1721228814439
-8.07,2.04,-18.88,-2.84,0.74,-1.35,1721228814449
-12.81,-7.39,22.26,-2.52,-2.05,-0.97,1721228814459
5.35,12.86,57.29,-0.56,1.54,-0.38,1721228814469
-15.35,-32.31,11.86,-0.14,-1.23,1.31,1721228814479
2.58,-5.57,12.85,0.52,0.83,1.13,1721228814489
-11.19,-35.88,-8.56,-0.06,0.35,0.85,1721228814499
3.95,3.48,62.15,-0.20,-0.21,-0.28,1721228814509
8.26,78.45,31.57,1.20,0.96,-0.01,1721228814519
-2.02,-76.44,-32.99,3.23,0.81,-0.67,1721228814529
17.53,-49.08,-59.34,2.18,-2.10,-1.06,1721228814539
16.14,7.29,-25.22,-4.37,-0.08,-1.23,1721228814549
4.03,55.76,36.26,-0.15,-1.70,0.56,1721228814559
-7.64,-12.01,20.31,1.45,0.99,-1.09,1721228814569
-9.45,32.80,-1.29,1.19,-0.94,0.12,1721228814579
-7.74,8.10,-2.56,0.09,-0.29,0.34,1721228814589
1.41,-48.01,-7.10,-1.24,1.06,0.26,1721228814599
2.20,-14.83,63.15,-1.55,0.48,-0.47,1721228814609
12.68,31.50,38.05,1.45,0.39,0.00,1721228814619
-13.23,-21.98,-24.52,2.60,0.07,0.01,1721228814629
13.52,-30.69,-27.68,-1.63,-0.18,-0.70,1721228814639
4.50,-32.27,12.53,-3.62,0.72,-0.94,1721228814649
78.45,78.45,36.56,1.90,-1.55,-2.02,1721228814659
-8.33,6.04,2.58,2.54,-0.38,-0.41,1721228814674
-12.27,3.15,-61.19,1.90,-1.05,-0.27,1721228814678
-3.19,5.60,-5.87,-1.54,1.37,0.39,1721228814688
3.58,-5.08,12.45,-1.21,0.63,0.76,1721228814698
12.67,27.12,30.39,0.42,0.33,0.74,1721228814708
-9.43,-27.21,-20.64,0.63,0.58,-0.30,1721228814718
9.00,-7.51,7.81,-3.46,0.55,-0.85,1721228814728
24.79,78.45,32.14,0.04,0.25,-0.55,1721228814738
7.95,-21.27,-2.30,1.57,0.22,-1.72,1721228814748
64.34,78.45,-3.21,2.01,-0.85,-0.87,1721228814758
-9.82,12.45,-23.68,-1.84,2.30,0.64,1721228814768
2.34,-12.22,-9.73,-0.42,1.49,0.25,1721228814778
-5.06,-6.72,8.47,-2.06,0.60,-0.51,1721228814788
32.62,78.45,78.45,0.12,-0.75,0.23,1721228814798
-2.56,-6.04,-6.05,-1.03,2.14,-0.82,1721228814808
2.30,-3.69,1.14,1.88,-2.14,-0.01,1721228814818
0.67,19.88,-1.36,-0.29,0.97,-0.27,1721228814828
2.29,-3.09,26.37,0.16,-0.17,-0.28,1721228814838
-20.48,-39.30,3.01,-0.73,0.33,-1.03,1721228814848
33.92,66.89,5.59,1.04,-0.25,0.48,1721228814858
-1.73,-22.02,-7.64,0.41,0.12,-0.25,1721228814868
5.41,1.03,0.85,-1.12,-0.09,-0.07,1721228814878
3.10,16.01,29.79,-0.56,0.21,-0.30,1721228814888
2.12,27.50,31.81,0.00,0.96,-0.38,1721228814898
-34.15,-65.27,-4.09,-0.05,-0.72,-1.14,1721228814908
-13.27,22.49,17.31,-1.14,1.34,0.41,1721228814918
-5.98,19.31,15.71,1.45,-1.20,0.94,1721228814928
-8.20,-24.19,-14.34,1.26,0.20,-0.26,1721228814938
9.86,-7.20,15.66,-0.87,0.80,0.69,1721228814948
1.70,-1.92,6.45,-1.35,1.06,0.42,1721228814958
8.12,3.39,7.41,1.56,-0.96,-0.41,1721228814968
-4.08,-14.67,-2.56,-0.37,0.20,-0.24,1721228814978
-7.69,14.89,11.62,-0.07,0.78,-0.06,1721228814988
13.68,16.98,48.75,0.07,-0.44,-0.57,1721228814998
-3.62,4.33,29.93,-0.57,-0.45,-0.82,1721228815008
-2.89,-31.91,7.82,2.46,-0.83,-1.06,1721228815018
-8.92,-0.33,-42.55,2.66,-0.28,1.30,1721228815028
-1.00,-29.83,-18.42,-1.57,0.47,1.69,1721228815038
16.19,-7.73,72.54,-1.55,2.46,0.55,1721228815048
4.88,25.11,78.45,1.24,-0.56,0.92,1721228815058
3.82,-12.61,-0.30,1.43,0.56,0.08,1721228815068
2.02,-24.63,-9.67,1.59,-0.42,1.05,1721228815078
-6.02,-29.27,-27.17,1.27,0.24,0.12,1721228815088
4.77,-3.92,-28.27,1.09,-0.71,-0.26,1721228815098
-1.25,4.57,-9.15,-4.37,0.42,-0.21,1721228815108
-66.61,77.52,71.94,0.24,-2.72,-0.19,1721228815118
-2.91,-16.63,11.37,1.45,0.44,-1.27,1721228815128
-3.82,5.94,-15.14,-0.35,0.67,0.99,1721228815138
3.94,-29.86,-17.65,-1.37,-0.77,-0.55,1721228815148
2.89,14.38,14.58,-0.51,0.15,0.09,1721228815158
22.24,45.56,15.48,1.29,-0.92,-0.51,1721228815168
-2.02,41.36,18.85,0.26,-1.20,-0.03,1721228815178
27.67,-59.34,7.55,0.44,-0.69,-2.26,1721228815188
-7.53,-15.98,-4.45,-0.46,0.04,-0.43,1721228815198
1.02,29.36,-0.68,-0.09,-0.37,-0.91,1721228815208
-3.06,-29.25,15.26,0.28,-0.84,-1.18,1721228815218
-26.69,24.96,18.48,1.27,0.05,1.35,1721228815228
3.56,25.56,-29.32,1.96,-1.21,1.26,1721228815238
10.65,25.36,-14.15,-1.26,0.83,1.22,1721228815248
27.03,-19.91,78.45,-4.17,2.35,0.36,1721228815258
13.31,-10.90,48.34,0.18,-1.28,-1.05,1721228815268
5.90,-36.72,-14.27,3.88,-1.07,-1.43,1721228815278
-9.80,-2.17,-31.97,-0.60,-1.44,-1.68,1721228815288
-10.37,28.35,8.36,-0.30,-0.04,-0.52,1721228815298
-0.50,0.71,-6.00,0.10,0.06,0.13,1721228815308
-10.34,-21.75,-26.19,-3.52,1.57,0.76,1721228815318
4.87,8.48,61.61,1.50,-2.43,0.75,1721228815328
0.81,6.60,2.76,1.57,1.66,-0.24,1721228815338
-33.07,13.18,-18.93,3.76,-1.19,0.97,1721228815348
-4.97,-5.13,-21.80,-0.06,-1.18,-0.36,1721228815358
1.32,16.78,-5.15,-2.70,-0.38,-0.01,1721228815368
0.58,-78.45,27.17,-2.80,0.98,-0.62,1721228815378
6.81,-46.23,52.95,-1.79,-0.55,-1.00,1721228815388
-49.57,78.45,78.45,0.37,-0.44,-0.49,1721228815398
9.12,-14.62,27.97,4.37,1.99,-1.35,1721228815408
-18.97,52.71,-78.45,3.22,-2.39,0.98,1721228815418
0.82,-22.13,-67.41,0.79,2.21,0.33,1721228815428
19.44,-51.51,-52.13,-0.96,-2.07,-0.19,1721228815438
8.64,-26.61,-6.48,-4.37,4.37,-2.50,1721228815448
33.16,78.45,78.45,0.33,-4.37,1.17,1721228815458
-42.62,57.45,46.05,0.47,2.25,1.28,1721228815468
-42.32,0.40,-38.93,4.37,0.36,4.28,1721228815478
12.34,-20.93,-78.45,4.37,-4.12,0.21,1721228815488
-40.73,9.37,-45.92,-0.03,-0.43,0.14,1721228815498
20.15,-17.00,0.22,-4.37,4.37,-0.88,1721228815508
29.88,30.30,78.45,0.98,-4.37,0.49,1721228815518
-28.68,65.52,72.26,1.48,3.60,0.08,1721228815528
-40.01,-78.45,-59.50,4.37,2.12,1.51,1721228815538
9.07,-33.56,-66.90,4.37,-2.84,0.82,1721228815548
3.96,-0.80,-58.03,-4.37,1.17,-0.47,1721228815558
3.90,9.76,21.22,-4.37,4.37,-0.01,1721228815568
-25.13,-13.62,-26.78,-1.34,-3.14,-0.87,1721228815578
-0.11,-42.37,26.29,2.94,2.70,-0.16,1721228815588
-10.51,-3.65,-19.65,4.23,-1.05,1.02,1721228815598
10.11,-0.32,-0.71,-0.07,-1.82,0.34,1721228815608
-3.99,7.24,-11.58,-3.48,0.70,0.20,1721228815618
-8.94,-72.46,78.45,-3.12,1.89,-0.23,1721228815628
-9.39,35.64,60.06,0.47,-1.73,-0.11,1721228815638
4.98,-21.66,-4.94,3.24,0.92,-0.98,1721228815648
-50.97,40.67,12.13,0.81,0.15,1.54,1721228815658
18.55,18.17,-6.58,-2.01,-0.18,0.50,1721228815668
22.81,20.69,44.09,0.73,0.05,1.15,1721228815678
-17.72,-78.45,-29.55,1.09,1.82,0.25,1721228815688
43.38,68.37,-12.87,-0.48,-1.46,-0.92,1721228815698
2.98,-0.79,36.24,-1.22,1.71,-0.17,1721228815708
8.09,-0.62,20.58,2.15,-1.12,-0.22,1721228815718
-15.89,20.88,29.57,-1.54,-0.35,-0.50,1721228815728
7.87,63.35,57.59,1.37,-1.54,-0.25,1721228815738
-1.09,-16.47,8.04,0.05,2.05,-1.03,1721228815748
-1.13,-4.55,-13.35,1.64,-1.78,0.23,1721228815758
-13.78,9.87,-34.59,-0.03,0.46,1.28,1721228815768
-3.03,13.87,-2.71,-1.38,0.16,0.89,1721228815778
-7.86,-44.18,29.16,-2.45,1.25,0.33,1721228815788
-0.11,8.17,38.10,1.36,-1.55,0.93,1721228815798
18.04,-17.50,4.16,2.35,0.91,0.15,1721228815808
5.74,-4.53,-24.77,-1.71,-0.05,0.47,1721228815818
1.88,-43.56,78.45,-1.88,1.21,-2.06,1721228815828
8.94,34.11,63.01,1.33,-2.62,-1.00,1721228815838
-40.96,-52.07,-23.57,1.29,1.52,0.27,1721228815848
-1.13,27.39,-29.84,1.62,-0.38,1.17,1721228815858
-4.81,-5.15,-20.45,-2.87,0.61,1.11,1721228815868
-10.78,-62.95,78.45,-2.60,1.08,0.43,1721228815878
-16.14,53.16,1.04,0.86,2.12,0.24,1721228815888
9.69,-34.90,-30.47,1.62,0.54,-1.21,1721228815898
11.76,15.73,-12.33,-0.88,-0.94,-1.85,1721228815908
5.48,5.27,46.68,0.71,0.75,-0.24,1721228815918
-9.74,27.91,-3.96,2.20,-0.56,-0.45,1721228815928
-6.20,1.34,-14.98,-1.45,-0.46,0.14,1721228815938
-22.55,-66.20,78.45,-2.66,-0.31,0.69,1721228815948
20.17,34.50,78.45,0.27,2.07,1.16,1721228815958
-0.13,-48.34,-50.98,3.48,1.34,-0.06,1721228815968
51.27,78.45,-75.67,3.60,-3.48,-1.76,1721228815978
-1.60,-11.62,-31.70,-3.42,-0.29,-0.94,1721228815988
3.62,35.49,1.42,-4.37,0.15,-0.87,1721228815998
-28.39,78.45,54.83,1.74,-0.86,-0.64,1721228816008
2.47,-41.52,-23.29,3.21,2.17,-0.82,1721228816018
-14.24,-27.33,-13.89,4.37,-1.36,1.33,1721228816028
3.91,67.53,-78.35,-2.47,-1.55,0.40,1721228816038
1.02,-11.49,8.55,-3.10,0.90,-1.33,1721228816048
-1.88,20.76,35.59,1.48,-3.95,0.44,1721228816058
-12.99,-28.68,30.88,-1.50,2.60,-0.07,1721228816068
9.97,32.22,28.44,0.53,-0.96,0.80,1721228816078
-0.31,8.03,24.97,0.11,0.09,-0.11,1721228816088
1.53,-42.52,14.60,1.29,-0.87,-0.62,1721228816098
11.02,32.13,-20.85,1.77,-0.07,0.12,1721228816108
9.81,6.54,-21.42,0.63,0.50,0.16,1721228816118
0.19,-23.05,-7.68,-3.32,0.79,-0.20,1721228816128
-10.81,23.57,44.19,0.04,-2.26,-0.55,1721228816138
6.46,-16.36,16.49,2.11,-0.09,-2.27,1721228816148
0.68,1.33,-15.21,0.53,0.02,0.64,1721228816158
-10.97,-18.47,-5.37,-2.58,0.87,0.96,1721228816168
16.73,51.39,11.28,0.67,-1.55,0.44,1721228816178
3.16,-13.24,25.10,0.17,0.49,0.27,1721228816188
5.88,25.92,27.53,-2.30,1.06,0.80,1721228816198
6.89,9.86,42.23,-0.44,-0.46,-0.50,1721228816208
1.19,-26.88,14.80,-0.40,-0.92,-1.65,1721228816218
-45.49,59.91,24.53,0.67,1.05,0.75,1721228816228
-9.60,32.03,-1.38,0.63,0.36,0.73,1721228816238
-1.19,-9.89,-9.33,-0.02,-0.06,0.89,1721228816248
13.47,-53.89,5.20,-1.08,0.76,0.70,1721228816258
-8.48,1.99,46.92,0.14,0.21,-1.01,1721228816268
1.24,17.14,32.17,-0.06,0.19,0.23,1721228816278
-36.32,-78.45,-9.45,3.26,0.22,2.30,1721228816288
7.05,78.39,-25.36,0.15,-0.16,1.87,1721228816298
-11.55,33.63,-6.47,-0.85,0.74,0.82,1721228816308
18.54,-65.44,23.32,-0.07,-1.05,-1.09,1721228816318
9.80,12.29,52.02,-0.62,0.59,-0.66,1721228816328
-12.87,38.45,57.61,-0.66,0.66,-1.03,1721228816338
-28.61,-78.45,-22.13,1.97,-0.69,-1.50,1721228816348
-4.28,18.97,-27.49,1.83,-0.77,1.12,1721228816358
-6.00,-1.03,-26.43,1.05,-0.10,1.79,1721228816368
2.16,-15.35,-16.35,0.76,0.04,1.97,1721228816378
21.32,40.22,-6.11,-0.40,1.15,0.93,1721228816388
25.51,44.13,77.30,-1.50,-0.36,0.51,1721228816398
26.66,-78.45,78.45,-1.58,-0.87,-2.08,1721228816408
6.15,11.39,43.01,1.35,-0.04,-1.74,1721228816418
-11.73,37.22,-36.19,3.49,-1.27,-2.59,1721228816428
-27.68,-41.37,-38.94,1.96,0.05,-0.85,1721228816438
-19.19,-21.62,-49.19,0.55,-0.41,1.31,1721228816448
-4.61,78.45,-46.20,-3.07,2.12,2.90,1721228816458
2.56,-78.45,73.86,-4.37,3.93,0.80,1721228816468
44.36,-53.35,30.25,2.15,1.91,-0.10,1721228816478
5.49,78.45,23.87,3.77,-2.14,-1.23,1721228816488
-7.60,-7.00,-73.70,4.37,-1.53,-0.97,1721228816498
1.42,-28.85,-78.45,3.02,-4.37,-1.07,1721228816508
-12.66,-6.23,-12.91,-0.28,4.23,1.29,1721228816518
-55.55,-78.45,2.76,-4.37,2.01,2.22,1721228816528
20.46,10.81,78.45,1.17,-2.63,1.23,1721228816538
-21.11,34.98,71.69,0.90,-0.60,1.73,1721228816548
-7.48,-39.39,-6.83,4.07,0.31,2.12,1721228816558
22.46,38.25,-32.28,-0.49,-4.37,0.73,1721228816568
35.88,11.16,-3.07,-1.52,2.44,-0.84,1721228816578
-9.84,-20.37,-10.80,-0.94,-0.50,-0.58,1721228816588
-6.48,-40.04,3.78,-1.04,-0.03,-1.10,1721228816598
-36.21,-68.43,78.00,-1.31,-2.42,-0.59,1721228816608
26.76,34.47,49.49,-1.67,2.49,-0.32,1721228816618
-0.96,-9.40,24.68,0.68,0.38,-0.04,1721228816628
17.72,69.43,1.28,3.14,-0.52,1.20,1721228816638
13.05,30.50,-17.14,-0.72,0.15,1.00,1721228816648
4.88,-7.74,26.76,-3.42,3.33,-0.12,1721228816658
-0.66,-30.35,7.94,0.82,-2.33,-1.85,1721228816668
-8.83,11.71,-21.12,-0.90,1.27,-0.45,1721228816683
-6.63,0.59,-7.15,-1.82,0.33,-0.10,1721228816687
-8.14,-11.58,4.30,1.31,0.14,0.65,1721228816697
-6.26,30.13,-14.43,1.94,-0.69,1.29,1721228816707
19.02,60.52,-6.03,-0.14,0.31,1.84,1721228816717
26.50,-60.32,-1.04,-3.92,1.27,-2.24,1721228816727
-4.12,-42.83,69.89,2.11,-2.23,-0.67,1721228816737
-1.64,39.14,1.86,3.79,-0.57,-0.78,1721228816747
-14.19,-78.45,-59.63,-0.98,-0.01,-1.91,1721228816757
-31.96,44.03,7.72,-0.22,-0.79,-1.51,1721228816767
-7.58,60.37,3.41,-0.28,-1.15,0.12,1721228816777
-6.23,-5.79,10.84,-0.51,3.60,1.29,1721228816787
4.20,-78.45,17.30,-1.92,-0.77,1.09,1721228816797
-3.78,-0.57,54.09,1.03,-1.68,0.77,1721228816807
1.87,8.55,10.56,1.25,0.30,0.22,1721228816817
16.03,16.57,-10.35,1.58,-0.53,0.22,1721228816827
11.95,24.85,-13.49,-0.22,0.17,-0.40,1721228816837
1.02,-1.67,10.28,-4.14,1.01,-0.53,1721228816847
-12.96,-40.00,-0.21,1.99,-1.21,-1.63,1721228816857
6.43,-16.17,-4.51,2.31,-0.88,-1.41,1721228816867
-5.20,-1.91,-4.74,-2.28,0.17,0.07,1721228816877
-45.74,42.32,47.89,2.00,-2.54,1.69,1721228816887
3.97,-5.72,14.81,0.54,2.52,0.56,1721228816897
-1.32,1.26,-7.11,1.17,-1.32,1.78,1721228816907
4.28,2.02,12.04,-1.21,1.52,-0.37,1721228816917
10.75,16.47,2.13,-0.21,0.88,-0.14,1721228816927
2.40,-31.17,13.67,-0.24,0.15,-0.04,1721228816937
0.93,-4.26,33.21,-0.67,-0.38,-0.13,1721228816947
2.79,41.50,18.21,0.42,0.26,0.03,1721228816957
-26.80,-78.45,9.56,-0.60,1.18,-0.64,1721228816967
-6.82,8.77,21.46,-0.24,-0.31,-1.05,1721228816977
0.16,29.13,32.39,0.08,2.50,-0.29,1721228816987
-38.58,-78.45,-34.17,1.77,-0.29,1.26,1721228816997
-3.30,12.05,-6.42,-0.18,-0.04,0.56,1721228817007
-4.08,-12.32,64.89,1.16,1.01,0.50,1721228817017
7.03,22.49,6.04,1.30,0.19,0.67,1721228817027
-0.66,16.04,-18.78,1.10,-0.02,0.29,1721228817037
1.23,-51.26,-7.64,-3.66,2.06,-0.89,1721228817047
-48.54,-11.71,78.45,0.43,-4.37,-0.79,1721228817057
15.87,65.45,38.60,-0.69,3.59,-1.02,1721228817067
-25.85,8.26,-37.67,4.20,-1.06,1.72,1721228817077
6.83,-41.82,-39.79,3.26,-1.32,-0.00,1721228817087
-0.39,-15.59,-34.21,-2.81,0.58,0.08,1721228817097
0.89,-5.16,-1.53,-3.48,-0.52,-0.48,1721228817107
-6.45,18.36,34.26,2.62,-2.35,-0.36,1721228817117
3.55,23.42,6.28,1.99,0.47,0.38,1721228817127
-0.65,-21.27,-16.02,0.75,-1.00,0.93,1721228817137
3.44,-65.25,26.41,-1.73,0.71,0.26,1721228817147
-57.84,78.45,28.30,1.05,-0.66,0.57,1721228817157
-3.13,-9.52,18.93,-0.10,1.12,-1.40,1721228817167
-0.20,1.04,-2.87,3.52,-1.69,0.67,1721228817177
-3.97,-8.29,-26.14,-0.19,1.42,0.24,1721228817187
-3.66,-31.51,-30.19,-4.37,-0.02,-0.32,1721228817197
-44.03,-32.78,78.45,-1.26,-3.34,1.05,1721228817207
-11.22,55.55,66.13,-0.36,1.47,0.20,1721228817217
-33.88,-78.45,0.59,4.37,-1.86,0.37,1721228817227
-43.71,24.13,-61.30,1.28,-0.80,0.07,1721228817237
-0.30,-3.63,-46.05,-0.55,-0.44,-0.16,1721228817247
-22.90,-77.16,-2.32,-4.37,0.57,-0.23,1721228817257
7.91,-25.46,71.47,0.63,-0.58,-0.03,1721228817267
-40.69,17.38,78.45,-1.16,1.38,0.28,1721228817277
-21.22,-78.45,16.18,3.43,-1.36,1.08,1721228817287
-23.74,20.20,-21.27,-0.40,0.29,2.00,1721228817297
4.21,13.46,-5.20,-0.46,0.71,0.66,1721228817307
1.64,-15.88,-6.87,-0.51,0.61,0.09,1721228817317
10.93,0.20,12.78,-0.85,2.06,-0.33,1721228817327
-1.71,32.43,26.50,-0.01,-1.08,-2.17,1721228817337
-7.28,-3.90,17.29,0.19,-1.30,-1.82,1721228817347
-7.74,-7.46,14.28,0.05,0.75,-0.20,1721228817357
-13.39,-25.82,19.50,-0.54,0.23,1.29,1721228817367
4.07,4.44,17.05,-0.46,0.14,2.17,1721228817377
4.62,-41.84,0.02,0.45,0.69,0.00,1721228817387
5.11,22.65,5.68,1.54,-0.96,-0.63,1721228817397
11.33,17.45,-9.87,0.47,0.66,0.19,1721228817407
2.84,-7.76,-4.36,0.07,0.20,-0.05,1721228817417
8.05,0.42,30.46,-1.50,1.38,-0.68,1721228817427
-2.87,29.69,33.91,0.20,-0.11,-1.55,1721228817437
4.84,-16.60,12.29,1.54,-0.62,-1.52,1721228817447
-11.55,76.71,8.17,3.17,1.02,1.47,1721228817457
-37.56,-78.45,-38.42,-1.26,-0.10,1.07,1721228817467
4.90,-1.63,78.45,-3.51,0.38,0.77,1721228817477
43.17,41.80,78.45,0.67,1.25,1.07,1721228817487
4.61,14.52,3.06,1.88,-0.73,-0.60,1721228817497
10.23,32.55,-26.09,2.96,-0.45,-1.10,1721228817507
-36.66,-63.15,-34.78,-2.14,-0.70,-0.57,1721228817517
-5.56,-9.77,57.01,-1.77,1.78,0.47,1721228817527
33.52,58.75,-6.39,0.45,-1.72,0.32,1721228817537
0.16,-16.70,-10.55,2.51,0.18,0.03,1721228817547
12.80,8.09,-17.83,-1.22,1.27,1.39,1721228817557
-10.58,-23.73,35.15,-0.25,0.16,-0.02,1721228817567
8.77,23.24,-2.98,0.24,-1.20,-0.32,1721228817577
13.56,-48.79,7.58,0.58,-0.85,-1.15,1721228817587
20.06,76.32,19.51,-0.48,-0.08,0.28,1721228817597
4.06,-15.65,46.58,-1.02,0.65,-0.79,1721228817607
2.44,-15.07,-10.95,2.24,-0.55,-0.53,1721228817617
-13.80,3.00,-37.59,1.50,-1.23,-1.02,1721228817627
-5.36,23.06,-0.26,0.02,0.02,0.67,1721228817637
0.04,10.99,-6.59,1.98,0.44,1.46,1721228817647
1.71,-23.56,-16.46,1.11,0.30,0.91,1721228817657
19.29,-28.70,-15.46,-3.32,0.41,0.39,1721228817667
-12.27,10.15,54.31,-1.33,-0.07,-1.90,1721228817677
4.88,2.90,78.45,1.96,-3.06,-1.53,1721228817687
-0.88,-39.53,-32.55,3.93,0.98,-1.57,1721228817697
-22.17,9.76,-66.66,3.22,-1.70,0.33,1721228817707
2.44,-5.85,-37.61,-1.60,0.66,0.30,1721228817717
14.49,-56.28,-29.97,-4.37,1.34,-1.14,1721228817727
-78.45,78.45,42.57,2.91,-4.26,1.04,1721228817737
-7.34,4.30,2.59,3.08,2.58,-0.71,1721228817747
1.86,15.92,-50.46,2.09,-1.52,1.06,1721228817757
4.38,-68.49,-27.29,-1.82,1.73,0.64,1721228817767
-1.64,-45.73,4.92,-4.13,0.08,-1.11,1721228817777
63.18,78.45,-15.99,0.90,-0.41,-1.82,1721228817787
-16.39,48.00,15.60,2.33,0.15,-0.48,1721228817797
-11.12,-22.50,-46.31,0.62,-0.16,0.04,1721228817807
9.35,-78.45,-7.19,-4.37,0.09,-0.58,1721228817817
-14.72,24.39,48.25,1.35,-4.07,0.46,1721228817827
18.07,49.11,17.28,0.36,2.77,0.22,1721228817837
-29.38,-48.12,-13.66,2.09,2.04,2.01,1721228817847
6.22,-78.45,-44.41,2.46,-2.38,-0.12,1721228817857
14.43,73.83,-35.34,-4.37,-1.60,-0.42,1721228817867
-10.91,25.31,78.45,-1.64,0.69,0.10,1721228817877
1.80,-18.68,25.75,1.07,-0.78,-1.47,1721228817887
5.58,1.23,11.36,1.04,1.23,-0.01,1721228817897
-16.73,-0.08,-40.85,0.79,-0.61,0.78,1721228817907
3.15,-6.52,-9.41,-0.85,1.19,0.04,1721228817917
0.04,-7.99,-1.58,-2.91,-0.49,-1.18,1721228817927
1.24,-9.03,35.99,-0.10,-1.29,0.12,1721228817937
-3.88,59.44,42.31,-0.14,1.82,1.05,1721228817947
14.47,-20.19,-0.60,1.63,0.44,-0.25,1721228817957
6.96,-0.57,3.52,-0.11,0.17,-0.34,1721228817967
-3.70,-4.54,-11.79,-0.39,-0.51,-0.83,1721228817977
-5.84,-7.10,-6.29,0.42,-0.44,-0.33,1721228817987
-7.48,-13.52,2.20,-0.71,0.68,1.31,1721228817997
0.99,6.58,38.49,0.71,-0.96,1.20,1721228818007
16.38,20.79,48.01,-0.48,1.52,0.25,1721228818017
5.74,12.92,19.85,0.38,-1.44,-0.07,1721228818027
-4.41,-15.84,4.47,1.05,0.35,-0.43,1721228818037
1.82,30.18,-12.86,0.80,-0.57,0.46,1721228818047
5.95,27.64,-14.29,0.83,1.03,0.39,1721228818057
4.64,-30.66,-17.41,-1.47,-0.04,-1.26,1721228818067
-4.11,-24.16,-0.01,-0.49,-1.06,-0.79,1721228818077
4.57,25.06,61.06,-0.76,-0.44,-0.54,1721228818087
-10.75,4.94,21.53,0.29,0.50,-1.37,1721228818097
-3.90,-25.72,-19.19,3.59,-0.09,-1.14,1721228818107
17.83,70.28,-78.45,1.92,-0.51,1.26,1721228818117
7.96,38.24,-34.11,-0.76,1.41,0.82,1721228818127
-9.71,-31.29,-29.22,-4.37,2.14,-0.38,1721228818137
7.68,28.28,78.45,2.63,-4.37,0.01,1721228818147
2.56,0.17,3.40,2.64,3.15,1.12,1721228818157
5.35,4.76,-29.87,2.75,-0.63,2.44,1721228818167
15.25,-1.76,-22.47,-3.51,-0.92,-1.59,1721228818177
-22.46,-17.09,78.45,-3.25,-0.17,-1.49,1721228818187
1.68,-8.88,74.76,2.90,-2.22,-0.57,1721228818197
-25.30,1.61,15.77,0.67,0.34,-0.16,1721228818207
-3.08,31.53,-4.44,1.59,-0.10,0.66,1721228818217
-3.29,-22.21,-20.29,2.11,0.00,0.93,1721228818227
12.22,-42.86,-18.04,-1.24,1.43,0.68,1721228818237
8.25,2.96,22.37,-2.70,1.03,-0.55,1721228818247
23.87,66.97,40.63,0.75,-0.32,-1.77,1721228818257
-1.87,-4.19,2.45,1.66,-0.49,-1.28,1721228818267
32.22,72.87,-9.76,-1.79,0.66,0.19,1721228818277
-2.12,7.40,69.02,-1.48,-0.34,-0.04,1721228818287
-19.58,-52.49,26.15,0.57,-0.18,0.02,1721228818297
17.08,17.25,-17.17,0.91,-0.80,-0.47,1721228818307
2.14,-7.68,-17.37,1.38,0.16,0.10,1721228818317
-11.53,-14.77,-28.22,1.85,-0.24,0.37,1721228818327
7.80,35.14,-33.69,-1.05,0.40,0.11,1721228818337
-2.83,-10.60,-6.65,-4.37,1.81,-0.15,1721228818347
27.99,24.69,78.45,-1.25,-0.11,0.34,1721228818357
-25.14,25.37,14.56,4.23,0.45,1.17,1721228818367
-6.28,-7.43,-45.34,4.37,-0.06,-0.17,1721228818377
10.53,-31.66,-64.67,-0.46,0.02,-0.75,1721228818387
-14.90,-15.98,-39.81,-2.36,-1.78,-0.13,1721228818397
8.11,-12.87,-0.79,-3.50,0.22,-0.09,1721228818407
14.65,-21.95,31.25,-4.29,2.51,-0.77,1721228818417
-50.05,56.72,55.42,-0.77,0.68,-0.84,1721228818427
-25.13,-17.24,8.63,-1.28,-0.40,-0.83,1721228818437
-8.37,-5.79,27.19,0.77,-1.16,1.45,1721228818447
7.13,12.71,5.06,-0.12,0.85,1.98,1721228818457
-24.21,-60.01,-18.51,3.69,0.46,2.10,1721228818467
13.60,-10.05,-34.66,1.20,-1.00,0.48,1721228818477
12.81,2.02,-18.67,-3.44,0.94,-1.64,1721228818487
0.42,-32.96,78.45,-1.74,-0.22,-2.27,1721228818497
-15.07,24.95,78.38,-0.23,-2.35,-1.74,1721228818507
-44.37,-12.62,-7.12,1.38,0.46,-0.04,1721228818517
-11.00,-12.92,-6.97,0.51,-0.08,1.43,1721228818527
-5.67,-26.06,-14.83,1.37,1.22,2.14,1721228818537
2.30,-12.39,-13.96,0.09,-0.30,2.27,1721228818547
42.10,-5.37,78.45,-2.67,4.37,-0.08,1721228818557
18.92,31.13,63.74,-0.07,-1.21,-0.81,1721228818567
8.37,-15.28,2.50,2.88,-0.88,-1.40,1721228818577
-1.13,2.80,-37.37,-0.77,0.62,-1.51,1721228818587
0.71,-8.72,-6.33,-1.82,-0.63,-0.47,1721228818597
-4.71,-24.03,52.98,-1.66,0.84,-0.08,1721228818607
-5.60,22.85,41.80,1.90,-1.50,1.23,1721228818617
-2.68,3.96,7.18,0.20,1.01,0.31,1721228818627
23.48,-27.95,-38.19,2.37,-1.68,-0.66,1721228819164
14.48,-22.43,-22.93,1.95,-2.40,-0.90,1721228819169
16.10,45.31,-37.02,-0.77,-0.52,-1.23,1721228819179
5.88,6.32,-5.20,-1.63,-0.04,-0.47,1721228819189
-12.66,-43.14,61.63,-1.13,-0.72,-0.92,1721228819199
-41.55,78.45,78.45,2.35,-1.04,1.29,1721228819209
8.76,-13.89,-24.54,4.37,1.69,-1.01,1721228819219
4.52,-29.21,-70.69,1.96,-0.10,-0.93,1721228819229
-2.04,-4.90,-34.28,-4.37,-1.18,-0.61,1721228819239
-20.69,-9.18,60.25,0.39,-0.31,2.33,1721228819249
-1.59,-5.66,19.24,2.36,1.37,1.26,1721228819259
0.68,-12.77,-27.88,4.37,-0.05,1.16,1721228819269
-15.79,-51.29,-46.50,-4.08,0.39,-1.08,1721228819279
2.80,-7.83,7.28,-4.37,1.54,-0.98,1721228819289
-37.69,43.46,33.90,0.33,-2.80,-0.10,1721228819299
15.74,-58.33,14.19,1.21,0.35,-2.33,1721228819309
23.40,56.34,-6.79,-0.43,0.21,-1.74,1721228819319
-8.55,14.13,8.59,0.68,-0.70,0.19,1721228819329
-44.08,-78.45,-11.42,-0.90,2.79,1.88,1721228819339
15.03,9.64,47.06,0.14,-1.05,0.75,1721228819349
15.08,61.79,54.21,0.05,0.90,0.42,1721228819358
27.71,-76.57,-24.03,1.07,1.36,-1.08,1721228819368
10.14,-2.99,-25.32,0.54,-1.00,0.74,1721228819377
-4.30,-13.01,-9.92,-3.47,0.08,-0.94,1721228819387
-5.63,36.93,62.98,-0.93,-1.37,-1.46,1721228819397
-3.40,39.63,65.27,-0.23,1.01,-0.96,1721228819407
-12.13,17.81,-3.36,0.33,0.46,0.46,1721228819417
5.10,-19.70,1.86,1.53,1.00,-0.20,1721228819427
-0.65,-1.74,-10.13,-0.28,2.28,0.61,1721228819437
0.96,-2.36,-23.43,-0.56,-0.51,-0.78,1721228819447
0.18,-0.38,1.58,-0.12,-0.55,-0.83,1721228819456
-1.06,13.30,23.13,0.22,-0.93,-0.42,1721228819466
-6.32,21.05,33.22,0.25,0.88,-0.32,1721228819475
-1.78,-6.43,12.84,-0.01,-0.18,-0.04,1721228819485
-3.42,-12.12,1.84,-0.35,0.67,0.23,1721228819494
-4.19,-3.98,5.91,-0.04,0.21,0.30,1721228819504
-1.70,-1.31,10.35,0.39,0.05,-0.27,1721228819514
0.76,8.41,-4.90,1.27,0.22,-0.61,1721228819524
-2.71,14.55,-2.20,-0.06,-0.07,0.12,1721228819534
-0.66,1.10,6.48,-0.91,1.55,0.37,1721228819544
9.94,-34.54,19.70,-0.11,0.15,-0.03,1721228819553
2.89,11.43,1.86,0.54,-0.09,0.96,1721228819563
22.78,-44.12,-3.62,-0.79,-0.49,-0.78,1721228819572
2.98,-1.91,29.20,-0.74,0.01,-0.78,1721228819582
-23.35,35.07,29.72,-0.22,0.65,-1.08,1721228819592
-4.02,-24.17,-12.53,2.44,0.36,-1.31,1721228819602
8.42,-4.66,-27.71,0.58,-1.14,-0.16,1721228819612
0.45,-2.72,-5.92,-4.02,1.31,1.40,1721228819622
-26.18,0.28,49.73,-1.35,-1.42,0.61,1721228819632
-7.67,6.04,33.49,-1.86,2.35,-0.35,1721228819642
-1.23,-23.78,-1.31,1.43,-1.33,0.07,1721228819652
0.86,-6.01,4.04,0.26,1.51,0.33,1721228819662
-0.38,-6.83,-8.82,0.95,-0.21,0.27,1721228819672
3.68,-2.78,-19.14,1.50,-0.40,0.47,1721228819682
-0.13,-14.19,-9.26,-2.10,0.62,0.07,1721228819692
-3.22,-33.98,59.29,-3.11,1.08,-0.68,1721228819702
-6.95,39.03,43.48,0.71,-0.38,-1.26,1721228819712
-0.58,1.76,9.65,2.66,-0.54,-1.09,1721228819722
-15.78,5.18,-1.45,-0.09,-0.23,0.12,1721228819732
-2.37,-6.03,6.51,-1.74,0.55,0.76,1721228819742
-3.10,8.92,19.16,-0.03,-0.26,0.94,1721228819752
2.69,-10.19,-18.27,1.76,-0.51,0.55,1721228819762
9.45,-19.19,18.44,-1.62,-0.04,0.36,1721228819772
-35.25,77.37,46.32,0.29,-0.81,0.89,1721228819782
-3.99,-5.31,19.90,0.76,0.64,-1.70,1721228819792
12.94,59.98,3.05,1.52,-0.83,-1.20,1721228819802
-8.45,-17.26,-18.80,-2.74,0.51,-0.66,1721228819812
-12.41,-10.38,-0.73,-0.53,0.92,-0.15,1721228819822
0.75,-8.66,-8.52,1.81,-0.97,-0.05,1721228819832
-0.46,-15.46,0.69,-3.36,0.66,0.77,1721228819842
-36.79,33.32,26.95,1.14,-0.95,1.63,1721228819852
-1.98,14.64,5.76,0.29,1.69,0.44,1721228819862
-3.10,-15.56,-10.45,1.49,-1.19,1.12,1721228819872
10.82,-78.45,9.36,-2.60,1.35,-1.83,1721228819882
1.10,12.52,16.01,1.55,-1.88,-0.29,1721228819892
6.25,-33.90,-0.24,0.17,1.24,-1.35,1721228819902
-52.88,52.00,9.07,0.09,-0.02,0.69,1721228819912
2.03,63.39,36.31,1.03,-0.05,0.59,1721228819922
-1.37,56.50,5.25,1.81,0.23,1.14,1721228819932
5.04,-68.29,-42.24,0.23,-0.29,-0.56,1721228819942
3.86,4.24,18.09,0.29,1.35,-1.10,1721228819952
12.15,-18.34,8.08,-4.37,0.20,-1.44,1721228819962
-5.34,78.45,78.45,1.26,-2.92,-2.20,1721228819972
-8.08,1.31,64.06,3.29,-0.13,-2.14,1721228819982
-72.13,78.45,-7.99,4.37,0.39,1.79,1721228819992
3.40,-18.30,-69.67,-1.02,2.91,1.92,1721228820002
12.05,29.77,-17.46,-0.40,-2.47,1.54,1721228820012
4.49,-25.34,1.80,-4.37,4.37,-1.07,1721228820022
-21.19,-20.94,63.84,2.75,-3.88,0.30,1721228820032
36.47,78.00,45.60,1.76,1.57,-0.97,1721228820042
-22.28,-19.01,-42.03,2.81,-1.50,0.53,1721228820052
-3.94,-67.51,-39.34,-0.78,0.86,-0.59,1721228820062
8.26,-9.49,-13.22,-4.37,-0.64,-1.35,1721228820072
-31.84,78.45,44.00,0.92,-3.36,-0.85,1721228820082
0.70,-10.91,29.12,0.08,1.67,-0.94,1721228820092
0.24,2.71,16.25,0.82,-1.03,0.46,1721228820102
1.35,34.79,5.15,0.79,0.14,0.16,1721228820112
-5.09,-17.51,-13.43,0.69,0.47,0.36,1721228820122
3.85,0.79,-24.09,0.66,-0.10,1.28,1721228820132
8.09,-22.87,-25.62,-1.03,0.41,0.63,1721228820142
24.56,-36.95,4.38,-4.37,1.05,-0.46,1721228820152
-9.83,61.90,78.45,-0.11,-2.49,-1.87,1721228820162
1.05,30.65,44.77,1.71,-0.25,-1.19,1721228820172
-49.68,-78.45,-29.26,3.53,0.07,1.81,1721228820182
10.47,13.32,-31.47,-1.96,0.43,1.36,1721228820192
6.79,-4.46,-28.66,-1.28,1.13,1.05,1721228820202
-0.08,-15.97,-9.45,-0.34,-0.34,0.37,1721228820212
12.27,3.43,-7.45,-2.57,0.56,-0.59,1721228820222
2.03,-78.45,78.45,-4.37,0.72,-2.25,1721228820232
-12.70,78.45,78.45,-3.42,4.37,1.29,1721228820242
9.48,-51.19,-0.34,4.37,1.48,-2.32,1721228820252
-25.17,75.23,-70.71,4.37,-1.74,0.74,1721228820262
-78.45,-78.45,19.70,0.06,-4.37,2.97,1721228820272
26.53,-39.46,9.36,-4.37,4.37,-0.90,1721228820282
-43.66,-15.18,7.05,-4.37,-2.41,-1.12,1721228820292
27.61,78.45,78.45,-1.30,1.46,0.60,1721228820302
-34.16,-78.45,0.32,2.34,1.03,2.26,1721228820312
14.02,78.45,5.56,-1.48,-0.38,0.41,1721228820322
17.38,-53.07,8.33,-2.97,3.47,-0.69,1721228820332
-18.04,-17.32,21.10,-1.68,-1.60,-1.62,1721228820342
-0.67,20.29,14.49,-0.67,-0.76,-0.93,1721228820352
-3.44,1.85,5.66,1.55,0.31,-1.35,1721228820362
-9.76,22.27,-17.71,2.72,-0.79,1.29,1721228820372
5.13,17.27,-11.60,1.02,0.86,1.56,1721228820382
-3.48,-71.89,-2.75,-2.32,1.44,0.86,1721228820392
-9.31,-43.33,78.45,-0.92,0.47,-0.70,1721228820402
38.17,63.82,37.05,1.29,-1.67,-1.16,1721228820412
27.63,-72.04,1.88,2.26,0.46,-2.81,1721228820422
11.99,78.45,1.25,-1.13,-0.44,-1.35,1721228820432
-52.21,59.63,53.32,-1.14,-1.50,1.07,1721228820442
-0.91,-2.91,11.64,0.76,3.26,0.24,1721228820452
9.63,-78.45,-24.08,0.82,-2.02,0.75,1721228820462
-0.78,-0.03,-9.75,-2.23,0.64,1.22,1721228820472
8.88,33.82,40.74,0.63,1.32,-0.24,1721228820482
1.64,-6.80,24.49,0.48,-0.78,-0.88,1721228820492
-6.46,10.85,15.03,0.38,-0.27,-0.71,1721228820502
0.71,-4.98,-9.15,1.62,0.53,-0.98,1721228820512
-7.46,7.32,-18.40,1.42,-0.34,1.24,1721228820522
-5.62,-35.31,-17.49,-2.41,1.17,0.02,1721228820532
-4.91,-47.72,32.04,-0.74,-0.73,-0.19,1721228820542
62.29,78.45,52.44,-0.28,4.33,-0.20,1721228820552
-0.22,-2.59,-8.63,0.99,0.55,0.52,1721228820562
7.68,-0.93,-21.02,1.13,-0.96,0.29,1721228820572
2.79,-19.28,-20.85,0.75,-1.07,-0.34,1721228820582
1.94,0.54,-4.67,-2.14,0.06,-0.97,1721228820592
-22.67,25.54,50.91,-0.92,-2.51,0.53,1721228820602
-4.97,31.34,78.45,-0.33,0.19,0.90,1721228820612
12.87,-18.15,10.76,3.14,0.32,-1.30,1721228820622
1.58,0.60,-23.42,0.11,0.42,0.22,1721228820632
8.38,-1.49,-28.27,0.02,-0.19,-0.28,1721228820642
-6.33,-1.19,-16.72,-1.70,0.35,0.19,1721228820652
-1.98,-11.22,12.34,-3.04,2.20,-0.05,1721228820662
-2.64,-7.01,71.39,2.23,-2.40,-0.76,1721228820672
-1.25,29.64,55.67,0.14,1.04,-0.37,1721228820682
-15.87,-22.83,-18.39,1.98,0.38,1.62,1721228820692
0.94,-12.54,-32.62,0.97,-1.32,0.61,1721228820702
6.57,2.96,-7.19,-2.09,0.52,0.26,1721228820712
-2.02,-3.91,21.67,-0.54,0.39,0.04,1721228820722
13.01,3.06,27.39,0.23,-0.16,-0.79,1721228820732
4.53,75.19,1.68,0.74,-0.58,-1.30,1721228820742
-4.82,-16.41,-4.81,-1.18,1.11,-0.99,1721228820752
-12.68,-18.27,25.97,-0.99,-0.09,0.18,1721228820762
-0.25,2.56,-5.13,0.60,1.50,0.46,1721228820772
-4.64,-26.25,-13.97,0.39,0.33,0.06,1721228820782
1.79,-2.12,2.00,-1.93,-0.40,-0.75,1721228820792
-37.74,67.55,30.20,-0.09,-0.35,0.27,1721228820802
0.20,5.27,3.89,1.13,0.84,-0.31,1721228820812
-5.73,-20.14,-15.91,1.20,-0.53,1.45,1721228820822
2.45,-15.33,-12.05,-3.93,0.93,-0.25,1721228820832
-22.95,-8.80,51.73,-0.55,-2.48,-0.43,1721228820842
3.33,2.04,56.90,-2.24,1.53,-1.48,1721228820852
-27.27,23.18,6.11,3.86,-0.76,0.63,1721228820862
-3.15,-28.27,-14.31,2.06,-1.14,-0.69,1721228820872
21.96,78.45,10.22,-1.48,0.88,0.53,1721228820882
-3.56,-14.11,7.23,-1.14,-0.15,1.30,1721228820892
10.41,37.35,18.72,0.60,0.51,0.17,1721228820902
2.90,-1.22,17.10,1.49,1.33,-0.41,1721228820912
-16.13,-45.59,2.27,1.02,-0.58,-0.18,1721228820922
2.03,-1.88,4.72,-0.29,0.66,-1.32,1721228820932
-10.16,-3.19,11.69,-0.03,-0.75,-0.53,1721228820942
0.89,6.78,16.17,-0.43,-0.23,-0.04,1721228820952
-6.89,-1.54,22.17,-0.31,1.40,0.22,1721228820962
-0.90,-0.45,14.15,0.59,-0.40,0.07,1721228820972
-7.15,-10.29,-2.03,0.56,0.25,0.47,1721228820982
4.08,17.77,5.34,-0.36,0.74,0.79,1721228820992
1.49,6.78,32.03,-0.33,-0.00,0.35,1721228821002
2.37,3.30,4.18,0.79,0.17,-0.14,1721228821012
-11.35,-43.68,-15.78,2.46,-0.36,0.27,1721228821022
-2.98,-24.14,-46.67,1.29,-1.89,-0.66,1721228821032
3.12,-18.74,-15.09,-4.37,0.93,0.32,1721228821042
-31.40,45.22,74.66,-1.15,-2.65,1.01,1721228821052
-5.91,56.92,53.01,1.20,0.11,-0.23,1721228821062
-0.19,-28.76,-23.24,2.95,-0.54,-2.00,1721228821072
-3.96,-54.51,-21.85,-1.90,3.42,-0.10,1721228821082
-18.30,-11.09,-47.71,-0.45,-1.75,-0.23,1721228821092
-16.76,2.86,65.78,-4.37,3.05,0.32,1721228821102
10.36,78.45,78.45,0.50,1.08,-0.06,1721228821112
11.69,36.08,21.91,2.06,-0.38,0.37,1721228821122
-10.98,-56.21,-25.67,1.58,0.17,-0.00,1721228821132
10.65,-23.22,-32.04,-1.75,-0.17,-0.71,1721228821142
31.02,53.51,-2.65,-1.70,0.14,-0.19,1721228821152
0.98,3.13,11.91,-0.29,-0.07,-0.35,1721228821167
2.79,-1.20,23.81,-0.02,-0.40,-0.64,1721228821171
-5.14,8.32,18.41,-0.11,-0.03,-0.66,1721228821181
-5.48,19.99,14.60,0.06,-0.38,-0.09,1721228821191
-5.89,-10.04,0.34,-0.04,-0.19,0.31,1721228821201
-0.51,-17.14,-6.40,0.65,-0.05,1.37,1721228821211
-0.70,-2.97,13.47,0.10,0.60,0.73,1721228821221
13.90,8.12,55.92,0.13,-0.88,0.40,1721228821231
1.27,6.28,27.40,0.20,-0.43,-0.80,1721228821241
-3.56,18.60,10.96,3.84,-0.22,-0.78,1721228821251
-7.87,5.06,-27.36,0.23,-0.59,-0.27,1721228821261
-21.89,-63.93,-34.54,-3.26,1.76,0.09,1721228821271
-7.15,-39.67,76.04,0.62,-1.18,0.66,1721228821281
11.53,78.45,33.89,0.73,0.46,0.80,1721228821291
-6.31,-78.45,-9.18,1.24,-0.35,0.19,1721228821301
6.17,5.96,-24.59,-3.00,-0.30,-0.10,1721228821311
-5.23,30.84,40.41,0.05,-0.55,0.34,1721228821321
-0.47,0.80,2.77,1.08,0.03,-0.50,1721228821331
-33.71,37.20,5.77,3.48,-1.09,0.31,1721228821341
-2.74,-14.10,-27.07,-2.32,0.71,0.32,1721228821351
5.61,-43.45,59.98,-4.37,3.61,-1.58,1721228821361
-1.23,34.37,78.45,1.53,-2.16,-0.23,1721228821371
6.63,-10.54,2.86,2.09,0.38,-1.08,1721228821381
6.25,5.06,-21.11,-1.56,0.12,0.37,1721228821391
-4.75,-18.67,-4.27,-2.33,0.91,0.54,1721228821401
-2.24,3.70,6.10,1.61,-0.16,1.81,1721228821411
-0.80,-7.00,-28.07,2.90,0.23,0.45,1721228821421
6.45,-27.98,-12.81,-1.44,-0.83,-0.17,1721228821431
-3.12,-74.98,78.45,-2.03,0.05,-1.26,1721228821441
6.31,78.45,78.45,-1.14,0.52,-0.27,1721228821451
-30.85,-78.45,-18.23,4.37,2.27,-1.68,1721228821461
-13.89,-18.74,-41.24,3.68,-2.58,0.30,1721228821471
-22.18,5.99,-51.73,-0.75,-0.76,-0.24,1721228821481
21.63,-24.76,13.44,-4.37,2.91,1.45,1721228821491
-29.03,-28.00,26.75,-4.37,1.19,-0.82,1721228821501
72.65,78.45,26.76,1.12,-2.45,0.20,1721228821511
3.79,-15.18,7.66,2.90,0.75,-0.30,1721228821521
78.45,78.45,9.95,2.22,-1.24,-0.57,1721228821531
7.33,19.28,-18.06,-0.82,0.29,-0.27,1721228821541
13.91,-48.78,-7.80,-1.64,0.53,-1.32,1721228821551
-2.06,-2.03,-2.82,-2.61,-0.95,-1.37,1721228821561
-8.50,-1.75,64.56,-3.37,-0.98,-2.15,1721228821571
23.15,10.71,46.19,-1.37,2.65,-0.72,1721228821581
-15.35,-8.75,26.84,0.98,-0.52,-0.28,1721228821591
-3.90,9.24,-13.11,1.20,-0.07,0.87,1721228821601
-4.86,-22.02,7.92,0.71,1.22,1.01,1721228821611
1.71,48.40,-12.08,0.04,-0.29,1.39,1721228821621
19.29,7.41,33.89,-0.83,0.49,1.00,1721228821631
16.15,-19.69,-5.01,0.80,0.46,-0.38,1721228821641
15.78,-16.10,-5.63,2.09,-1.51,-1.78,1721228821651
-0.67,-6.64,-13.31,-0.71,-0.70,-2.07,1721228821661
2.10,8.49,6.85,-0.93,-0.52,-2.24,1721228821671
-8.47,36.01,61.52,0.10,-0.48,-0.31,1721228821681
-20.69,-37.54,21.39,-1.71,-0.23,-0.36,1721228821691
-2.49,-12.03,23.58,-0.18,0.26,1.11,1721228821701
9.60,-8.03,9.82,0.94,0.65,1.95,1721228821711
6.45,-5.10,1.74,-0.11,0.82,1.13,1721228821721
23.74,43.10,5.78,0.74,-0.86,-0.37,1721228821731
10.58,7.77,10.76,0.98,-0.14,-0.62,1721228821741
4.80,-29.24,-11.66,-1.33,0.28,-1.55,1721228821751
-5.96,7.85,24.95,-0.48,-1.59,-1.55,1721228821761
1.77,-24.29,30.71,0.54,1.38,-1.76,1721228821771
-6.75,-1.40,-7.77,1.09,-0.96,0.21,1721228821781
-14.06,14.52,8.13,-0.56,0.60,0.28,1721228821791
3.98,33.86,25.04,0.23,0.92,0.66,1721228821801
-16.58,-78.45,-32.07,1.35,0.10,0.84,1721228821811
5.21,-1.60,-34.16,0.37,-0.03,-0.05,1721228821821
-8.07,-12.03,-12.76,-2.76,-0.23,-0.29,1721228821831
-9.83,-2.24,42.13,-0.81,0.08,0.06,1721228821841
7.90,23.03,45.05,-0.35,2.13,-0.15,1721228821851
2.79,-0.19,-16.12,0.02,0.42,0.70,1721228821861
5.42,-1.62,-14.83,-0.05,-0.44,-0.43,1721228821871
-3.42,2.82,-4.59,-0.11,-0.30,-0.78,1721228821881
0.72,-2.79,-2.42,-1.04,-0.25,-0.46,1721228821891
-1.49,-12.98,30.14,-0.03,0.84,-0.40,1721228821901
-1.59,-8.75,18.52,1.24,-0.70,-0.30,1721228821911
-7.26,8.17,7.63,-0.70,-0.08,0.68,1721228821921
3.62,51.83,18.68,0.58,0.54,0.84,1721228821931
-0.03,-1.90,-11.14,-0.31,0.52,0.99,1721228821941
5.93,-20.54,0.62,-1.57,0.62,0.66,1721228821951
-10.34,-10.20,47.68,0.58,-0.71,-1.03,1721228821961
1.59,32.23,-0.57,0.03,0.12,-0.81,1721228821971
-8.91,-20.75,-27.42,0.99,0.44,-1.16,1721228821981
7.19,-5.05,0.51,-3.45,1.06,-0.95,1721228821991
-12.05,14.97,61.62,2.19,-3.80,0.98,1721228822001
-6.25,-13.72,-21.20,-1.07,1.90,0.32,1721228822011
1.85,13.93,-2.14,-0.32,-1.92,0.80,1721228822021
-9.54,10.99,38.94,-0.77,0.86,0.00,1721228822031
-1.38,21.58,28.52,0.75,0.94,-0.17,1721228822041
-14.81,-69.11,-18.69,3.52,-0.54,1.03,1721228822051
6.60,-4.11,-69.79,-1.73,0.26,0.31,1721228822061
12.58,14.82,-12.00,-2.13,0.54,-0.21,1721228822071
2.42,-5.13,68.40,-1.03,2.67,-1.16,1721228822081
-9.47,-2.95,40.99,-0.12,-1.84,-1.88,1721228822091
-18.38,29.10,10.07,0.73,2.11,-1.10,1721228822101
-12.26,-33.19,-19.74,1.04,-0.21,0.02,1721228822111
-3.97,1.24,-10.77,-2.16,0.84,1.22,1721228822121
-8.80,-5.01,40.33,-0.22,0.15,1.49,1721228822131
2.17,9.47,14.56,0.64,1.55,0.41,1721228822141
13.01,-42.14,-0.96,2.78,-0.03,1.84,1721228822151
6.58,-24.40,-33.10,-3.89,2.33,-1.25,1721228822161
28.55,74.30,37.46,0.62,0.92,-1.91,1721228822171
0.71,12.62,19.45,0.71,-1.88,-1.45,1721228822181
-7.82,-12.23,-7.23,3.44,1.70,-0.67,1721228822191
-7.77,-2.36,-31.94,0.05,-1.46,1.34,1721228822201
-7.11,29.04,63.31,-2.43,2.75,0.62,1721228822211
12.44,7.54,45.89,0.10,-1.41,-0.16,1721228822221
8.35,-75.08,3.18,0.28,0.82,-0.68,1721228822231
1.90,78.45,-3.97,3.35,-0.62,1.20,1721228822241
-2.21,-49.81,-15.14,-0.84,1.14,-0.11,1721228822251
6.01,16.54,6.52,-4.37,0.65,-1.41,1721228822261
-25.69,45.86,46.33,-0.18,-1.94,-0.81,1721228822271
-8.67,19.55,35.93,0.99,0.53,0.17,1721228822281
-0.43,-1.53,-10.56,2.02,-0.27,0.90,1721228822291
3.62,-15.28,-9.78,-0.21,0.91,1.17,1721228822301
2.88,-36.32,-12.19,1.01,0.40,0.55,1721228822311
3.72,8.28,-13.98,-0.58,-0.58,0.23,1721228822321
-2.46,-13.51,4.48,-0.75,1.27,0.12,1721228822331
19.39,62.21,29.68,0.14,-0.30,-0.27,1721228822341
2.11,20.13,19.11,0.06,-0.69,0.02,1721228822351
-30.40,-78.45,22.28,-0.68,0.61,0.19,1721228822361
-11.26,-30.92,-14.31,0.53,0.77,-1.38,1721228822371
-4.42,39.43,-11.66,1.42,-0.62,0.50,1721228822381
-39.51,-73.94,-24.02,0.64,0.87,1.13,1721228822391
-0.09,-2.51,-25.56,-0.29,-0.38,1.08,1721228822401
16.69,22.66,44.90,-1.01,2.92,1.25,1721228822411
-3.21,45.64,66.58,-0.89,0.74,0.71,1721228822421
10.25,-28.30,41.44,-0.82,-0.10,-1.27,1721228822431
-1.22,-6.28,-10.43,2.18,-0.46,-0.76,1721228822441
2.20,-1.62,-2.45,1.08,-0.24,-0.39,1721228822451
0.51,-19.47,-30.94,-1.69,-0.19,0.01,1721228822461
5.50,-15.50,12.74,-3.34,1.22,-0.23,1721228822471
31.11,50.48,55.85,1.28,-1.44,-0.56,1721228822481
-2.09,-2.31,-3.08,2.17,-0.53,-0.42,1721228822491
51.60,78.45,0.20,-0.48,1.08,0.58,1721228822501
5.04,1.99,2.08,-0.52,0.61,0.65,1721228822511
-3.71,-78.45,1.71,-0.32,1.27,0.31,1721228822521
6.46,6.31,57.24,-1.42,-0.17,0.57,1721228822531
-34.22,21.54,18.52,1.25,-0.32,0.09,1721228822541
1.16,-40.07,-14.65,1.19,-0.13,-1.45,1721228822551
10.52,78.45,10.61,-0.43,0.50,-0.39,1721228822561
-37.53,24.27,22.85,-0.89,-0.45,1.10,1721228822571
-4.82,-2.73,9.95,0.01,0.41,-0.54,1721228822581
19.66,-28.71,1.26,2.38,-0.80,0.20,1721228822591
11.30,-16.96,-10.80,-2.03,-0.00,0.94,1721228822601
-0.49,20.18,30.16,0.60,0.09,1.80,1721228822611
11.57,15.14,8.75,1.24,-0.50,0.90,1721228822621
13.72,17.19,10.85,-1.20,0.37,-0.13,1721228822631
4.98,6.18,50.11,-1.12,-0.91,-1.22,1721228822641
5.00,-18.53,10.56,1.90,-0.81,-2.85,1721228822651
-12.07,2.53,-23.08,-0.98,-0.10,-1.11,1721228822661
-2.89,-38.05,25.17,-2.42,0.37,0.10,1721228822671
17.17,-11.09,48.46,0.51,-2.20,2.64,1721228822681
-13.27,-15.35,-24.10,1.70,2.78,1.78,1721228822691
21.84,35.68,-11.31,2.45,-2.17,1.81,1721228822701
-1.63,1.43,-28.03,-2.79,2.63,0.38,1721228822711
14.63,-7.68,21.52,0.51,-0.05,-0.83,1721228822721
6.94,-18.51,-1.80,0.55,-0.42,-1.76,1721228822731
3.71,0.61,-10.16,2.82,-1.40,-2.48,1721228822741
-28.57,-64.57,-32.91,-1.95,0.07,-0.62,1721228822751
-22.62,-28.62,53.91,-1.60,-0.58,0.02,1721228822761
71.70,78.45,71.78,-0.38,3.54,0.49,1721228822771
1.23,-17.58,-9.90,-0.34,2.27,1.63,1721228822781
25.50,-13.97,-2.02,0.82,-1.05,0.37,1721228822791
-1.00,-18.84,9.97,-2.42,1.73,-0.58,1721228822801
6.73,-15.91,-12.99,1.45,-0.92,-0.92,1721228822811
1.49,-0.41,11.99,-0.75,-2.43,-0.79,1721228822821
-17.77,65.92,54.79,-0.19,-1.85,-0.86,1721228822831
-10.34,-10.39,36.18,-0.15,1.63,-1.40,1721228822841
-26.08,-36.32,-7.04,0.45,-0.05,0.30,1721228822851
1.47,50.89,0.40,0.75,-0.86,0.47,1721228822861
-2.94,11.79,-0.76,-0.55,0.48,0.61,1721228822871
-0.69,-38.35,10.07,-0.50,0.94,-0.11,1721228822881
3.94,-12.02,16.24,-0.11,-0.19,-0.52,1721228822891
-9.97,33.88,2.38,2.59,-0.59,-0.23,1721228822901
-2.60,-33.30,-19.51,0.60,0.92,-0.90,1721228822911
-0.18,24.83,40.89,-1.78,0.86,-0.66,1721228822921
-1.01,31.36,60.49,1.66,0.60,-0.42,1721228822931
-13.05,-78.45,-35.10,0.95,1.65,-0.90,1721228822941
38.86,78.45,-27.14,2.01,-2.09,-0.16,1721228822951
-9.42,-6.64,-21.28,-1.58,0.74,1.41,1721228822961
-9.13,-43.37,-15.47,-4.37,1.27,-0.70,1721228822971
-33.27,70.14,53.81,0.02,-4.37,0.88,1721228822981
16.33,4.50,30.11,2.01,2.52,0.51,1721228822991
-24.93,-41.67,-38.04,2.39,0.37,0.39,1721228823001
12.55,-20.19,-29.48,1.60,-3.41,-0.86,1721228823011
8.14,-5.28,-7.68,-4.37,1.47,-0.72,1721228823021
-33.90,-12.32,37.26,0.99,-2.32,-0.20,1721228823031
33.29,65.49,-0.18,-1.53,3.38,-1.37,1721228823041
-3.17,1.29,-1.19,1.63,-1.89,1.19,1721228823051
-0.94,-2.26,19.89,-0.56,0.90,0.58,1721228823061
13.33,15.67,0.59,1.20,0.71,0.90,1721228823071
-0.38,-10.70,-22.67,0.61,-0.37,0.81,1721228823081
10.77,-11.26,-2.71,-2.54,1.72,-0.74,1721228823091
-33.05,0.68,56.90,-2.10,-1.38,-1.08,1721228823101
-15.29,-1.04,61.96,0.31,0.05,-0.83,1721228823111
-0.04,-0.83,-7.42,0.71,-0.50,0.50,1721228823121
-17.61,-11.05,-11.88,-1.40,0.85,2.03,1721228823131
11.16,-1.43,9.80,0.25,0.09,0.86,1721228823141
1.96,-5.85,-16.28,0.93,-0.58,0.41,1721228823151
-6.98,-19.13,45.24,-1.12,-0.05,-0.55,1721228823161
-0.14,34.66,23.88,-0.36,0.50,-0.94,1721228823176
-0.43,2.55,-4.06,0.23,0.25,-0.99,1721228823180
0.13,-7.86,-12.90,1.60,-0.25,0.42,1721228823190
-18.80,-72.29,-17.84,-2.40,0.23,0.68,1721228823200
2.14,-15.92,62.57,-0.79,0.08,0.50,1721228823210
35.41,78.45,78.45,-1.75,1.62,-0.92,1721228823220
5.23,-7.43,-1.80,3.32,0.76,-0.75,1721228823230
-1.44,-28.51,-32.63,2.38,-1.21,0.25,1721228823240
6.61,-24.79,-15.71,-1.92,0.01,0.13,1721228823250
0.56,39.40,3.83,-1.48,-0.32,0.22,1721228823260
6.15,-13.11,38.48,-1.49,0.33,-0.12,1721228823270
0.72,18.91,38.38,1.28,-1.68,-0.37,1721228823280
-3.81,78.45,50.84,0.26,0.03,-0.58,1721228823290
-2.62,11.83,6.29,1.41,-0.50,-1.10,1721228823300
-12.05,-78.45,1.31,2.99,0.85,-0.66,1721228823310
-14.37,-20.36,-75.59,2.72,-0.61,2.05,1721228823320
-5.48,-0.80,-40.38,-4.37,2.91,-0.13,1721228823330
31.41,-28.17,38.35,-1.77,3.36,-1.04,1721228823340
-40.03,67.17,35.90,0.86,-1.03,0.48,1721228823350
-0.98,-2.43,-9.96,0.30,0.19,-0.20,1721228823360
11.03,49.36,23.29,0.43,0.24,0.39,1721228823370
0.26,-2.86,-4.98,0.73,-0.30,0.39,1721228823380
-0.68,-42.37,-4.84,-1.16,0.79,-0.15,1721228823390
3.23,-44.58,29.61,-0.56,0.93,-0.74,1721228823400
39.06,78.45,8.42,-0.37,-0.24,-1.47,1721228823410
-2.72,-2.90,-2.09,0.72,0.34,-1.46,1721228823420
-3.90,23.03,-23.64,0.55,-0.59,-0.41,1721228823430
-2.21,-4.44,-9.80,-0.58,-0.09,0.73,1721228823440
-8.19,-59.04,50.32,-1.81,-0.14,0.38,1721228823450
12.72,-5.18,78.40,0.58,-0.98,0.94,1721228823460
-9.99,56.06,14.82,0.60,1.15,0.10,1721228823470
6.52,-78.45,-1.42,2.27,-0.77,-2.20,1721228823480
-23.56,3.42,-77.39,0.03,-0.87,-0.86,1721228823490
-0.75,7.94,-4.57,0.12,0.11,0.14,1721228823500
-15.61,-18.10,-15.84,-3.89,0.21,0.75,1721228823510
-51.14,78.45,78.45,-0.19,-2.58,0.41,1721228823520
-7.84,7.99,49.28,1.02,-0.32,0.42,1721228823530
-51.02,-78.45,-7.28,3.61,-0.71,0.87,1721228823540
-14.03,12.52,-69.89,0.47,-1.28,0.71,1721228823550
3.15,2.68,-24.45,-0.56,-0.25,0.38,1721228823560
-0.97,-4.43,-6.28,-2.47,0.22,0.37,1721228823570
-4.20,2.86,12.49,-0.71,0.96,-0.16,1721228823580
1.25,-1.07,-3.23,1.77,-0.45,-0.64,1721228823590
-4.77,-20.73,-12.38,0.25,-1.54,-1.08,1721228823600
-15.14,-13.44,41.44,-0.91,-0.06,-0.12,1721228823610
20.95,58.67,19.62,0.46,2.77,0.03,1721228823620
3.03,-8.35,-17.19,1.08,0.09,0.96,1721228823630
3.18,-5.29,-13.35,-0.06,-1.48,0.17,1721228823640
2.11,-12.14,2.64,-2.29,1.07,-0.36,1721228823650
31.68,41.28,-13.31,1.49,-0.19,-0.08,1721228823660
-9.31,12.38,-33.55,2.48,-0.29,0.31,1721228823670
-9.77,-55.08,-31.45,-2.98,-1.07,0.65,1721228823680
-40.93,-57.58,78.45,-0.34,-2.16,-1.21,1721228823690
-5.32,78.45,78.31,0.00,-1.07,-0.42,1721228823700
-5.46,-26.03,-24.26,4.37,1.28,3.22,1721228823710
29.98,-20.46,-32.84,1.47,-3.48,0.21,1721228823720
7.57,-9.83,-44.05,-0.84,-2.63,0.96,1721228823730
71.67,17.54,-6.44,-2.76,0.70,-1.21,1721228823740
-1.03,-13.30,32.32,-3.14,0.95,-0.36,1721228823750
