AccX,AccY,AccZ,GyrX,GyrY,GyrZ,Time
2.34,17.72,11.41,0.19,-0.55,-0.37,1721228198121
-2.21,13.33,0.25,0.16,-0.76,-0.05,1721228198126
-6.30,13.34,-14.00,-0.40,-0.68,0.49,1721228198136
-6.57,3.26,5.57,-0.53,0.64,0.83,1721228198146
10.32,-6.49,6.76,-0.40,0.52,0.77,1721228198156
7.16,0.41,1.85,-0.62,-0.30,0.20,1721228198166
1.09,-14.67,32.10,-0.83,-0.20,-1.01,1721228198176
-25.52,7.24,40.14,0.85,-1.90,-0.65,1721228198186
-16.19,-2.98,-22.80,0.28,-0.43,1.05,1721228198196
-6.22,1.24,16.93,-0.25,1.59,2.29,1721228198206
1.81,-1.11,27.90,0.21,0.69,1.90,1721228198216
20.03,-2.09,-1.72,0.05,-0.17,0.17,1721228198226
12.62,16.18,7.97,-0.01,-0.27,-0.78,1721228198236
5.62,-7.49,22.83,-0.56,-0.54,-0.76,1721228198246
-9.39,2.69,19.30,-0.10,-0.59,-0.43,1721228198256
-8.11,-3.44,1.37,0.06,-0.83,0.37,1721228198266
-7.42,-1.19,17.87,0.16,-0.22,0.76,1721228198276
1.39,10.19,-1.32,0.30,-0.71,0.75,1721228198286
6.07,-6.09,-5.32,-0.08,-0.33,0.26,1721228198296
3.72,-6.20,13.98,-0.06,0.43,0.11,1721228198306
-3.33,-5.84,31.43,0.03,0.77,0.27,1721228198316
3.59,-9.47,15.29,-0.14,-0.38,-0.07,1721228198326
-5.42,14.84,28.94,0.84,-0.48,-0.34,1721228198336
-1.01,12.87,-17.67,0.17,-0.63,-0.13,1721228198346
-9.73,3.74,15.90,-0.78,0.94,-0.06,1721228198356
-0.38,-8.88,41.21,-0.07,-0.73,0.27,1721228198366
-4.35,1.54,-8.81,0.35,-0.72,0.74,1721228198376
2.67,9.10,-9.26,-0.49,0.62,0.66,1721228198386
6.12,-2.90,-2.91,-0.74,-0.25,0.25,1721228198396
4.90,-19.91,26.63,-0.60,-0.04,0.21,1721228198406
-5.09,2.18,70.80,0.66,0.64,0.07,1721228198416
9.92,13.80,-10.73,0.99,-0.89,-0.04,1721228198426
15.56,1.30,-26.82,-0.44,0.36,-0.78,1721228198436
-15.38,3.59,14.35,-0.21,-1.37,-0.91,1721228198446
-4.71,-17.40,5.45,0.31,-0.11,-0.47,1721228198456
-17.48,1.07,34.02,0.21,0.04,0.20,1721228198466
-8.51,9.79,-3.48,0.49,-0.22,0.52,1721228198476
-1.67,-4.38,-9.71,-0.64,-0.19,0.15,1721228198486
-6.42,-5.49,36.14,0.18,-0.10,-0.24,1721228198496
-15.08,4.19,24.03,0.80,-0.54,0.30,1721228198506
0.57,-1.69,-17.96,-0.24,0.39,0.22,1721228198516
3.88,-4.76,4.52,-0.30,0.55,-0.17,1721228198526
13.17,0.71,4.06,-0.01,-0.31,-0.39,1721228198536
0.21,-11.96,22.36,-0.71,0.23,-0.49,1721228198546
-0.32,18.71,47.05,0.64,-0.45,-0.66,1721228198556
-4.65,-14.66,-4.86,0.33,-0.96,-0.64,1721228198566
-13.53,10.64,3.87,-0.08,0.15,-0.08,1721228198576
-6.96,4.69,-10.38,-0.12,0.07,0.43,1721228198586
-2.54,-3.60,5.05,-0.26,0.07,0.42,1721228198596
9.66,-9.14,15.35,-0.10,0.08,0.39,1721228198606
8.56,-7.08,31.32,0.25,0.38,-0.14,1721228198616
2.18,5.67,30.00,0.54,-0.54,-0.05,1721228198626
2.75,5.60,5.50,0.06,0.01,-0.47,1721228198636
-3.08,5.09,-0.11,0.17,-0.60,-0.74,1721228198646
-4.11,-4.69,-12.06,-0.10,-0.35,-0.28,1721228198656
-0.94,-3.04,17.33,-0.20,1.07,0.33,1721228198666
8.94,22.16,36.41,0.69,-0.55,-0.14,1721228198676
1.44,10.28,-3.15,0.32,-1.04,-0.41,1721228198686
0.01,-2.77,-10.87,-0.36,-0.13,-0.62,1721228198696
-5.98,-1.23,19.87,-0.37,-0.08,-0.39,1721228198706
-4.60,0.63,17.92,0.20,-0.38,-0.05,1721228198716
3.62,3.04,-3.55,0.08,-0.21,-0.08,1721228198726
1.51,3.52,4.16,-0.06,0.12,-0.23,1721228198736
-2.42,4.39,14.02,-0.09,-0.14,-0.43,1721228198746
-0.86,4.66,6.98,-0.13,-0.16,-0.35,1721228198756
-0.92,-8.87,10.65,-0.43,0.26,-0.50,1721228198766
-6.51,5.48,41.65,0.02,-0.11,-0.59,1721228198776
-8.48,-1.74,-0.10,0.36,-1.06,-0.10,1721228198786
-4.76,3.31,4.20,0.00,0.56,-0.01,1721228198796
2.43,11.12,16.77,0.23,-0.14,0.33,1721228198806
3.41,4.38,3.34,-0.09,-0.21,0.64,1721228198816
14.93,10.18,10.48,-0.28,0.37,0.13,1721228198826
13.04,-6.76,1.77,-0.49,-0.54,-0.81,1721228198836
5.29,1.33,8.15,-0.33,0.04,-1.57,1721228198846
-9.67,-10.25,-0.56,-0.18,-0.55,-1.34,1721228198856
-18.51,-16.08,1.36,-0.54,0.29,-0.60,1721228198866
-16.42,2.87,28.69,0.03,0.10,0.49,1721228198876
-3.22,-4.60,-1.20,0.14,-0.20,1.15,1721228198886
11.45,-7.75,11.29,-0.48,0.98,0.78,1721228198896
15.18,1.61,33.78,-0.19,-0.34,-0.31,1721228198906
7.73,5.15,7.18,0.31,-1.06,-1.02,1721228198916
0.87,-11.21,-10.34,-0.45,-0.43,-1.65,1721228198926
-25.65,-5.12,13.02,-0.43,-1.04,-1.20,1721228198936
-3.33,7.12,20.23,-0.21,0.33,-0.31,1721228198946
-7.48,5.96,4.69,-0.06,-0.10,0.59,1721228198956
0.99,-4.12,0.16,-0.26,0.36,0.50,1721228198966
1.72,-1.11,23.09,-0.37,0.29,-0.05,1721228198976
3.56,22.95,25.19,0.42,-0.28,-0.07,1721228198986
4.08,-4.64,-1.74,0.31,-0.61,0.10,1721228198996
6.97,-8.10,8.17,-0.30,0.53,-0.10,1721228199006
7.73,0.05,31.84,0.01,-0.40,-0.19,1721228199016
7.02,-4.52,3.97,0.46,-0.26,-0.35,1721228199026
2.45,3.56,4.48,0.42,0.34,-0.77,1721228199036
-3.02,-0.88,3.43,0.70,-0.41,-1.01,1721228199046
-7.61,-5.17,4.19,0.69,-0.19,-0.71,1721228199056
-9.72,-1.76,6.55,0.71,-0.00,-0.07,1721228199066
-5.82,9.94,15.65,0.49,0.26,0.48,1721228199076
1.63,2.79,19.58,-0.01,0.32,0.68,1721228199086
7.88,-4.54,12.23,-0.00,0.09,0.20,1721228199096
9.49,-9.09,-2.64,0.05,-0.16,-0.57,1721228199106
0.49,-9.13,4.31,-0.27,-0.06,-0.73,1721228199116
-3.66,10.13,22.52,0.06,0.08,-0.49,1721228199126
-4.18,-12.85,10.47,-0.01,-0.32,-0.25,1721228199136
-6.03,5.94,17.26,0.09,0.19,-0.11,1721228199146
-0.69,-3.42,3.00,0.01,-0.22,0.13,1721228199156
-1.10,-4.32,10.38,-0.32,0.65,0.04,1721228199166
2.93,7.72,18.39,0.40,-0.08,-0.02,1721228199176
2.47,-7.62,-10.42,0.31,-0.40,-0.18,1721228199186
1.61,-1.75,4.73,0.09,0.40,-0.30,1721228199196
-10.07,-0.66,15.74,0.32,0.17,-0.10,1721228199206
-3.50,6.73,19.78,0.01,0.03,-0.02,1721228199216
-0.58,12.80,20.77,0.18,0.08,0.18,1721228199226
3.11,-14.28,0.91,-0.42,-0.08,-0.04,1721228199236
-1.74,-0.54,22.74,-0.56,-0.01,-0.42,1721228199246
-1.19,14.37,19.77,0.55,-0.25,-0.13,1721228199256
4.02,-6.26,-14.71,0.17,-0.04,0.05,1721228199266
1.59,-18.97,-2.55,-0.42,0.62,-0.23,1721228199276
6.41,18.86,22.50,-0.18,-0.71,-0.76,1721228199286
-8.31,4.72,18.05,0.67,-0.74,0.18,1721228199296
0.96,-7.81,-3.33,-0.20,0.39,0.76,1721228199306
1.61,1.97,8.97,0.13,0.14,0.75,1721228199316
10.97,-5.79,18.90,-0.09,-0.01,0.09,1721228199326
4.15,12.35,23.98,0.13,0.29,-0.63,1721228199336
-3.56,4.05,4.38,0.48,-0.35,-0.74,1721228199346
-9.49,-10.80,4.53,-0.14,0.41,-0.39,1721228199356
-14.45,5.20,21.31,0.42,-0.11,0.34,1721228199366
-2.15,-3.55,-7.81,0.63,-0.16,1.23,1721228199376
9.86,5.60,3.50,0.24,0.67,1.11,1721228199386
16.19,18.42,10.95,0.36,-0.28,0.30,1721228199396
11.22,-3.33,-6.09,0.09,-0.32,-0.67,1721228199406
0.72,-3.52,0.65,-0.28,-0.14,-1.05,1721228199416
-8.17,-10.85,6.35,-0.43,-0.08,-0.65,1721228199426
-11.89,-11.75,14.87,-0.30,0.29,-0.09,1721228199436
-6.74,-0.52,27.24,-0.07,0.31,0.24,1721228199446
-1.41,-5.82,37.74,-0.38,0.42,-0.07,1721228199456
-3.61,2.66,23.59,-0.15,-0.34,0.25,1721228199466
6.49,-2.21,7.85,-0.43,0.41,0.04,1721228199476
4.87,10.88,2.22,-0.11,-0.26,0.30,1721228199486
15.46,1.87,-15.73,-0.03,0.32,-0.31,1721228199496
7.78,5.86,-9.54,-0.21,0.28,-1.06,1721228199506
-1.70,-1.04,-1.81,-0.68,0.15,-1.01,1721228199516
0.04,-35.23,38.69,-1.71,1.20,-1.53,1721228199526
-11.87,58.72,58.79,0.68,-0.57,-0.22,1721228199536
-8.90,-28.15,-30.80,0.50,-0.85,0.48,1721228199546
7.03,4.47,15.86,-1.79,3.12,0.32,1721228199556
5.58,36.23,21.41,-0.12,-0.89,0.39,1721228199566
11.95,-10.32,-4.85,0.76,-0.54,0.13,1721228199576
9.60,-1.50,4.60,-0.86,1.10,-0.95,1721228199586
6.89,30.85,18.82,0.21,-0.67,-1.57,1721228199596
-3.93,-12.34,-3.93,0.75,-1.74,-0.91,1721228199606
-18.72,-2.36,-7.81,0.16,1.15,-0.63,1721228199616
-15.97,-0.42,16.30,1.08,-0.34,0.53,1721228199626
5.20,-10.15,28.05,-0.24,1.10,0.77,1721228199636
0.72,13.50,20.77,0.21,0.08,0.67,1721228199646
6.50,-20.84,-12.78,-0.03,-0.57,0.23,1721228199656
4.49,7.77,10.75,-0.15,1.27,-0.30,1721228199666
-14.22,-29.89,21.38,0.29,-1.75,-0.26,1721228199676
0.35,3.07,12.38,0.60,1.58,-0.32,1721228199686
0.10,11.72,20.01,0.57,-0.34,0.05,1721228199696
-0.99,10.61,10.73,-0.25,0.59,0.10,1721228199706
1.23,-4.73,14.71,-0.22,-0.21,0.01,1721228199716
-6.57,-18.02,-6.88,-0.12,-0.54,0.04,1721228199726
-0.12,-16.40,-1.34,-0.26,0.54,0.15,1721228199736
0.39,-5.12,33.78,-0.14,1.46,0.12,1721228199746
2.78,29.44,28.81,0.85,-0.06,0.14,1721228199756
0.08,-12.74,-10.65,-0.28,-0.99,-0.10,1721228199766
-2.34,0.94,16.53,-0.45,0.99,-0.16,1721228199776
-3.61,-16.80,-8.65,0.76,-1.79,0.42,1721228199786
-0.53,-11.48,2.12,-0.16,1.04,0.43,1721228199796
-19.71,35.88,38.46,0.67,-0.14,0.06,1721228199806
-1.87,6.87,-9.68,0.28,-1.16,0.07,1721228199816
6.52,-19.16,-16.66,-0.81,0.31,-0.53,1721228199826
-13.13,-23.38,24.81,-1.00,-0.19,0.14,1721228199836
-14.71,-9.65,25.63,0.72,0.02,0.73,1721228199846
7.11,0.89,2.21,0.87,-1.07,0.87,1721228199856
8.98,15.34,7.49,0.30,0.88,0.59,1721228199866
13.94,31.47,14.34,-0.05,-0.32,0.17,1721228199876
5.93,-18.86,-0.66,-1.17,-0.46,-0.73,1721228199886
-1.70,-10.92,50.58,-0.45,0.11,-1.63,1721228199896
-21.01,12.59,7.94,1.14,-1.18,-0.49,1721228199906
-21.42,-20.40,-26.21,0.51,0.30,0.84,1721228199916
-8.08,14.66,39.59,0.03,1.83,1.96,1721228199926
15.39,39.20,14.94,0.30,0.30,1.76,1721228199936
21.48,-3.66,-19.92,-0.79,0.63,0.25,1721228199946
18.93,-28.36,-1.74,-0.89,-0.17,-1.06,1721228199956
7.59,-24.78,7.84,-0.19,-0.78,-2.06,1721228199966
-12.74,5.81,21.87,0.67,-1.40,-0.99,1721228199976
-17.26,-2.73,-7.92,-0.03,0.46,-0.09,1721228199986
14.54,7.34,25.83,-0.27,0.03,1.22,1721228199996
4.19,6.74,5.64,-0.05,-0.28,1.46,1721228200006
11.31,-24.98,-11.16,-0.34,-0.17,-0.00,1721228200016
-6.12,6.64,24.97,-0.17,-0.11,-0.71,1721228200026
-9.15,5.07,10.92,0.14,-0.23,-0.51,1721228200036
-3.99,-4.94,-4.20,-0.12,-0.09,0.30,1721228200046
-3.72,-20.40,3.18,0.06,-0.82,0.48,1721228200056
-1.36,17.61,36.36,0.28,-0.27,0.75,1721228200066
4.86,2.92,-2.83,0.08,-0.21,0.44,1721228200076
7.60,4.21,12.05,-0.12,1.02,-0.36,1721228200086
5.26,8.53,3.65,0.54,-0.69,-0.50,1721228200096
3.60,-8.23,9.64,0.05,0.42,-0.74,1721228200106
-9.44,8.42,39.07,0.37,-0.65,-0.27,1721228200116
2.89,-18.25,-0.62,0.03,0.23,-0.08,1721228200131
6.21,6.23,20.99,0.15,0.94,0.05,1721228200135
4.19,35.53,16.02,0.75,-0.34,0.31,1721228200145
10.50,-16.39,-25.26,0.10,0.55,-0.38,1721228200155
3.28,-23.72,-13.50,-0.09,0.15,-1.14,1721228200165
-9.52,-44.01,44.60,-0.77,-0.15,-1.36,1721228200175
-13.68,51.40,77.01,1.59,-1.23,-0.17,1721228200185
-5.31,-3.06,-16.60,1.03,-0.44,0.67,1721228200195
5.10,8.91,-11.63,-0.59,1.28,0.81,1721228200205
4.80,-1.41,-13.92,-0.09,-0.07,-0.05,1721228200215
10.76,-45.48,12.51,-0.73,1.11,-1.21,1721228200225
-34.18,-16.06,43.43,-0.04,-1.89,-1.06,1721228200235
-7.57,4.53,3.53,1.44,0.11,-0.37,1721228200245
-5.55,16.79,-14.35,-0.00,-0.04,0.84,1721228200255
0.32,-6.18,-7.35,-1.30,1.04,0.70,1721228200265
21.34,-7.69,31.72,-0.53,0.53,-0.89,1721228200275
-2.52,-10.02,43.65,0.73,-0.92,-1.25,1721228200285
-7.26,23.65,-14.06,1.32,-0.38,-0.36,1721228200295
-5.90,12.72,-15.47,0.06,0.63,0.67,1721228200305
2.18,9.21,-1.99,-0.27,0.30,0.76,1721228200315
9.37,-21.84,5.44,-1.07,0.58,0.04,1721228200325
18.84,10.89,25.64,0.06,0.15,-1.06,1721228200335
-2.06,1.61,17.25,0.36,-0.50,-0.62,1721228200345
-3.57,3.18,-6.66,-0.44,0.63,-0.76,1721228200355
-7.55,-1.04,2.77,-0.38,0.08,-0.17,1721228200365
-2.53,-5.83,-7.76,-0.37,0.18,0.03,1721228200375
-2.61,-10.89,-1.69,-0.60,0.24,-0.07,1721228200385
-14.48,12.69,50.63,-0.40,1.09,-0.36,1721228200395
-7.09,-4.32,24.78,0.23,-0.61,-0.28,1721228200405
-2.90,0.73,-16.90,-0.22,0.27,0.46,1721228200415
5.95,-19.23,-13.37,-1.16,0.54,1.07,1721228200425
13.83,-11.15,42.51,-0.42,1.01,0.09,1721228200435
21.25,-4.36,36.12,0.01,-0.58,-0.40,1721228200445
10.52,9.43,-5.60,-0.14,0.85,-1.27,1721228200455
-5.56,18.65,45.73,-0.49,0.21,-1.23,1721228200465
-5.96,-7.89,12.98,-0.40,-0.21,-0.79,1721228200475
-3.25,22.20,2.75,-0.38,1.05,-0.64,1721228200485
-11.40,-13.58,-15.09,-0.89,-1.08,-0.02,1721228200495
-2.37,-21.61,16.89,-0.63,1.89,-0.12,1721228200505
-10.82,6.06,25.06,-0.35,-0.50,0.57,1721228200515
3.77,-9.89,20.20,-0.04,1.12,-0.22,1721228200525
-10.49,22.73,13.43,0.65,-0.83,-0.33,1721228200535
-0.47,-17.77,-18.00,0.43,-0.09,0.30,1721228200545
3.78,-27.76,22.12,-0.38,2.31,0.52,1721228200555
-19.53,78.45,17.59,1.45,-1.43,0.57,1721228200565
0.84,-28.39,-25.26,0.26,-1.27,0.09,1721228200575
4.19,16.14,24.61,-0.76,2.14,-0.92,1721228200585
-4.23,-14.91,20.19,0.54,-2.23,-0.94,1721228200595
-6.79,-42.23,-2.29,-0.37,1.31,-1.16,1721228200605
-36.67,14.97,62.57,0.65,0.38,-0.20,1721228200615
-11.60,-16.71,-0.39,0.70,-0.02,0.77,1721228200625
3.20,12.51,30.31,-0.48,1.55,1.03,1721228200635
2.86,39.67,44.23,1.07,-0.67,1.23,1721228200645
16.36,-38.38,-15.54,0.10,-2.09,-0.15,1721228200655
8.87,19.41,-6.70,-0.29,1.28,-0.92,1721228200665
-11.76,47.73,2.23,-0.42,0.44,-0.59,1721228200675
5.76,7.19,-25.44,0.72,0.40,-0.74,1721228200685
0.54,-17.40,10.17,-0.94,0.21,-0.79,1721228200695
-20.16,7.39,44.94,-0.34,-0.02,-0.12,1721228200705
0.87,-7.48,5.73,0.78,-0.75,0.38,1721228200715
-4.26,38.36,9.00,0.69,0.42,0.70,1721228200725
4.43,14.27,-30.03,-0.35,-0.65,0.44,1721228200735
4.77,-56.32,-16.09,-1.95,0.96,-0.22,1721228200745
-29.47,-3.18,78.45,-0.83,2.25,-0.71,1721228200755
-2.42,-15.08,20.00,1.64,-0.19,-0.16,1721228200765
0.40,15.38,-38.97,0.93,-0.39,0.34,1721228200775
1.47,-15.95,-24.10,-2.02,0.74,0.67,1721228200785
-5.28,-8.28,47.55,-0.88,0.92,-0.32,1721228200795
-4.29,-3.22,45.99,1.74,-1.64,-0.40,1721228200805
-4.60,31.48,-40.66,0.49,-0.61,-0.40,1721228200815
-10.57,-14.77,-30.73,-1.16,0.36,0.50,1721228200825
-6.73,-23.44,2.75,-0.71,1.14,0.96,1721228200835
21.43,-39.13,28.67,-0.47,0.11,0.25,1721228200845
-6.12,26.20,36.90,0.79,-0.96,0.58,1721228200855
9.98,0.53,-32.17,0.83,-1.23,0.24,1721228200865
5.63,-22.46,25.24,-1.23,2.05,0.46,1721228200875
24.60,78.45,41.02,1.19,-0.75,1.03,1721228200885
15.57,-22.67,-48.39,0.47,-0.99,0.14,1721228200895
13.48,-29.63,-19.93,-1.54,0.83,-1.00,1721228200905
-3.87,10.11,1.62,-0.23,-0.85,-1.08,1721228200915
-0.68,-8.41,16.06,0.41,1.86,-0.50,1721228200925
-11.47,-11.46,1.94,-0.32,-0.63,0.37,1721228200935
-10.66,17.44,28.95,0.63,1.32,0.47,1721228200945
3.59,11.46,15.43,0.63,-0.59,1.36,1721228200955
12.34,17.51,10.26,-0.41,0.67,1.35,1721228200965
18.80,3.24,15.63,-0.36,0.30,0.56,1721228200975
17.70,-13.97,-6.28,-0.19,-0.64,-0.65,1721228200985
10.61,-7.34,-15.52,0.28,-0.35,-1.48,1721228200995
-3.93,-17.43,4.06,-0.24,0.01,-1.66,1721228201005
-9.92,13.86,41.08,0.66,-0.59,-1.25,1721228201015
-16.61,36.16,29.36,1.65,0.10,0.44,1721228201025
-3.93,-6.56,-18.35,-1.01,0.44,1.61,1721228201035
10.57,-5.44,39.74,-0.55,1.62,0.39,1721228201045
12.20,-4.48,13.81,0.59,-0.69,-0.60,1721228201055
6.12,10.35,-20.27,0.78,0.22,-0.56,1721228201065
1.46,12.54,-19.25,0.48,0.20,-0.16,1721228201075
5.30,-23.36,0.46,-1.19,0.71,-0.13,1721228201085
-20.61,-17.23,55.65,-0.55,0.73,-0.67,1721228201095
-3.39,-14.39,16.30,1.50,-0.94,-0.38,1721228201105
1.44,6.15,-25.21,0.90,0.44,-0.31,1721228201115
-3.95,10.44,-2.89,-0.52,0.57,-0.11,1721228201125
16.35,-14.78,25.09,-1.15,0.57,-0.80,1721228201135
-8.62,8.78,44.54,0.66,-0.71,-0.30,1721228201145
0.19,5.46,-32.43,0.23,0.19,0.78,1721228201155
17.48,-26.65,-8.58,-1.09,1.72,0.41,1721228201165
11.58,-10.80,17.69,-0.04,-0.73,-0.79,1721228201175
14.27,-5.63,16.46,1.15,-0.97,-1.04,1721228201185
-3.81,-4.58,-23.37,-0.15,-0.03,-0.93,1721228201195
-7.66,8.73,10.42,-0.20,0.91,-0.66,1721228201205
-3.82,27.19,51.61,-0.89,0.53,0.07,1721228201215
-5.75,0.05,11.32,-0.31,0.01,0.27,1721228201225
0.35,-8.99,9.76,-1.11,0.59,0.29,1721228201235
3.85,-19.64,25.22,-0.57,0.53,0.01,1721228201245
0.54,-9.10,8.53,0.24,-0.61,0.22,1721228201255
9.17,25.66,-2.31,0.75,0.93,-0.40,1721228201265
1.83,14.44,-12.08,0.29,-0.84,-0.63,1721228201275
1.22,-38.35,31.97,-1.27,1.28,-0.96,1721228201285
-16.11,27.67,67.37,-0.11,-0.62,-0.25,1721228201295
-10.08,10.86,-15.51,1.12,-1.03,0.23,1721228201305
-1.81,-27.53,-7.85,-0.81,0.30,0.42,1721228201315
-3.02,9.59,27.61,0.03,0.73,0.41,1721228201325
6.45,-14.09,1.88,1.72,-2.74,0.61,1721228201335
1.74,14.15,-16.79,0.79,0.41,-0.09,1721228201345
-0.33,26.38,6.27,0.80,0.41,-0.19,1721228201355
-3.78,12.01,-15.14,0.65,-1.04,0.46,1721228201365
4.83,-36.61,-8.19,-0.76,1.00,0.68,1721228201375
-9.36,-7.17,76.96,-0.93,1.80,-0.33,1721228201385
-7.20,46.50,44.50,1.80,-1.12,0.01,1721228201395
-4.81,-55.36,-32.68,-0.03,-0.34,0.10,1721228201405
-8.61,4.68,57.88,-0.99,2.20,1.09,1721228201415
-8.79,34.73,44.03,1.85,-1.63,1.50,1721228201425
5.82,-0.42,-47.82,0.68,-1.10,0.53,1721228201435
18.09,0.72,-18.46,-1.46,1.49,-0.37,1721228201445
5.32,-29.96,9.64,-1.13,-0.44,-0.60,1721228201455
9.17,-26.48,70.05,-0.29,1.12,-1.25,1721228201465
-19.75,39.00,51.48,2.17,-2.16,-0.28,1721228201475
-9.06,-26.50,-35.65,0.09,-0.11,-0.19,1721228201485
-6.63,38.82,35.95,-0.88,2.07,0.34,1721228201495
-5.64,29.15,18.13,-0.26,0.64,0.36,1721228201505
-2.70,-21.06,-7.43,-1.42,0.60,-0.21,1721228201515
-19.14,-11.66,33.13,-0.65,0.38,-0.38,1721228201525
-10.79,2.72,13.98,0.63,-0.47,0.40,1721228201535
2.15,5.66,-21.50,-0.21,0.02,1.26,1721228201545
14.98,-4.49,-2.11,-0.67,0.95,1.09,1721228201555
19.74,-1.21,19.39,-0.16,0.78,-0.66,1721228201565
8.55,18.43,35.73,0.19,-1.11,-0.88,1721228201575
5.13,21.91,-15.26,0.27,0.05,-1.46,1721228201585
-7.30,-13.42,-7.05,-0.29,-0.50,-1.25,1721228201595
-13.81,-46.82,14.89,-0.74,-0.01,-0.58,1721228201605
-16.46,28.52,45.91,0.34,0.28,0.46,1721228201615
-6.96,20.37,-6.79,1.05,-0.16,0.94,1721228201625
16.10,-0.50,-26.97,-0.11,-0.04,0.78,1721228201635
11.62,-21.85,7.51,-0.97,0.62,-0.29,1721228201645
14.95,10.58,32.53,0.79,-0.52,-0.70,1721228201655
0.18,-8.58,-15.48,0.83,-1.30,-0.62,1721228201665
-6.04,-29.24,-27.51,-1.94,0.98,-0.60,1721228201675
-26.20,-0.32,78.45,-1.21,1.14,-0.83,1721228201685
-12.20,19.79,78.41,1.42,-1.75,0.16,1721228201695
3.28,19.36,-55.92,1.07,-0.63,0.96,1721228201705
5.44,-35.60,-52.64,-0.92,1.11,0.17,1721228201715
5.57,-21.12,28.56,-1.17,2.42,-1.08,1721228201725
-15.98,10.88,53.63,0.12,-1.32,-0.45,1721228201735
-2.11,-14.95,-28.58,1.23,-2.25,0.25,1721228201745
4.87,-23.46,-32.54,-1.38,1.00,0.56,1721228201755
-5.90,5.45,66.48,-1.36,0.53,-0.15,1721228201765
-2.99,69.12,61.18,1.13,1.17,0.01,1721228201775
5.05,14.95,-42.05,0.51,-1.16,0.48,1721228201785
17.49,-26.47,-16.92,-1.72,1.74,-0.63,1721228201795
-0.42,-5.20,35.17,-0.74,-1.54,-1.39,1721228201805
-4.26,-24.38,-22.86,1.01,0.08,-0.26,1721228201815
3.61,-15.09,5.86,0.12,0.98,0.92,1721228201825
30.24,78.45,78.45,0.47,-0.73,1.59,1721228201835
4.84,31.93,-1.35,1.22,-0.43,0.48,1721228201845
23.33,6.79,-27.73,-0.17,-0.55,-0.74,1721228201855
-8.43,-49.63,14.70,-0.37,-0.39,-1.33,1721228201865
-28.22,0.45,28.14,0.11,-0.52,-0.23,1721228201875
-10.77,0.24,-4.94,1.19,-0.50,0.95,1721228201885
0.15,0.48,-4.80,0.35,0.33,1.19,1721228201895
8.03,20.07,33.29,0.09,0.83,0.41,1721228201905
4.80,42.19,11.18,0.90,-0.36,0.24,1721228201915
8.63,-21.64,-31.41,-0.65,0.42,-0.31,1721228201925
0.65,-24.82,4.24,-0.63,0.76,-0.62,1721228201935
6.56,12.18,-0.62,0.45,-0.43,-0.72,1721228201945
-13.93,-31.13,3.87,-1.51,0.50,0.23,1721228201955
-20.12,-3.69,59.81,-0.67,1.36,-0.20,1721228201965
-13.35,-9.88,31.18,1.96,-1.19,0.56,1721228201975
10.95,7.26,-17.43,-0.46,0.80,0.92,1721228201985
12.84,35.61,4.89,-0.11,0.81,0.35,1721228201995
21.45,-0.21,-13.33,-0.47,-1.02,-0.85,1721228202005
2.61,-63.46,-4.11,-1.19,0.65,-1.82,1721228202015
-49.56,2.50,78.45,-0.08,0.76,-1.70,1721228202025
-20.16,35.77,3.83,1.09,0.42,-0.38,1721228202035
-19.45,3.47,-45.72,0.23,-0.50,1.55,1721228202045
-2.91,-22.06,24.53,-1.38,1.45,1.58,1721228202055
-20.62,-34.73,52.21,-1.17,0.20,0.16,1721228202065
25.27,34.75,22.59,0.81,-0.33,-0.06,1721228202075
15.54,-6.02,-22.06,0.62,-1.49,-0.85,1721228202085
4.16,28.29,-7.17,-1.03,1.12,-2.09,1721228202095
-26.56,34.44,11.44,-0.14,-1.44,-1.37,1721228202105
-11.10,-18.55,-19.72,-0.37,0.62,-0.36,1721228202115
-9.59,-13.18,28.45,-0.81,1.47,0.32,1721228202125
6.18,-11.34,28.79,-0.08,0.43,1.50,1721228202140
9.75,8.66,-5.77,0.22,-0.32,1.00,1721228202144
12.07,-0.88,-1.77,-0.53,0.29,-0.36,1721228202154
4.27,-1.03,14.03,-0.20,-0.08,-1.31,1721228202164
-8.67,-1.62,10.08,0.10,-0.70,-0.76,1721228202174
-7.33,19.52,19.80,0.07,0.80,-0.07,1721228202184
-2.84,25.62,31.56,-0.16,-0.40,0.62,1721228202194
-3.32,-9.16,-13.03,-0.47,-0.45,0.78,1721228202204
8.21,-58.09,-11.47,-0.76,0.32,0.37,1721228202214
2.61,27.16,43.72,-0.14,1.40,0.00,1721228202224
9.90,-18.73,13.79,0.70,-3.57,-0.23,1721228202234
-1.23,-6.52,-6.69,0.25,0.95,-0.52,1721228202244
-29.16,31.39,49.10,-0.34,0.24,0.53,1721228202254
-3.10,5.04,-1.90,1.36,-0.17,0.56,1721228202264
3.85,3.17,-8.09,-0.09,-0.31,0.54,1721228202274
11.40,-3.89,12.80,-0.45,0.93,-0.10,1721228202284
7.98,-34.80,23.94,-0.13,-0.45,-0.77,1721228202294
-10.61,16.42,-1.59,0.49,-0.02,-0.63,1721228202304
0.22,-5.24,7.34,0.09,0.62,-0.53,1721228202314
-23.63,6.10,39.04,-0.09,-0.35,0.37,1721228202324
-0.30,21.15,2.26,0.80,-0.12,0.79,1721228202334
11.07,-44.00,-11.52,-1.04,0.05,0.26,1721228202344
4.17,-4.14,32.28,-0.37,1.06,-0.53,1721228202354
7.40,11.37,-4.45,1.81,-2.61,-0.65,1721228202364
-2.23,-2.42,-9.69,-0.12,0.78,-0.58,1721228202374
-16.82,27.95,51.51,-0.64,0.26,0.32,1721228202384
1.17,-17.54,4.00,0.60,-0.55,0.58,1721228202394
4.82,-7.43,-10.51,-0.20,0.41,0.17,1721228202404
6.29,22.31,31.69,0.21,1.03,-0.60,1721228202414
-3.65,12.82,6.55,1.03,-1.27,-0.52,1721228202424
-0.16,0.19,-17.06,-0.11,0.94,-0.31,1721228202434
0.21,-36.83,36.04,-0.80,0.52,-0.28,1721228202444
0.18,34.07,54.88,0.53,-0.33,0.28,1721228202454
8.35,6.36,-34.29,1.63,-1.19,0.37,1721228202464
4.45,19.64,-24.20,0.02,1.14,0.03,1721228202474
9.18,-9.32,7.46,-0.42,-0.02,-0.19,1721228202484
7.64,-46.98,36.43,-0.43,0.53,-0.70,1721228202494
-1.16,36.59,17.72,1.61,-0.44,-0.83,1721228202504
-2.47,7.19,-42.52,-0.49,-0.48,-0.61,1721228202514
-2.93,-15.72,17.43,-1.55,1.86,0.13,1721228202524
7.06,-40.01,45.39,1.02,-0.40,0.85,1721228202534
7.03,14.99,-16.97,0.84,-0.71,-0.32,1721228202544
11.37,22.40,10.56,-0.69,1.15,-1.33,1721228202554
-3.97,16.86,41.53,-0.10,-0.65,-0.98,1721228202564
-15.25,-5.57,-23.01,-0.64,-0.84,-0.44,1721228202574
-11.95,-49.81,-5.29,-1.00,1.24,-0.03,1721228202584
-19.73,13.31,50.10,0.10,-0.52,0.70,1721228202594
-1.69,-17.84,11.68,0.71,0.32,1.17,1721228202604
14.03,-15.11,-8.02,-0.27,0.23,1.14,1721228202614
9.63,4.77,22.56,0.11,1.25,-0.04,1721228202624
10.88,48.35,41.42,0.94,-0.53,-0.52,1721228202634
-0.21,34.34,-7.52,0.39,-0.97,-0.60,1721228202644
-0.14,-13.31,-18.36,-1.39,-0.01,-0.85,1721228202654
-13.62,-65.48,16.37,-1.53,-0.09,-0.43,1721228202664
-24.64,9.45,29.49,0.86,0.33,0.38,1721228202674
-5.30,-25.25,-18.60,0.38,-0.85,0.76,1721228202684
1.99,5.60,10.13,-0.70,1.46,0.38,1721228202694
0.09,26.46,32.80,0.68,-0.31,0.30,1721228202704
7.74,19.16,-11.44,0.44,-0.14,0.34,1721228202714
12.16,-7.88,42.01,-1.09,1.17,-0.76,1721228202724
-5.76,19.75,40.86,-0.20,-1.25,-0.27,1721228202734
2.52,-29.53,-39.69,0.11,-0.06,-0.29,1721228202744
-3.66,1.72,22.98,-0.41,1.56,0.03,1721228202754
-18.51,18.73,73.60,1.21,-1.86,1.42,1721228202764
-0.13,11.70,-33.27,1.23,-0.16,0.83,1721228202774
12.13,-37.59,3.43,-1.31,1.25,0.02,1721228202784
-15.44,-9.44,29.19,-1.01,-0.19,-0.30,1721228202794
-5.64,-16.04,-2.64,0.76,-0.07,-0.19,1721228202804
-7.15,4.09,2.36,0.14,0.10,0.20,1721228202814
-1.87,-5.77,10.66,0.17,0.12,0.70,1721228202824
8.27,9.34,19.33,0.83,0.74,0.35,1721228202834
5.23,36.95,3.33,1.25,-0.48,0.43,1721228202844
11.08,-3.69,-27.83,0.16,-0.03,-0.03,1721228202854
4.93,-22.95,-19.28,-0.40,0.19,-0.56,1721228202864
-2.00,-19.84,35.87,-0.53,0.57,-0.99,1721228202874
-22.78,18.65,68.00,-0.17,0.80,-0.82,1721228202884
-14.90,16.39,-16.54,1.25,-1.04,-0.03,1721228202894
-1.42,-34.02,-9.98,-1.36,0.88,0.68,1721228202904
-13.72,23.95,55.89,-0.44,0.68,0.81,1721228202914
4.90,-20.24,-5.60,0.53,-0.71,0.48,1721228202924
12.36,-29.94,-41.14,-0.42,-0.35,-0.59,1721228202934
-6.12,29.02,53.76,-0.64,1.68,-0.76,1721228202944
-7.27,22.93,56.27,0.13,-0.46,-0.36,1721228202954
-1.31,-26.15,-42.76,0.11,-0.41,0.06,1721228202964
1.77,-8.23,33.88,-0.94,2.11,0.00,1721228202974
0.65,-10.53,60.34,0.93,-1.98,1.30,1721228202984
-3.47,-8.26,-35.14,0.62,-1.19,-0.01,1721228202994
14.29,-12.72,-15.60,-0.95,1.25,-0.32,1721228203004
-12.22,26.29,50.84,-0.39,-0.26,-0.42,1721228203014
-5.98,-11.81,46.61,-0.07,0.92,-0.04,1721228203024
3.40,-25.80,-22.84,-0.15,-0.88,0.07,1721228203034
1.28,2.55,27.05,-0.57,1.89,0.05,1721228203044
-2.64,10.78,48.45,0.87,-1.28,0.76,1721228203054
-1.16,9.52,-34.14,1.24,-1.38,0.34,1721228203064
9.02,-18.78,-28.98,-0.02,0.89,0.11,1721228203074
4.17,-15.34,-0.51,-0.84,0.65,-0.36,1721228203084
-11.40,-6.73,34.38,-0.10,-1.40,-0.70,1721228203094
-3.88,21.73,43.83,1.41,-0.35,0.37,1721228203104
2.72,-8.85,-34.38,-0.22,-0.50,0.66,1721228203114
7.81,2.08,14.52,-0.79,1.79,-0.21,1721228203124
5.93,34.68,72.94,0.72,-1.80,0.38,1721228203134
-8.15,-2.96,-27.03,0.64,-0.59,0.01,1721228203144
4.14,-45.45,9.69,-0.93,1.55,0.17,1721228203154
-28.50,7.71,39.05,0.62,-1.59,0.07,1721228203164
-6.71,-21.14,-5.66,0.52,-0.66,0.50,1721228203174
0.29,26.25,17.78,-0.41,1.31,0.46,1721228203184
-0.18,15.36,20.80,0.56,-0.57,0.98,1721228203194
16.36,-13.46,-28.28,-0.15,0.40,0.31,1721228203204
11.40,-23.43,10.54,-0.36,1.01,-0.70,1721228203214
-26.63,-26.96,44.58,0.54,-1.67,-1.32,1721228203224
-5.09,43.90,14.31,1.14,0.03,0.15,1721228203234
1.07,-11.39,-38.41,-0.18,0.78,0.59,1721228203244
-1.02,-18.68,-7.09,-2.04,1.24,0.03,1721228203254
2.58,-8.28,62.27,-0.43,0.14,-0.90,1721228203264
-8.54,-6.18,28.36,1.09,-0.77,-0.07,1721228203274
-3.15,1.06,-20.64,0.11,0.35,0.10,1721228203284
-11.94,30.35,27.29,0.23,0.95,0.29,1721228203294
9.33,-4.86,-0.44,-0.37,-0.41,1.34,1721228203304
15.70,-19.21,-20.38,-0.19,0.80,0.71,1721228203314
12.62,-17.67,15.95,-0.90,0.76,-0.51,1721228203324
-15.58,-0.15,26.98,0.09,-0.35,-2.00,1721228203334
-13.36,17.16,13.61,1.56,-0.74,-1.90,1721228203344
-15.79,10.25,-25.72,0.33,-0.37,-0.02,1721228203354
-8.72,-3.05,13.83,-1.00,1.45,1.06,1721228203364
5.82,3.78,40.80,-0.90,-0.02,1.25,1721228203374
17.73,-0.58,43.10,-0.18,1.16,0.07,1721228203384
3.80,7.67,12.32,0.11,-1.35,-0.79,1721228203394
4.30,2.49,-23.21,-0.08,-0.23,-1.18,1721228203404
-6.00,-10.70,-6.98,-0.25,0.45,-0.81,1721228203414
-9.66,-20.70,9.43,0.01,-0.54,0.03,1721228203424
-14.57,23.09,28.38,0.05,-0.00,0.21,1721228203434
-2.43,10.48,19.89,0.49,-0.67,0.34,1721228203444
1.16,-4.20,-0.98,-0.65,0.52,0.46,1721228203454
6.66,15.58,35.25,-0.50,1.28,-0.03,1721228203464
-2.06,-15.38,5.09,0.15,-1.55,-0.25,1721228203474
-2.54,-16.64,-19.88,0.38,0.58,-0.41,1721228203484
-1.74,-7.21,30.12,-0.07,0.82,-0.08,1721228203494
-0.37,41.29,44.13,0.81,-0.82,0.08,1721228203504
-1.31,9.49,-6.58,1.08,-0.70,0.32,1721228203514
5.67,-9.00,3.33,-0.33,1.07,-0.21,1721228203524
-7.36,6.88,16.64,-0.43,0.22,-0.29,1721228203534
3.14,-15.91,7.97,0.70,-0.05,-0.59,1721228203544
-8.98,-0.16,-16.04,0.61,-0.63,-0.17,1721228203554
-6.81,-2.14,-16.81,0.76,0.28,0.17,1721228203564
-5.24,8.60,4.70,0.44,0.23,0.51,1721228203574
-7.95,16.63,15.49,-0.23,0.11,0.22,1721228203584
2.18,-11.33,30.14,-0.62,-0.13,0.29,1721228203594
4.56,-0.58,30.55,0.28,0.61,-0.28,1721228203604
-0.67,3.37,-5.66,0.38,-1.15,-0.05,1721228203614
3.03,15.38,-22.36,0.23,0.52,0.22,1721228203624
4.00,-7.60,2.20,-0.85,-0.05,0.26,1721228203634
-6.58,-19.93,45.67,-0.88,-0.14,-0.49,1721228203644
-1.60,5.93,5.54,0.93,-0.82,-0.36,1721228203654
-3.45,9.85,-34.12,-0.46,-0.36,-0.36,1721228203664
-7.69,0.42,16.62,-1.34,1.37,0.26,1721228203674
-17.87,-20.29,38.11,-0.20,0.13,0.32,1721228203684
2.19,-32.61,10.39,-0.27,-0.83,-0.08,1721228203694
-8.48,19.26,35.74,-0.51,0.52,0.34,1721228203704
11.00,32.88,21.91,0.71,-0.11,0.44,1721228203714
2.26,14.09,-29.22,-0.12,-1.10,0.03,1721228203724
7.77,-36.11,-15.56,-1.10,0.76,-0.69,1721228203734
-11.47,12.22,47.84,-0.53,0.67,-0.75,1721228203744
-6.03,10.87,37.54,0.02,-1.58,-0.12,1721228203754
-4.56,-2.06,14.95,-0.29,-0.18,0.92,1721228203764
1.29,5.21,30.15,-0.06,-0.09,1.36,1721228203774
14.30,34.28,4.71,1.37,0.36,0.51,1721228203784
6.51,9.53,-17.91,0.92,-0.86,-0.61,1721228203794
1.95,-18.75,-17.82,-0.12,-0.15,-1.34,1721228203804
-17.37,-2.22,33.61,-0.62,0.24,-0.89,1721228203814
-29.33,1.57,45.42,0.16,0.51,0.07,1721228203824
-12.37,-5.56,-21.56,0.21,-0.61,1.88,1721228203834
12.34,-8.33,0.67,-0.47,1.83,1.81,1721228203844
19.41,-5.99,30.73,-1.05,0.99,1.08,1721228203854
13.16,-9.73,4.67,0.71,-0.91,-0.67,1721228203864
9.78,-27.43,-5.65,-0.65,-0.19,-2.06,1721228203874
-3.71,32.61,33.89,-0.12,-2.06,-1.71,1721228203884
-13.06,16.28,-4.95,0.76,-0.45,-0.08,1721228203894
-10.11,-58.92,-37.12,-1.30,0.06,0.68,1721228203904
-4.74,4.00,62.68,-0.39,2.39,0.47,1721228203914
-1.89,31.20,37.75,1.35,-1.78,1.73,1721228203924
12.88,5.77,-48.48,0.93,-0.50,0.99,1721228203934
18.27,-5.57,9.89,-1.10,2.24,-0.25,1721228203944
13.41,57.04,43.63,-0.48,-1.79,-0.19,1721228203954
-0.81,-12.09,-4.10,0.65,-1.07,-0.74,1721228203964
-2.96,-1.02,-26.83,0.22,0.15,-0.06,1721228203974
-0.79,-30.24,-5.88,-0.52,0.45,0.22,1721228203984
-41.98,-6.56,45.13,0.37,-0.12,0.02,1721228203994
3.72,21.92,28.05,1.34,-0.89,0.62,1721228204004
9.15,-45.02,-39.52,-0.36,-0.52,0.14,1721228204014
6.12,10.33,38.60,-1.15,1.98,-0.67,1721228204024
36.63,78.45,20.77,1.45,-2.02,0.29,1721228204034
9.50,21.34,-44.71,1.12,-0.43,0.20,1721228204044
8.91,-8.11,-21.77,-1.20,1.12,-0.24,1721228204054
0.74,-60.25,38.72,-0.68,-0.75,-0.85,1721228204064
17.69,62.11,78.45,0.44,-1.51,-0.95,1721228204074
-21.27,-10.07,-9.72,1.61,-1.76,0.23,1721228204084
-8.44,10.29,-7.01,-0.61,1.85,1.65,1721228204094
7.42,23.03,22.95,0.10,0.65,1.45,1721228204104
17.14,-7.07,-2.77,0.08,-0.06,-0.29,1721228204114
11.14,-15.16,26.61,-0.28,0.08,-1.27,1721228204124
-6.70,13.07,29.56,0.00,-0.44,-0.61,1721228204134
-3.68,1.59,-19.78,0.70,0.45,-0.06,1721228204149
-7.56,1.19,-8.88,0.10,0.54,0.06,1721228204153
-2.85,22.06,21.61,0.40,-0.38,0.12,1721228204163
0.02,5.46,19.06,0.50,-0.44,0.35,1721228204173
2.11,-26.85,-19.86,0.42,-0.01,0.44,1721228204183
5.58,1.67,4.55,-0.27,1.06,0.47,1721228204193
-18.68,14.27,68.82,0.25,-0.29,0.57,1721228204203
5.83,13.89,-11.33,0.80,-1.21,0.13,1721228204213
9.39,-44.41,-45.45,-0.33,0.07,-0.51,1721228204223
1.11,-18.94,11.02,-1.84,1.64,-0.59,1721228204233
-30.85,-16.03,51.51,-0.17,-0.89,-0.79,1721228204243
-13.44,-29.98,13.93,1.68,-1.00,0.16,1721228204253
2.67,7.53,-36.49,0.79,0.33,0.48,1721228204263
-1.57,12.27,19.15,-0.67,1.15,-0.04,1721228204273
19.41,14.51,22.06,-0.21,-0.26,0.19,1721228204283
2.30,-20.03,-10.41,-1.02,0.03,-0.04,1721228204293
-6.88,-6.15,40.36,-0.83,0.47,-0.03,1721228204303
3.68,-6.78,1.58,0.92,-0.29,0.39,1721228204313
8.87,-4.26,-23.51,-0.84,0.24,-0.18,1721228204323
-1.50,21.89,49.58,-0.60,0.80,-1.43,1721228204333
-3.75,-7.94,25.78,0.33,-1.34,-0.86,1721228204343
-11.13,-21.00,-11.00,-0.30,0.55,-0.02,1721228204353
-13.18,8.91,26.32,-0.10,0.48,1.02,1721228204363
8.66,15.64,21.43,0.63,0.08,1.42,1721228204373
9.76,4.98,-24.87,0.80,-0.65,0.91,1721228204383
12.66,-29.02,-23.51,-0.24,0.36,-0.07,1721228204393
11.68,5.53,39.87,-0.63,1.53,-1.21,1721228204403
-19.80,78.45,57.23,0.59,-1.49,-1.13,1721228204413
-13.03,-2.35,-20.96,-0.04,-1.70,-0.68,1721228204423
-6.71,-48.88,-19.53,-2.21,0.97,-0.17,1721228204433
-14.55,0.84,76.20,-0.57,1.66,0.27,1721228204443
-4.93,0.30,19.52,0.87,-1.11,1.12,1721228204453
9.22,-16.58,-33.79,1.02,-0.45,0.84,1721228204463
5.26,-2.17,37.00,-0.79,1.88,-0.09,1721228204473
16.32,-9.71,48.25,0.56,-3.41,-0.29,1721228204483
-4.85,5.18,-7.42,0.26,-0.42,-0.60,1721228204493
-3.51,-4.01,6.41,-0.10,0.18,-0.11,1721228204503
-7.78,-3.08,-1.03,0.36,-0.18,0.64,1721228204513
9.09,-25.23,8.22,0.20,0.88,0.31,1721228204523
13.17,2.76,29.14,0.14,1.17,-0.01,1721228204533
6.29,40.51,29.74,0.99,-0.12,-0.53,1721228204543
-5.92,9.20,-19.64,0.26,-1.40,-0.47,1721228204553
-6.25,-13.96,-26.67,-0.34,0.29,-0.08,1721228204563
-6.13,-31.23,-1.60,-1.38,0.60,0.60,1721228204573
-1.81,9.52,55.83,0.91,1.03,0.27,1721228204583
1.16,-29.61,14.88,-0.12,-0.76,-0.69,1721228204593
-11.50,19.12,23.45,0.16,0.10,-0.88,1721228204603
-2.18,6.85,13.53,1.11,-0.94,0.93,1721228204613
-1.21,25.80,-31.66,0.42,0.39,1.26,1721228204623
15.00,29.98,-39.38,-0.43,-0.03,0.65,1721228204633
24.37,-78.45,41.62,-3.14,1.95,-0.89,1721228204643
-5.99,27.95,78.45,0.90,-1.41,-1.34,1721228204653
-11.72,5.36,-25.33,2.14,-1.75,-1.90,1721228204663
-14.89,-40.74,-64.07,-0.97,1.26,-1.72,1721228204673
-24.27,37.62,62.27,-0.36,1.96,0.91,1721228204683
-8.09,13.94,4.38,1.18,0.93,1.66,1721228204693
13.41,-3.47,-12.38,-0.67,0.27,0.93,1721228204703
-5.90,38.74,67.66,-1.01,1.21,-0.05,1721228204713
2.53,-50.70,26.04,-0.18,0.01,-0.70,1721228204723
-6.20,12.25,-4.75,-0.48,-0.10,-1.08,1721228204733
-0.47,-9.85,-0.58,-0.02,-0.21,-0.78,1721228204743
-12.77,2.21,-6.39,0.73,-0.12,0.31,1721228204753
2.32,-1.58,10.88,0.15,0.63,1.01,1721228204763
-3.19,19.07,47.13,-0.46,0.54,0.97,1721228204773
12.30,9.56,29.34,0.41,0.13,-0.30,1721228204783
-2.11,14.06,-10.07,-0.02,-1.41,-0.63,1721228204793
3.40,-16.86,-4.48,-0.69,0.87,-0.73,1721228204803
-7.85,-10.08,15.73,0.03,-0.86,0.11,1721228204813
0.69,-6.33,-12.49,1.02,0.05,0.62,1721228204823
5.22,5.20,-14.65,0.27,0.25,0.53,1721228204833
-4.51,-13.73,-4.89,-0.33,-0.13,0.08,1721228204843
1.95,23.71,64.51,0.42,0.10,-0.41,1721228204853
-3.17,23.25,23.24,0.62,-0.97,-0.35,1721228204863
7.46,-11.15,-43.92,-0.76,-0.56,-0.04,1721228204873
0.32,-41.63,33.73,-1.13,1.61,0.22,1721228204883
16.97,25.68,67.78,1.94,-2.62,0.41,1721228204893
-1.49,2.75,-49.71,1.78,-1.21,0.24,1721228204903
4.03,-21.56,-39.01,-0.39,0.80,0.19,1721228204913
-2.34,3.11,14.29,-0.42,0.93,0.00,1721228204923
3.65,25.40,78.45,-0.36,1.49,-0.15,1721228204933
2.54,23.89,32.15,0.03,-1.25,1.04,1721228204943
16.58,-59.28,5.49,-1.49,1.45,0.19,1721228204953
8.16,4.53,33.32,0.10,0.01,-1.45,1721228204963
-12.62,27.23,-8.79,1.19,-1.25,-0.94,1721228204973
-4.80,-39.61,-46.52,0.51,0.02,-0.76,1721228204983
-6.72,-26.53,31.15,-0.48,1.84,0.14,1721228204993
6.50,64.46,53.26,0.57,-3.16,0.80,1721228205003
0.25,26.65,-4.47,0.32,1.01,1.51,1721228205013
29.93,-78.45,-29.04,-0.49,-0.46,0.72,1721228205023
8.23,-7.09,34.65,-0.28,2.42,-0.96,1721228205033
8.43,57.50,58.35,1.63,-1.67,-0.79,1721228205043
0.19,-16.66,-50.35,0.80,-0.78,-0.64,1721228205053
5.34,-28.69,-23.28,-1.66,1.29,-0.64,1721228205063
-21.25,26.65,25.13,-0.55,-0.46,-0.56,1721228205073
-9.62,-6.96,38.43,1.03,0.59,-0.38,1721228205083
-14.40,41.55,50.87,0.56,-0.02,0.32,1721228205093
-1.92,32.85,29.60,0.51,0.43,1.79,1721228205103
19.53,-26.42,-20.81,-0.68,0.46,1.65,1721228205113
22.80,-22.09,-42.80,0.41,-0.27,-0.60,1721228205123
7.30,17.22,-15.02,0.18,0.45,-1.86,1721228205133
-7.30,-18.11,-3.82,-0.96,-0.87,-1.28,1721228205143
-17.76,-7.63,46.95,-0.36,1.33,-0.94,1721228205153
-25.48,39.23,78.45,1.01,0.05,-0.66,1721228205163
-11.70,15.71,-4.22,0.38,0.03,2.06,1721228205173
19.96,1.78,-38.03,0.25,0.63,2.44,1721228205183
22.57,-10.82,-19.43,-0.50,1.00,0.68,1721228205193
23.54,-18.42,-23.92,-0.59,-0.80,-1.06,1721228205203
4.13,-27.33,40.04,0.26,0.98,-2.81,1721228205213
-27.53,27.69,51.27,1.50,-2.68,-1.40,1721228205223
-25.41,-24.50,-6.39,0.38,0.02,-0.24,1721228205233
0.69,33.34,67.26,-0.67,0.23,1.55,1721228205243
6.12,39.49,-11.06,0.65,-0.50,2.44,1721228205253
27.36,-51.21,-55.17,-0.95,0.46,0.95,1721228205263
36.05,-42.63,61.36,-2.66,4.37,-0.95,1721228205273
2.56,43.95,77.28,1.70,-2.75,-2.39,1721228205283
-9.22,6.45,-31.71,3.50,-4.37,-2.09,1721228205293
-22.88,-9.11,-73.15,-0.33,0.81,-0.86,1721228205303
-32.15,-29.36,49.43,-2.09,4.37,1.59,1721228205313
-1.12,18.94,78.45,0.71,1.78,1.22,1721228205323
-2.52,20.26,-22.48,0.58,-1.12,1.49,1721228205333
17.24,-14.35,2.57,-1.69,1.36,-0.17,1721228205343
10.50,-6.91,41.99,-0.62,0.62,-0.86,1721228205353
5.02,8.11,-16.87,1.19,-1.37,-1.12,1721228205363
-3.36,-19.26,-41.35,-0.50,-0.58,-1.58,1721228205373
-17.77,-7.84,33.19,-0.47,1.71,-1.12,1721228205383
4.61,36.77,78.45,-0.87,0.41,0.59,1721228205393
-0.50,16.61,4.20,0.19,0.40,1.30,1721228205403
17.99,16.23,6.55,0.30,0.33,0.31,1721228205413
3.69,6.43,-25.53,-0.54,-0.28,-0.14,1721228205423
4.79,-20.03,-10.45,0.04,0.49,-0.51,1721228205433
-7.33,-28.07,10.18,-0.21,0.39,-0.24,1721228205443
-1.59,29.33,33.04,-0.43,1.32,0.31,1721228205453
3.71,22.50,-11.93,0.86,-1.19,0.04,1721228205463
2.22,-29.48,14.97,-1.53,1.24,-0.78,1721228205473
-12.98,0.94,54.36,-0.38,-1.19,-0.44,1721228205483
-0.65,14.10,-13.01,1.37,-0.36,0.23,1721228205493
0.24,1.53,-38.62,0.05,0.13,-0.08,1721228205503
1.00,-19.54,3.75,-1.36,0.79,-0.23,1721228205513
-8.44,-8.23,45.32,-1.02,0.58,0.30,1721228205523
3.66,7.09,4.67,1.58,-0.62,0.27,1721228205533
12.05,-2.52,26.74,-0.77,1.15,-0.48,1721228205543
-8.14,39.60,59.64,0.42,-1.08,-1.30,1721228205553
-12.54,-10.60,-28.52,0.71,-1.95,-0.96,1721228205563
-15.44,1.17,-32.51,-0.75,1.06,0.82,1721228205573
-5.86,-7.44,22.40,-0.86,0.68,1.66,1721228205583
11.90,-1.54,47.55,0.40,0.92,1.64,1721228205593
21.89,10.18,0.38,0.56,-0.65,0.24,1721228205603
11.00,-6.78,4.16,-0.95,0.13,-1.07,1721228205613
-5.01,14.71,20.44,0.29,-0.34,-1.58,1721228205623
-10.44,1.63,-15.81,0.60,-1.10,-0.78,1721228205633
-17.35,-10.36,9.35,-0.49,1.17,0.52,1721228205643
0.13,9.61,55.80,-0.36,0.62,2.12,1721228205653
16.27,-8.66,6.70,0.27,0.12,1.19,1721228205663
15.90,14.81,7.13,-0.57,0.34,-0.51,1721228205673
2.98,13.07,12.06,0.24,-0.60,-1.28,1721228205683
-9.12,-10.98,-16.69,0.25,-0.77,-0.41,1721228205693
-3.05,-3.75,-5.32,-0.06,1.23,0.15,1721228205703
-21.56,-36.46,-4.68,-1.42,-0.92,0.44,1721228205713
-10.76,9.89,78.45,0.27,1.27,-0.16,1721228205723
-2.45,-8.80,35.52,0.41,-1.55,1.34,1721228205733
17.16,60.21,-29.93,0.95,0.60,1.77,1721228205743
20.77,12.41,-34.79,0.40,0.28,0.46,1721228205753
19.12,-33.32,-17.34,-1.63,0.01,-1.33,1721228205763
-10.65,-3.65,78.45,-1.04,-0.16,-2.91,1721228205773
-19.79,20.84,56.94,1.75,-2.28,-1.03,1721228205783
-20.01,-9.14,-75.02,1.80,-0.07,0.81,1721228205793
-1.48,-5.36,-29.58,-3.43,0.64,2.03,1721228205803
-6.97,-73.83,52.50,-0.28,-0.18,2.41,1721228205813
14.73,44.04,-27.89,3.24,-1.80,1.00,1721228205823
16.38,-6.45,0.06,-0.05,-2.15,-0.51,1721228205833
6.39,37.88,-13.50,-0.73,1.41,-1.01,1721228205843
5.22,-6.70,-22.48,0.36,-1.10,-1.05,1721228205853
-10.10,-27.83,-22.21,-0.80,0.19,-0.78,1721228205863
-15.36,-20.55,50.13,-1.09,0.81,-0.72,1721228205873
-30.38,46.21,78.45,1.08,-0.11,0.12,1721228205883
-11.22,-6.29,-30.76,1.38,-0.68,1.14,1721228205893
16.56,38.07,-34.68,-0.62,1.64,0.98,1721228205903
10.20,-2.53,-12.41,0.71,0.03,-0.17,1721228205913
13.32,-23.17,24.53,-0.01,-0.02,-1.34,1721228205923
-4.33,35.41,78.45,0.49,-1.42,-0.35,1721228205933
4.39,24.51,-17.77,0.82,-0.36,0.48,1721228205943
16.57,-78.45,-77.32,-1.81,0.93,0.11,1721228205953
-9.16,-68.80,35.13,-0.29,2.49,-0.86,1721228205963
-1.79,31.06,61.50,1.80,-1.06,0.35,1721228205973
8.25,-52.57,-12.70,0.76,-1.09,0.63,1721228205983
6.11,13.78,23.55,-0.44,4.04,-0.39,1721228205993
-0.15,77.83,66.23,1.23,-1.59,0.11,1721228206003
-9.17,-47.98,-43.13,-0.48,-0.59,0.16,1721228206013
5.12,-57.28,3.03,-1.71,1.40,0.43,1721228206023
-2.37,67.72,39.24,0.83,0.60,0.46,1721228206033
10.62,-9.59,-2.20,0.50,-1.69,-0.14,1721228206043
9.44,-12.47,-6.10,-0.70,0.67,-0.81,1721228206053
6.21,38.38,43.05,0.49,0.37,-1.47,1721228206063
-6.13,1.60,-7.75,0.45,-0.89,-0.68,1721228206073
-10.67,-2.38,-12.85,-0.72,1.00,-0.12,1721228206083
-6.70,-28.55,1.52,-0.36,0.03,0.26,1721228206093
1.35,10.77,-5.27,0.58,0.51,0.54,1721228206103
15.93,-0.34,18.87,0.09,0.43,0.09,1721228206113
-11.96,58.09,46.69,-0.04,-0.80,-0.12,1721228206123
4.28,-12.84,-29.66,-1.96,-1.36,0.10,1721228206133
-1.52,-46.74,44.14,-1.84,2.37,-0.60,1721228206143
24.14,78.45,53.44,1.22,-0.51,0.02,1721228206158
12.20,10.06,-4.50,1.48,-1.16,-0.25,1721228206162
5.93,-28.71,-46.91,0.61,-0.74,-0.09,1721228206172
-3.87,17.24,18.43,-0.86,3.19,-0.09,1721228206182
-17.33,45.08,52.44,-0.02,-0.29,0.26,1721228206192
9.43,-28.57,-38.06,-1.52,-0.01,0.20,1721228206202
2.44,-35.01,44.60,-1.03,1.21,-0.80,1721228206212
-37.16,47.38,45.98,0.93,-0.13,-1.09,1721228206222
-23.23,-10.68,-25.82,0.42,-0.84,-0.61,1721228206232
2.97,14.77,-15.23,-0.21,1.98,0.66,1721228206242
-6.85,8.47,10.47,0.88,-0.26,0.34,1721228206252
6.52,7.11,35.42,0.21,0.28,0.22,1721228206262
-0.13,-15.50,-8.47,-0.96,-0.51,-0.63,1721228206272
-5.38,-12.68,2.85,-0.66,0.65,-0.74,1721228206282
-5.16,-2.87,32.65,0.19,0.44,-0.70,1721228206292
-17.92,17.17,23.67,1.11,-0.78,0.22,1721228206302
-9.76,-3.34,-23.11,0.30,0.11,1.13,1721228206312
9.28,-12.59,25.23,-0.73,2.47,0.95,1721228206322
-7.46,74.91,30.09,0.99,-1.27,-0.67,1721228206332
-3.79,-36.00,-11.22,0.20,-2.39,-1.24,1721228206342
-11.55,-18.86,-2.21,-1.51,1.21,-0.56,1721228206352
-8.27,15.89,34.93,0.55,0.81,0.34,1721228206362
1.43,-5.49,4.11,0.79,-1.29,0.30,1721228206372
-0.95,10.62,4.24,0.37,1.13,-0.28,1721228206382
-18.36,55.76,25.95,1.13,-0.33,-0.05,1721228206392
-0.40,43.10,-14.03,0.89,-0.54,0.06,1721228206402
5.17,-78.45,-12.58,-1.67,0.02,-0.20,1721228206412
13.92,-23.58,70.96,0.63,3.25,0.32,1721228206422
8.38,51.63,-5.62,2.01,-2.72,1.04,1721228206432
12.03,-52.84,-61.73,0.04,0.37,0.00,1721228206442
-2.17,-40.67,35.73,-0.28,3.62,-0.00,1721228206452
31.48,78.45,78.45,0.74,-1.77,0.52,1721228206462
-0.37,14.41,-62.54,-0.58,-1.91,-0.21,1721228206472
14.44,-13.29,-52.20,-4.37,-0.42,-0.28,1721228206482
20.59,29.36,7.00,-2.16,4.37,0.34,1721228206492
-22.47,-17.14,78.45,0.00,-0.47,0.10,1721228206502
4.45,4.12,-29.22,0.71,0.41,-0.88,1721228206512
-2.64,9.48,-43.09,0.33,0.37,-0.13,1721228206522
-8.19,10.61,1.54,-0.49,0.98,0.51,1721228206532
10.38,8.90,45.92,0.11,0.85,0.16,1721228206542
-4.06,29.31,44.19,0.87,-0.87,-0.36,1721228206552
-5.50,1.02,-15.11,-1.13,-0.81,-0.50,1721228206562
-7.97,-57.38,-6.24,-0.92,0.32,0.43,1721228206572
-6.71,20.13,36.42,0.51,0.60,1.10,1721228206582
11.52,26.70,-25.13,1.21,-1.09,1.57,1721228206592
20.64,-42.20,-39.84,-1.30,0.56,0.93,1721228206602
23.50,-7.49,51.15,-1.30,3.51,-1.29,1721228206612
6.70,43.55,78.45,0.73,-1.16,-1.77,1721228206622
-16.59,9.11,-45.34,1.22,-2.17,-0.79,1721228206632
-2.57,-11.08,-42.14,-1.12,1.68,0.13,1721228206642
-8.81,-11.34,19.26,0.38,1.51,0.44,1721228206652
19.60,32.60,44.91,-0.69,-1.05,0.92,1721228206662
0.42,9.21,24.53,-0.10,0.62,0.32,1721228206672
2.07,-4.30,42.04,0.13,-0.44,0.06,1721228206682
-0.62,22.68,-18.56,0.18,-0.79,0.18,1721228206692
4.59,-33.91,11.68,-0.25,1.01,-0.11,1721228206702
-2.00,0.27,-2.43,0.71,-1.41,0.19,1721228206712
10.58,-32.51,-17.70,0.44,0.16,-0.52,1721228206722
-9.99,-20.69,9.50,-0.62,0.07,-0.67,1721228206732
-9.49,34.80,15.97,1.11,-0.13,-0.03,1721228206742
-1.97,-5.56,-36.82,0.56,-0.90,0.80,1721228206752
9.01,-16.02,-1.73,-1.22,2.16,0.70,1721228206762
18.52,45.85,78.45,-0.06,-0.79,-0.39,1721228206772
-7.27,2.82,55.00,0.24,-0.43,-0.07,1721228206782
-1.16,-40.06,-57.67,1.71,-1.92,-0.54,1721228206792
4.68,-28.58,-27.47,-1.91,1.97,-0.32,1721228206802
-8.69,-6.12,46.50,-0.91,0.33,-0.12,1721228206812
-0.18,7.35,22.37,1.82,0.32,0.42,1721228206822
14.37,41.87,-34.49,0.57,-0.22,1.17,1721228206832
14.44,-4.85,10.97,-2.31,1.18,0.19,1721228206842
25.97,-40.73,68.84,-0.23,-1.08,-1.62,1721228206852
-6.52,21.41,-31.11,1.66,-1.96,-1.09,1721228206862
4.81,-23.64,-42.69,-0.69,1.09,-0.24,1721228206872
-18.15,11.60,57.61,-0.33,1.34,-0.14,1721228206882
-8.49,31.55,48.78,0.96,0.64,0.54,1721228206892
5.84,19.74,-18.46,-0.17,-0.45,0.88,1721228206902
14.12,-43.83,2.76,-0.94,1.34,-0.01,1721228206912
11.97,2.23,25.22,0.29,-0.07,-0.68,1721228206922
2.45,16.45,6.14,0.71,-0.98,-0.74,1721228206932
1.09,22.77,-18.86,0.99,-0.04,-0.72,1721228206942
-8.09,-14.45,-17.51,-0.81,-0.13,-0.01,1721228206952
-7.79,11.33,46.03,-0.59,1.72,0.13,1721228206962
-2.04,-5.20,27.27,-0.03,-0.85,0.27,1721228206972
1.20,2.60,10.70,-0.57,0.75,0.07,1721228206982
0.02,-7.43,38.82,0.83,-0.24,-0.66,1721228206992
-3.16,7.12,-16.75,0.41,-0.84,0.02,1721228207002
6.18,10.71,-4.59,0.48,1.56,-0.11,1721228207012
-18.52,8.23,7.69,-0.49,-0.44,0.28,1721228207022
6.48,-46.41,8.37,-0.30,0.76,-0.28,1721228207032
-6.96,24.16,41.19,0.61,0.12,-0.06,1721228207042
-2.78,8.56,16.51,0.12,-0.48,0.25,1721228207052
3.74,-6.33,-0.83,-0.83,0.48,-0.00,1721228207062
2.52,-1.48,10.15,0.54,-0.03,-0.20,1721228207072
2.55,8.18,-30.07,0.73,-0.65,-0.28,1721228207082
8.13,-38.91,-15.68,-0.86,0.72,-0.65,1721228207092
-6.80,2.54,70.39,-0.51,0.57,-1.07,1721228207102
-3.49,57.19,67.84,1.43,-0.56,-0.12,1721228207112
-7.97,-42.00,-48.98,-0.10,-1.65,-0.09,1721228207122
-3.50,6.49,-22.80,-1.34,1.91,0.28,1721228207132
0.27,17.50,8.08,0.40,-0.69,0.41,1721228207142
10.17,-8.47,9.11,-0.15,-0.53,0.06,1721228207152
0.92,-34.00,32.64,-2.20,0.77,-0.33,1721228207162
-2.17,23.10,50.19,1.00,-0.55,-0.61,1721228207172
-3.98,-1.52,-28.01,0.34,-0.89,-0.46,1721228207182
-0.64,-3.31,-6.73,-0.90,1.33,-0.51,1721228207192
4.15,1.98,33.48,0.28,-0.07,0.59,1721228207202
-7.82,44.03,10.44,0.75,-0.23,1.17,1721228207212
11.51,-71.28,-14.20,-0.97,-0.84,0.62,1721228207222
3.01,5.39,35.48,-0.67,2.49,-0.20,1721228207232
-13.54,62.50,-10.55,0.02,-2.41,-0.69,1721228207242
2.87,-43.10,-36.97,0.11,0.80,-1.15,1721228207252
-0.07,-12.79,61.55,-0.39,3.28,-0.33,1721228207262
63.19,78.45,78.45,0.56,-0.37,0.52,1721228207272
-5.80,-17.08,-44.06,-0.31,-1.71,-0.11,1721228207282
-32.83,1.87,-36.22,-3.52,0.53,0.02,1721228207292
31.17,78.45,-0.83,1.09,1.91,-0.47,1721228207302
-13.60,6.66,20.11,0.31,-2.14,0.37,1721228207312
6.79,-30.77,-18.65,0.18,1.92,-0.33,1721228207322
-24.57,35.97,40.44,1.00,-0.65,-0.01,1721228207332
-4.63,6.17,14.32,0.08,-0.29,0.44,1721228207342
4.37,-70.52,-16.12,-1.73,-0.25,0.19,1721228207352
1.39,13.97,21.96,-0.45,1.43,-0.65,1721228207362
-7.72,-6.84,34.24,0.75,-1.22,-0.88,1721228207372
-12.62,3.98,-10.41,0.97,-1.24,0.01,1721228207382
-4.49,11.31,7.04,-0.12,0.91,0.48,1721228207392
4.64,18.31,30.85,-0.23,0.03,0.49,1721228207402
5.50,-3.67,3.80,0.06,-0.23,-0.06,1721228207412
4.26,-42.22,0.76,-0.02,-0.27,-0.64,1721228207422
-8.93,-4.80,21.34,-0.41,-0.10,-0.43,1721228207432
-3.69,41.10,24.98,1.24,-0.13,0.44,1721228207442
0.80,13.71,-28.70,0.21,-0.83,0.78,1721228207452
8.10,-12.42,-2.72,-1.43,1.26,0.21,1721228207462
-4.51,-18.11,44.78,-0.98,-0.36,-0.36,1721228207472
-8.98,-20.15,26.57,-0.29,-0.99,-0.60,1721228207482
-7.13,-0.36,25.57,0.25,0.51,-0.07,1721228207492
-4.08,2.83,10.98,0.81,-0.45,0.95,1721228207502
6.73,17.40,-31.14,0.24,0.12,1.07,1721228207512
11.40,22.35,-16.87,0.36,0.70,0.34,1721228207522
11.35,-39.28,-3.59,-1.54,-0.39,-0.60,1721228207532
-8.06,-22.36,78.45,-0.41,0.26,-1.56,1721228207542
2.88,73.44,52.42,1.82,-0.93,0.01,1721228207552
-7.57,-18.58,-78.45,2.08,-1.10,0.75,1721228207562
50.36,36.78,-59.51,-3.37,1.78,0.23,1721228207572
2.14,7.94,21.35,0.39,0.59,0.23,1721228207582
7.71,-54.60,23.91,-0.01,-1.08,-0.35,1721228207592
-28.44,-17.47,34.12,0.47,-0.54,-0.52,1721228207602
-13.40,45.78,46.49,0.79,-1.13,0.14,1721228207612
5.24,0.23,-24.19,-0.15,0.02,1.30,1721228207622
9.31,7.10,-9.66,-0.71,1.27,0.88,1721228207632
16.53,-16.10,-25.28,0.03,-0.31,-0.58,1721228207642
11.34,-41.98,-1.66,-0.73,0.81,-1.96,1721228207652
-22.21,-4.86,78.45,-0.73,-0.89,-2.03,1721228207662
-11.37,31.34,71.93,2.08,-1.12,-0.28,1721228207672
-11.00,39.94,-30.55,0.87,-0.67,1.17,1721228207682
7.20,6.69,-20.88,-1.22,1.72,0.71,1721228207692
3.20,-72.90,14.57,-1.52,-0.21,-0.72,1721228207702
2.30,43.43,-10.83,1.82,-0.09,-1.24,1721228207712
2.67,-38.39,-16.47,-0.69,0.29,-1.04,1721228207722
-23.10,23.44,56.01,-0.12,0.31,-0.79,1721228207732
-11.21,13.45,9.14,1.97,-0.74,0.68,1721228207742
10.00,49.77,-40.89,0.14,0.70,1.11,1721228207752
12.39,-18.11,-9.90,-2.79,1.31,-0.20,1721228207762
7.49,-78.45,70.69,-1.21,0.01,-1.87,1721228207772
-19.76,78.45,28.42,2.68,-0.87,-1.25,1721228207782
-14.34,-21.85,-55.39,1.57,-0.62,-0.16,1721228207792
-11.33,-28.06,-28.35,-1.37,1.15,0.48,1721228207802
-10.53,11.85,36.45,-0.40,0.60,1.00,1721228207812
15.11,23.87,32.25,1.28,0.70,0.65,1721228207822
10.10,-18.77,14.70,-0.65,-0.64,0.45,1721228207832
9.90,-10.70,15.27,0.10,0.66,-0.29,1721228207842
11.92,28.99,0.68,0.71,-0.38,-0.70,1721228207852
2.80,10.85,-22.57,-0.08,-0.21,-0.78,1721228207862
-5.29,-16.16,-25.45,-1.13,0.09,-0.72,1721228207872
-10.06,-46.88,33.37,-1.45,0.46,-0.63,1721228207882
-12.74,24.76,78.45,0.04,0.11,0.32,1721228207892
-0.25,41.27,38.66,2.27,0.46,0.98,1721228207902
6.90,18.78,-43.80,-0.25,-1.05,0.40,1721228207912
11.10,-2.89,-15.87,-0.63,1.26,-0.04,1721228207922
7.77,-16.37,-12.84,-0.36,-0.37,-0.61,1721228207932
7.08,-27.80,16.26,-0.51,0.44,-1.16,1721228207942
-8.70,4.21,27.79,1.00,-0.48,-0.77,1721228207952
-14.33,-14.02,18.17,0.14,0.40,-0.14,1721228207962
-16.69,53.32,43.36,-0.00,0.14,0.44,1721228207972
-1.36,8.51,-19.87,0.81,-1.07,0.43,1721228207982
3.51,-34.62,-56.12,-0.33,-0.27,0.46,1721228207992
17.58,-17.20,-35.96,-1.63,1.15,0.30,1721228208002
6.55,-49.38,66.35,-1.42,1.35,-0.72,1721228208012
3.40,70.55,78.45,1.49,-1.77,-0.29,1721228208022
-17.89,37.23,9.84,2.80,-0.62,0.16,1721228208032
9.65,-18.02,-78.45,-0.40,-0.98,0.29,1721228208042
-10.67,-47.53,19.07,0.18,-4.37,0.55,1721228208052
31.29,-78.45,78.45,-2.75,-0.01,-0.33,1721228208062
-7.63,37.33,78.45,1.12,1.31,0.38,1721228208072
-27.33,23.63,-53.01,0.88,-2.93,-0.13,1721228208082
11.08,43.37,-50.39,-0.49,2.34,0.49,1721228208092
10.00,16.99,14.59,-0.40,0.01,0.44,1721228208102
11.56,68.91,10.16,-0.68,-0.50,1.60,1721228208657
1.66,9.58,34.30,-1.24,0.18,1.75,1721228208662
24.61,-29.18,17.28,-0.42,1.13,0.70,1721228208671
17.93,-16.09,29.60,0.87,0.43,-1.20,1721228208681
0.29,42.26,-26.32,0.94,-1.41,-1.72,1721228208690
-1.78,-2.10,-46.68,-0.18,-0.03,-1.51,1721228208700
-20.45,2.65,-23.32,-1.23,0.80,-0.36,1721228208709
-16.76,-62.62,33.84,-1.81,0.65,0.79,1721228208719
-11.39,19.55,78.45,1.64,0.56,1.10,1721228208728
7.17,3.46,-15.45,1.67,-0.77,1.64,1721228208738
20.69,47.30,-38.73,0.73,-0.33,0.31,1721228208747
-1.40,30.93,11.05,-1.51,2.25,-1.07,1721228208757
-6.89,-4.95,-2.27,-0.65,-2.37,-0.25,1721228208766
-27.18,-78.45,-50.62,-1.07,1.52,-0.01,1721228208776
-1.21,-78.45,13.37,-4.37,3.87,0.15,1721228208785
-5.15,59.26,78.45,0.07,2.71,-2.28,1721228208795
0.92,77.84,78.45,1.94,0.69,0.60,1721228208804
-17.64,-68.42,-78.45,3.56,-2.76,1.91,1721228208814
-44.10,-14.96,1.92,0.69,-4.37,1.30,1721228208823
46.65,4.25,-47.00,-4.37,4.37,0.80,1721228208833
5.47,-30.10,78.45,0.10,2.25,-1.25,1721228208842
78.45,78.45,78.45,-0.85,-4.37,-1.41,1721228208852
-21.42,33.64,78.45,1.61,-1.27,-1.52,1721228208861
-18.01,-9.31,-25.88,-1.11,-0.11,-0.69,1721228208871
-14.50,48.58,0.42,0.20,1.95,0.43,1721228208880
-10.69,-12.28,-13.23,0.59,-1.92,1.80,1721228208890
6.48,-20.68,-24.47,-0.04,0.75,1.63,1721228208899
19.84,-13.01,35.70,-0.51,1.18,0.52,1721228208909
2.73,69.18,68.33,0.01,-0.53,-0.02,1721228208918
6.86,6.81,-39.46,0.39,-2.84,-0.87,1721228208928
0.18,-66.05,-37.02,-1.27,1.28,-1.72,1721228208937
-19.47,52.93,35.21,-0.02,0.57,-0.05,1721228208947
-8.34,-21.42,28.06,-0.66,-0.17,0.59,1721228208956
0.04,-2.44,52.11,0.41,1.28,1.03,1721228208966
1.37,41.79,13.68,2.15,-1.35,0.98,1721228208975
23.81,-14.47,-58.73,-0.00,-1.61,-0.19,1721228208985
16.52,-2.81,31.51,-0.82,2.40,-0.66,1721228208994
-2.28,3.61,78.45,-0.07,-2.10,0.59,1721228209004
4.47,1.67,-56.13,1.74,-1.85,-0.32,1721228209013
-8.84,-17.44,-66.80,-1.66,0.74,-0.50,1721228209023
11.06,-45.70,51.57,-1.72,4.01,0.31,1721228209033
54.63,78.45,71.42,0.50,-0.34,0.96,1721228209043
10.48,30.25,-67.47,3.84,-4.25,1.12,1721228209053
21.45,-7.56,-47.00,-1.95,2.08,-0.25,1721228209063
-25.46,17.76,58.81,-1.11,0.94,-0.75,1721228209073
-20.49,-59.60,37.71,2.60,1.18,-0.92,1721228209083
-4.80,-10.42,-38.77,0.76,-2.89,-0.86,1721228209093
-25.95,26.53,-17.85,-0.20,1.29,0.81,1721228209103
1.88,12.32,20.22,-0.92,0.06,2.14,1721228209113
12.43,3.60,39.91,-0.33,1.27,0.95,1721228209123
18.37,42.88,60.57,0.86,-0.56,0.90,1721228209133
21.90,-2.60,-32.24,0.23,-1.16,-0.28,1721228209143
14.39,-24.51,-8.61,-1.29,1.30,-1.45,1721228209153
-21.42,-0.20,46.90,-0.03,-0.70,-1.81,1721228209163
-15.91,-2.78,-11.82,1.54,-1.65,-0.31,1721228209173
-7.24,-28.04,-49.09,0.10,0.16,0.88,1721228209183
2.60,-12.44,-12.43,-1.39,1.12,1.00,1721228209193
12.83,9.86,73.38,-2.07,1.11,0.02,1721228209203
9.87,39.12,78.45,1.60,-0.57,0.23,1721228209213
3.26,-31.30,-36.69,0.94,-2.00,-0.85,1721228209223
2.13,43.93,-43.58,-0.53,0.17,-1.50,1721228209233
-20.11,-32.59,-24.10,-0.82,-0.46,-0.41,1721228209243
-8.27,13.80,57.44,1.05,1.09,-0.31,1721228209253
-6.86,74.55,36.85,1.16,-0.63,1.54,1721228209263
7.15,-31.65,-50.39,-1.15,0.57,2.08,1721228209273
35.72,-69.93,47.88,-2.11,2.69,-0.84,1721228209283
16.06,78.45,27.52,-0.72,-0.49,-1.12,1721228209293
-2.83,13.59,-49.19,3.14,-3.00,-1.55,1721228209303
-3.88,-34.35,-55.83,-1.58,1.05,-1.26,1721228209313
-14.87,33.23,78.45,-0.92,2.23,-1.11,1721228209323
-74.32,38.62,53.26,0.53,-1.84,0.08,1721228209333
1.45,-68.94,-60.48,-0.08,-1.49,1.44,1721228209343
30.46,-42.41,63.63,-0.43,1.87,0.43,1721228209353
12.88,22.87,76.66,-0.06,-0.40,0.33,1721228209363
22.64,1.59,0.04,1.14,-1.04,-0.88,1721228209373
5.60,29.58,-30.03,0.76,-0.18,-0.23,1721228209383
11.76,-0.11,-17.04,0.06,0.94,-0.50,1721228209393
-2.10,31.42,25.19,-0.20,0.48,-0.87,1721228209403
-5.86,-6.94,14.65,-0.50,-0.55,-0.36,1721228209413
-0.51,-31.94,1.53,0.18,0.09,0.19,1721228209423
1.36,15.41,-7.29,-0.70,1.12,0.58,1721228209433
17.07,-54.28,23.06,-2.37,1.15,-0.28,1721228209443
-12.67,8.60,77.54,1.05,0.22,-2.27,1721228209453
-12.68,4.31,10.71,2.55,-1.31,-0.90,1721228209463
-16.20,33.15,-29.83,-0.36,0.99,0.98,1721228209473
0.30,20.75,3.06,-0.66,0.89,1.33,1721228209483
11.77,-42.72,8.74,-1.24,0.03,0.58,1721228209493
3.25,-2.77,49.34,-0.02,1.17,-0.66,1721228209503
0.08,33.12,-1.87,1.93,-1.47,-0.38,1721228209513
4.72,11.14,-60.60,0.28,-0.33,-0.20,1721228209523
0.20,-22.73,24.02,-2.67,2.20,-0.21,1721228209533
7.83,-5.13,78.45,-0.91,-1.62,0.06,1721228209543
1.11,-31.09,-1.97,0.99,-0.55,0.68,1721228209553
11.30,7.47,-23.44,-0.66,1.38,-0.81,1721228209563
-7.47,20.81,0.24,0.96,-0.65,-2.32,1721228209573
-15.62,-9.56,-26.84,0.83,-1.26,-0.46,1721228209583
-13.46,45.51,2.06,0.43,2.12,0.54,1721228209593
-15.19,11.40,55.11,-2.26,-0.70,0.91,1721228209603
-2.40,-26.99,57.42,-1.13,0.93,-0.42,1721228209613
1.64,-17.23,48.37,0.41,-0.91,0.13,1721228209623
-9.60,-12.60,-35.36,0.15,-1.15,0.71,1721228209633
15.70,13.61,-29.33,0.97,1.21,0.84,1721228209643
10.28,0.24,-26.95,1.55,-0.95,0.33,1721228209653
15.65,10.54,32.99,-0.59,3.11,-0.78,1721228209663
-6.94,44.40,78.45,-1.06,-0.75,-1.72,1721228209673
-19.12,3.22,10.32,0.61,-1.27,-1.37,1721228209683
-12.14,-48.58,-68.69,1.08,-1.25,-0.44,1721228209693
-9.79,-25.18,-4.89,-0.71,0.17,1.40,1721228209703
4.38,10.24,76.13,0.90,3.48,3.25,1721228209713
0.06,3.75,57.01,-0.44,-1.86,1.40,1721228209723
22.36,27.35,-7.91,0.23,-1.12,0.97,1721228209733
27.78,51.98,-8.29,1.35,-0.22,1.03,1721228209743
7.66,39.82,-37.15,0.19,0.07,0.58,1721228209753
21.49,6.94,-42.42,-0.46,-0.98,-0.63,1721228209763
5.22,-78.45,7.29,-3.41,2.75,-1.58,1721228209773
10.94,17.32,78.45,-0.41,-0.86,-2.80,1721228209783
-25.63,28.99,78.45,4.37,-2.06,-1.94,1721228209793
-23.54,-55.90,-78.45,4.37,-3.30,0.87,1721228209803
-64.15,-10.27,-78.45,-0.32,-0.16,3.31,1721228209813
24.47,12.68,-70.01,-4.37,4.37,2.78,1721228209823
-35.19,78.45,78.45,-0.42,3.14,0.66,1721228209833
-27.81,-13.00,78.45,0.32,2.44,2.83,1721228209843
-75.94,-78.45,-78.45,1.15,-3.83,1.31,1721228209853
26.66,-26.25,-14.88,-2.49,4.37,-1.80,1721228209863
-24.52,29.46,78.45,0.31,0.28,-2.65,1721228209873
-0.63,25.46,-24.40,2.83,-3.77,-2.25,1721228209883
-35.07,-13.06,-9.27,-0.38,-0.82,-0.95,1721228209893
-48.55,26.27,66.25,-0.62,-2.23,1.09,1721228209903
-11.96,3.32,-11.15,1.23,0.23,2.65,1721228209913
19.99,9.45,-78.45,0.59,-1.62,2.23,1721228209923
27.04,2.46,-78.45,-0.18,3.35,1.12,1721228209933
32.49,-78.45,78.45,-4.26,3.29,-3.03,1721228209943
47.68,-20.72,78.45,-1.09,0.25,-2.89,1721228209953
-22.39,-8.36,-73.99,4.37,-4.15,-1.99,1721228209963
-78.45,-75.81,-78.45,0.69,-4.37,0.87,1721228209973
78.45,11.01,-78.45,-0.58,3.85,0.81,1721228209983
-56.65,-78.45,78.45,0.33,4.37,3.39,1721228209993
78.45,78.45,4.73,0.28,-3.64,3.34,1721228210003
2.74,-78.45,-4.53,1.88,-2.63,1.05,1721228210013
34.70,-5.91,-59.81,-2.51,1.98,-1.96,1721228210023
-0.90,-15.72,35.62,-0.15,1.61,-2.28,1721228210033
-3.90,1.58,9.89,1.20,-2.84,-3.08,1721228210043
-19.30,22.66,9.20,0.96,0.32,-1.91,1721228210053
-23.48,51.00,36.87,-0.18,-0.52,0.46,1721228210063
-13.55,9.80,18.28,-0.39,0.77,2.76,1721228210073
19.69,-8.45,-20.44,0.43,0.82,2.82,1721228210083
33.93,-2.69,-44.17,0.83,0.47,0.99,1721228210093
34.01,-38.65,-27.61,-0.96,0.36,-0.99,1721228210103
6.70,0.31,78.45,-1.12,0.77,-3.73,1721228210113
11.88,55.18,78.45,0.06,0.89,-3.37,1721228210123
-31.22,-6.42,-35.10,1.36,-1.15,0.26,1721228210133
-1.61,-12.66,-74.54,-1.66,1.50,1.61,1721228210143
26.14,-73.89,27.33,-1.80,2.84,-0.01,1721228210153
-9.84,74.80,69.34,1.82,-0.82,0.18,1721228210163
19.10,-17.80,-44.61,1.68,-0.41,0.81,1721228210173
25.33,-18.66,-5.56,-2.83,2.44,-0.65,1721228210183
13.66,78.45,78.45,-2.14,-2.12,-1.78,1721228210193
30.38,-26.76,2.87,1.27,1.61,-3.09,1721228210203
-8.61,-36.17,-72.76,4.10,-2.72,0.74,1721228210213
-3.55,3.75,-62.11,0.58,1.68,1.06,1721228210223
4.12,7.93,5.95,-0.76,1.14,-0.25,1721228210233
4.45,8.79,47.57,-0.42,1.19,-0.95,1721228210243
-11.94,76.29,42.85,0.89,-1.06,-0.91,1721228210253
0.20,-78.45,-25.55,-1.94,-1.12,-0.95,1721228210263
-17.29,-38.22,78.45,0.19,1.78,0.49,1721228210273
1.24,12.34,35.26,1.29,0.66,1.03,1721228210283
7.40,-42.12,-61.73,0.08,-1.46,0.62,1721228210293
-2.06,-46.18,37.74,-0.41,1.64,-2.33,1721228210303
14.24,41.91,78.45,0.25,-2.69,-1.64,1721228210313
-46.41,-4.96,-9.62,1.26,0.26,-0.21,1721228210323
15.95,-12.66,-26.88,0.96,0.51,1.26,1721228210333
8.04,9.85,-39.65,-0.72,1.26,0.24,1721228210343
16.73,-9.38,-23.01,-2.34,-0.41,-1.37,1721228210353
-18.48,-13.46,78.45,-1.07,1.91,-2.97,1721228210363
-25.09,20.70,48.52,0.41,-0.04,-1.15,1721228210373
-14.72,-57.67,-40.50,0.07,0.13,0.74,1721228210383
5.59,-41.77,21.63,-0.04,2.83,1.01,1721228210393
12.47,17.97,36.26,1.13,-0.05,0.75,1721228210403
5.87,43.88,20.20,0.42,0.26,-0.22,1721228210413
1.50,29.43,-25.30,-1.24,-1.11,-1.04,1721228210423
-3.37,-54.46,-24.10,-2.42,-0.02,-0.53,1721228210433
-20.82,-67.90,78.45,-1.41,1.80,0.08,1721228210443
-10.16,39.95,78.45,2.70,-1.07,2.24,1721228210453
0.84,-60.36,-57.08,1.56,-0.93,1.84,1721228210463
18.80,28.55,-27.53,-1.80,2.08,1.48,1721228210473
36.86,-17.91,48.47,-1.46,4.20,-0.39,1721228210483
13.37,19.91,78.45,0.72,-2.25,-1.44,1721228210493
-5.26,20.48,-46.13,1.51,-2.36,-2.05,1721228210503
-21.90,-50.01,-30.58,-0.67,2.71,-1.29,1721228210513
-45.34,37.62,54.88,-0.45,0.24,0.58,1721228210523
-6.36,36.34,33.43,0.07,1.56,1.71,1721228210533
-2.75,-78.45,-24.57,-0.70,-1.07,2.10,1721228210543
12.86,0.05,62.21,1.06,3.44,0.92,1721228210553
39.25,78.45,7.77,0.57,-1.79,1.25,1721228210563
20.46,2.14,-53.37,1.77,0.41,-0.27,1721228210573
4.18,22.62,18.29,-1.49,1.64,-0.21,1721228210583
3.98,-49.53,78.45,-4.19,-0.81,-1.16,1721228210593
-29.76,3.04,78.45,1.08,-1.09,-1.39,1721228210603
-18.11,19.60,-22.67,2.23,-2.25,-0.56,1721228210613
-22.79,-2.02,-78.45,-0.93,0.27,1.52,1721228210623
34.34,-47.85,2.01,-1.47,4.37,1.41,1721228210633
-32.19,67.00,78.45,2.91,-0.89,0.88,1721228210643
-2.39,39.54,-12.97,2.41,-0.77,0.90,1721228210653
24.10,-78.45,28.66,-2.68,2.19,-0.90,1721228210668
-20.65,-36.19,66.44,-2.22,0.85,-1.55,1721228210672
20.07,39.04,34.63,2.37,-1.56,-2.01,1721228210682
-20.67,-18.86,-78.45,2.23,-2.40,-1.02,1721228210692
-44.72,-60.17,-56.64,0.33,-4.37,1.69,1721228210702
78.45,-24.21,43.95,-1.93,4.37,0.12,1721228210712
57.28,26.21,78.45,1.02,-1.41,2.32,1721228210722
21.99,-2.65,-18.92,1.93,0.96,0.51,1721228210732
21.82,1.37,-11.16,-0.68,-2.03,0.31,1721228210742
49.31,78.45,47.19,-3.30,0.35,-1.33,1721228210752
-12.25,-11.15,78.45,0.60,-3.69,-1.36,1721228210762
-34.00,-23.29,-9.01,3.06,-1.71,-0.69,1721228210772
-11.77,-16.58,-64.61,0.35,0.45,0.71,1721228210782
-9.01,-57.20,1.02,-2.58,0.10,2.40,1721228210792
0.04,60.73,61.67,1.42,0.95,1.70,1721228210802
27.03,30.73,-17.24,1.00,-0.77,2.05,1721228210812
15.82,-37.96,-43.27,-1.87,1.21,0.88,1721228210822
29.91,25.38,66.93,-0.91,0.50,-2.10,1721228210832
-3.17,-24.51,56.33,-1.03,-0.38,-1.78,1721228210842
-23.28,-23.92,-2.96,-0.35,0.25,-1.57,1721228210852
-22.25,20.87,8.54,0.93,0.64,-0.19,1721228210862
-15.97,-21.64,-20.13,-0.97,0.12,1.30,1721228210872
4.21,19.25,38.19,-0.03,1.35,0.81,1721228210882
12.04,75.09,51.57,1.60,-0.78,1.32,1721228210892
21.03,31.24,-58.75,1.01,-0.21,1.47,1721228210902
30.67,-78.45,-44.85,-3.91,2.09,0.29,1721228210912
-4.71,78.45,78.45,0.22,1.82,-2.83,1721228210922
-4.12,26.94,33.32,0.66,-1.27,-1.79,1721228210932
-3.22,-66.92,-44.07,-0.78,0.19,0.20,1721228210942
-0.41,78.45,51.45,1.34,1.88,-0.23,1721228210952
-12.07,24.50,56.85,0.89,0.20,0.55,1721228210962
-0.34,-8.02,-11.09,-0.09,0.30,1.25,1721228210972
17.10,43.64,8.67,0.41,1.72,1.46,1721228210982
18.58,-71.60,-28.26,-0.71,-0.99,0.22,1721228210992
1.92,-49.64,56.67,-0.13,1.61,-1.96,1721228211002
-40.92,20.86,32.70,1.18,-1.96,-0.99,1721228211012
-6.01,-69.41,-9.52,1.07,-0.20,-1.65,1721228211022
-20.35,29.87,56.42,0.13,0.53,-0.28,1721228211032
-0.51,78.45,22.29,1.63,0.40,1.25,1721228211042
2.16,-34.07,-26.45,-0.65,0.73,1.11,1721228211052
22.39,-63.52,22.27,-1.87,1.65,-0.74,1721228211062
4.54,45.56,8.16,1.36,-0.83,-0.89,1721228211072
20.32,-78.45,-30.78,-1.58,-1.08,-1.64,1721228211082
-22.49,-23.22,78.45,0.71,0.93,-1.98,1721228211092
-3.85,67.69,73.21,2.00,0.52,-0.08,1721228211102
-14.16,-38.44,-72.49,1.30,-0.70,0.93,1721228211112
2.99,-59.70,-22.67,1.46,0.90,0.71,1721228211122
20.19,78.45,45.05,0.94,1.16,0.37,1721228211132
10.01,17.91,-32.84,0.51,-0.42,-0.06,1721228211142
11.46,-78.45,0.01,-2.98,1.56,-1.57,1721228211152
0.64,78.45,45.09,0.76,-1.64,-1.73,1721228211162
-20.33,-8.48,-24.94,-1.05,0.18,-0.22,1721228211172
-31.48,-78.45,-78.45,-3.88,1.75,-0.44,1721228211182
-13.77,78.45,36.85,-1.06,4.37,0.16,1721228211192
21.57,55.31,-30.72,1.27,-2.42,0.20,1721228211202
39.21,2.35,-65.48,-2.13,3.94,-1.04,1721228211212
-22.44,-71.68,-19.64,-1.62,0.02,-0.18,1721228211222
-14.54,48.15,78.45,2.04,-1.73,-1.28,1721228211232
-14.67,78.45,60.72,4.05,-4.37,-0.70,1721228211242
2.09,-53.88,-76.36,-0.35,-1.15,-0.04,1721228211252
-9.11,-78.45,78.45,-0.46,0.69,0.75,1721228211262
-20.01,-28.23,55.98,-0.44,1.02,1.57,1721228211272
-4.98,78.45,-52.19,2.73,-1.48,0.54,1721228211282
3.91,-7.63,-57.74,-0.01,-1.30,-0.53,1721228211292
-14.54,-69.00,-51.99,0.02,-1.84,-0.18,1721228211302
-7.36,-21.61,50.86,-1.74,4.37,0.21,1721228211312
-26.94,3.04,78.45,0.16,-2.00,0.48,1721228211322
-12.31,13.85,-18.74,1.79,1.72,0.38,1721228211332
6.01,-13.07,-34.75,-0.34,-1.38,0.94,1721228211342
8.29,31.38,70.50,-1.02,4.37,-0.05,1721228211352
9.41,71.81,49.43,0.76,-0.46,2.11,1721228211362
5.49,-5.53,-26.07,0.84,-2.03,0.66,1721228211372
42.63,-33.16,-66.44,-4.37,2.87,-0.72,1721228211382
38.28,7.05,-2.09,-2.32,3.47,-0.96,1721228211392
-0.21,57.62,13.06,1.67,-3.21,-1.12,1721228211402
-32.37,18.96,-41.01,2.99,-2.05,0.16,1721228211412
-20.31,-9.09,-76.96,0.21,-4.37,1.87,1721228211422
28.21,-78.45,74.13,-4.16,4.37,0.79,1721228211432
-11.34,0.19,78.45,0.49,-2.08,2.34,1721228211442
4.40,3.34,-61.60,2.93,-2.85,-0.90,1721228211452
12.05,-3.03,-57.79,-1.79,-0.41,-2.65,1721228211462
-43.93,53.29,26.58,-0.24,-0.36,-2.38,1721228211472
-36.35,-53.92,2.30,-2.15,-0.39,-1.30,1721228211482
-11.94,-13.20,75.20,0.35,1.10,1.25,1721228211492
9.87,56.85,78.45,1.19,-0.50,4.20,1721228211502
23.87,-2.94,-76.70,2.56,-0.67,2.51,1721228211512
18.16,-26.90,-78.45,-1.57,0.00,-0.51,1721228211522
41.93,-49.39,50.38,-1.12,4.37,-0.74,1721228211532
47.08,48.64,61.12,-1.12,-4.37,-2.84,1721228211542
-15.91,33.87,53.71,2.29,-4.37,-2.18,1721228211552
-34.27,-33.18,-78.45,0.87,-1.45,-0.46,1721228211562
-54.22,-43.67,-55.66,-0.38,-4.37,2.27,1721228211572
33.37,39.94,78.45,0.60,2.77,2.04,1721228211582
-23.45,-11.99,-39.33,1.67,-2.02,2.89,1721228211592
11.69,-14.37,-64.15,-0.34,-3.51,2.08,1721228211602
34.64,-9.34,54.62,-3.79,4.37,-0.03,1721228211612
32.47,78.45,77.23,-0.38,0.32,1.06,1721228211622
-3.66,-32.10,-51.18,0.85,-1.45,-1.35,1721228211632
-31.71,-78.45,-78.45,0.43,-3.37,-1.05,1721228211642
8.99,2.77,4.40,-2.36,4.37,0.15,1721228211652
2.21,70.54,-0.82,3.37,-2.38,1.03,1721228211662
10.41,-64.14,-20.42,-0.35,-0.79,1.11,1721228211672
10.64,-15.79,46.98,-1.70,0.72,0.83,1721228211682
7.64,21.04,76.00,-0.21,-0.96,0.08,1721228211692
0.11,11.23,-13.79,1.36,-2.53,-0.76,1721228211702
-2.21,-10.51,-60.21,0.15,0.09,-0.48,1721228211712
-5.32,-52.60,43.36,-0.42,-1.18,-0.45,1721228211722
-10.01,78.45,46.21,1.24,0.30,-1.13,1721228211732
-5.70,27.93,-12.92,1.25,-2.29,1.36,1721228211742
20.94,-44.21,-51.01,-1.34,1.54,1.34,1721228211752
9.43,-7.78,58.97,-0.01,0.85,-0.17,1721228211762
13.42,40.27,7.22,1.01,-0.20,-0.24,1721228211772
24.44,2.45,-56.78,1.21,-1.29,-0.84,1721228211782
-23.86,-7.91,-38.43,-0.37,-1.86,-1.02,1721228211792
-42.37,-32.96,4.20,-4.37,1.63,-0.88,1721228211802
-53.89,45.43,78.45,0.80,-2.56,0.33,1721228211812
-7.77,5.68,-23.73,0.74,-0.41,1.17,1721228211822
21.06,16.02,-27.86,-0.73,0.66,0.33,1721228211832
-9.22,-18.58,36.34,-0.18,0.10,-0.70,1721228211842
-0.64,2.65,21.77,-0.07,-0.92,-0.52,1721228211852
-0.31,4.23,20.50,0.39,0.57,-0.79,1721228211862
-2.28,56.10,40.96,0.44,0.66,0.17,1721228211872
1.86,-29.71,-42.99,-0.92,-0.70,0.48,1721228211882
-5.93,-26.76,14.65,-1.49,2.43,-0.45,1721228211892
-4.46,69.80,67.21,1.32,-1.50,-0.04,1721228211902
5.35,7.42,-42.39,0.35,-1.39,0.29,1721228211912
5.73,-16.19,-15.95,-1.69,1.59,-0.82,1721228211922
-11.04,68.26,46.06,0.41,-1.02,-1.02,1721228211932
5.00,-18.79,-11.12,-0.09,-0.40,-0.38,1721228211942
1.49,-8.09,-3.14,-0.28,-0.44,0.44,1721228211952
-1.32,44.18,9.84,0.93,1.21,0.93,1721228211962
21.44,-49.80,13.86,-3.06,0.49,0.32,1721228211972
-30.89,33.46,78.45,-0.99,1.80,-1.68,1721228211982
4.77,27.71,68.22,0.89,-0.12,-1.01,1721228211992
-3.47,14.21,-78.45,0.93,-1.29,0.56,1721228212002
-4.42,-55.27,-19.54,-3.05,1.54,0.18,1721228212012
-4.14,13.70,65.69,-0.51,0.68,-0.18,1721228212022
-37.84,-5.99,42.55,1.12,0.28,0.41,1721228212032
11.66,-0.86,-19.86,-0.07,-1.24,-0.22,1721228212042
-17.90,53.09,12.39,-0.42,1.55,-0.13,1721228212052
1.50,-53.16,17.71,-0.84,-1.59,-0.42,1721228212062
-6.61,-25.88,21.10,-1.10,1.43,-0.30,1721228212072
-12.06,54.98,19.12,1.74,-0.91,0.44,1721228212082
-2.04,-51.03,-30.86,0.11,-0.85,-0.09,1721228212092
5.40,-45.71,29.99,-0.43,1.49,-0.57,1721228212102
20.75,48.97,33.51,1.74,-1.84,0.10,1721228212112
-9.49,-28.99,-33.61,0.38,-0.92,0.18,1721228212122
14.07,29.72,3.60,-2.02,2.44,-0.35,1721228212132
1.24,75.56,71.75,-0.26,-1.58,0.71,1721228212142
-6.97,-78.45,-38.92,0.41,-0.27,0.44,1721228212152
14.46,-48.06,-24.48,0.28,1.39,-0.34,1721228212162
-15.83,45.68,74.09,-0.85,0.47,-1.67,1721228212172
5.01,36.06,46.62,1.01,-0.51,-1.11,1721228212182
-6.53,4.83,-33.60,0.28,-1.37,0.39,1721228212192
-6.53,7.01,20.26,-0.83,2.90,0.54,1721228212202
9.76,9.50,6.41,0.65,-1.40,1.03,1721228212212
8.56,-53.09,-41.04,0.14,-0.31,0.63,1721228212222
29.14,-5.70,46.87,0.74,1.52,-0.63,1721228212232
39.57,51.88,78.45,0.28,-1.66,-0.96,1721228212242
-14.47,-15.45,19.69,-0.20,-0.13,-0.28,1721228212252
4.70,9.77,-13.55,1.25,-0.80,0.56,1721228212262
0.89,-12.28,25.18,0.46,1.28,0.24,1721228212272
-16.74,17.07,38.93,-0.08,-1.22,-0.22,1721228212282
-5.30,31.89,-18.12,1.84,-0.37,-0.05,1721228212292
-5.35,-26.97,-16.79,-0.36,0.33,-0.10,1721228212302
-10.94,8.43,34.61,-1.16,0.89,0.18,1721228212312
6.90,12.85,45.71,0.58,0.02,0.60,1721228212322
7.79,-41.11,-22.68,-0.26,-1.02,0.38,1721228212332
7.47,5.87,20.25,0.13,1.51,-0.31,1721228212342
19.48,78.45,9.48,1.73,-1.87,0.49,1721228212352
15.56,-8.23,-41.38,0.58,-0.49,0.19,1721228212362
9.43,-40.90,19.45,-2.29,2.50,-1.25,1721228212372
0.40,0.10,78.45,0.02,-1.85,-1.41,1721228212382
-24.71,12.37,3.53,1.82,-0.08,-0.62,1721228212392
-8.62,-4.27,-49.00,0.32,-0.72,1.12,1721228212402
-1.97,7.82,19.63,0.35,2.05,0.95,1721228212412
-24.77,76.17,54.14,-0.15,-0.48,1.93,1721228212422
14.14,-12.27,-41.75,-0.01,-0.94,0.17,1721228212432
13.30,-64.46,0.40,-1.62,1.81,-0.82,1721228212442
-8.12,52.74,39.82,-0.60,-0.94,-1.75,1721228212452
12.50,-1.49,-0.67,1.38,0.27,-1.05,1721228212462
-13.54,4.79,2.60,0.06,-0.46,0.03,1721228212472
0.64,59.18,-15.89,0.36,-0.13,0.20,1721228212482
0.95,-76.01,-10.50,-3.74,-0.17,0.03,1721228212492
-11.44,-19.10,78.45,-0.26,3.14,-0.43,1721228212502
-13.58,78.45,32.54,1.21,0.20,-1.23,1721228212512
-12.74,-8.50,-78.45,4.37,-1.27,0.73,1721228212522
2.92,-1.97,-78.45,-1.35,-2.07,1.26,1721228212532
52.48,78.45,78.45,-1.29,4.37,0.03,1721228212542
-20.18,-9.59,31.18,-0.97,-0.57,1.16,1721228212552
12.36,-78.45,-48.65,0.55,-1.14,-0.28,1721228212562
23.29,78.45,-38.19,0.46,-0.16,-0.46,1721228212572
-12.93,-9.23,8.71,1.29,-1.62,0.69,1721228212582
-5.13,3.91,-31.03,1.11,0.31,0.65,1721228212592
13.20,-14.97,40.04,-2.64,2.98,0.37,1721228212602
-2.31,21.61,78.45,-0.68,-0.57,-1.14,1721228212612
-18.69,-17.89,-27.31,0.49,-2.99,-0.47,1721228212622
-15.35,66.91,-78.45,-2.24,1.33,-0.31,1721228212632
-4.27,25.27,32.43,-0.42,-1.88,0.36,1721228212642
13.61,62.69,12.68,0.79,0.73,0.16,1721228212652
7.36,2.94,-49.32,1.23,-0.70,0.12,1721228212662
-35.02,5.01,78.45,-2.24,-1.10,-0.34,1721228212677
8.72,33.85,78.45,-1.25,-1.38,0.18,1721228212681
12.16,63.02,9.55,0.72,1.52,0.71,1721228212691
31.86,-77.77,-78.45,3.50,-0.81,-1.07,1721228212701
-6.11,-17.06,-78.45,-0.54,-1.37,0.03,1721228212711
-2.14,-20.15,-37.95,-0.77,4.37,0.46,1721228212721
-35.56,-44.78,68.25,-1.30,-1.08,-1.05,1721228212731
78.45,78.45,47.58,0.85,-0.49,-1.05,1721228212741
-20.29,42.52,11.35,2.51,0.92,0.78,1721228212751
58.07,71.51,-78.45,2.19,-0.04,1.24,1721228212761
-43.53,-34.61,-60.02,0.63,-4.37,1.86,1721228212771
66.24,-78.45,45.66,-4.37,4.37,-3.17,1721228212781
-78.45,78.45,78.45,-0.74,-4.37,-4.15,1721228212791
8.99,43.86,-9.10,-0.43,0.44,-2.24,1721228212801
-30.72,-11.95,-78.45,3.73,-4.37,0.62,1721228212811
-10.76,-11.58,-13.18,-1.48,-2.30,1.21,1721228212821
71.50,78.45,78.45,-0.87,3.55,1.49,1721228212831
-14.18,-18.36,-20.96,-2.46,-2.58,1.34,1721228212841
25.90,42.15,11.03,-1.70,2.60,-0.74,1721228212851
2.44,78.45,-30.42,-1.19,-4.37,0.37,1721228212861
-7.02,-54.74,69.78,0.69,0.34,0.08,1721228212871
16.34,6.50,-6.82,1.64,-4.06,0.28,1721228212881
-0.03,26.03,-18.85,1.27,0.00,-0.09,1721228212891
0.52,50.41,4.57,-0.08,0.27,-0.08,1721228212901
-0.14,-36.42,20.43,-2.06,0.68,0.35,1721228212911
-17.77,-36.23,30.89,0.20,-0.57,-0.30,1721228212921
-2.83,33.27,-36.84,2.38,-1.74,0.69,1721228212931
11.14,-29.30,-7.39,-2.00,1.79,0.60,1721228212941
2.27,49.24,73.87,0.44,-0.16,-1.13,1721228212951
4.14,-4.29,-21.31,0.17,-0.22,0.55,1721228212961
17.44,-58.91,-28.66,-1.40,2.49,0.37,1721228212971
-18.14,25.78,64.16,-0.11,1.82,-0.31,1721228212981
5.50,64.45,20.93,0.83,-1.93,0.26,1721228212991
19.53,-32.96,-45.87,-0.15,-0.27,0.39,1721228213001
4.95,-29.58,69.39,-2.39,3.85,-0.79,1721228213011
-16.68,31.44,78.45,1.13,-4.07,-0.02,1721228213021
-7.79,-25.80,-29.81,0.43,-0.82,-0.14,1721228213031
6.02,41.01,-19.08,-0.48,1.41,-0.13,1721228213041
8.82,7.76,-22.28,1.37,-0.72,-0.17,1721228213051
10.80,31.73,-22.48,1.56,0.45,-0.45,1721228213061
-0.88,10.05,-43.71,-1.82,-0.62,-0.20,1721228213071
-7.55,-75.01,58.82,-2.76,1.15,-1.57,1721228213081
-17.19,4.47,78.45,1.37,-1.83,-0.20,1721228213091
-14.67,-0.00,-20.03,1.47,0.14,1.79,1721228213101
24.92,28.45,-62.68,1.70,-0.53,2.06,1721228213111
19.15,-27.55,-69.41,-2.32,1.70,1.12,1721228213121
65.15,-6.05,17.59,-2.60,4.37,-2.16,1721228213131
-44.77,43.57,78.45,-0.68,-4.08,-2.97,1721228213141
-10.57,-33.66,6.63,4.37,-3.17,-1.89,1721228213151
-38.13,-22.26,-38.93,1.33,-0.89,0.13,1721228213161
-1.22,36.99,-64.07,-0.19,1.62,0.63,1721228213171
0.43,-45.38,-3.13,-1.75,-0.40,1.17,1721228213181
30.89,78.45,75.10,0.64,1.54,-0.55,1721228213191
20.93,-14.83,9.88,-1.32,-0.18,0.06,1721228213201
15.77,-64.39,19.79,-2.87,0.77,-0.58,1721228213211
-7.42,57.40,73.99,-0.84,2.46,-0.64,1721228213221
11.77,62.63,-26.63,0.57,-2.76,-0.91,1721228213231
3.65,-29.32,-29.25,-1.18,2.22,-0.25,1721228213241
-15.83,-17.73,-35.94,-1.37,2.45,0.05,1721228213251
-6.72,78.45,78.45,-1.14,1.37,1.30,1721228213261
2.01,-74.07,-27.03,-0.29,-1.03,-0.43,1721228213271
22.08,20.62,-17.12,-4.25,2.31,-1.10,1721228213281
14.25,58.59,18.16,-0.40,3.07,-0.43,1721228213291
4.94,-0.70,22.38,0.73,-0.72,-1.00,1721228213301
-6.21,6.00,24.64,1.16,-0.01,-0.70,1721228213311
-9.13,-0.28,-9.98,0.31,-0.88,0.08,1721228213321
0.53,10.08,24.56,0.48,2.05,-0.45,1721228213331
-7.97,31.14,49.85,1.02,-1.37,0.32,1721228213341
-1.24,1.20,-28.92,0.70,-1.01,0.05,1721228213351
6.43,-47.18,-39.86,0.66,0.05,0.04,1721228213361
-1.91,-63.10,-17.98,-0.96,2.06,0.02,1721228213371
-2.34,13.43,78.45,-0.57,-0.42,0.05,1721228213381
22.39,28.68,44.58,3.31,-1.11,-0.83,1721228213391
1.08,28.74,-19.14,1.35,-1.69,-0.74,1721228213401
-7.43,67.97,-17.95,0.43,0.95,-0.21,1721228213411
3.72,-16.86,-26.34,-0.64,-1.25,0.71,1721228213421
2.71,-64.27,-46.05,-2.11,1.08,0.04,1721228213431
-18.69,-56.45,-6.47,0.93,1.44,-0.43,1721228213441
-3.93,28.91,66.10,-0.02,0.14,-0.92,1721228213451
-16.96,16.30,40.45,0.80,-0.21,-0.71,1721228213461
-9.17,-32.18,-34.17,1.10,-0.53,0.13,1721228213471
-5.21,-13.54,-34.66,-1.13,1.07,1.16,1721228213481
15.09,-52.49,19.06,-0.98,1.16,0.31,1721228213491
19.94,23.22,62.53,1.57,0.01,-0.42,1721228213501
-2.03,39.69,-11.44,1.41,-1.06,-0.37,1721228213511
12.00,-50.08,-73.91,-1.04,-0.13,-0.92,1721228213521
19.51,-78.45,63.99,-4.18,4.37,-1.22,1721228213531
30.79,49.17,65.19,-0.61,-0.55,-1.10,1721228213541
-11.10,-60.09,-36.98,1.95,-1.06,-0.17,1721228213551
3.27,6.16,-3.64,-0.36,2.03,1.53,1721228213561
21.10,44.36,-12.39,1.37,0.47,0.90,1721228213571
22.93,16.04,-35.62,-0.62,-0.90,0.13,1721228213581
17.31,-25.98,26.25,-1.13,2.68,-0.93,1721228213591
-17.40,-36.45,65.70,-1.89,-0.57,-1.89,1721228213601
-18.80,0.60,6.26,1.84,-1.72,-1.26,1721228213611
-14.23,44.39,-19.71,0.80,0.32,0.41,1721228213621
-2.39,-50.07,-24.22,-0.94,0.15,1.47,1721228213631
-3.36,23.02,54.45,-0.82,2.51,0.44,1721228213641
15.44,76.99,33.38,1.71,-0.97,0.06,1721228213651
5.71,-77.22,-31.54,-1.27,-1.04,-1.17,1721228213661
-3.28,-0.27,27.40,-1.24,0.93,-1.19,1721228213671
-17.88,38.82,4.82,1.53,-1.02,0.36,1721228213681
-0.74,-10.81,-26.28,1.40,0.16,0.71,1721228213691
6.66,-28.30,1.45,-1.51,1.53,0.23,1721228213701
-23.99,13.18,67.02,-0.82,-1.04,0.06,1721228213711
-2.25,23.14,8.27,2.26,-1.06,-0.76,1721228213721
2.66,-21.87,-54.04,0.39,-0.78,0.35,1721228213731
11.66,-62.03,66.53,-0.74,3.36,1.54,1721228213741
-8.24,56.98,48.56,1.67,-0.87,1.16,1721228213751
24.31,36.66,-47.87,1.20,-1.61,0.18,1721228213761
16.56,-50.65,-26.27,-4.13,1.79,-0.72,1721228213771
-16.92,-27.49,78.45,-1.04,0.61,-2.18,1721228213781
-0.64,16.14,22.77,2.29,-0.82,-0.79,1721228213791
-16.29,-37.81,-68.77,1.93,-0.38,0.56,1721228213801
10.59,2.21,-9.72,-0.92,2.88,1.55,1721228213811
11.66,-6.17,-14.73,-0.99,0.47,1.49,1721228213821
23.60,-18.60,50.74,-0.20,1.93,-0.02,1721228213831
-8.19,41.54,38.19,0.06,-0.14,0.03,1721228213841
8.33,-8.63,-42.60,1.59,-1.23,-0.10,1721228213851
5.08,-14.49,-4.46,-0.91,1.81,0.02,1721228213861
-4.68,-2.60,21.85,0.01,-0.62,0.59,1721228213871
9.42,5.92,-2.56,0.62,-0.34,0.67,1721228213881
17.01,-61.87,27.00,-2.17,2.13,0.07,1721228213891
-8.03,40.47,55.85,0.20,-0.97,-0.89,1721228213901
-10.86,-9.06,-21.96,0.70,-0.82,-0.46,1721228213911
-14.19,-25.15,-1.42,-1.73,0.71,1.84,1721228213921
11.24,55.27,24.86,1.09,1.03,2.14,1721228213931
30.33,-16.86,-40.39,-1.29,-1.72,1.03,1721228213941
22.80,-78.45,55.66,-1.67,1.37,-2.49,1721228213951
2.48,78.45,35.58,2.08,-3.64,-0.99,1721228213961
-16.32,6.28,-57.33,2.25,0.26,0.53,1721228213971
3.99,40.32,-78.45,-1.70,-0.48,0.91,1721228213981
-23.25,10.47,-10.51,-0.30,4.37,0.91,1721228213991
20.45,-58.01,-11.01,-1.64,-0.43,0.08,1721228214001
3.66,-32.59,64.45,-0.46,1.13,-0.55,1721228214011
-3.31,78.45,37.36,-0.16,-0.58,0.58,1721228214021
-5.15,-3.30,-42.87,1.99,-0.56,1.03,1721228214031
24.93,32.70,-20.51,-0.45,2.45,0.50,1721228214041
9.63,-19.12,-27.86,-1.32,-1.13,0.00,1721228214051
10.89,-78.45,46.47,-0.89,2.16,-1.48,1721228214061
-16.00,61.18,78.17,1.76,-2.75,0.26,1721228214071
-12.11,9.07,0.09,1.23,0.55,1.23,1721228214081
11.69,20.31,-39.72,0.20,0.45,1.86,1721228214091
16.41,-5.77,-18.71,0.21,1.33,0.02,1721228214101
13.83,-12.05,6.84,-0.79,-0.03,-0.42,1721228214111
-11.73,5.88,78.45,-0.01,0.49,-2.11,1721228214121
-12.50,-9.86,20.65,1.19,-1.55,-1.24,1721228214131
-16.07,-0.15,-28.91,-0.70,0.40,0.67,1721228214141
-4.55,23.12,34.08,0.02,1.64,1.27,1721228214151
17.09,2.79,-18.15,0.67,-1.65,1.31,1721228214161
18.09,11.73,-51.94,0.79,0.13,0.00,1721228214171
13.17,-51.10,1.95,-1.96,0.82,-1.35,1721228214181
-30.80,-46.99,78.45,0.05,-2.24,-3.34,1721228214191
-12.47,75.10,78.45,2.06,0.41,-0.68,1721228214201
-24.41,-28.62,-78.45,3.15,-1.38,1.64,1721228214211
17.59,-30.58,-78.45,-0.09,0.43,2.22,1721228214221
15.40,-78.45,-33.40,-0.74,4.37,0.63,1721228214231
-78.45,78.45,78.45,-0.84,1.86,-3.62,1721228214241
12.90,-60.89,78.45,-0.14,1.49,-2.12,1721228214251
3.74,-24.96,-78.45,3.28,-2.84,-0.79,1721228214261
-48.56,-44.01,62.21,-1.51,-1.41,0.44,1721228214271
30.99,-10.99,18.25,-1.12,4.37,0.15,1721228214281
-30.35,-29.89,-9.13,0.50,-2.58,1.22,1721228214291
13.23,-15.07,-37.60,-1.30,2.57,0.25,1721228214301
16.62,-17.17,49.64,-1.71,2.17,-0.98,1721228214311
-13.56,78.45,61.47,0.66,-1.30,-1.88,1721228214321
-16.06,-20.09,-5.25,-0.23,-1.30,-1.14,1721228214331
-12.55,-12.59,-29.40,-0.67,1.51,-0.26,1721228214341
-7.66,9.90,44.78,0.36,0.95,1.16,1721228214351
0.57,33.66,-16.03,-1.59,0.10,1.51,1721228214361
20.90,-24.90,-24.61,0.29,1.06,-0.03,1721228214371
-4.59,20.04,60.21,-0.71,1.13,-0.18,1721228214381
5.58,37.74,70.35,0.58,-0.64,-0.47,1721228214391
-7.73,-29.66,-21.19,1.18,-1.83,-1.14,1721228214401
-15.17,34.72,16.95,0.09,1.85,-0.89,1721228214411
-4.93,32.25,11.16,0.20,-1.68,0.43,1721228214421
-4.89,-78.45,0.16,-0.66,0.66,0.74,1721228214431
-7.66,59.71,40.38,0.05,1.44,0.77,1721228214441
-15.38,10.23,-5.77,0.95,-2.55,0.67,1721228214451
9.31,-37.98,-29.95,-1.04,0.81,-0.69,1721228214461
8.42,-32.08,50.91,0.36,0.53,-0.86,1721228214471
-21.97,44.12,78.45,0.72,-0.60,-0.25,1721228214481
-10.39,37.75,-9.36,0.93,-0.65,-0.26,1721228214491
4.63,0.11,-14.94,-1.09,0.38,-0.00,1721228214501
-1.82,-49.59,-17.44,-0.54,0.53,0.48,1721228214511
5.34,-37.82,27.09,-1.17,1.42,-0.57,1721228214521
3.16,-1.28,42.38,0.51,-0.44,-0.18,1721228214531
-1.04,-7.19,7.35,1.83,0.50,-0.01,1721228214541
5.12,-14.03,-7.01,-0.45,-0.26,-0.24,1721228214551
-9.92,59.47,10.61,0.82,0.18,-0.06,1721228214561
5.02,2.90,-22.99,1.61,-1.69,0.40,1721228214571
0.39,-26.98,-18.78,-1.57,1.05,0.41,1721228214581
-1.59,-18.34,67.68,-0.90,1.24,-0.31,1721228214591
-1.21,34.87,13.69,1.75,-1.26,-0.20,1721228214601
10.24,-32.65,-10.14,-1.67,0.93,-1.00,1721228214611
-26.25,31.35,68.10,0.52,-0.88,-1.25,1721228214621
-10.89,-27.54,-20.40,0.82,-1.22,0.27,1721228214631
-4.49,0.41,-21.71,-0.26,1.60,1.01,1721228214641
3.80,9.77,13.63,1.55,-0.14,0.91,1721228214651
16.94,9.99,-18.65,0.89,-1.48,0.78,1721228214661
15.65,-16.02,-53.37,0.17,-0.04,-0.43,1721228214671
-20.68,-24.30,78.45,-1.07,0.98,-2.03,1721228214686
-0.11,36.23,78.45,-0.60,-0.12,-2.11,1721228214690
-13.04,22.75,78.45,1.78,-0.83,-1.02,1721228214700
-15.17,6.41,-78.45,4.01,-1.59,1.04,1721228214710
-15.16,-33.39,-18.17,-0.65,-4.37,1.71,1721228214720
61.47,44.73,-13.25,-0.51,2.23,-0.85,1721228214730
-4.16,30.49,-16.53,2.19,-1.22,0.66,1721228214740
15.17,-14.13,-60.06,2.13,-0.23,0.71,1721228214750
-27.97,-18.37,-58.80,-0.84,-1.24,0.78,1721228214760
-24.88,46.52,25.04,-1.57,1.18,-0.99,1721228214770
6.68,50.85,78.45,-0.71,-3.30,-1.20,1721228214780
1.50,-7.55,-18.26,-0.50,0.09,-0.85,1721228214790
-18.13,30.67,-0.37,-0.74,0.90,0.28,1721228214800
0.58,-6.66,-5.63,-0.47,0.01,1.36,1721228214810
7.99,-14.07,9.30,-0.14,1.46,1.01,1721228214820
14.08,-8.81,21.10,-0.29,0.66,0.78,1721228214830
14.20,-24.79,5.81,-0.12,-0.03,-0.43,1721228214840
-0.26,7.79,47.89,-0.39,0.23,-1.47,1721228214850
-9.00,48.61,4.98,1.32,-0.83,-0.35,1721228214860
-7.12,-55.27,-54.92,-0.26,-0.38,0.05,1721228214870
6.00,-63.58,72.85,0.00,1.01,-0.23,1721228214880
-38.59,46.65,78.40,0.06,0.63,0.99,1721228214890
10.02,12.79,-36.43,0.77,-1.68,1.17,1721228214900
12.26,-12.97,10.07,-2.04,2.17,0.24,1721228214910
-9.44,-3.71,77.07,-1.57,0.85,-0.77,1721228214920
-6.81,-17.52,-10.29,0.72,-0.62,-1.32,1721228214930
-14.16,-15.45,0.72,-0.56,0.39,0.12,1721228214940
-11.09,17.84,20.49,0.82,0.08,0.69,1721228214950
-0.28,14.82,0.12,0.86,-0.60,1.12,1721228214960
14.18,-4.10,32.66,-0.84,1.37,0.80,1721228214970
8.80,-26.99,40.77,-1.06,-0.36,0.29,1721228214980
12.68,15.76,6.49,1.16,0.41,-1.03,1721228214990
-11.48,34.81,-3.99,1.00,-0.50,-0.69,1721228215000
-6.75,-30.06,-2.15,-0.78,0.46,-0.39,1721228215010
-25.40,3.13,31.76,0.04,0.39,-0.28,1721228215020
-5.79,23.93,37.51,1.28,-0.26,0.58,1721228215030
9.11,33.72,-14.77,0.89,-0.51,1.31,1721228215040
15.57,18.33,3.25,-0.38,1.04,0.18,1721228215050
4.71,-58.16,28.47,-1.91,-0.46,-1.02,1721228215060
-3.86,-2.93,8.58,2.18,0.30,-1.75,1721228215070
-24.83,12.81,-42.85,-0.35,-0.90,0.06,1721228215080
-5.39,-49.14,12.10,-1.33,2.11,0.92,1721228215090
-13.31,4.71,78.45,1.12,-0.79,0.43,1721228215100
6.47,59.23,47.37,1.60,0.02,1.29,1721228215110
15.22,-17.76,-57.21,-0.05,-1.24,0.82,1721228215120
8.09,-21.54,-16.25,-1.71,1.42,-0.88,1721228215130
-12.81,29.65,-14.05,-0.91,-0.56,-0.26,1721228215140
0.32,-38.66,-9.31,-0.98,0.82,0.17,1721228215150
-11.09,-46.95,60.41,0.43,-0.11,-1.55,1721228215160
-8.15,78.45,64.10,0.85,-1.47,0.48,1721228215170
-8.86,21.92,-64.60,1.70,-0.16,2.05,1721228215180
23.08,29.66,-74.85,-2.39,2.44,1.26,1721228215190
20.02,-41.72,60.30,-1.87,2.21,-0.32,1721228215200
20.29,24.10,78.45,-0.17,1.23,-1.23,1721228215210
-5.48,24.59,-63.41,1.10,-3.03,-1.33,1721228215220
-9.48,-33.65,-59.16,-1.99,2.82,-0.73,1721228215230
-14.28,14.78,55.51,-1.09,2.77,0.19,1721228215240
-1.61,45.20,78.45,-0.50,-2.35,0.10,1721228215250
-3.92,-9.58,-1.43,0.33,-1.36,2.11,1721228215260
24.30,47.89,-14.21,0.08,1.31,2.00,1721228215270
23.01,-51.39,-41.84,-2.05,-0.31,0.62,1721228215280
-11.97,-29.72,30.86,-1.06,1.18,-2.59,1721228215290
0.44,64.56,29.81,1.58,-3.03,-2.78,1721228215300
-8.92,-51.34,-10.25,-1.05,-1.21,-2.52,1721228215310
-28.55,0.39,35.14,-1.37,0.08,0.30,1721228215320
-34.34,47.75,1.08,0.09,2.40,2.12,1721228215330
0.92,-3.74,-26.13,-0.02,-0.91,2.40,1721228215340
27.89,48.39,-26.04,0.02,1.76,0.18,1721228215350
9.44,-12.19,-23.03,-0.63,-0.46,-0.53,1721228215360
17.31,-78.45,17.71,-0.78,-0.08,-2.05,1721228215370
-27.21,29.00,78.45,0.02,-0.76,-1.61,1721228215380
-9.59,15.90,13.30,0.60,-0.53,-0.88,1721228215390
-10.95,13.82,-2.66,0.32,0.57,-0.34,1721228215400
-24.19,17.60,-0.45,-0.18,0.93,1.56,1721228215410
6.19,-8.33,-7.85,-0.63,0.60,1.64,1721228215420
14.51,-78.45,12.88,-0.58,0.84,0.81,1721228215430
-5.22,65.73,43.90,0.07,1.38,-0.40,1721228215440
20.39,6.59,0.95,1.00,-3.59,-1.11,1721228215450
4.69,-23.17,9.14,-1.36,2.11,-1.73,1721228215460
-15.95,52.82,35.33,0.88,-1.87,-0.99,1721228215470
-22.60,4.35,5.34,1.15,-0.44,-0.54,1721228215480
-9.25,22.53,-32.47,0.71,-0.26,0.86,1721228215490
-10.69,-24.32,-9.64,-0.79,1.18,1.45,1721228215500
14.51,-57.27,33.76,-0.66,0.60,0.13,1721228215510
-1.52,68.09,13.65,1.52,0.37,0.11,1721228215520
17.48,-23.54,-18.09,1.05,-1.81,-1.08,1721228215530
-5.18,-17.27,1.82,-0.88,1.84,-1.55,1721228215540
-26.52,69.39,37.41,1.00,-1.27,-0.66,1721228215550
-15.64,2.65,16.85,0.70,0.58,-0.26,1721228215560
-4.17,-73.05,-2.07,-0.71,-0.89,0.52,1721228215570
4.22,46.40,-7.69,0.47,1.13,0.79,1721228215580
6.51,-28.18,-23.16,0.04,0.43,0.08,1721228215590
5.81,3.14,75.24,-0.40,2.37,-1.58,1721228215600
-6.22,50.52,37.63,0.86,-1.96,-0.67,1721228215610
2.27,8.61,-31.16,0.36,0.55,0.08,1721228215620
-9.86,6.18,31.98,-0.98,1.45,0.63,1721228215630
4.33,-15.39,-3.90,0.21,-1.28,0.76,1721228215640
9.35,-22.92,-31.24,-0.45,0.87,0.09,1721228215650
-1.01,43.87,55.77,0.22,0.05,-1.04,1721228215660
0.40,20.37,-7.34,0.88,-2.37,-0.04,1721228215670
-5.43,-39.27,-61.16,-0.76,0.67,0.14,1721228215680
-10.02,-23.71,73.35,-1.26,3.60,0.26,1721228215690
-11.56,39.96,78.45,0.44,0.75,0.65,1721228215700
-8.32,27.50,7.26,2.13,-1.01,0.39,1721228215710
14.81,5.53,-75.06,-0.53,-1.57,0.28,1721228215720
-0.41,-33.68,-36.95,-2.45,0.32,-0.30,1721228215730
3.36,-36.37,56.69,-1.55,1.88,-0.47,1721228215740
-26.77,66.08,78.45,1.44,0.47,-0.68,1721228215750
2.15,-8.80,-14.21,0.98,-3.09,-0.58,1721228215760
-8.57,-9.80,-20.64,-2.41,1.89,0.36,1721228215770
6.97,73.70,47.39,0.07,-0.76,0.18,1721228215780
3.45,-21.53,-4.60,-0.04,-1.02,0.85,1721228215790
8.95,-9.42,-46.56,-0.07,0.17,0.39,1721228215800
-2.96,-12.94,25.58,-1.26,2.55,-0.26,1721228215810
4.75,-21.51,75.68,-0.43,0.16,-0.23,1721228215820
-8.98,23.90,38.54,0.22,-1.08,-0.43,1721228215830
-2.82,34.05,-39.43,0.46,-0.41,0.25,1721228215840
0.07,-35.44,-38.76,-0.24,0.57,0.59,1721228215850
4.86,-54.42,30.04,-0.53,0.63,-0.58,1721228215860
-18.92,78.45,28.22,0.15,-1.29,0.59,1721228215870
-6.18,3.16,-33.17,1.55,-0.72,0.59,1721228215880
0.07,2.70,-59.42,-2.93,1.37,0.38,1721228215890
-1.62,-78.45,78.45,-0.53,1.71,-0.48,1721228215900
-77.83,72.91,78.45,-1.58,1.28,0.83,1721228215910
1.01,-48.37,-36.31,0.55,-1.85,0.10,1721228215920
7.64,27.04,-61.52,0.84,-1.12,-0.97,1721228215930
-24.84,-12.85,8.15,-0.89,-4.18,0.08,1721228215940
-11.48,23.99,23.01,0.01,1.83,-0.01,1721228215950
2.53,41.07,5.91,0.91,-1.16,0.28,1721228215960
7.71,-18.03,11.85,-0.73,0.73,0.70,1721228215970
2.38,3.34,41.34,-1.16,0.89,0.04,1721228215980
-0.97,46.02,15.12,1.17,-0.40,-0.66,1721228215990
3.61,-71.09,-31.36,-0.66,-0.76,-0.31,1721228216000
-31.99,-62.57,15.30,0.83,-0.12,-0.57,1721228216010
-19.31,41.84,64.42,1.01,-0.85,0.62,1721228216020
-4.98,3.05,-21.61,1.25,-1.57,1.42,1721228216030
15.04,-26.30,-15.53,-0.24,1.28,0.39,1721228216040
-6.72,23.70,54.55,0.22,-0.04,-0.21,1721228216050
21.04,17.17,22.76,0.51,-0.71,0.27,1721228216060
19.13,-65.91,-20.75,-1.17,0.37,-1.04,1721228216070
-19.73,6.04,78.45,0.23,0.14,-1.31,1721228216080
25.72,63.93,14.98,0.62,0.06,-0.20,1721228216090
-9.44,-39.12,-76.94,0.97,-0.37,1.47,1721228216100
5.23,-78.45,-15.80,-0.74,-1.16,0.53,1721228216110
-31.86,5.84,78.45,-1.07,-1.62,-0.72,1721228216120
54.24,19.51,-10.84,2.13,-1.02,-1.23,1721228216130
-6.12,14.61,-8.40,0.61,-1.20,0.03,1721228216140
-8.89,50.03,-16.88,0.12,0.59,0.54,1721228216150
7.73,-64.87,-10.33,-1.36,0.42,0.52,1721228216160
-5.09,-46.35,33.15,0.19,-0.04,-0.54,1721228216170
-6.26,45.90,19.16,1.61,-0.12,0.78,1721228216180
21.27,-17.31,2.61,0.28,-0.54,1.38,1721228216190
1.76,4.00,34.27,-0.39,0.96,0.43,1721228216200
4.34,15.83,12.78,1.76,-1.84,-0.38,1721228216210
4.45,-3.82,-23.97,0.50,0.01,-0.41,1721228216220
-1.81,-21.84,7.70,-0.92,0.94,-0.21,1721228216230
-7.35,-16.22,32.86,0.95,-0.02,-0.59,1721228216240
-8.03,20.89,-28.01,1.30,-1.24,0.82,1721228216250
13.64,-31.59,-60.98,-1.36,0.56,1.07,1721228216260
15.51,-25.78,67.91,-1.47,2.47,0.04,1721228216270
17.04,36.29,77.79,-0.48,-0.11,-0.59,1721228216280
-4.42,-32.74,-7.75,0.50,-0.78,-0.62,1721228216290
-8.57,7.19,11.60,0.30,1.21,-0.06,1721228216300
-8.04,38.68,3.21,-0.83,0.79,1.63,1721228216310
19.81,-10.22,-43.47,0.32,0.16,0.91,1721228216320
19.48,-28.56,-29.98,-0.78,0.71,0.19,1721228216330
11.52,-10.88,9.48,-1.64,1.83,-0.71,1721228216340
-27.13,-9.38,78.45,-1.10,-1.87,-3.02,1721228216350
-15.84,72.92,78.45,1.40,-0.22,-1.56,1721228216360
-22.75,-33.53,-76.30,1.73,-0.24,2.38,1721228216370
-7.73,-37.24,-78.45,-0.22,1.30,2.96,1721228216380
39.74,-53.02,45.92,-0.22,2.20,0.34,1721228216390
-22.43,78.45,78.45,0.75,-1.05,-1.35,1721228216400
9.86,-20.78,-2.24,-1.58,-3.74,-0.91,1721228216410
-11.74,-45.88,-35.19,-2.17,2.56,-2.18,1721228216420
-60.88,59.77,78.45,-1.10,0.77,-0.70,1721228216430
-18.58,78.45,32.76,1.19,-0.14,0.83,1721228216440
-1.51,-78.45,-76.27,0.13,-1.58,1.64,1721228216450
33.39,14.92,31.84,0.09,1.81,0.59,1721228216460
-4.99,39.69,56.35,-2.04,1.66,0.18,1721228216470
23.77,-1.43,28.60,1.13,-3.44,-1.50,1721228216480
-26.29,27.57,2.36,0.26,0.63,-1.50,1721228216490
-0.52,-17.47,-18.95,-0.09,-1.21,-0.54,1721228216500
-14.02,-4.19,12.57,-0.69,2.36,0.36,1721228216510
-13.90,52.83,55.11,-0.97,-0.22,1.23,1721228216520
-11.16,-34.84,-4.17,0.52,-1.32,0.44,1721228216530
12.28,3.89,7.15,-1.07,1.50,-0.07,1721228216540
-6.26,27.41,24.23,0.37,2.01,-0.39,1721228216550
3.52,-15.53,1.95,1.64,-2.29,-0.29,1721228216560
1.24,22.76,-1.44,-0.31,1.54,-0.02,1721228216570
-44.53,-3.23,9.91,-1.67,-0.97,-0.24,1721228216580
8.33,-25.73,31.10,0.85,0.39,-0.70,1721228216590
-26.73,42.70,34.17,-0.81,-0.05,0.47,1721228216600
-0.75,17.32,-10.08,1.23,-0.75,0.58,1721228216610
3.22,11.08,-31.10,0.37,0.05,0.37,1721228216620
4.24,-40.65,23.24,-1.38,0.78,-0.36,1721228216630
4.36,-13.52,78.45,0.01,0.52,-1.22,1721228216640
-7.37,35.92,13.82,0.52,-1.13,-1.20,1721228216650
-5.70,1.27,-34.44,1.10,-0.55,-0.02,1721228216660
-10.87,6.47,-8.66,0.92,1.09,0.62,1721228216670
5.61,-18.81,30.77,-1.29,1.28,1.12,1721228216680
10.48,-11.35,42.16,1.11,-0.71,-0.52,1721228216695
3.09,28.69,-12.18,1.98,-1.76,-0.90,1721228216699
4.01,-18.31,-47.87,-0.63,-0.55,-0.76,1721228216709
-20.17,11.27,42.88,-1.66,1.45,-1.00,1721228216719
-17.88,45.49,41.11,1.19,-1.66,0.35,1721228216729
-5.11,-23.49,-56.88,1.61,-1.34,0.67,1721228216739
9.96,-4.23,-32.44,-1.73,2.09,0.40,1721228216749
14.42,-13.98,70.96,-1.12,1.60,-0.10,1721228216759
-3.32,-2.12,78.45,0.93,1.11,0.25,1721228216769
0.37,0.56,-50.82,1.28,-1.57,-0.59,1721228216779
0.35,13.98,10.51,-0.64,2.01,-0.40,1721228216789
17.85,60.86,4.63,-1.24,-0.83,0.83,1721228216799
15.06,-73.36,-24.86,-1.28,1.42,0.40,1721228216809
24.58,-62.64,78.45,0.20,0.81,-1.72,1721228216819
-19.98,36.98,61.03,1.26,-2.31,-0.41,1721228216829
-6.27,-13.62,-58.18,1.89,0.11,0.43,1721228216839
-1.68,24.48,-76.69,-2.32,1.42,1.52,1721228216849
6.91,67.18,11.63,-0.52,0.51,0.57,1721228216859
6.98,-78.45,11.96,-1.92,-3.54,-1.23,1721228216869
-26.96,55.49,78.45,-0.53,1.55,-1.34,1721228216879
22.33,76.07,27.67,0.08,-1.05,-0.67,1721228216889
-11.29,-19.47,-66.11,1.33,-1.33,-0.56,1721228216899
-16.35,-39.59,10.00,-1.71,2.57,0.50,1721228216909
-4.44,6.28,57.19,-0.95,1.74,0.33,1721228216919
-2.01,10.56,31.95,1.08,-0.01,0.76,1721228216929
10.15,-9.03,-32.35,0.53,-0.97,1.47,1721228216939
15.01,30.16,14.92,-0.12,2.36,0.36,1721228216949
-4.73,77.32,35.67,-0.90,-1.01,-0.32,1721228216959
-1.00,-22.02,-35.48,0.41,-2.02,-1.29,1721228216969
-10.91,-0.73,-39.36,-0.97,-0.16,-1.76,1721228216979
-30.00,6.28,60.94,-1.36,0.48,-1.03,1721228216989
-63.61,-2.72,78.45,-0.11,0.53,1.02,1721228216999
-5.47,3.07,-5.87,1.00,0.02,1.81,1721228217009
19.57,68.51,3.57,-0.34,1.14,1.00,1721228217019
10.30,19.36,-8.48,-0.46,-1.09,0.54,1721228217029
16.33,-65.97,-12.42,-0.55,0.30,-0.69,1721228217039
7.46,-31.99,5.54,-0.56,0.62,-1.10,1721228217049
-4.33,0.25,31.73,-0.61,-0.20,-0.91,1721228217059
-6.95,17.42,33.12,0.41,-0.64,-0.16,1721228217069
-8.97,7.64,11.06,0.68,-0.38,0.66,1721228217079
2.56,30.02,-5.11,1.06,0.34,1.35,1721228217089
13.91,-16.99,-21.95,-0.06,-0.00,0.83,1721228217099
9.89,-28.20,27.63,-1.02,0.76,-0.65,1721228217109
-14.41,46.44,31.71,0.72,-1.16,-1.30,1721228217119
-6.15,-7.89,-43.83,1.14,-2.11,-0.57,1721228217129
-6.03,9.05,-15.10,-0.80,1.22,-0.44,1721228217139
-15.74,40.78,29.83,1.09,-1.11,-0.48,1721228217149
9.17,17.93,8.35,0.78,0.26,0.92,1721228217159
9.90,-30.61,-45.88,0.06,-0.60,0.84,1721228217169
9.97,-54.98,36.91,-2.34,1.42,-0.88,1721228217179
3.83,2.38,27.27,1.15,-1.45,-0.94,1721228217189
2.61,-16.44,-31.47,0.24,0.34,-0.79,1721228217199
-6.43,-6.40,30.51,-0.52,2.62,-0.35,1721228217209
-15.67,28.29,70.35,1.56,-1.70,0.49,1721228217219
-13.82,23.37,-53.91,1.55,0.28,0.64,1721228217229
10.68,-49.07,-29.68,-3.79,1.22,0.34,1721228217239
10.53,-32.51,78.45,-1.12,0.94,-0.03,1721228217249
6.65,78.45,28.58,1.90,3.01,0.34,1721228217259
11.88,-11.24,-78.45,4.37,-2.34,-0.18,1721228217269
1.50,-7.36,-38.89,-3.19,2.51,-1.02,1721228217279
-7.86,78.45,24.37,0.35,2.72,-0.96,1721228217289
19.67,-50.97,-13.36,-0.24,-2.16,-0.83,1721228217299
-9.31,8.24,26.56,0.69,0.79,0.04,1721228217309
-27.56,46.73,-32.96,0.72,-0.64,2.00,1721228217319
-2.91,-35.26,-48.68,-1.00,-2.12,1.22,1721228217329
61.47,-75.19,63.09,-1.52,4.09,-1.92,1721228217339
21.46,61.35,78.45,-1.43,0.42,-1.50,1721228217349
-2.55,-19.48,-14.78,3.44,-1.07,-0.82,1721228217359
-12.19,-19.50,-16.16,-0.16,0.51,-0.47,1721228217369
-21.58,23.85,15.61,-0.44,1.13,1.10,1721228217379
1.47,14.32,55.13,1.05,0.17,1.96,1721228217389
14.33,10.59,-29.15,0.16,-1.12,1.17,1721228217399
23.44,-50.84,-41.15,-1.37,0.63,-0.64,1721228217409
17.87,-11.31,49.95,-0.33,3.14,-1.95,1721228217419
-17.07,69.22,64.95,0.85,-2.18,-1.17,1721228217429
-16.05,-38.34,-43.84,-0.27,-0.11,-0.54,1721228217439
-15.69,-34.43,45.66,-2.37,1.68,0.49,1721228217449
-78.45,0.13,72.21,0.30,-0.42,1.99,1721228217459
-9.39,0.47,-48.71,1.79,-1.38,1.50,1721228217469
55.17,-4.65,-71.70,-3.77,1.48,-1.62,1721228217479
34.95,-54.73,-28.97,-0.55,4.37,-1.87,1721228217489
-1.45,30.49,59.24,2.61,-2.50,-0.33,1721228217499
13.28,6.80,-42.87,1.87,-0.31,-1.12,1721228217509
10.18,15.51,-24.24,-4.37,-2.06,-0.30,1721228217519
24.47,71.91,78.45,2.97,-3.09,0.17,1721228217529
27.52,-17.21,19.46,-0.51,1.63,1.86,1721228217539
25.37,64.94,-43.94,2.91,-0.71,0.03,1721228217549
-12.20,-15.94,13.20,-1.57,-4.37,-1.13,1721228217559
27.99,78.45,78.45,-0.43,4.37,-1.78,1721228217569
22.21,78.45,24.82,1.37,-2.55,-1.42,1721228217579
-17.23,-50.66,-56.57,1.20,-0.81,-0.04,1721228217589
-23.64,-78.45,-78.45,0.63,0.06,1.56,1721228217599
3.59,64.56,78.45,-0.97,2.19,0.20,1721228217609
-11.94,54.22,2.83,0.20,-0.13,0.63,1721228217619
23.73,-66.53,-49.98,1.11,-1.72,-0.03,1721228217629
56.46,16.01,78.45,-3.39,1.12,-0.68,1721228217639
-9.44,75.83,78.45,-0.41,-2.49,-0.28,1721228217649
-5.19,-13.23,-10.43,0.33,-1.31,0.18,1721228217659
-20.71,-25.34,-19.82,-0.15,0.43,0.33,1721228217669
0.88,56.91,16.15,0.68,4.37,0.67,1721228217679
-0.15,25.93,5.58,0.17,-1.42,1.50,1721228217689
23.08,9.20,-11.49,0.66,2.50,0.33,1721228217699
11.08,17.20,37.26,-0.13,0.77,-0.73,1721228217709
8.06,-37.19,2.53,0.60,-2.78,-0.85,1721228217719
-6.49,-11.94,3.81,0.10,1.53,-0.81,1721228217729
-17.48,-8.18,48.48,0.20,-0.29,-0.53,1721228217739
-1.34,15.42,-21.70,1.62,-0.37,0.60,1721228217749
-3.25,-29.44,-42.46,-0.75,-0.14,1.53,1721228217759
11.64,-24.48,62.86,-2.61,4.37,0.56,1721228217769
17.14,78.45,78.45,0.73,-3.23,0.04,1721228217779
-16.53,-61.71,-53.96,1.32,-1.63,-1.47,1721228217789
49.98,31.80,11.75,-2.95,4.37,-2.35,1721228217799
-3.78,-17.37,-29.21,-0.34,1.81,0.10,1721228217809
4.27,-12.17,3.66,2.53,0.44,-0.45,1721228217819
-37.36,-12.70,78.45,0.14,2.35,0.91,1721228217829
-8.70,7.55,-29.81,-0.09,-0.10,-0.39,1721228217839
-3.88,-4.60,16.85,-0.76,2.11,-0.44,1721228217849
-8.00,18.11,43.70,0.82,-0.32,-0.41,1721228217859
-7.43,3.51,-23.46,1.15,-1.63,0.38,1721228217869
2.23,-10.01,-53.83,0.22,0.17,0.47,1721228217879
-1.13,-27.95,19.44,-1.39,2.29,0.67,1721228217889
-35.48,2.90,78.45,-1.14,0.48,-0.28,1721228217899
-8.01,-2.57,28.22,2.14,-1.54,-0.55,1721228217909
1.97,-24.22,-36.65,0.54,-1.36,0.16,1721228217919
0.91,24.59,-13.01,-0.24,1.50,0.78,1721228217929
23.40,-6.39,-16.78,0.57,-0.18,0.47,1721228217939
17.58,3.79,39.44,-0.28,1.78,-0.65,1721228217949
1.98,26.56,38.53,0.16,-1.62,-0.82,1721228217959
-8.73,-13.78,-46.04,0.41,-0.31,-1.03,1721228217969
-14.41,-23.71,-35.05,-2.89,0.64,-0.28,1721228217979
6.97,-37.30,71.10,-1.56,0.27,0.35,1721228217989
1.03,57.43,78.45,3.81,-2.19,1.28,1721228217999
-5.02,8.38,-48.79,3.18,-2.21,1.01,1721228218009
23.37,75.62,-62.12,-2.05,2.46,0.37,1721228218019
2.38,15.56,7.33,-1.24,-0.43,-0.70,1721228218029
18.88,-78.45,2.77,-1.37,-0.72,-1.37,1721228218039
-5.29,-31.27,48.60,1.45,1.66,-1.91,1721228218049
-26.00,1.36,21.00,0.13,-2.26,0.37,1721228218059
-24.54,-31.95,-24.65,-0.25,0.61,1.56,1721228218069
5.14,37.20,33.24,0.01,1.95,2.18,1721228218079
20.40,36.75,6.80,-0.04,-1.23,1.77,1721228218089
34.69,-30.88,-51.84,1.31,-0.37,0.19,1721228218099
25.25,-72.95,16.80,-2.32,3.22,-1.02,1721228218109
-23.60,47.40,76.74,0.43,-3.95,-2.17,1721228218119
-2.20,-7.39,17.48,-0.12,1.06,-1.19,1721228218129
-61.43,30.64,-50.12,-1.44,-0.74,0.28,1721228218139
24.41,16.01,67.54,-1.43,3.80,0.19,1721228218149
-21.47,6.80,56.23,-0.22,-0.38,1.45,1721228218159
18.83,-9.24,0.88,-0.30,0.33,0.70,1721228218169
14.33,5.29,41.78,-0.33,1.55,0.76,1721228218179
19.13,3.08,-21.93,0.90,-1.88,0.35,1721228218189
16.22,-37.26,-41.89,0.03,0.96,-0.95,1721228218199
4.62,-18.71,43.00,0.76,0.53,-1.50,1721228218209
-10.54,46.45,16.15,-0.43,-0.77,-0.32,1721228218219
-10.92,-0.06,2.98,0.88,0.14,0.20,1721228218229
-5.36,13.52,66.80,-1.36,1.04,1.79,1721228218239
5.14,36.66,12.61,1.00,0.26,1.50,1721228218249
14.24,-56.21,-12.00,0.09,-0.40,-0.13,1721228218259
11.25,48.71,4.87,0.60,0.72,-1.58,1721228218269
0.77,24.48,-15.72,-0.89,-0.54,-1.16,1721228218279
-6.95,-19.56,-42.63,0.48,1.09,-0.94,1721228218289
-10.77,-23.00,8.64,-0.71,1.11,0.28,1721228218299
-6.98,-57.56,78.45,-0.87,1.71,1.20,1721228218309
0.40,43.71,78.45,1.35,1.31,2.54,1721228218319
9.44,-21.22,-78.45,3.35,-2.17,-0.34,1721228218329
9.88,11.48,-76.26,-2.60,3.35,-1.70,1721228218339
0.17,24.55,-0.11,-0.11,-1.19,-0.98,1721228218349
-35.10,-15.44,1.86,-0.93,3.25,-0.88,1721228218359
-15.93,-54.78,53.18,-0.02,-2.94,0.17,1721228218369
7.69,-4.38,78.45,0.64,1.44,-0.31,1721228218379
-19.73,-4.48,12.36,1.19,0.04,1.00,1721228218389
17.65,42.73,-59.67,0.39,-1.27,-0.28,1721228218399
7.79,2.68,-41.60,-0.51,0.93,-1.40,1721228218409
-0.94,-32.86,-13.78,-2.02,-0.64,-1.54,1721228218419
-36.16,-16.20,78.45,0.81,-0.08,-1.52,1721228218429
-14.47,41.40,19.56,1.23,0.29,1.24,1721228218439
7.82,-26.26,-47.65,0.46,0.55,2.69,1721228218449
13.10,27.88,67.59,-1.72,4.13,0.62,1721228218459
26.47,9.22,20.30,-2.20,-1.68,-0.04,1721228218469
8.03,-65.68,26.25,0.69,1.19,-2.34,1721228218479
-20.04,25.09,7.93,1.69,-1.67,-0.49,1721228218489
-19.03,-16.03,-46.16,1.66,0.76,0.60,1721228218499
5.03,12.81,-0.93,-1.18,1.93,0.51,1721228218509
-3.40,33.56,29.87,-1.93,-0.56,0.74,1721228218519
9.79,-46.29,-5.61,1.30,-0.49,0.13,1721228218529
13.32,-10.54,-31.47,-1.91,0.18,-0.08,1721228218539
-4.91,35.47,39.09,-0.22,0.60,-1.28,1721228218549
-0.62,13.22,34.66,0.77,-1.06,-1.01,1721228218559
-10.47,-10.38,-7.74,-0.76,-0.14,-0.83,1721228218569
-24.54,19.23,29.43,0.28,0.14,0.29,1721228218579
0.16,7.50,-15.48,-0.14,-0.39,1.49,1721228218589
14.65,-64.95,-37.61,-1.01,1.03,0.87,1721228218599
7.80,-12.54,30.10,0.32,2.88,-0.61,1721228218609
-0.14,58.15,50.83,1.32,-1.44,-0.51,1721228218619
-26.79,78.45,32.32,1.38,-1.64,0.00,1721228219154
-0.44,78.45,-21.07,0.47,-1.23,0.14,1721228219159
-36.71,-63.27,-76.03,0.08,1.13,2.10,1721228219169
-21.47,2.01,-36.83,1.49,-1.48,1.58,1721228219179
22.54,27.67,54.83,-1.59,1.97,1.26,1721228219189
22.55,50.76,78.45,-0.08,1.01,-0.01,1721228219199
4.05,49.31,11.45,1.01,-2.14,0.64,1721228219209
15.11,-72.48,-51.68,-1.08,-1.58,0.09,1721228219219
46.68,-34.69,-55.43,0.96,2.26,-0.73,1721228219229
-21.09,-10.71,38.73,0.07,0.03,-0.90,1721228219239
-16.08,-30.45,2.16,0.04,-1.36,-0.85,1721228219249
-21.64,3.79,39.21,0.10,-0.09,0.47,1721228219259
0.38,12.38,15.63,0.33,-0.01,2.04,1721228219269
18.90,4.47,-14.42,0.52,0.42,1.39,1721228219279
7.69,29.61,50.24,0.37,1.80,-0.51,1721228219289
9.91,50.79,12.88,0.91,-1.12,-0.25,1721228219299
-10.77,-73.03,-62.07,-1.48,-0.64,-0.13,1721228219309
13.73,-78.45,63.99,-2.27,4.21,0.06,1721228219319
-8.56,62.78,78.45,-1.61,1.14,-0.09,1721228219329
-20.48,44.75,20.05,1.62,0.12,2.06,1721228219339
18.51,-49.07,-57.89,1.69,-0.64,1.25,1721228219349
25.21,-31.39,-12.51,-0.65,2.23,-0.13,1721228219359
3.18,9.04,-4.84,0.56,-1.55,-1.04,1721228219368
-0.22,-7.83,5.24,1.55,-1.02,-1.69,1721228219378
-20.05,-15.35,7.63,0.65,-1.29,-0.47,1721228219388
-14.23,14.17,36.10,-0.48,0.41,0.54,1721228219398
-10.65,21.02,50.53,-0.34,-0.08,0.39,1721228219407
-1.14,5.17,35.50,0.08,-0.06,1.58,1721228219417
15.54,-16.20,-35.87,1.19,-0.24,1.34,1721228219427
27.10,9.52,-31.38,0.83,0.88,-0.20,1721228219437
12.29,14.70,-24.55,0.31,0.06,-1.34,1721228219446
-0.05,-36.36,-20.68,-1.90,-1.07,-1.92,1721228219456
-19.76,-36.68,51.57,-1.73,1.20,-1.75,1721228219465
-25.45,-5.08,78.45,1.83,-3.29,0.26,1721228219475
-20.45,-20.83,15.13,1.17,1.28,1.07,1721228219484
0.99,36.86,-72.44,1.53,-1.33,1.67,1721228219494
7.57,-42.16,-37.89,-1.20,1.62,1.54,1721228219503
17.15,-0.67,23.02,-2.27,1.84,0.31,1721228219513
16.91,-22.96,42.58,1.08,-1.39,-1.46,1721228219523
4.81,8.91,-1.92,-0.42,-0.74,-0.68,1721228219533
0.17,25.29,53.74,-0.15,1.72,0.31,1721228219542
-3.85,-16.97,26.90,0.73,-0.93,0.24,1721228219552
-8.14,-5.74,-39.26,0.34,-0.54,1.09,1721228219562
16.66,-3.95,-40.18,0.36,0.78,0.34,1721228219572
11.31,-31.61,21.49,-1.74,1.61,-1.50,1721228219582
-2.81,68.10,51.93,0.00,-3.65,-1.58,1721228219592
-7.60,12.32,-28.16,0.62,-0.95,0.39,1721228219602
-3.41,-59.30,-64.54,-1.69,0.77,0.69,1721228219612
17.05,-78.45,78.45,-3.52,4.20,-0.17,1721228219622
-13.68,50.92,78.45,0.70,-0.10,0.81,1721228219632
8.78,-25.93,-33.66,0.95,-2.08,-0.32,1721228219642
15.55,-6.14,12.76,-1.45,1.86,-0.78,1721228219652
-30.85,78.45,25.49,0.89,-1.06,0.55,1721228219662
3.68,-7.32,-26.82,1.33,0.54,0.32,1721228219672
13.06,1.27,-57.88,-0.55,-0.22,-0.09,1721228219682
9.69,-78.45,12.51,-2.03,1.90,-1.49,1721228219692
-22.36,60.12,57.41,0.87,-3.06,-1.05,1721228219702
3.30,17.07,45.58,0.46,1.44,0.86,1721228219712
4.40,-37.52,-48.27,0.15,-1.62,-0.03,1721228219722
-5.03,16.98,26.31,-1.24,3.10,-0.84,1721228219732
-5.03,12.06,-33.96,-2.55,-0.51,0.03,1721228219742
1.85,6.08,24.09,0.31,1.29,-1.05,1721228219752
-11.92,56.38,27.26,1.26,-1.47,-0.78,1721228219762
-13.36,-4.92,-31.06,0.45,-0.72,0.22,1721228219772
-2.46,-53.26,-19.98,-0.73,1.06,0.73,1721228219782
6.60,19.22,25.11,0.04,1.70,0.86,1721228219792
-2.73,-11.61,39.70,-0.15,-0.14,0.31,1721228219802
4.56,10.27,40.07,0.34,0.32,-1.34,1721228219812
-3.50,0.68,11.68,0.10,-1.32,-1.02,1721228219822
-8.29,14.43,-16.65,0.59,0.33,-0.10,1721228219832
-3.44,7.22,-14.61,0.87,0.05,0.41,1721228219842
-0.76,9.51,-11.69,0.48,0.14,0.56,1721228219852
3.33,-73.04,-4.05,-0.59,-0.67,0.05,1721228219862
0.68,41.77,43.42,-0.56,1.68,-0.76,1721228219872
-4.25,-11.16,35.75,-0.11,-2.34,0.63,1721228219882
5.40,25.71,-5.51,-0.06,0.22,0.22,1721228219892
2.35,-17.16,-21.54,-0.13,-0.49,-0.87,1721228219902
-4.31,-49.70,-12.21,-1.01,0.38,-0.56,1721228219912
-5.21,26.97,74.58,-0.65,1.99,-0.18,1721228219922
14.24,36.04,34.99,0.64,-1.04,0.13,1721228219932
-7.87,-20.54,-42.09,0.72,-1.95,-0.17,1721228219942
-2.52,-12.19,5.54,-0.71,2.55,-0.46,1721228219952
1.10,28.19,33.46,2.12,-0.97,0.06,1721228219962
22.90,14.48,23.40,0.38,-0.17,0.04,1721228219972
-2.96,-47.13,-10.59,-1.39,-0.94,-0.58,1721228219982
-1.59,28.39,0.68,0.85,1.32,0.22,1721228219992
5.14,-13.44,-20.14,0.39,-0.48,0.07,1721228220002
4.92,-32.71,21.35,-0.53,1.16,-0.45,1721228220012
-23.69,45.37,20.81,2.03,-1.11,-0.23,1721228220022
2.45,5.64,-25.85,1.05,-1.22,0.27,1721228220032
10.99,8.49,-8.37,-0.93,2.25,-0.03,1721228220042
7.07,-38.18,48.62,-0.78,0.64,0.08,1721228220052
4.02,-22.25,75.66,-0.08,1.37,-0.44,1721228220062
-4.04,12.92,-19.62,1.30,-2.12,-0.69,1721228220072
-2.09,0.46,-37.97,-0.37,0.66,0.01,1721228220082
4.42,-31.46,20.58,-1.21,1.42,0.04,1721228220092
-29.13,36.23,72.30,-0.22,-0.14,-0.09,1721228220102
-9.08,65.23,-19.84,2.07,-1.49,0.29,1721228220112
9.85,-24.63,-33.31,-1.18,0.39,0.09,1721228220122
1.57,-40.50,40.85,-2.16,0.83,-0.38,1721228220132
-27.94,67.62,21.81,1.27,-1.04,-0.30,1721228220142
2.36,-2.58,-48.26,1.81,-2.02,-0.59,1721228220152
1.85,-0.74,-25.74,-1.13,0.37,-0.41,1721228220162
-15.48,33.80,59.53,-0.40,0.65,-0.22,1721228220172
22.42,-10.30,36.78,-0.10,-1.55,0.24,1721228220182
-3.86,30.39,24.53,0.08,0.78,-0.52,1721228220192
1.73,25.57,4.64,1.08,-0.99,0.21,1721228220202
-0.55,14.71,-35.42,-0.20,0.29,0.79,1721228220212
13.98,-45.38,-11.42,-1.88,0.93,-0.31,1721228220222
-11.86,-10.72,78.45,0.05,0.59,-1.35,1721228220232
-18.97,52.54,16.77,1.31,-2.99,-0.35,1721228220242
-4.48,-53.21,-71.74,0.34,0.01,1.22,1721228220252
30.56,3.91,68.66,-0.93,4.37,1.81,1721228220262
20.83,37.97,42.86,0.45,-0.74,0.73,1721228220272
13.74,-39.87,-22.05,0.09,-1.21,-0.85,1721228220282
3.67,31.78,-13.22,-0.20,0.50,-0.55,1721228220292
-2.33,5.03,4.35,0.88,-0.86,0.22,1721228220302
13.24,-8.02,-11.62,-0.86,-0.05,0.79,1721228220312
13.63,-28.58,40.28,-0.99,0.76,-0.38,1721228220322
-1.68,43.17,50.02,0.28,-0.85,-1.03,1721228220332
-12.44,-9.76,-26.24,0.30,-1.13,-0.72,1721228220342
-9.55,-26.43,-5.50,-0.26,0.52,0.46,1721228220352
-7.22,6.07,20.06,0.49,0.34,1.32,1721228220362
4.62,18.44,40.07,-1.22,0.18,0.27,1721228220372
13.19,30.84,76.75,-1.15,-0.53,0.43,1721228220382
12.25,3.40,-25.74,-0.09,-1.03,0.51,1721228220392
14.02,-57.20,-32.41,-0.32,1.01,-1.23,1721228220402
-26.15,-48.97,-35.87,-0.57,1.06,-0.21,1721228220412
-19.25,12.18,31.85,1.22,-0.82,-0.28,1721228220422
-6.57,-3.07,-1.25,0.58,-0.35,0.39,1721228220432
-23.08,29.08,58.35,-0.27,0.64,1.36,1721228220442
6.96,58.10,36.38,0.69,0.54,1.99,1721228220452
21.30,-44.87,-42.93,1.25,-0.70,1.15,1721228220462
18.85,-54.88,-37.11,-0.76,-0.03,-1.29,1721228220472
-14.79,30.12,11.94,-0.19,0.05,-2.67,1721228220482
9.73,4.07,-0.18,1.62,-2.56,-2.11,1721228220492
-12.18,-19.07,-30.74,0.20,0.08,-0.74,1721228220502
-7.59,1.30,56.74,-0.94,2.58,0.50,1721228220512
-44.84,46.46,78.45,0.26,-0.37,0.55,1721228220522
-11.93,-16.30,-26.54,0.55,-1.43,0.68,1721228220532
15.85,42.71,-33.53,0.14,0.95,1.05,1721228220542
6.57,1.47,-11.90,-0.27,0.95,0.69,1721228220552
28.02,-48.97,15.93,-0.82,-0.08,-0.18,1721228220562
0.79,-8.12,24.94,0.11,0.40,-2.16,1721228220572
-19.15,11.59,33.09,0.63,-1.11,-1.92,1721228220582
-22.18,-11.56,0.76,0.22,0.39,-0.32,1721228220592
-12.32,51.79,44.05,0.44,-0.06,1.08,1721228220602
4.64,17.67,-21.92,0.42,-0.05,1.74,1721228220612
25.33,-45.27,-53.04,-0.38,0.65,0.89,1721228220622
28.31,-73.98,7.17,-3.12,3.64,-0.73,1721228220632
-13.02,48.26,76.69,0.90,-2.70,-1.76,1721228220642
-1.99,-1.14,14.91,0.35,-0.39,-0.99,1721228220652
-10.42,-55.05,-16.23,-0.54,-0.67,0.14,1721228220662
-13.53,49.56,19.23,0.26,0.96,0.68,1721228220672
-4.00,-10.47,-8.63,0.00,-0.70,0.26,1721228220682
-3.18,29.16,41.12,0.74,0.67,-0.42,1721228220692
-10.31,21.69,5.24,0.79,-1.41,0.39,1721228220702
6.91,-20.39,-49.94,-0.09,-0.10,0.19,1721228220712
4.42,-17.18,28.67,-1.11,2.86,-0.38,1721228220722
-28.46,32.19,62.86,-0.80,-0.42,-0.89,1721228220732
-17.88,-21.81,-30.99,-0.42,0.03,0.08,1721228220742
3.19,-38.50,32.12,-2.41,2.83,0.88,1721228220752
11.07,65.29,73.14,0.68,-0.02,0.44,1721228220762
3.45,10.85,-5.45,1.24,-0.04,1.14,1721228220772
21.95,42.30,-41.23,2.31,0.75,0.78,1721228220782
16.09,20.80,20.68,-0.53,3.44,-0.28,1721228220792
2.37,-78.45,-8.72,-3.31,-2.07,-1.22,1721228220802
-25.97,-27.37,78.45,2.67,-1.46,-1.75,1721228220812
-78.45,-54.51,78.45,-0.16,4.37,2.13,1721228220822
-25.26,6.16,-78.45,4.37,-0.35,0.54,1721228220832
1.75,47.87,-78.45,-0.78,2.25,1.14,1721228220842
7.14,-23.87,43.70,-0.33,4.17,2.06,1721228220852
46.68,-10.81,78.45,-3.87,2.87,-0.53,1721228220862
32.97,-19.70,11.93,2.96,-2.87,-1.43,1721228220872
-26.05,22.09,-73.13,0.48,-1.47,-0.30,1721228220882
4.73,-32.06,-37.35,-1.23,4.25,-0.51,1721228220892
-45.93,-43.37,75.15,-1.35,0.51,-1.41,1721228220902
1.24,78.45,78.45,-0.79,-2.34,-0.18,1721228220912
-25.75,6.59,-22.92,0.29,-1.81,1.23,1721228220922
8.00,18.83,-7.48,-1.04,2.58,1.80,1721228220932
7.46,-0.10,6.99,-1.63,0.02,0.53,1721228220942
9.05,-9.74,24.60,0.14,0.09,-0.90,1721228220952
9.17,-11.87,-11.23,0.93,-1.55,-1.20,1721228220962
-1.53,-5.86,-34.05,-0.30,0.68,-0.62,1721228220972
-0.55,-6.03,45.45,-0.59,1.38,-0.72,1721228220982
-15.40,43.98,78.45,0.28,-2.31,-0.74,1721228220992
-19.38,36.20,-14.43,0.80,-0.22,-0.38,1721228221002
-6.49,-37.10,-14.36,-0.62,-0.44,0.96,1721228221012
-6.32,-7.76,13.15,-0.67,1.50,1.68,1721228221022
-1.63,-12.87,-15.21,0.09,-0.54,0.90,1721228221032
12.50,15.94,27.36,-0.22,1.93,-0.68,1721228221042
12.56,23.51,21.32,0.13,-1.98,-0.95,1721228221052
-6.26,16.70,14.83,0.05,0.36,-0.92,1721228221062
-9.81,0.84,20.02,-0.05,-0.85,0.53,1721228221072
-5.35,-26.02,-12.26,0.09,-0.10,0.77,1721228221082
1.91,0.52,5.33,0.80,0.70,0.29,1721228221092
8.89,-10.57,23.47,1.34,1.10,0.16,1721228221102
-0.51,48.12,12.14,1.20,-0.22,0.13,1721228221112
7.28,27.82,9.14,0.23,-0.17,0.15,1721228221122
-12.41,-5.11,-2.84,-1.01,-1.21,0.14,1721228221132
5.44,-59.64,-20.91,1.34,-0.99,0.35,1721228221142
0.51,-48.24,-18.82,-1.98,0.41,0.66,1721228221157
6.68,-57.73,49.35,-1.99,0.62,0.17,1721228221161
-13.51,64.51,78.45,2.33,-3.12,-0.50,1721228221171
-4.54,-2.31,-44.20,1.76,-2.03,0.48,1721228221181
9.31,14.35,-1.82,-1.93,3.01,0.59,1721228221191
-13.37,-20.71,14.14,-0.09,1.72,0.14,1721228221201
1.89,-78.05,-48.04,1.12,-2.03,-0.82,1721228221211
-39.08,-78.45,-78.45,1.55,0.12,-0.59,1721228221221
-7.26,40.42,70.27,-0.76,0.85,-0.87,1721228221231
-28.78,46.39,78.45,2.81,-2.62,0.04,1721228221241
-15.66,-0.84,-58.55,0.51,-2.95,-0.30,1721228221251
8.00,48.05,-11.47,-0.63,2.24,-0.17,1721228221261
-2.42,-18.51,13.87,-2.45,-0.31,0.34,1721228221271
9.73,-28.63,44.63,0.55,0.66,-0.05,1721228221281
0.55,32.98,-9.94,1.04,-1.87,-0.26,1721228221291
-7.81,-1.99,-16.55,-1.38,0.06,-0.66,1721228221301
-8.50,5.44,44.08,-0.69,0.21,-0.39,1721228221311
-10.39,9.22,21.35,0.71,-0.01,0.92,1721228221321
6.24,-20.37,-37.00,0.30,-0.28,0.54,1721228221331
-3.23,-36.62,34.18,-1.33,0.83,0.34,1721228221341
-19.89,64.48,23.46,0.22,-0.09,0.42,1721228221351
9.41,-3.91,-32.67,1.41,-1.14,0.05,1721228221361
7.79,15.44,-41.74,-1.07,0.70,0.16,1721228221371
24.44,-78.45,26.45,-3.98,1.62,-0.60,1721228221381
-35.21,24.60,78.45,1.45,-2.24,-2.04,1721228221391
-13.18,14.49,36.24,1.61,-1.05,-1.06,1721228221401
-29.03,33.58,-78.45,4.37,-0.72,0.79,1721228221411
-49.58,-23.35,-29.89,-0.37,-4.37,2.67,1721228221421
78.45,50.78,76.28,-0.61,4.37,-0.46,1721228221431
1.89,-19.45,37.30,2.37,-2.85,0.45,1721228221441
12.52,-44.29,-36.94,1.65,-1.05,-0.23,1721228221451
16.88,-24.51,8.37,-1.26,2.99,-0.71,1721228221461
29.66,52.07,2.41,-0.31,1.31,-0.37,1721228221471
-0.78,-38.60,-13.72,0.08,-2.44,-0.29,1721228221481
1.50,-12.02,18.13,-2.01,1.26,-0.93,1721228221491
-5.23,29.57,74.89,-0.83,-0.08,0.11,1721228221501
1.98,-4.75,6.62,1.82,-1.69,0.68,1721228221511
12.59,18.62,-12.90,0.67,0.80,0.26,1721228221521
-10.67,-10.56,-16.87,0.12,-0.56,0.74,1721228221531
15.32,-23.24,18.90,-0.04,1.11,-0.04,1721228221541
-17.74,-0.96,34.22,0.77,-1.35,0.13,1721228221551
12.20,1.45,5.33,0.10,-1.04,1.01,1721228221561
12.49,15.95,18.89,-0.30,2.18,0.22,1721228221571
-9.76,47.64,32.78,0.16,-1.35,-0.27,1721228221581
5.29,-15.69,-32.26,-0.27,-0.80,-0.62,1721228221591
0.72,-22.91,0.91,-1.35,0.93,-0.54,1721228221601
-25.98,22.92,48.22,0.78,-0.69,-0.03,1721228221611
-7.86,-47.09,-14.05,0.39,-1.08,0.20,1721228221621
-4.65,46.85,63.63,-0.44,1.49,-0.04,1721228221631
8.61,78.45,55.37,0.21,-0.44,0.82,1721228221641
3.08,-57.87,-52.02,-1.12,-0.92,0.55,1721228221651
2.33,-10.24,-3.98,-1.40,0.83,-1.21,1721228221661
-20.00,-29.42,16.28,-0.97,-1.18,-1.89,1721228221671
-10.05,-5.94,37.74,0.32,-0.62,-1.36,1721228221681
-11.58,4.33,-9.12,1.44,-2.15,-0.19,1721228221691
-5.05,16.16,-6.54,0.33,0.85,0.82,1721228221701
-0.17,17.96,30.78,0.06,0.48,0.96,1721228221711
6.91,19.79,-1.86,0.03,-0.31,0.97,1721228221721
24.74,-34.36,-6.34,-0.19,0.69,-0.17,1721228221731
1.92,-11.12,29.83,-0.24,0.07,-1.03,1721228221741
-0.02,-5.29,0.02,-0.09,-1.61,-0.91,1721228221751
-3.88,-24.20,13.51,0.60,0.69,-1.02,1721228221761
-16.57,-20.78,19.70,0.87,-0.53,-0.40,1721228221771
-3.28,61.08,16.79,1.47,0.36,0.51,1721228221781
6.28,-26.49,7.28,-0.15,0.11,0.75,1721228221791
2.30,44.11,14.00,0.67,0.54,0.89,1721228221801
22.53,-42.71,-33.38,0.10,-1.57,0.62,1721228221811
22.33,-41.52,22.49,-3.22,0.92,-1.89,1721228221821
-11.32,60.00,63.27,0.27,-1.20,-1.38,1721228221831
16.25,-1.06,-3.00,1.00,-3.23,-1.00,1721228221841
-7.33,-31.21,-20.18,0.08,0.44,-0.36,1721228221851
-14.41,78.45,38.20,1.83,-0.24,0.55,1721228221861
18.44,39.63,-25.44,0.70,-0.42,1.40,1721228221871
15.50,-78.45,-53.74,-3.57,1.07,-0.08,1721228221881
-45.33,-78.45,78.45,2.15,-3.03,-1.37,1721228221891
-8.72,46.81,42.96,2.18,-2.46,1.01,1721228221901
6.46,-51.87,-67.44,0.74,-0.15,1.01,1721228221911
61.16,49.79,78.45,-0.28,4.01,-0.34,1721228221921
-43.56,44.93,9.75,-0.48,1.21,1.04,1721228221931
5.14,-78.45,-18.10,-1.90,0.40,-0.52,1721228221941
-23.27,-41.44,48.36,-0.31,0.75,-0.94,1721228221951
-16.71,32.62,-5.20,0.44,0.09,0.63,1721228221961
15.42,-51.65,-40.45,1.36,-1.23,-0.35,1721228221971
-5.45,21.62,29.13,0.31,2.25,-0.86,1721228221981
18.63,78.19,-23.82,-0.09,-1.27,0.29,1721228221991
4.93,-35.20,-40.73,-4.37,0.89,0.30,1721228222001
-23.43,-67.03,78.45,0.80,-1.11,-0.36,1721228222011
8.80,78.45,78.45,2.57,0.85,1.75,1721228222021
17.95,-78.45,-70.09,4.37,-2.60,0.41,1721228222031
37.60,31.77,-37.56,-4.37,-0.62,-0.76,1721228222041
38.85,1.13,-37.71,-4.37,4.37,-1.06,1721228222051
7.79,-23.29,11.75,-0.36,1.16,-2.21,1721228222061
-78.45,-78.45,78.45,-0.26,-3.97,-0.70,1721228222071
-31.23,40.04,43.73,1.97,0.12,-0.20,1721228222081
-10.55,-43.27,-25.86,1.15,-1.59,2.00,1721228222091
27.65,51.39,-37.96,-1.16,2.94,2.05,1721228222101
8.97,-20.50,-1.56,0.09,0.16,0.43,1721228222111
24.59,-5.20,34.73,-0.26,0.79,-2.40,1721228222121
-3.67,10.85,11.11,0.23,-2.36,-2.22,1721228222131
-12.24,-15.15,-3.46,-0.71,0.75,-1.60,1721228222141
-26.56,6.00,23.82,0.65,-0.07,0.57,1721228222151
-4.37,61.73,29.81,2.05,0.40,1.30,1721228222161
-6.58,2.78,-21.12,-0.33,-1.23,1.34,1721228222171
11.30,-78.45,3.85,-1.86,2.61,0.54,1721228222181
-11.16,-31.77,33.87,1.19,1.63,0.29,1721228222191
-1.91,72.39,-34.31,-0.08,-1.56,-0.67,1721228222201
8.01,-74.44,-12.08,0.89,0.56,-0.44,1721228222211
7.07,48.13,36.50,0.48,2.61,1.00,1721228222221
-6.98,36.38,32.64,0.06,-1.95,0.70,1721228222231
-1.52,-4.35,-0.29,-1.00,1.06,0.26,1721228222241
6.38,-32.81,4.06,0.94,-0.58,-0.22,1721228222251
-0.56,1.25,-36.73,1.17,-0.39,-0.05,1721228222261
2.09,-22.01,-3.57,-0.52,0.92,0.20,1721228222271
-35.86,22.31,75.33,-0.86,2.26,0.56,1721228222281
-0.86,-1.82,14.47,-0.23,-0.70,0.51,1721228222291
-5.54,-68.43,-5.00,-0.66,0.06,-0.56,1721228222301
-3.53,26.64,23.76,0.25,0.74,-0.25,1721228222311
-6.37,1.80,-14.17,-0.81,-1.02,-0.17,1721228222321
-13.10,27.14,27.07,0.46,0.69,-0.15,1721228222331
-4.58,51.22,11.73,1.10,-0.60,0.62,1721228222341
-0.05,-31.90,-37.32,-0.99,-0.22,0.50,1721228222351
14.91,-30.72,9.91,-2.14,1.56,0.48,1721228222361
-1.38,26.22,78.45,-1.10,0.86,-0.85,1721228222371
-1.97,25.40,14.82,1.66,-1.26,-0.91,1721228222381
3.35,-18.26,-30.92,0.55,-1.25,0.01,1721228222391
-11.51,32.55,22.33,-0.07,2.22,0.34,1721228222401
-11.31,15.09,1.26,-0.10,-2.66,1.18,1721228222411
2.56,-75.52,-4.81,-0.91,0.83,0.27,1721228222421
5.39,-30.44,58.40,0.53,1.22,-0.84,1721228222431
-6.81,8.21,38.98,-0.31,-0.11,-0.05,1721228222441
-6.69,33.83,-2.31,1.34,0.20,0.20,1721228222451
5.55,25.65,-21.80,0.08,-1.04,0.73,1721228222461
4.68,-77.42,-28.29,-2.00,-0.25,0.31,1721228222471
-21.84,-78.45,-1.53,3.09,1.30,-0.12,1721228222481
7.02,20.98,69.48,-0.45,-0.08,0.11,1721228222491
5.15,12.08,43.61,0.53,0.71,0.72,1721228222501
7.88,16.90,-22.96,1.40,-1.24,0.54,1721228222511
5.33,30.29,-31.60,-0.22,0.25,0.15,1721228222521
2.89,-46.16,-3.11,-2.10,0.25,-0.24,1721228222531
-19.23,-55.25,75.93,-0.15,1.50,-0.88,1721228222541
-14.23,78.45,0.17,2.34,-1.32,-0.38,1721228222551
3.45,-53.61,-67.83,0.28,-0.04,0.88,1721228222561
23.07,-1.09,78.45,-0.95,4.37,2.32,1721228222571
14.71,78.45,21.18,0.26,-1.12,2.09,1721228222581
11.94,-78.45,-65.61,0.89,-2.24,-0.17,1721228222591
48.89,-40.30,-56.72,4.37,1.67,-1.81,1721228222601
-3.86,12.33,56.96,-0.93,-3.57,-1.44,1721228222611
-6.08,-4.19,37.76,1.65,-1.17,-0.14,1721228222621
-3.50,-5.24,-19.77,0.49,-0.29,0.37,1721228222631
5.43,49.20,14.69,-0.66,0.02,0.95,1721228222641
4.92,-11.16,38.45,-0.46,-0.06,0.98,1721228222651
9.57,-9.11,14.55,-0.47,-0.11,-0.48,1721228222661
2.69,-12.29,8.88,-1.01,-0.57,-0.91,1721228222671
-7.02,-20.73,14.77,-0.41,-0.11,-0.33,1721228222681
-10.38,9.15,-7.33,0.00,-0.37,0.53,1721228222691
3.89,-1.47,4.22,-0.02,0.46,0.61,1721228222701
4.68,-10.57,21.96,-0.06,0.44,0.41,1721228222711
7.09,15.71,-9.13,1.12,-0.35,0.05,1721228222721
8.35,-8.49,-2.71,0.14,0.27,-0.47,1721228222731
-38.99,14.73,75.15,-1.03,1.24,0.26,1721228222741
-1.14,21.18,7.09,0.81,-0.71,0.45,1721228222751
6.76,-66.66,-39.60,-0.59,-0.18,-0.36,1721228222761
-11.45,-0.88,41.35,-0.38,1.55,-0.81,1721228222771
2.15,50.55,3.06,0.42,-1.39,-0.56,1721228222781
-3.44,-23.87,-18.92,1.30,-1.27,-0.40,1721228222791
-8.79,0.18,29.06,0.07,0.84,-0.05,1721228222801
5.41,51.42,25.28,0.22,-0.71,0.25,1721228222811
2.77,-6.05,-11.16,0.30,-0.03,-0.22,1721228222821
-1.84,10.62,20.76,0.49,0.19,-0.33,1721228222831
1.24,17.96,-19.60,0.12,-0.84,0.09,1721228222841
9.15,-59.58,-18.94,-1.61,1.06,-0.41,1721228222851
-27.66,26.31,78.45,0.51,-1.90,-1.17,1721228222861
14.65,-21.17,-4.16,1.21,-1.83,-0.40,1721228222871
-4.21,27.45,2.71,0.72,0.02,0.11,1721228222881
8.84,25.18,45.35,1.14,-0.52,0.27,1721228222891
6.98,20.09,-32.30,1.26,-0.78,-0.10,1721228222901
-1.04,-31.11,-60.53,0.32,-0.02,-0.39,1721228222911
19.83,12.25,-8.84,-0.36,2.17,-0.89,1721228222921
14.65,-19.35,23.42,-1.74,3.04,0.04,1721228222931
-1.50,-36.38,23.62,0.13,-0.03,0.23,1721228222941
1.91,4.07,17.33,0.34,0.46,0.39,1721228222951
5.90,21.65,23.00,0.88,-0.09,0.19,1721228222961
8.40,18.35,-21.94,-0.18,-0.13,-0.36,1721228222971
6.40,-29.36,12.77,-1.44,1.28,-1.06,1721228222981
-39.18,-29.54,78.14,-0.29,1.16,-1.15,1721228222991
-6.01,12.84,-49.16,1.52,-1.61,0.05,1721228223001
-17.90,-20.46,5.59,-0.86,-0.51,0.76,1721228223011
14.95,24.47,43.47,-0.31,1.35,-0.25,1721228223021
13.49,-11.24,-2.16,0.72,-0.39,0.19,1721228223031
15.49,-60.69,-10.23,-1.87,1.40,-1.00,1721228223041
-1.51,25.22,40.27,0.36,-1.57,-1.93,1721228223051
-23.37,25.18,21.33,1.01,-0.97,-0.61,1721228223061
-6.06,20.82,-17.11,-0.15,0.27,0.39,1721228223071
6.96,19.42,2.12,0.47,0.78,0.52,1721228223081
9.38,-49.39,-2.78,-1.46,-0.23,-0.03,1721228223091
2.06,5.37,36.78,-0.40,1.72,-0.69,1721228223101
10.11,18.12,15.29,0.96,-0.59,-0.17,1721228223111
5.56,-26.64,-46.94,0.27,-0.73,-0.29,1721228223121
13.47,1.08,14.22,-0.37,2.03,-1.04,1721228223131
-31.87,26.34,46.24,-0.95,1.14,-0.55,1721228223141
-7.89,5.89,-9.81,0.44,0.10,0.02,1721228223151
10.96,2.86,6.24,-0.84,2.03,-0.02,1721228223166
8.63,-5.13,16.52,-1.00,2.37,-0.26,1721228223170
-24.69,8.70,69.82,-0.24,-1.96,-0.89,1721228223180
-4.20,20.37,17.80,0.69,-0.76,-1.16,1721228223190
-3.17,25.01,-16.79,0.70,-0.13,-0.25,1721228223200
-2.66,-17.65,-14.26,-0.62,-0.10,0.59,1721228223210
4.95,-37.22,19.12,-0.14,0.95,0.31,1721228223220
-23.68,31.83,46.12,0.61,1.47,0.13,1721228223230
14.93,40.01,28.95,0.55,0.36,-0.83,1721228223240
-3.00,-63.17,-16.75,-1.53,-1.13,-0.96,1721228223250
-2.42,-3.17,15.68,-0.27,1.87,-0.60,1721228223260
11.07,42.63,-29.39,0.99,-1.06,0.43,1721228223270
3.71,-78.45,-19.90,-0.25,-0.20,0.27,1721228223280
-13.59,-27.49,69.43,-1.37,1.97,-0.42,1721228223290
14.52,78.45,78.45,0.80,-1.41,1.40,1721228223300
0.19,-24.49,-12.13,0.26,-0.90,0.97,1721228223310
25.91,65.92,-19.67,-0.49,2.51,-0.91,1721228223320
-12.73,10.79,-18.71,1.29,-1.54,-0.58,1721228223330
-9.47,-78.45,-25.91,-1.83,-1.13,-0.66,1721228223340
-18.61,-8.84,59.98,0.08,1.99,0.22,1721228223350
13.70,36.97,31.74,0.67,0.06,1.41,1721228223360
22.75,-20.84,-22.44,0.27,-0.26,0.28,1721228223370
6.39,-19.85,8.21,-0.94,1.55,-0.28,1721228223380
9.33,3.33,22.94,0.75,0.61,-0.27,1721228223390
-4.26,-35.29,-17.56,0.19,0.01,-0.28,1721228223400
1.66,-31.36,30.79,-1.34,2.10,0.15,1721228223410
-1.48,78.45,42.19,-0.17,-0.26,0.55,1721228223420
-1.02,-27.22,-31.78,0.37,-0.85,0.24,1721228223430
7.80,-5.37,2.81,-2.06,2.43,-0.30,1721228223440
-2.23,2.46,52.18,0.30,-0.81,-1.04,1721228223450
10.07,32.11,28.49,0.09,0.59,-0.07,1721228223460
1.98,4.79,-18.14,0.59,-0.21,0.31,1721228223470
-7.22,-21.71,-10.76,0.55,0.35,0.16,1721228223480
2.09,2.68,6.61,0.00,0.26,0.06,1721228223490
-8.94,9.16,25.17,-0.32,-0.52,0.06,1721228223500
-1.42,-26.53,8.83,0.23,0.09,-0.26,1721228223510
-9.02,10.95,13.01,0.26,0.39,0.02,1721228223520
5.70,3.50,30.00,-0.10,-0.09,0.43,1721228223530
1.25,45.36,2.12,1.08,-0.20,0.61,1721228223540
11.47,-9.88,-32.14,0.10,-0.56,0.10,1721228223550
12.79,-78.45,4.61,-3.58,1.25,-1.38,1721228223560
-10.77,11.77,78.45,1.55,-1.24,-0.51,1721228223570
22.48,42.68,27.61,0.07,1.22,0.02,1721228223580
3.38,22.33,-69.29,3.41,-2.03,-0.68,1721228223590
-26.38,-52.42,27.74,0.28,0.69,-0.11,1721228223600
-21.15,-41.37,19.24,-2.57,2.29,1.06,1721228223610
-13.94,-59.34,14.79,0.04,0.70,0.98,1721228223620
12.96,57.72,8.89,-0.20,1.59,1.19,1721228223630
6.64,12.88,44.88,-0.70,-1.80,0.18,1721228223640
0.58,21.41,30.87,0.45,0.10,-0.64,1721228223650
10.59,40.19,-21.88,1.15,-0.88,-0.95,1721228223660
-5.07,-40.75,-35.03,-2.14,-0.43,-1.27,1721228223670
