AccX,AccY,AccZ,GyrX,GyrY,GyrZ,Time
-3.78,6.03,20.49,0.29,-0.27,0.34,1721228644148
-2.21,4.39,3.08,0.26,-0.37,0.56,1721228644153
1.17,-4.75,2.35,-0.65,0.57,0.55,1721228644163
4.98,3.64,24.69,-0.28,-0.13,0.27,1721228644173
3.06,-8.71,11.29,-0.10,-0.37,0.08,1721228644183
-2.94,5.57,17.52,0.02,0.13,-0.23,1721228644193
-7.84,2.74,6.85,0.21,-0.52,0.27,1721228644203
-6.44,-3.14,15.10,-0.28,0.20,0.78,1721228644213
-1.40,23.66,29.92,0.52,0.05,1.11,1721228644223
3.65,3.70,-9.24,0.21,-0.95,1.18,1721228644233
4.93,-4.84,-2.49,-0.28,0.52,0.93,1721228644243
3.34,10.37,19.83,0.03,-0.46,0.01,1721228644253
-0.12,-4.73,-0.05,-0.02,-0.44,0.00,1721228644263
-7.25,-6.90,10.18,-0.35,0.11,0.24,1721228644273
-3.02,7.67,19.91,0.20,0.01,0.85,1721228644283
3.52,11.71,8.13,0.14,0.14,0.89,1721228644293
4.72,8.28,9.70,-0.30,0.05,0.38,1721228644303
1.10,-5.90,10.24,-0.37,-0.23,-0.18,1721228644313
-7.26,-2.45,9.78,-0.04,-0.36,-0.21,1721228644323
-10.92,-4.86,-1.35,0.08,-0.33,0.42,1721228644333
-6.69,-12.48,8.11,-0.44,0.28,1.24,1721228644343
2.84,5.19,33.59,-0.25,0.50,1.44,1721228644353
9.23,5.56,6.04,0.28,-0.43,0.92,1721228644363
11.48,-0.47,-4.73,-0.21,-0.20,-0.24,1721228644373
1.52,9.50,27.35,-0.69,0.10,-0.51,1721228644383
-6.36,9.87,15.29,0.28,-0.56,-0.33,1721228644393
-11.08,-0.82,-2.73,0.11,-0.88,0.34,1721228644403
-5.22,-2.89,2.95,-0.25,0.14,1.21,1721228644413
1.48,-7.59,10.40,-0.52,-0.02,1.26,1721228644423
7.67,5.56,23.19,0.04,-0.01,0.81,1721228644433
8.52,-0.28,4.96,0.12,-0.49,0.25,1721228644443
3.68,1.49,3.06,-0.18,-0.43,-0.25,1721228644453
-1.13,-3.02,14.65,0.11,-0.50,-0.09,1721228644463
-5.44,2.60,22.31,0.00,-0.39,0.19,1721228644473
-5.87,2.22,3.15,0.07,-0.32,0.38,1721228644483
-6.19,-1.61,4.51,-0.32,-0.25,0.66,1721228644493
-8.36,0.04,14.06,0.00,-0.38,0.74,1721228644503
-2.57,1.49,14.70,0.07,-0.06,0.81,1721228644513
0.27,10.97,9.39,0.33,-0.39,1.03,1721228644523
5.09,3.77,-0.36,0.01,-0.54,0.73,1721228644533
15.36,-9.76,10.32,-0.29,0.69,1.21,1721228644543
13.60,9.36,16.52,-0.09,0.02,0.38,1721228644553
14.60,4.85,1.62,-0.38,-0.63,-0.60,1721228644563
2.00,-7.71,9.62,-0.63,0.26,-1.20,1721228644573
-11.82,1.02,16.81,0.11,-0.39,-1.25,1721228644583
-21.34,-6.35,0.65,-0.03,-0.25,0.16,1721228644593
-23.99,-5.12,8.73,-0.24,-0.23,1.47,1721228644603
-7.30,-1.60,15.55,-0.10,0.33,2.84,1721228644613
14.77,3.93,8.33,0.02,0.79,2.66,1721228644623
38.40,16.98,0.03,-0.01,-0.15,0.94,1721228644633
23.44,-12.51,7.18,-0.77,-0.26,-0.95,1721228644643
2.31,2.52,28.86,-0.19,-1.34,-1.92,1721228644653
-5.09,-10.17,4.54,0.43,-0.71,-1.83,1721228644663
-16.42,2.68,-2.26,-0.19,-0.50,-0.34,1721228644673
-12.89,5.53,17.37,-0.29,0.57,0.82,1721228644683
-3.82,0.22,9.25,0.13,-0.00,1.36,1721228644693
4.75,2.67,1.86,-0.06,0.20,1.02,1721228644703
11.07,4.09,6.41,-0.06,0.07,0.43,1721228644713
6.54,-12.81,3.68,-0.34,-0.45,-0.13,1721228644723
2.84,-1.45,29.88,-0.31,-0.37,-0.90,1721228644733
-4.03,13.00,16.67,0.33,-0.42,-0.76,1721228644743
-4.87,-5.84,-10.48,-0.13,-0.01,-0.33,1721228644753
-3.27,-1.41,21.14,-0.12,-0.23,0.19,1721228644763
-2.70,0.52,16.10,0.08,0.00,0.26,1721228644773
2.04,8.25,10.52,0.16,-0.07,0.20,1721228644783
2.42,8.93,13.10,0.18,0.03,0.21,1721228644793
6.02,-3.23,0.96,0.16,-0.12,-0.22,1721228644803
4.13,5.89,17.90,0.31,-0.17,-0.66,1721228644813
-0.49,0.10,12.73,0.43,-0.22,-0.56,1721228644823
-1.74,4.21,11.09,0.38,-0.04,-0.28,1721228644833
1.20,-8.30,1.14,0.19,0.02,-0.15,1721228644843
-0.56,-10.30,11.07,-0.06,-0.02,-0.38,1721228644853
-4.19,1.71,18.88,0.40,-0.03,-0.47,1721228644863
-0.94,-1.68,2.96,0.47,-0.07,-0.18,1721228644873
1.41,0.44,10.29,0.24,0.09,-0.19,1721228644883
0.87,-4.11,15.23,0.23,0.05,-0.47,1721228644893
-2.69,7.11,14.46,0.40,-0.12,-0.54,1721228644903
-2.47,0.22,3.79,-0.01,-0.07,-0.07,1721228644913
-0.37,-2.45,15.18,-0.06,0.11,-0.02,1721228644923
2.56,-7.62,6.31,0.18,-0.03,-0.26,1721228644933
2.08,-8.30,5.41,0.10,-0.15,-0.50,1721228644943
-0.64,1.19,19.08,0.16,0.05,-0.61,1721228644953
-3.99,12.50,13.69,0.63,-0.17,-0.40,1721228644963
-1.01,5.08,-10.26,0.43,-0.54,-0.32,1721228644973
-1.15,-13.03,-1.75,-0.73,0.39,0.14,1721228644983
-0.32,0.85,48.36,0.21,-0.90,-0.47,1721228644993
-0.36,-6.73,8.04,0.74,-0.08,-0.36,1721228645003
-0.56,-3.96,-4.24,0.16,0.18,-0.21,1721228645013
1.02,18.10,14.11,0.26,0.23,0.01,1721228645023
6.95,-12.26,-2.99,-0.07,-0.21,-0.22,1721228645033
-2.91,2.80,29.77,-0.21,-0.10,-0.58,1721228645043
-3.06,-0.39,20.01,0.19,-0.10,-0.06,1721228645053
4.76,-7.60,4.10,-0.12,0.48,0.02,1721228645063
3.61,20.53,17.27,0.44,0.09,-0.13,1721228645073
8.72,-1.48,-16.54,0.50,-0.74,-0.98,1721228645083
1.33,-3.76,0.37,-0.65,0.40,-1.07,1721228645093
-12.48,-4.08,33.14,0.11,-0.93,-1.16,1721228645103
-7.98,2.24,9.59,0.32,0.06,-0.37,1721228645113
-1.41,3.99,9.29,-0.21,0.63,0.28,1721228645123
3.58,19.84,18.95,-0.07,0.31,0.13,1721228645133
6.55,-9.58,-2.55,-0.68,-0.31,-0.11,1721228645143
-0.62,-7.47,16.94,-0.13,-0.09,-1.28,1721228645153
-1.64,13.78,17.43,0.65,-1.21,-1.04,1721228645163
-6.81,-12.37,-10.87,-0.17,0.03,-0.84,1721228645173
-6.19,5.05,28.60,0.52,0.16,-0.35,1721228645183
-4.67,-2.48,-1.26,-0.08,0.01,0.33,1721228645193
9.14,-1.36,16.35,-0.86,1.57,-0.23,1721228645203
-12.45,14.36,35.63,0.02,-0.72,-0.46,1721228645213
3.71,1.05,-5.54,0.01,-0.18,-0.72,1721228645223
6.02,0.00,9.80,-0.44,1.14,-0.56,1721228645233
2.32,-11.64,15.19,-0.19,-0.26,-0.59,1721228645243
-3.34,6.80,14.23,0.06,0.24,-0.96,1721228645253
-5.76,-2.12,2.72,-0.09,0.06,-0.83,1721228645263
-10.04,-8.68,9.79,-0.70,0.69,-0.81,1721228645273
-6.05,4.30,15.54,0.37,-0.06,0.02,1721228645283
0.26,-12.90,-9.26,-0.18,0.25,0.35,1721228645293
5.34,4.43,28.66,-0.23,1.16,-0.42,1721228645303
-1.19,-0.12,14.61,0.41,-0.26,-0.54,1721228645313
-6.09,-8.91,-2.94,-0.44,0.53,-0.51,1721228645323
-4.31,4.33,18.09,0.05,0.28,-0.37,1721228645333
-1.71,-9.65,-3.86,0.49,-0.47,0.04,1721228645343
-1.79,-7.84,23.00,-0.42,0.65,-0.19,1721228645353
-0.23,27.93,30.98,0.78,-0.84,-0.01,1721228645363
-1.14,-1.38,-8.97,0.12,-0.25,-0.00,1721228645373
-0.51,-7.90,11.72,-0.08,0.36,-0.21,1721228645383
-1.54,2.45,18.53,0.48,-0.44,0.05,1721228645393
-1.59,10.19,7.59,0.33,0.02,0.24,1721228645403
1.67,-0.78,3.17,0.10,-0.04,0.21,1721228645413
0.25,-9.78,13.30,-0.22,-0.02,-0.17,1721228645423
-3.59,12.70,20.90,0.41,-0.11,-0.12,1721228645433
1.61,-6.20,0.31,-0.00,-0.08,0.06,1721228645443
-1.24,-6.51,9.75,-0.08,-0.01,0.11,1721228645453
3.22,-1.69,7.33,0.33,-0.02,0.18,1721228645463
7.82,-4.59,8.52,0.14,0.23,0.04,1721228645473
4.07,7.56,12.70,0.12,-0.20,-0.19,1721228645483
1.75,11.69,15.86,0.35,0.13,-0.67,1721228645493
-2.29,-4.38,1.01,-0.17,-0.43,-0.59,1721228645503
-8.03,-15.33,16.41,-0.35,0.18,-0.53,1721228645513
-7.71,13.86,23.34,0.46,-0.17,0.03,1721228645523
-1.92,-6.06,-16.55,-0.29,0.35,0.10,1721228645533
1.16,7.87,34.54,-0.54,0.41,0.34,1721228645543
1.90,-18.22,11.05,-0.20,-0.21,0.08,1721228645553
-2.32,2.14,10.59,0.10,-0.38,-0.60,1721228645563
-6.54,2.29,-1.70,-0.04,-0.49,-0.44,1721228645573
-1.05,-3.75,16.20,0.15,0.75,0.27,1721228645583
-3.79,27.13,24.82,0.41,-0.01,0.53,1721228645593
2.83,-14.79,-11.32,-0.21,0.54,0.18,1721228645603
4.58,-4.73,15.15,-0.27,-0.44,-0.21,1721228645613
-5.89,8.34,9.99,-0.24,0.01,-0.12,1721228645623
-5.67,-0.97,9.39,-0.18,0.31,0.11,1721228645633
3.00,-7.72,12.92,0.03,-0.24,0.59,1721228645643
5.11,0.42,12.20,0.04,0.11,-0.02,1721228645653
2.45,15.66,13.51,0.29,-0.41,0.01,1721228645663
4.30,-31.39,-0.73,-0.32,-0.06,-0.20,1721228645673
-8.77,6.78,30.77,0.46,-0.55,-0.06,1721228645683
-5.08,-4.96,-3.65,0.20,-0.37,0.17,1721228645693
-2.44,-3.28,16.56,-0.19,-0.20,0.37,1721228645703
-1.94,9.69,-0.17,0.47,-0.19,0.63,1721228645713
15.73,-9.03,-32.92,-0.45,0.91,0.62,1721228645723
18.62,-41.71,63.04,-1.10,0.28,-0.21,1721228645733
7.37,27.26,35.12,0.81,-0.16,-0.78,1721228645743
-0.31,-17.01,-13.56,-0.13,-0.04,-1.37,1721228645753
-12.43,10.67,40.11,-0.24,-0.78,-0.61,1721228645763
-8.16,-13.27,0.45,0.13,0.41,-0.29,1721228645773
-7.61,2.29,4.30,0.34,0.20,0.14,1721228645783
-2.90,-4.58,-10.72,-0.09,-0.60,0.68,1721228645793
2.66,-21.29,-25.04,-0.61,0.49,0.30,1721228645803
15.31,-27.91,-3.33,-1.63,1.00,-1.21,1721228645813
-7.67,-1.44,31.20,0.30,-0.29,-0.84,1721228645823
1.23,0.27,5.42,0.86,-0.25,-0.05,1721228645833
5.40,4.56,5.60,-0.36,0.74,0.17,1721228645843
-2.64,-12.77,16.19,-0.31,-0.22,-0.74,1721228645853
-4.57,13.58,13.59,0.73,-0.15,-1.41,1721228645863
-11.54,15.97,-14.33,0.31,-0.05,-0.31,1721228645873
-5.52,1.88,-24.54,-0.67,0.87,0.58,1721228645883
-0.49,-15.38,-1.38,-1.81,1.06,0.48,1721228645893
-4.43,8.94,58.84,0.92,-1.47,-0.34,1721228645903
7.24,8.62,22.70,0.81,0.01,0.13,1721228645913
17.10,2.44,-9.26,-0.50,1.44,0.13,1721228645923
10.79,-0.53,7.86,-0.78,1.50,-1.21,1721228645933
0.41,2.04,7.50,0.57,-0.51,-1.71,1721228645943
-7.86,-6.82,-26.96,0.76,-0.42,-1.26,1721228645953
-5.23,-13.15,-6.00,-1.57,0.74,-0.40,1721228645963
-17.39,2.14,59.32,1.14,-1.48,0.31,1721228645973
1.41,20.22,13.66,1.41,0.44,1.03,1721228645983
12.50,-18.05,-39.35,-1.33,1.42,0.71,1721228645993
12.75,3.14,45.35,-1.75,1.15,-0.70,1721228646003
2.49,0.82,4.55,-0.05,-0.89,-1.63,1721228646013
-7.02,-7.08,-2.04,0.22,-0.27,-1.89,1721228646023
-17.30,-8.33,20.36,-0.05,-0.29,-1.14,1721228646033
-22.06,-9.18,25.69,0.14,0.45,0.56,1721228646043
-0.55,8.14,-7.13,0.18,0.71,1.58,1721228646053
19.51,-31.75,1.13,-0.40,0.41,0.37,1721228646063
8.11,16.49,35.88,0.21,0.76,-1.08,1721228646073
3.41,-13.46,-0.84,0.69,-0.82,-1.15,1721228646083
-15.34,-17.18,10.12,-0.88,1.00,-0.60,1721228646093
-20.29,20.63,33.09,-0.30,0.79,0.37,1721228646103
-0.65,-6.70,-8.11,0.33,-0.25,1.23,1721228646113
10.88,0.61,-7.74,-0.82,1.30,0.63,1721228646123
17.04,-13.55,16.46,-0.47,0.47,-0.82,1721228646133
2.54,-1.45,33.10,-0.10,-0.52,-1.81,1721228646143
-14.24,20.00,6.35,0.37,-0.34,-1.47,1721228646158
-24.95,-3.97,-0.68,-0.09,-0.55,-0.13,1721228646162
-16.67,-8.46,19.61,-0.25,0.50,0.37,1721228646172
-3.97,18.87,39.35,0.55,0.03,1.57,1721228646182
9.18,13.08,10.94,0.59,0.35,1.15,1721228646192
6.98,-5.25,-11.75,0.18,-0.71,-0.32,1721228646202
8.81,-22.33,-2.81,-0.04,0.26,-0.70,1721228646212
12.26,27.51,22.29,1.39,-0.24,-0.65,1721228646222
1.02,9.92,-13.69,-0.61,-0.25,-0.30,1721228646232
-2.54,-8.70,30.12,-0.62,1.50,0.02,1721228646242
-16.96,-7.15,37.87,0.60,-1.17,-0.09,1721228646252
-4.00,10.20,-3.88,0.75,-0.02,0.30,1721228646262
-4.27,1.45,-7.66,-0.17,0.91,0.02,1721228646272
-9.90,-6.40,5.11,-0.47,-0.50,-0.08,1721228646282
-5.50,-7.42,-0.02,0.16,0.24,-0.43,1721228646292
-8.80,5.34,-3.99,-0.08,0.16,0.22,1721228646302
-2.30,6.64,-17.73,-0.93,-0.36,0.17,1721228646312
7.12,-40.02,34.48,-1.88,1.36,-0.12,1721228646322
5.84,-1.62,63.97,0.49,-0.13,0.27,1721228646332
0.75,-10.31,-19.36,0.26,-0.82,0.10,1721228646342
2.78,-5.18,19.93,-0.64,0.84,0.03,1721228646352
10.83,24.67,57.91,1.28,-1.18,0.46,1721228646362
-5.41,10.58,-13.77,0.03,-0.63,0.16,1721228646372
-1.98,-39.45,-31.81,-1.52,0.97,0.09,1721228646382
-2.13,0.55,36.07,-1.12,-0.16,0.72,1721228646392
-5.45,-35.48,5.20,-0.61,-0.24,1.31,1721228646402
4.46,2.18,16.74,0.38,-0.65,0.68,1721228646412
11.88,9.25,1.22,0.02,0.06,-0.19,1721228646422
5.68,-5.76,7.00,-0.42,0.16,-0.36,1721228646432
-5.94,-1.95,26.97,-0.12,-1.00,-0.26,1721228646442
-10.88,1.90,12.42,0.27,0.21,-0.04,1721228646452
1.78,-2.67,-9.77,0.10,-0.93,1.22,1721228646462
22.89,-26.41,36.68,-1.23,1.13,0.00,1721228646472
19.20,38.56,48.07,0.09,-0.19,-0.08,1721228646482
1.02,-30.35,14.09,-0.35,0.11,-0.36,1721228646492
-2.22,48.70,42.11,0.62,0.10,0.50,1721228646502
-0.67,6.49,-14.22,0.92,-0.50,-0.12,1721228646512
3.20,3.86,-23.55,-0.11,0.43,-0.01,1721228646522
0.52,-25.77,-2.37,-2.03,1.33,-0.11,1721228646532
2.54,0.26,44.02,0.17,0.47,-0.23,1721228646542
3.25,6.35,7.83,1.71,-0.10,0.01,1721228646552
20.88,55.66,-13.16,0.66,0.41,-0.07,1721228646562
5.49,6.05,1.13,0.02,-0.06,-0.74,1721228646572
1.17,3.69,1.58,-0.08,-0.07,-0.90,1721228646582
-9.84,-1.43,-10.93,0.05,0.25,0.02,1721228646592
-6.20,-9.50,27.18,-0.67,2.07,0.36,1721228646602
-3.59,1.73,60.80,0.06,0.70,0.91,1721228646612
11.83,-4.89,13.71,0.59,0.48,0.77,1721228646622
16.03,10.83,7.25,-0.04,0.74,0.06,1721228646632
16.72,6.38,-10.10,-0.02,-0.52,-1.30,1721228646642
3.71,-31.71,-23.29,0.46,-0.11,-1.89,1721228646652
-6.92,-20.98,-1.68,-0.77,0.63,-1.46,1721228646662
-23.13,-0.54,45.42,1.36,0.04,-0.65,1721228646672
-20.53,-17.02,5.52,0.44,0.62,0.70,1721228646682
-11.15,29.51,16.10,0.37,0.84,0.82,1721228646692
2.81,-6.63,-5.77,-0.22,-0.41,1.07,1721228646702
13.58,-13.11,-10.79,0.24,0.29,0.94,1721228646712
12.79,-11.07,-26.29,-0.32,-0.36,-0.47,1721228646722
-9.13,-41.96,64.00,-1.73,1.09,-1.82,1721228646732
-1.82,17.88,78.45,1.24,-1.47,-0.87,1721228646742
-43.85,38.78,-9.23,1.77,-0.15,0.46,1721228646752
-1.77,-26.28,-32.24,-0.80,1.19,0.79,1721228646762
5.85,14.20,56.00,-0.50,1.44,0.44,1721228646772
12.13,13.33,34.69,-0.32,-0.59,-0.19,1721228646782
0.91,13.50,8.17,0.40,-0.49,-0.92,1721228646792
-0.52,9.61,-3.58,0.64,-1.17,-1.13,1721228646802
-12.68,9.56,-22.90,-0.30,-0.21,-0.34,1721228646812
-8.66,-26.55,9.27,-3.23,0.78,0.15,1721228646822
-9.73,25.23,78.45,0.66,0.12,0.80,1721228646832
10.53,-21.93,0.73,2.54,0.14,1.31,1721228646842
25.42,14.08,-78.45,-0.26,-1.37,-0.09,1721228646852
-0.65,53.73,55.18,-0.27,1.04,-1.23,1721228646862
12.24,3.92,2.88,0.59,-1.63,-0.91,1721228646872
1.62,1.62,-50.24,-0.58,-0.09,-0.15,1721228646882
-17.95,-78.45,78.45,-3.10,2.39,-0.37,1721228646892
13.18,46.68,78.45,1.13,-1.63,2.17,1721228646902
-0.14,-6.97,-37.80,1.09,0.41,0.88,1721228646912
16.91,2.96,-46.83,0.39,-0.54,0.46,1721228646922
2.58,-11.91,16.77,-0.58,-0.26,-0.16,1721228646932
-8.22,-11.76,7.24,-1.17,0.38,-0.32,1721228646942
1.21,-7.12,57.78,0.52,0.08,0.19,1721228646952
5.39,9.63,57.27,0.28,-0.39,0.96,1721228646962
7.51,36.64,-23.94,0.71,-0.27,0.30,1721228646972
2.57,-11.69,-45.05,-0.73,0.93,0.07,1721228646982
-5.61,-28.98,-20.24,-1.58,0.84,0.14,1721228646992
0.54,-1.30,45.51,-0.26,-0.30,-0.52,1721228647002
-7.57,5.78,25.82,0.82,-0.31,0.35,1721228647012
2.19,-24.84,1.04,-0.12,0.48,1.28,1721228647022
7.60,18.33,22.27,0.20,0.22,0.83,1721228647032
3.86,32.88,-5.99,1.02,-0.20,-0.61,1721228647042
10.55,14.55,-45.48,0.22,0.04,-0.34,1721228647052
0.18,-32.38,0.15,-2.79,1.44,-0.56,1721228647062
-1.68,20.27,70.26,0.85,-0.79,-0.03,1721228647072
5.17,-9.69,-14.42,1.11,0.38,0.44,1721228647082
16.16,7.68,-23.92,-0.41,0.49,0.18,1721228647092
5.67,19.93,5.77,-0.78,-0.61,-0.97,1721228647102
6.18,-30.13,10.35,-0.31,-0.52,-1.45,1721228647112
-8.23,2.36,28.32,0.25,0.07,-0.72,1721228647122
-8.66,27.14,-2.47,0.39,0.23,-0.12,1721228647132
-4.84,21.00,2.24,-0.59,0.96,-0.20,1721228647142
-9.39,-67.29,0.85,-1.18,0.91,-0.25,1721228647152
-0.52,-2.32,8.46,-0.13,-0.24,0.72,1721228647162
5.61,-23.35,-3.15,-0.63,1.22,0.32,1721228647172
10.48,-14.89,35.80,0.22,-0.15,-0.14,1721228647182
1.00,38.08,50.05,1.20,0.24,-0.29,1721228647192
5.93,10.35,-9.26,-0.78,-0.56,-0.33,1721228647202
1.53,-12.97,-4.96,-0.67,0.65,-0.33,1721228647212
-1.44,-25.25,-15.05,0.29,-0.52,-0.35,1721228647222
-3.48,-27.82,21.50,-0.84,0.17,-0.89,1721228647232
-7.75,17.99,41.45,1.08,0.45,-0.13,1721228647242
-11.95,2.05,12.24,-0.21,0.07,0.51,1721228647252
-10.52,9.55,13.37,-0.89,0.52,0.15,1721228647262
6.01,-27.52,18.57,-0.81,0.12,0.44,1721228647272
11.43,-5.66,51.93,-0.45,0.97,0.00,1721228647282
8.98,36.50,26.24,1.84,0.03,-0.01,1721228647292
3.86,-12.80,-56.14,-0.25,-0.55,-0.94,1721228647302
-2.38,-9.58,-12.74,-2.29,0.79,-1.33,1721228647312
-8.36,2.80,70.26,2.76,-1.19,-0.75,1721228647322
-12.54,-6.93,7.54,1.00,0.28,0.22,1721228647332
-4.95,-6.23,8.74,0.10,-0.04,1.42,1721228647342
3.64,1.33,-1.70,-0.37,0.88,1.56,1721228647352
12.54,3.27,19.00,-0.00,-0.38,-0.25,1721228647362
-0.29,17.02,25.34,1.07,-0.63,-0.55,1721228647372
1.17,14.20,-11.26,0.52,-0.87,0.96,1721228647382
18.96,-26.06,50.60,-1.21,3.38,1.05,1721228647392
14.20,36.14,44.82,1.25,-1.40,0.05,1721228647402
9.25,-10.82,-70.71,0.79,-1.25,-1.74,1721228647412
-8.01,-32.96,-23.28,-2.37,-0.81,-1.90,1721228647422
-41.14,49.89,67.98,1.07,-0.44,0.30,1721228647432
-16.18,-14.42,9.39,0.39,0.74,0.97,1721228647442
-2.56,28.19,4.10,0.20,-0.24,1.96,1721228647452
5.34,-17.88,-13.75,-1.66,0.62,0.46,1721228647462
8.27,-32.63,42.58,0.44,-0.51,-0.65,1721228647472
-10.56,23.53,55.40,2.35,-2.02,-0.65,1721228647482
-8.90,-12.01,-68.96,2.50,-0.70,0.57,1721228647492
-0.49,30.13,-14.18,-1.25,0.73,1.66,1721228647502
20.19,25.97,6.64,-2.29,0.54,0.44,1721228647512
14.99,0.36,49.96,-0.11,-0.28,-0.65,1721228647522
3.66,-0.17,-23.75,1.12,-1.38,-1.13,1721228647532
-3.20,-14.02,-72.56,-0.75,0.32,-0.57,1721228647542
-1.56,-30.27,0.07,-3.36,-0.04,0.05,1721228647552
6.51,56.42,59.93,0.46,-0.43,0.30,1721228647562
7.74,-35.79,76.84,0.60,1.45,0.54,1721228647572
14.99,10.34,41.79,-0.87,0.43,0.96,1721228647582
8.03,36.91,-2.96,0.32,0.23,0.07,1721228647592
2.03,7.91,-10.25,1.68,-0.81,-1.58,1721228647602
-4.06,-15.39,-30.16,-0.25,-0.35,-1.01,1721228647612
-18.59,-54.53,30.88,-1.40,2.31,-0.55,1721228647622
-26.52,-5.08,38.65,0.98,-0.65,1.51,1721228647632
-3.04,25.06,12.43,1.64,0.33,1.72,1721228647642
23.44,3.52,-22.82,-0.46,0.67,1.14,1721228647652
13.87,7.66,-21.88,-0.01,-0.03,-0.39,1721228647662
13.26,-51.80,-47.60,-0.52,-0.95,-1.61,1721228647672
-9.32,-78.45,78.45,-1.91,0.46,-3.08,1721228647682
-37.57,12.48,78.45,0.26,-2.61,-0.24,1721228647692
-13.44,8.08,5.26,2.44,0.78,0.85,1721228647702
-2.86,9.84,-74.96,-0.52,0.03,2.12,1721228647712
8.72,-33.48,9.16,-2.91,2.45,0.61,1721228647722
6.39,9.88,31.94,2.42,-2.16,-0.97,1721228647732
8.96,-29.89,-72.98,0.92,-0.14,-0.37,1721228647742
12.71,18.27,-1.48,-0.72,0.03,-1.05,1721228647752
-5.30,16.60,2.44,0.17,-1.28,0.12,1721228647762
-11.71,-52.75,-9.04,-0.01,0.54,-0.73,1721228647772
-18.84,-3.61,67.31,0.37,-0.54,-0.22,1721228647782
-19.44,15.93,26.76,1.09,-0.32,0.96,1721228647792
10.55,56.91,-38.53,1.09,0.37,1.11,1721228647802
12.90,15.11,-55.95,-1.93,0.70,0.59,1721228647812
27.49,-78.45,78.45,-3.99,1.80,-1.92,1721228647822
-20.18,26.43,78.45,2.74,-2.41,-1.00,1721228647832
6.79,-17.09,-8.62,3.60,-0.57,-0.36,1721228647842
15.98,49.40,-36.53,-0.22,0.39,-0.01,1721228647852
-16.00,63.36,21.75,-0.17,-0.35,0.36,1721228647862
12.83,-31.15,29.84,-1.27,-0.10,0.65,1721228647872
-11.52,-27.99,58.02,-1.49,0.21,-0.69,1721228647882
-1.68,16.06,44.02,1.26,0.72,0.06,1721228647892
-17.40,15.68,-25.17,2.60,-0.18,1.24,1721228647902
16.93,-1.95,-24.79,-1.23,0.88,-0.29,1721228647912
4.38,-0.66,39.00,-0.14,0.63,-0.88,1721228647922
-10.23,-2.82,15.97,0.54,0.06,-0.78,1721228647932
-19.21,-25.27,-29.47,-0.79,-0.35,-0.27,1721228647942
-10.50,2.76,28.53,-0.77,0.90,0.51,1721228647952
-1.56,13.59,-0.62,1.14,-0.84,0.68,1721228647962
-2.87,-35.84,-6.84,-0.61,0.93,0.08,1721228647972
-2.33,20.38,70.64,1.20,-0.27,-0.43,1721228647982
-12.05,-0.39,8.36,0.73,-0.03,0.64,1721228647992
-5.54,-7.24,-22.91,-1.77,0.95,0.32,1721228648002
-3.34,19.66,32.16,0.86,0.89,0.36,1721228648012
13.67,3.09,-30.50,2.21,-1.20,0.49,1721228648022
2.03,-46.19,-33.71,-3.61,0.75,-0.45,1721228648032
-1.32,15.88,78.45,1.36,-0.67,-1.96,1721228648042
-1.58,29.81,40.23,2.01,-2.04,-1.21,1721228648052
-0.71,13.78,-78.45,1.80,-0.84,0.91,1721228648062
10.49,3.55,-20.05,-1.19,1.12,1.17,1721228648072
19.68,-47.52,45.99,-2.05,0.25,0.24,1721228648082
25.06,-16.41,50.25,-0.17,-0.17,0.02,1721228648092
4.55,29.89,29.99,0.43,0.32,-0.50,1721228648102
-10.25,46.14,4.56,0.88,0.11,-0.64,1721228648112
-6.64,-4.22,-58.01,0.37,-1.88,-0.52,1721228648122
-8.62,-14.11,-32.75,-3.98,0.60,-0.01,1721228648132
1.26,46.84,78.45,-0.13,1.22,0.26,1721228648142
-20.84,8.79,41.86,1.59,1.51,1.35,1721228648152
44.36,63.08,10.68,1.20,1.38,-0.38,1721228648167
9.21,71.21,14.42,0.55,0.05,0.10,1721228648171
12.77,1.38,-9.49,0.24,-1.61,0.07,1721228648181
24.72,-72.20,-20.62,-2.80,1.36,-1.18,1721228648191
-6.06,-27.66,74.59,-0.10,0.31,-0.18,1721228648201
-5.71,48.25,53.15,1.05,-0.41,0.17,1721228648211
-0.93,5.66,-60.88,1.68,-0.77,0.24,1721228648221
10.26,-34.40,-18.65,-2.06,0.50,-0.64,1721228648231
-3.45,30.76,52.05,-0.34,0.19,-1.29,1721228648241
10.55,-1.41,35.59,0.81,1.05,-0.88,1721228648251
-8.30,-1.97,-32.08,0.51,-0.46,-0.09,1721228648261
-6.20,34.71,16.41,-0.99,2.00,-0.28,1721228648271
-1.92,-11.47,5.66,0.57,-0.58,-0.24,1721228648281
-20.73,-44.69,15.58,-0.83,0.17,-0.44,1721228648291
-9.04,33.92,35.24,-0.05,0.17,0.04,1721228648301
-5.90,11.59,-20.16,2.18,-0.86,0.70,1721228648311
8.27,-25.74,-54.27,-0.73,0.23,0.48,1721228648321
23.66,-47.27,78.45,-2.83,3.23,-0.87,1721228648331
-13.28,-0.20,78.45,0.91,-2.87,-0.42,1721228648341
-9.06,-9.22,49.49,0.95,-0.69,-0.95,1721228648351
-25.62,78.45,20.04,2.62,-0.50,-0.19,1721228648361
3.69,9.71,-70.88,0.62,-1.33,0.20,1721228648371
17.17,-17.24,7.72,-3.98,2.29,-0.33,1721228648381
2.52,57.03,35.37,1.44,-1.41,-0.38,1721228648391
-8.73,-12.81,-62.10,1.93,-1.86,0.51,1721228648401
9.13,-5.10,-2.55,-2.34,0.29,1.08,1721228648411
5.87,28.05,51.91,0.44,0.12,1.09,1721228648421
4.29,-0.36,34.63,2.25,-0.00,0.95,1721228648431
13.11,12.03,-20.26,-0.37,-0.16,-0.68,1721228648441
-1.96,-13.11,26.11,-1.88,-0.47,-1.54,1721228648451
-11.15,6.05,15.63,1.67,-1.59,-1.18,1721228648461
-14.67,17.49,-44.09,1.11,-0.43,0.06,1721228648471
-2.29,-22.85,-0.38,-3.16,0.38,0.97,1721228648481
-4.46,-12.71,32.31,-0.74,0.77,2.93,1721228648491
16.22,22.19,0.93,2.30,0.04,1.12,1721228648501
17.43,2.61,-60.30,0.61,-0.25,-0.39,1721228648511
3.52,-18.35,-51.77,-1.58,-0.39,-0.67,1721228648521
-2.89,11.87,-17.92,-1.31,0.29,-1.16,1721228648531
0.66,-42.61,78.45,2.25,-1.95,-0.78,1721228648541
-15.31,78.45,78.45,0.06,-0.91,1.28,1721228648551
-2.72,-59.95,-71.79,4.37,1.09,0.93,1721228648561
-10.49,-22.43,-48.68,-3.46,1.85,1.25,1721228648571
33.95,-7.54,-26.11,-0.67,1.52,-0.39,1721228648581
-78.45,78.45,-74.84,0.13,-3.33,-2.56,1721228648591
41.20,-65.37,31.65,-1.10,4.37,-3.41,1721228648601
-28.75,-17.49,53.30,0.81,-2.52,0.42,1721228648611
0.44,51.25,26.74,0.98,2.93,1.38,1721228648621
9.42,-5.58,-74.46,1.28,-0.64,2.42,1721228648631
14.13,5.78,-66.83,-1.77,-0.12,0.36,1721228648641
9.05,-33.69,28.40,-2.05,0.60,-1.96,1721228648651
16.79,5.46,78.45,0.54,-1.61,-3.44,1721228648661
-18.91,78.45,-23.83,2.68,-1.66,-0.65,1721228648671
2.73,-52.82,-78.45,2.50,4.37,2.49,1721228648681
-14.94,-57.30,-75.94,-1.75,-4.37,2.23,1721228648691
26.24,-78.45,78.44,-4.37,4.37,-1.01,1721228648701
-67.99,40.97,-30.22,1.65,-4.37,-1.20,1721228648711
10.20,-16.68,17.11,4.10,2.05,-1.00,1721228648721
46.00,78.45,-50.75,2.83,-1.99,0.51,1721228648731
-61.88,-7.58,-42.60,0.36,-1.18,0.29,1721228648741
25.91,-78.45,78.45,0.20,4.37,-2.21,1721228648751
-78.45,68.78,16.32,-0.60,-2.96,3.01,1721228648761
7.19,-78.45,-78.45,4.37,2.15,1.66,1721228648771
-0.74,-21.25,-63.68,-4.24,-4.37,1.55,1721228648781
2.98,-11.07,-1.71,-2.07,4.37,-0.46,1721228648791
-0.78,25.92,-2.15,-1.60,3.35,-3.01,1721228648801
44.70,21.98,13.13,4.37,-4.37,-1.78,1721228648811
-28.07,16.90,-64.69,-2.72,1.78,-0.20,1721228648821
-14.54,-57.49,78.45,-3.40,1.20,-0.47,1721228648831
-61.93,25.76,78.45,-0.41,-1.30,0.29,1721228648841
13.46,3.14,-14.26,4.37,-1.17,2.20,1721228648851
16.20,22.21,-78.45,1.04,0.47,1.72,1721228648861
37.08,-17.53,16.66,-1.19,1.73,0.09,1721228648871
-44.79,-23.24,-12.16,-2.59,0.65,-1.57,1721228648881
37.27,-53.12,33.39,4.37,-4.37,-2.87,1721228648891
-53.65,78.45,23.32,2.16,0.49,-0.07,1721228648901
-4.76,17.40,-78.45,1.23,0.18,0.38,1721228648911
-33.91,-69.26,-4.70,-0.21,-4.37,1.44,1721228648921
76.62,16.70,78.45,-0.44,1.99,-3.16,1721228648931
25.76,78.45,2.64,2.68,0.21,1.29,1721228648941
10.46,-49.85,-78.45,4.37,0.76,2.07,1721228648951
-51.47,-78.45,-78.45,-0.22,-2.59,1.62,1721228648961
16.57,-78.45,12.57,-1.50,4.37,-1.65,1721228648971
30.04,-2.47,24.21,4.09,-3.20,-1.03,1721228648981
9.08,-26.92,-78.45,2.72,3.12,-1.68,1721228648991
-28.30,-78.45,-78.45,-0.25,-1.85,-1.85,1721228649001
-19.57,-76.02,78.45,0.75,-0.50,0.14,1721228649011
-7.22,2.21,12.51,0.65,1.35,0.75,1721228649021
18.73,-69.17,-36.73,1.09,-2.19,0.35,1721228649031
-7.57,40.96,78.45,1.20,-0.92,-0.88,1721228649041
-10.01,54.86,78.45,-0.50,2.03,0.07,1721228649051
-4.74,-26.14,-78.45,2.69,-0.57,1.18,1721228649061
-19.15,-43.84,-78.45,-2.41,0.74,0.01,1721228649071
51.49,-3.28,78.45,0.10,4.37,-0.68,1721228649081
-6.05,78.45,39.66,1.46,-1.49,-0.10,1721228649091
1.32,-78.45,-78.45,1.87,1.71,-0.59,1721228649101
-9.22,-19.49,-72.65,-3.06,0.28,0.45,1721228649111
6.97,-11.44,65.38,-0.51,4.37,0.62,1721228649121
50.42,-29.78,-73.27,0.87,4.37,1.37,1721228649131
18.29,-35.74,-71.76,3.19,0.03,1.38,1721228649141
23.24,6.57,-6.65,-0.83,-1.95,0.28,1721228649151
-0.50,59.06,14.17,0.57,-0.05,-0.97,1721228649161
16.03,-36.44,14.58,2.33,-1.55,-1.30,1721228649171
0.53,-7.26,-34.79,-0.64,-0.42,-0.17,1721228649181
-4.58,2.09,1.07,0.14,-0.91,-0.23,1721228649191
1.24,-9.94,24.02,0.97,-0.22,0.91,1721228649201
-3.77,27.81,15.90,0.76,0.19,0.56,1721228649211
0.90,43.45,18.15,0.20,-0.31,0.10,1721228649221
-0.80,-7.23,2.07,-1.67,-0.33,-0.49,1721228649231
-16.28,-37.27,10.89,0.19,-0.18,-0.57,1721228649241
-2.64,28.05,39.90,1.65,-0.45,-0.16,1721228649251
-2.29,7.10,-7.76,0.90,-0.52,1.15,1721228649261
1.26,9.20,-9.36,-0.32,0.15,2.07,1721228649271
44.78,-21.63,75.06,-1.90,2.93,0.80,1721228649281
11.17,16.13,37.11,1.04,-1.41,-0.04,1721228649291
13.94,4.42,-27.46,0.96,-0.28,-1.26,1721228649301
-7.16,31.63,-6.73,0.52,0.13,-1.04,1721228649311
-15.22,28.19,-22.21,-1.81,-0.48,0.27,1721228649321
-17.93,-49.78,66.83,-0.30,-0.29,-0.18,1721228649331
-9.88,14.56,8.49,1.54,-0.31,0.76,1721228649341
-8.46,-15.33,-78.45,-1.51,0.21,0.46,1721228649351
5.70,-60.19,78.45,-3.05,4.37,0.89,1721228649361
30.96,65.40,-36.46,-0.67,4.37,0.25,1721228649371
7.67,-31.91,-78.45,3.43,-1.81,1.37,1721228649381
-2.56,-28.54,-52.77,-4.37,-2.18,-0.50,1721228649391
-68.05,78.45,72.03,1.11,-1.41,-2.71,1721228649401
14.33,-19.06,-38.07,3.34,-0.74,-1.22,1721228649411
2.36,-7.24,8.03,-4.37,-0.53,0.01,1721228649421
-16.55,78.45,78.45,0.61,-1.26,-0.20,1721228649431
13.46,-7.54,-56.93,2.34,0.20,0.02,1721228649441
13.18,31.77,-78.45,-0.23,-1.43,0.62,1721228649451
1.01,-71.17,50.90,-2.09,-0.65,1.01,1721228649461
1.81,75.68,70.33,0.09,0.21,0.63,1721228649471
-23.18,21.23,-4.91,2.47,-0.38,1.03,1721228649481
20.99,-10.28,-6.67,-1.58,0.53,0.25,1721228649491
16.70,26.55,56.28,0.78,0.17,-0.52,1721228649501
0.73,-24.58,-77.63,2.44,-1.86,-0.93,1721228649511
2.97,-0.15,-33.56,-2.38,-0.54,-2.98,1721228649521
-42.01,47.89,35.10,-0.73,-0.46,-1.31,1721228649531
-47.95,30.11,53.83,0.50,1.71,0.33,1721228649541
-9.60,-7.15,19.61,0.45,-0.89,1.50,1721228649551
4.12,-18.41,-1.35,-0.66,1.00,1.11,1721228649561
9.02,-1.95,-19.91,0.91,-0.13,0.83,1721228649571
19.96,-58.84,60.48,-1.31,2.03,-0.76,1721228649581
-63.78,78.45,78.45,-0.22,1.75,0.08,1721228649591
2.89,-0.04,-29.62,-0.28,-0.31,0.77,1721228649601
7.00,-74.07,-61.20,-1.38,0.66,0.75,1721228649611
-4.80,-7.10,10.83,-2.17,-1.25,-1.68,1721228649621
-11.00,-22.71,78.45,0.97,-1.90,-0.67,1721228649631
5.91,0.93,31.10,1.34,1.54,0.24,1721228649641
3.17,40.95,-43.72,1.73,0.28,0.57,1721228649651
2.45,-13.01,-7.78,-1.37,-0.32,0.01,1721228649661
-4.87,27.99,78.45,-0.34,-0.04,-0.17,1721228649671
0.21,-9.76,-7.72,2.54,-0.63,-0.33,1721228649681
12.41,-13.56,-78.45,-0.96,1.50,0.51,1721228649691
-4.38,29.33,68.15,-2.00,2.71,0.04,1721228649701
5.29,-3.82,51.37,2.73,-1.15,0.27,1721228649711
6.24,-3.91,-51.79,0.97,-0.41,0.64,1721228649721
13.65,12.30,-17.53,-0.26,1.20,-0.44,1721228649731
2.37,-16.20,-8.45,-2.04,-0.42,-0.37,1721228649741
-8.25,-8.46,78.45,0.24,-0.24,-1.27,1721228649751
-14.84,41.41,78.45,2.41,-1.48,-0.37,1721228649761
-4.44,35.69,-27.68,2.13,0.69,1.61,1721228649771
13.88,14.67,-67.94,-1.26,0.40,1.97,1721228649781
44.04,-78.45,-43.91,-4.37,2.08,-1.16,1721228649791
22.73,8.97,23.90,0.71,0.54,-2.02,1721228649801
6.68,-6.02,-3.82,0.91,0.05,-1.71,1721228649811
-2.07,40.25,-44.69,1.02,-0.90,-1.59,1721228649821
-21.87,40.13,-23.42,0.27,-0.01,0.81,1721228649831
-11.83,-52.24,-11.66,-3.81,0.72,1.12,1721228649841
38.69,-27.58,58.75,-2.16,3.71,0.56,1721228649851
11.44,12.76,15.38,4.37,-1.97,-0.37,1721228649861
-4.87,-15.35,-54.85,-0.59,-0.20,-1.19,1721228649871
-5.81,-1.12,-2.66,-2.21,0.78,-1.49,1721228649881
-23.70,39.57,13.28,1.43,-1.78,0.43,1721228649891
-21.75,-58.03,-37.96,-0.82,1.65,0.78,1721228649901
-4.12,-23.79,38.64,-0.73,0.25,0.01,1721228649911
-10.14,24.41,23.73,0.04,-0.14,-0.09,1721228649921
-19.36,24.98,-6.49,2.25,-0.66,0.14,1721228649931
0.04,-8.94,-2.83,-1.56,0.50,-0.53,1721228649941
-14.18,5.72,56.39,0.74,-0.84,0.16,1721228649951
4.87,-2.63,-15.06,1.86,-0.75,0.95,1721228649961
15.79,-0.53,-12.52,-1.22,1.21,0.36,1721228649971
32.78,39.69,78.45,2.48,1.06,-0.36,1721228649981
10.69,8.06,-13.41,2.10,-1.73,-0.56,1721228649991
-7.47,-12.98,-34.95,-2.91,1.00,0.12,1721228650001
-6.84,37.42,53.47,0.66,0.21,-0.15,1721228650011
-24.00,32.55,42.89,1.67,-0.98,0.20,1721228650021
-4.88,-19.49,-78.45,1.61,-1.29,-0.28,1721228650031
7.58,7.78,-42.17,-2.21,0.74,-0.35,1721228650041
-1.06,18.97,66.46,-0.19,0.34,-0.08,1721228650051
-63.93,78.45,78.45,1.04,0.33,0.37,1721228650061
5.96,9.70,-14.77,3.52,-1.10,0.09,1721228650071
-5.27,-34.12,-78.45,-1.16,-0.06,-0.04,1721228650081
5.21,-58.17,45.98,-4.37,0.87,-0.42,1721228650091
12.89,52.89,78.45,2.29,-2.51,0.79,1721228650101
5.96,-12.46,-4.78,3.01,-0.26,-0.65,1721228650111
25.20,46.82,-76.99,-1.09,-1.00,0.02,1721228650121
6.39,-4.52,21.88,-1.86,-0.32,0.50,1721228650131
-20.46,-2.64,69.74,-0.99,-1.40,-0.08,1721228650141
13.78,43.59,27.46,2.31,0.13,-0.03,1721228650151
3.36,-13.96,-78.45,1.86,-2.30,0.80,1721228650161
11.26,7.83,27.56,-1.76,4.00,0.48,1721228650176
-27.87,20.95,78.45,-2.02,-0.70,-0.06,1721228650180
-12.20,12.65,36.09,1.42,-0.74,-0.64,1721228650190
-7.43,-0.76,-6.87,2.26,-0.85,0.47,1721228650200
3.68,8.07,-25.63,-0.97,0.62,1.03,1721228650210
11.43,-3.25,59.70,-3.32,2.40,-0.02,1721228650220
-14.65,0.02,76.26,0.31,-1.93,-0.95,1721228650230
-8.70,23.55,-35.11,2.72,-1.10,-0.26,1721228650240
-8.42,-34.14,-50.50,-0.77,-0.47,0.93,1721228650250
22.34,-53.96,78.45,-0.88,4.37,0.83,1721228650260
1.38,-10.26,-28.32,1.28,-1.46,0.79,1721228650270
0.35,-10.22,-7.26,-0.17,0.34,0.11,1721228650280
2.69,25.45,51.72,1.09,0.56,0.53,1721228650290
3.44,15.58,4.33,-0.48,-0.07,0.30,1721228650300
-6.25,-23.48,-30.49,-0.55,-0.02,-0.64,1721228650310
-26.37,-53.39,37.00,-1.29,0.39,-0.74,1721228650320
-20.68,17.93,40.51,1.20,-0.59,0.78,1721228650330
-0.25,28.71,-67.46,1.13,-0.06,1.79,1721228650340
11.70,-3.33,-11.64,-1.30,0.41,1.43,1721228650350
23.66,7.55,38.18,-0.80,1.69,-0.55,1721228650360
11.75,-59.16,44.68,1.12,-2.46,-0.61,1721228650370
14.12,51.37,-71.52,0.25,-0.82,0.04,1721228650380
-0.02,-17.36,-5.58,-1.92,0.94,-0.12,1721228650390
-13.53,-27.62,46.43,1.19,-0.56,-0.04,1721228650400
-4.05,39.38,39.61,0.85,-0.22,1.17,1721228650410
11.58,43.74,-44.63,0.88,0.15,1.13,1721228650420
15.53,-13.15,-51.32,-0.80,-0.04,0.38,1721228650430
35.50,-47.27,-16.58,-4.37,1.24,-1.65,1721228650440
4.90,78.45,78.45,-1.68,-0.36,-3.52,1721228650450
-21.15,47.78,42.31,4.03,-0.65,0.47,1721228650460
-25.11,-47.47,-75.23,-0.23,1.03,2.84,1721228650470
14.36,-45.75,-2.72,-4.37,3.61,0.78,1721228650480
-6.61,-6.54,29.31,-0.73,0.77,-0.22,1721228650490
13.84,-3.88,-6.94,2.97,-1.36,0.64,1721228650500
13.20,32.17,39.48,1.12,0.04,0.10,1721228650510
7.26,-21.65,6.18,-1.83,1.46,0.19,1721228650520
1.22,-28.07,18.32,-0.44,-0.36,-0.65,1721228650530
1.39,31.55,22.00,1.00,-0.27,-1.10,1721228650540
-7.34,2.15,-38.28,2.73,-0.75,-1.00,1721228650550
-7.62,38.92,-47.49,0.46,0.13,0.39,1721228650560
13.78,-78.45,-24.16,-1.52,1.74,-0.12,1721228650570
-24.21,-23.57,78.45,1.65,-0.64,0.12,1721228650580
-40.52,78.45,78.45,0.99,3.47,1.65,1721228650590
2.08,-68.54,-78.45,4.37,-0.28,2.32,1721228650600
-25.63,42.08,-53.75,-0.13,-4.37,0.41,1721228650610
60.17,-78.45,5.52,-4.37,4.37,-2.50,1721228650620
-78.45,78.45,78.45,-0.24,-4.37,-2.73,1721228650630
-8.66,78.45,-55.58,4.37,-0.26,-2.51,1721228650640
-28.91,-43.67,-78.45,4.37,0.11,2.20,1721228650650
-78.45,-69.21,-37.26,0.16,1.79,2.37,1721228650660
8.21,-78.45,72.80,1.71,4.37,-0.44,1721228650670
-78.45,-37.88,1.37,-0.17,1.04,1.04,1721228650680
22.92,-78.45,-77.81,4.37,1.51,-0.37,1721228650690
78.45,-44.60,-78.45,0.23,-3.33,0.08,1721228650700
22.28,-78.45,-54.03,-4.37,4.37,-2.11,1721228650710
-3.79,-78.45,78.45,-0.19,1.46,-0.57,1721228650720
-9.47,78.45,-57.48,-0.43,1.05,1.52,1721228650730
-30.06,-78.45,-78.45,4.37,-2.59,-1.60,1721228650740
7.42,2.75,-0.12,-4.37,-3.53,2.07,1721228650750
0.37,20.95,58.39,-1.42,-0.91,3.16,1721228650760
4.97,47.05,33.17,0.01,-0.47,1.66,1721228650770
36.81,-72.76,-78.45,2.63,1.50,1.17,1721228650780
26.83,-37.84,-35.41,-0.31,-4.31,0.83,1721228650790
77.37,-36.46,59.72,-2.48,4.37,-1.79,1721228650800
-18.23,46.57,62.57,-1.24,-1.65,-0.34,1721228650810
-17.63,-62.46,-2.98,1.57,-0.82,-0.78,1721228650820
-6.24,3.97,30.54,-2.42,0.93,0.56,1721228650830
20.99,18.39,21.19,-1.00,0.94,0.18,1721228650840
9.75,-4.52,13.21,0.55,-0.13,0.46,1721228650850
7.66,40.82,8.07,0.53,0.05,1.14,1721228650860
4.72,14.92,-61.83,1.27,-0.31,0.48,1721228650870
13.51,-50.88,-8.18,-1.78,1.34,-0.06,1721228650880
-11.89,48.28,72.18,0.08,-0.81,-0.59,1721228650890
-7.53,-11.99,22.42,1.34,0.86,-0.74,1721228650900
1.10,-21.23,-59.24,3.15,-1.05,-0.50,1721228650910
7.14,-46.73,78.45,-2.47,-2.01,0.79,1721228650920
-14.38,78.45,78.45,1.41,1.86,-0.41,1721228650930
7.26,-10.00,-3.52,2.85,-0.37,0.69,1721228650940
32.80,78.45,-78.45,-3.44,0.19,-0.72,1721228650950
44.95,76.42,75.49,-1.95,4.37,0.41,1721228650960
8.16,-78.45,22.01,0.78,0.42,0.22,1721228650970
29.43,3.05,-48.71,2.88,-2.72,-1.49,1721228650980
-4.54,-23.91,43.44,-0.39,0.51,-0.49,1721228650990
-7.87,18.89,0.57,1.95,-0.24,1.18,1721228651000
2.01,-10.48,-26.48,-1.53,0.66,0.56,1721228651010
7.53,26.03,78.45,-1.45,2.32,-0.12,1721228651020
1.09,-23.05,23.80,-0.52,-0.44,0.30,1721228651030
0.68,-8.42,-35.14,0.13,-0.22,-0.68,1721228651040
-5.09,3.11,70.45,0.79,0.66,-0.36,1721228651050
-2.36,35.55,24.07,1.13,-0.53,1.19,1721228651060
-3.10,0.10,-18.33,-0.45,-0.17,0.88,1721228651070
-10.12,-54.02,28.98,-0.86,0.21,-0.29,1721228651080
-14.10,78.45,15.85,1.82,-0.93,-0.56,1721228651090
-10.72,-65.02,-30.80,-2.40,0.97,0.01,1721228651100
0.28,3.88,27.92,1.16,0.07,0.90,1721228651110
-1.71,-16.72,9.00,1.00,-0.34,1.04,1721228651120
9.08,28.13,11.79,0.80,0.91,0.76,1721228651130
9.46,56.92,-29.65,0.75,-1.34,0.68,1721228651140
8.43,-78.45,-39.86,-3.66,1.49,-1.33,1721228651150
13.02,11.32,65.02,-0.73,-0.34,-2.06,1721228651160
-9.04,32.73,61.18,1.58,-1.18,-1.78,1721228651170
-22.28,-10.40,-65.95,1.14,0.43,0.65,1721228651180
-12.74,-12.48,-10.54,-2.16,1.29,1.56,1721228651190
14.31,18.95,3.49,-0.02,1.60,1.44,1721228651200
7.86,-31.95,78.45,-0.35,-1.50,0.52,1721228651210
-5.77,78.45,78.45,0.19,-1.20,0.21,1721228651220
10.26,-78.45,-77.20,1.20,-0.43,-1.70,1721228651230
34.82,51.32,-30.69,-1.45,-2.25,-2.42,1721228651240
8.03,35.65,17.30,0.48,1.00,-0.94,1721228651250
-2.34,-21.81,9.03,2.85,-0.56,-0.34,1721228651260
-14.44,21.05,-78.45,1.97,-0.93,0.61,1721228651270
-21.62,-50.22,54.21,-1.08,-2.48,0.29,1721228651280
10.55,78.45,53.68,-0.71,1.43,-0.11,1721228651290
24.46,-45.31,10.96,0.36,0.14,0.44,1721228651300
0.91,5.42,-14.13,1.09,-0.88,1.03,1721228651310
16.70,-15.36,27.89,-2.95,2.82,-1.30,1721228651320
2.33,57.68,28.80,1.96,-0.57,-0.85,1721228651330
-13.86,-63.92,-62.90,3.12,-2.00,0.83,1721228651340
4.70,-34.97,-3.68,-1.98,0.96,0.35,1721228651350
5.75,20.34,40.40,-0.82,1.63,0.24,1721228651360
-0.53,-78.45,4.30,-0.18,-1.25,0.05,1721228651370
-20.33,5.30,78.45,1.96,-3.12,0.15,1721228651380
-6.46,78.45,-4.44,3.76,0.33,0.64,1721228651390
17.57,-9.13,-74.02,3.97,-0.39,0.52,1721228651400
-14.02,5.00,-54.63,-0.00,-4.37,0.10,1721228651410
-21.86,66.10,72.25,-2.65,1.68,-3.25,1721228651420
-7.29,1.26,-37.93,0.59,-1.54,-0.32,1721228651430
-16.78,-55.80,-44.13,-4.37,2.95,-0.96,1721228651440
-31.25,78.45,78.45,0.57,-4.15,1.31,1721228651450
-6.58,-2.77,-8.63,4.06,0.01,-0.11,1721228651460
31.11,78.45,-55.09,4.37,-1.78,0.85,1721228651470
-47.05,-25.51,-15.26,0.08,-4.37,0.22,1721228651480
-48.63,78.45,48.70,-0.25,0.18,-3.73,1721228651490
7.53,14.58,45.47,4.00,-2.47,0.09,1721228651500
-39.98,-11.62,-78.45,2.65,4.30,-0.27,1721228651510
-34.67,-26.70,-67.94,-0.42,-4.37,1.34,1721228651520
78.45,78.45,61.85,-1.46,3.67,0.31,1721228651530
-17.41,-16.72,-13.57,0.58,-2.76,1.34,1721228651540
13.46,3.70,-20.92,0.35,1.41,-0.97,1721228651550
7.52,16.21,-2.27,-0.56,-0.99,-0.61,1721228651560
-13.11,-33.98,4.79,-2.99,1.94,0.04,1721228651570
31.32,71.34,75.24,2.35,-1.23,-0.39,1721228651580
-4.32,22.75,-25.79,0.31,1.28,0.55,1721228651590
0.98,-78.45,-52.86,1.12,-1.16,1.02,1721228651600
-20.81,-68.59,65.07,1.05,0.93,1.54,1721228651610
-9.13,2.78,-16.71,0.26,-0.32,0.14,1721228651620
-0.12,-46.97,-39.34,1.40,-1.25,-0.59,1721228651630
-26.34,54.48,78.45,-2.04,2.68,-0.26,1721228651640
18.84,34.89,-4.16,-1.90,0.02,-0.38,1721228651650
-6.88,-78.45,-29.26,-0.86,-0.10,-0.24,1721228651660
-9.16,-32.70,40.56,1.56,0.50,1.66,1721228651670
-5.72,35.92,25.78,1.72,0.20,0.70,1721228651680
7.24,-21.68,-46.18,0.21,-0.91,-0.01,1721228651690
13.85,2.98,8.57,-2.83,1.69,-0.59,1721228651700
-1.03,11.52,48.82,0.92,-0.69,-0.37,1721228651710
0.21,-1.50,-13.22,0.79,-0.80,-1.51,1721228651720
-5.26,-14.95,22.40,-1.09,0.87,-0.76,1721228651730
-9.80,8.73,42.32,0.19,-0.42,-0.04,1721228651740
-1.75,7.17,7.99,1.17,0.09,0.22,1721228651750
6.07,45.76,-1.89,0.71,0.38,0.26,1721228651760
3.94,41.99,-32.91,1.60,-0.73,0.32,1721228651770
-10.83,-78.45,-41.69,-3.20,2.08,0.32,1721228651780
14.40,-18.84,70.15,3.31,1.93,0.65,1721228651790
21.05,21.77,78.45,1.31,0.25,-0.72,1721228651800
-9.22,-2.16,-33.57,1.37,-0.93,-0.23,1721228651810
-4.98,7.68,-20.74,-1.13,1.35,0.05,1721228651820
-2.66,-7.64,0.82,0.99,0.69,0.80,1721228651830
27.11,10.85,4.97,0.54,0.30,0.09,1721228651840
7.06,13.10,78.45,-0.34,1.73,0.47,1721228651850
6.92,15.73,13.32,0.56,0.26,0.34,1721228651860
8.03,-24.25,-38.64,-0.81,0.21,-1.39,1721228651870
-11.34,25.19,63.85,-1.04,-0.58,-1.25,1721228651880
11.15,11.90,14.17,1.07,0.48,-0.46,1721228651890
-9.04,-15.13,-52.73,3.27,-0.47,1.72,1721228651900
6.57,-21.51,-14.22,-1.42,0.64,0.96,1721228651910
8.22,-7.84,78.45,-1.25,1.30,-0.43,1721228651920
-18.63,-42.26,78.45,-2.80,3.21,0.15,1721228651930
-12.13,19.04,-78.45,4.30,-2.32,-0.31,1721228651940
-17.30,69.27,-78.45,2.28,-2.88,0.12,1721228651950
25.02,-70.33,-60.00,-0.12,-0.24,0.47,1721228651960
33.15,-75.23,32.58,0.47,4.37,-3.87,1721228651970
54.20,78.45,37.30,1.91,-1.29,0.27,1721228651980
-5.20,-78.45,-78.45,4.29,-3.64,1.94,1721228651990
8.09,-30.50,-78.45,-0.25,3.12,0.80,1721228652000
25.53,-78.45,78.45,-0.99,4.37,3.06,1721228652010
78.45,78.45,78.45,-0.60,3.28,2.60,1721228652020
21.45,-78.45,-53.89,3.69,0.91,0.88,1721228652030
32.17,-1.56,-56.18,1.95,-4.37,0.65,1721228652040
10.67,-39.56,-1.56,-1.51,4.37,1.32,1721228652050
-2.29,-23.74,-55.97,-0.21,2.75,-1.49,1721228652060
-41.08,78.45,78.45,0.73,-0.08,0.50,1721228652070
-23.60,-78.45,-67.23,2.48,-0.24,-0.06,1721228652080
-17.24,-42.73,-78.45,-1.03,-4.19,0.04,1721228652090
6.94,-7.12,44.29,-0.79,1.15,1.22,1721228652100
11.04,-51.50,8.59,0.58,0.55,-0.38,1721228652110
0.32,9.41,-7.14,-0.15,-1.70,-0.26,1721228652120
-0.73,18.00,40.79,-1.24,-0.04,-0.22,1721228652130
-1.42,32.07,-3.27,1.94,-0.20,0.48,1721228652140
7.26,22.38,-50.32,2.61,-0.15,0.63,1721228652150
-0.38,-12.37,-5.54,-2.24,0.82,0.74,1721228652160
-34.37,-78.45,78.45,-1.76,-0.26,-2.02,1721228652170
-31.03,78.45,-2.66,3.08,0.74,0.81,1721228652185
0.30,-72.10,-78.45,4.37,-0.60,0.42,1721228652189
5.25,-33.24,-78.45,1.54,-2.31,2.12,1721228652199
18.29,21.50,-17.00,-0.17,0.21,0.85,1721228652209
-36.96,78.45,-78.45,-3.67,3.78,-3.03,1721228652219
8.52,65.27,78.45,4.37,-4.37,-1.07,1721228652229
-9.69,-72.93,-78.45,1.46,4.36,0.08,1721228652239
-6.62,-28.49,-35.74,-3.59,-2.43,0.49,1721228652249
33.80,78.45,78.45,0.54,2.93,-0.95,1721228652259
-20.75,-2.33,60.47,-0.00,-0.17,0.65,1721228652269
-11.79,63.20,-64.24,0.57,-0.68,0.28,1721228652279
6.66,-36.97,-15.38,1.05,-1.69,-0.16,1721228652289
6.41,-78.45,-14.21,-0.06,-0.22,-0.23,1721228652299
-5.65,23.78,55.12,-2.75,3.83,-1.28,1721228652309
-58.28,5.43,78.45,0.51,1.80,-1.57,1721228652319
1.71,42.74,-53.73,2.86,-1.31,0.99,1721228652329
-5.37,15.18,-67.14,-1.89,0.24,1.05,1721228652339
27.31,0.37,24.30,-2.44,4.37,-1.52,1721228652349
-28.44,-78.45,59.66,-0.33,-0.90,-0.63,1721228652359
6.77,35.92,19.87,3.01,-2.15,-0.60,1721228652369
-15.79,19.29,-13.44,1.95,-0.92,-0.77,1721228652379
-1.19,48.82,24.35,0.48,-0.29,0.64,1721228652389
5.21,27.68,-54.89,0.41,-1.37,1.73,1721228652399
34.10,-78.45,-67.16,-0.37,4.37,0.49,1721228652409
30.43,-76.60,42.66,-4.37,4.37,-0.73,1721228652419
49.38,78.45,32.53,1.86,-4.37,-0.42,1721228652429
1.41,-13.01,-36.09,4.37,-0.36,-0.93,1721228652439
38.81,-36.72,-78.45,0.63,-4.06,-0.02,1721228652449
-1.97,36.62,-4.26,-2.95,4.37,4.37,1721228652459
-78.45,55.96,78.45,0.63,-4.37,2.61,1721228652469
34.58,1.03,10.52,2.68,0.85,0.79,1721228652479
-10.45,-22.71,-32.15,-1.90,-1.23,-0.48,1721228652489
-6.91,20.55,77.28,0.66,0.40,-1.37,1721228652499
-29.41,2.49,-65.61,2.01,-1.05,0.02,1721228652509
-22.29,18.40,-78.45,1.08,0.52,0.12,1721228652519
-9.16,-69.76,-8.84,-2.90,3.22,1.16,1721228652529
-78.45,-13.45,78.45,-0.73,-0.71,-1.66,1721228652539
-6.54,63.87,5.93,3.02,-0.45,0.14,1721228652549
17.26,11.62,-21.39,3.86,-2.02,0.28,1721228652559
-43.26,-48.87,-63.34,-0.05,1.92,1.70,1721228652569
78.45,-78.45,78.45,-1.52,4.37,-2.08,1721228652579
22.29,78.45,29.95,1.83,-1.54,-0.78,1721228652589
-4.17,-15.22,-44.47,1.21,-0.33,-0.23,1721228652599
5.60,-68.33,17.50,-0.27,-2.65,-0.61,1721228652609
3.29,11.56,52.33,1.53,0.38,0.01,1721228652619
4.41,29.71,-5.06,2.08,-0.45,0.52,1721228652629
-0.45,3.02,-44.60,3.48,-1.22,0.81,1721228652639
4.40,-30.35,-54.57,-2.02,-0.53,0.20,1721228652649
19.28,3.69,78.45,-3.23,4.37,0.08,1721228652659
75.84,72.05,8.91,4.37,1.70,-1.70,1721228652669
10.38,-2.64,-35.82,2.88,-2.71,-1.24,1721228652679
-22.08,29.52,-75.14,-3.00,0.37,-0.53,1721228652689
-16.53,-19.21,43.58,-2.56,0.95,0.93,1721228652699
-18.06,-7.90,36.29,1.32,-1.43,0.34,1721228652709
2.07,66.13,60.89,0.32,-0.66,-0.60,1721228652719
0.12,54.06,-34.54,2.58,-2.24,0.06,1721228652729
9.21,-36.18,-51.19,-0.12,0.03,0.85,1721228652739
6.46,0.66,-5.80,-4.37,4.37,0.25,1721228652749
-25.02,49.87,78.45,-0.23,-1.49,-0.80,1721228652759
-15.47,-63.31,-59.39,3.01,-1.06,-0.11,1721228652769
5.46,37.88,-58.67,-0.07,-2.34,1.34,1721228652779
-8.98,-30.36,-39.51,-2.54,2.34,0.19,1721228652789
3.48,-36.26,61.12,-2.33,1.16,-0.76,1721228652799
30.32,64.14,38.10,4.37,-2.59,-2.31,1721228652809
-6.87,4.81,-36.54,4.37,-1.30,-0.32,1721228652819
-33.02,-78.45,44.12,-0.05,-4.37,0.37,1721228652829
31.17,-78.45,78.45,-4.37,4.37,0.63,1721228652839
-37.57,33.31,22.53,2.63,-3.27,0.88,1721228652849
12.85,-78.45,-54.54,2.82,3.08,0.52,1721228652859
-16.80,-50.30,-49.57,-0.71,-2.49,0.42,1721228652869
36.66,-77.54,76.60,-2.64,4.37,-1.40,1721228652879
-15.53,78.45,78.45,-1.59,-2.58,0.25,1721228652889
4.38,0.24,-16.64,0.05,-0.27,0.09,1721228652899
-24.37,-61.28,-78.45,3.33,-1.70,-0.68,1721228652909
-18.58,-62.83,12.47,-0.11,-4.37,1.07,1721228652919
0.49,36.13,78.45,-0.78,4.37,-2.45,1721228652929
25.52,61.93,25.38,2.79,-1.52,1.06,1721228652939
9.29,-61.96,-36.01,-0.47,0.61,0.16,1721228652949
-1.11,-78.45,17.72,-2.92,3.25,-1.09,1721228652959
-3.52,71.29,51.73,1.92,-0.28,0.57,1721228652969
9.27,-31.78,-50.48,2.21,-0.43,-0.13,1721228652979
12.31,-76.00,-78.45,-2.67,-0.97,-2.62,1721228652989
-26.33,46.08,78.45,-0.89,-0.76,-1.65,1721228652999
36.20,45.19,78.45,1.34,0.52,0.34,1721228653009
-2.79,-78.45,-60.40,4.16,-0.56,1.99,1721228653019
15.93,-78.45,-78.45,-4.37,-0.13,-0.17,1721228653029
29.64,29.90,71.83,1.58,0.60,-1.53,1721228653039
-18.95,46.20,24.80,1.70,-0.59,0.26,1721228653049
-5.99,-35.84,-34.87,1.95,0.17,0.53,1721228653059
-4.48,-61.74,-28.28,-2.43,1.24,-0.38,1721228653069
2.06,78.45,7.60,0.88,-1.72,0.09,1721228653079
13.03,5.71,76.13,-0.43,-0.65,-0.87,1721228653089
2.64,78.45,19.57,1.93,-1.91,-0.73,1721228653099
10.35,39.20,-23.38,-0.07,1.26,0.32,1721228653109
-1.64,-78.45,-40.15,-2.01,1.33,0.28,1721228653119
-5.99,-7.30,38.83,3.90,-0.10,0.69,1721228653129
-13.41,0.05,48.41,0.50,0.54,0.39,1721228653139
-3.34,23.81,-36.87,1.37,-1.33,-0.84,1721228653149
-7.00,-26.93,-20.37,-1.14,1.24,0.24,1721228653159
-13.70,-41.71,78.45,0.01,0.57,-0.08,1721228653169
-23.37,78.45,3.76,1.64,-0.10,-0.28,1721228653179
0.47,16.58,-58.60,3.86,-1.39,1.01,1721228653189
3.87,6.74,-78.23,-1.40,-0.44,0.54,1721228653199
17.47,-78.45,-32.82,-0.70,2.35,-0.95,1721228653209
-46.68,78.45,78.45,1.94,-1.54,-0.99,1721228653219
-1.75,-70.60,47.66,-1.01,1.74,-1.41,1721228653229
-41.44,49.45,21.35,1.46,-2.00,0.07,1721228653239
-21.98,-9.71,-6.36,-2.22,0.89,1.18,1721228653249
2.21,-3.41,46.63,-1.20,1.14,1.32,1721228653259
24.73,57.71,57.11,1.58,-0.21,-0.61,1721228653269
22.88,-8.36,-16.94,2.36,-1.02,0.39,1721228653279
2.92,16.28,-48.19,-0.01,-0.31,-0.17,1721228653289
-8.99,-78.45,5.98,-1.85,2.76,-1.85,1721228653299
-24.26,6.82,78.45,1.83,-2.91,-0.44,1721228653309
8.63,39.25,-19.43,1.52,-1.31,-1.35,1721228653319
-7.39,-70.08,-40.31,0.29,-1.84,0.16,1721228653329
-15.44,-26.31,14.32,-3.06,3.08,0.63,1721228653339
-45.98,30.84,78.45,1.00,-2.07,2.19,1721228653349
-31.82,19.70,-58.46,0.91,-0.39,1.74,1721228653359
21.82,20.28,-53.22,3.14,-0.05,-0.03,1721228653369
-13.82,-28.05,-73.39,-0.41,-3.01,0.42,1721228653379
32.47,-39.05,42.92,-4.37,4.37,0.28,1721228653389
20.77,78.45,73.83,0.37,-2.04,-1.76,1721228653399
25.39,39.67,22.68,4.37,-0.80,-1.98,1721228653409
28.02,78.45,-78.45,4.37,-3.79,-1.76,1721228653419
8.98,-78.45,-78.45,-0.10,0.53,0.16,1721228653429
20.96,-78.45,78.45,1.34,4.37,-2.03,1721228653439
78.45,78.45,78.45,-2.04,0.09,4.37,1721228653449
28.65,-31.36,5.42,4.37,4.37,0.78,1721228653459
-22.99,24.20,-78.45,-0.29,-0.76,1.22,1721228653469
-5.11,-78.45,44.78,-0.11,2.85,-2.65,1721228653479
30.77,59.40,-37.32,0.28,-0.68,-3.27,1721228653489
-5.12,-33.47,-77.85,4.14,-3.32,-0.55,1721228653499
-10.56,-58.33,29.70,-1.99,4.10,0.50,1721228653509
15.91,78.45,78.45,-0.05,-3.66,1.40,1721228653519
-66.81,-78.45,23.47,0.09,0.68,0.16,1721228653529
-22.50,78.45,-78.45,-0.45,-3.37,-0.18,1721228653539
-13.04,2.36,-46.26,-0.48,-1.12,0.70,1721228653549
11.50,-57.27,26.91,-1.01,0.96,-0.17,1721228653559
53.53,78.45,33.44,1.07,-0.35,-0.76,1721228653569
-2.16,10.90,-1.99,-0.61,-1.55,-0.79,1721228653579
-0.07,19.22,-16.27,0.04,0.26,-0.44,1721228653589
0.20,-29.47,-36.42,-0.99,-0.78,0.03,1721228653599
5.89,-42.12,45.80,-3.00,2.38,-0.29,1721228653609
-3.21,63.50,78.45,-2.36,2.27,-0.83,1721228653619
33.80,78.45,-24.02,3.48,-1.78,0.42,1721228653629
-1.18,-45.89,-56.75,-0.08,1.98,1.44,1721228653639
1.49,-36.59,16.55,-3.89,1.57,1.61,1721228653649
-22.03,13.56,48.32,-0.39,-0.92,-0.87,1721228653659
-6.67,12.94,-4.00,1.94,-0.85,-0.48,1721228653669
3.97,16.52,-10.96,-1.53,1.01,1.04,1721228653679
3.79,51.57,22.03,0.39,-0.96,0.12,1721228653689
7.29,5.49,63.35,-0.76,0.43,0.28,1721228653699
1.37,-78.45,-44.01,2.26,-0.50,-0.80,1721228653709
37.41,26.00,-38.92,-2.75,0.42,-1.39,1721228653719
-7.24,-7.05,51.48,0.05,-1.49,0.21,1721228653729
4.97,-8.06,0.65,-0.17,0.48,0.44,1721228653739
-1.25,22.91,8.15,1.39,-1.67,1.78,1721228653749
15.39,30.21,-0.88,-0.00,0.85,1.55,1721228653759
5.15,4.01,34.04,-0.30,-0.28,0.41,1721228653769
8.68,24.47,4.70,0.92,-0.21,-0.80,1721228653779
1.53,-78.45,-37.00,0.67,-0.18,-1.76,1721228653789
0.86,-4.93,10.00,0.83,-1.00,-2.29,1721228653799
-4.42,19.49,17.69,0.72,-0.32,-0.74,1721228653809
-19.00,-23.61,-4.74,0.02,-0.08,0.12,1721228653819
-11.28,47.64,53.29,0.30,0.29,1.40,1721228653829
9.68,41.50,-9.60,-0.04,0.18,1.59,1721228653839
26.08,-78.45,24.99,-4.17,0.96,-0.68,1721228653849
-15.93,78.45,78.45,0.44,-3.71,-2.24,1721228653859
8.50,78.45,-3.46,4.14,-1.53,-0.16,1721228653869
-48.20,48.80,-78.45,1.35,2.82,1.31,1721228653879
-40.07,-6.40,-15.51,0.23,-4.37,-0.08,1721228653889
9.50,-74.55,62.36,-1.02,4.37,-3.03,1721228653899
-66.89,-57.79,78.45,1.30,-4.37,-1.32,1721228653909
13.03,-21.20,-8.54,3.18,2.33,0.94,1721228653919
11.26,15.42,-77.11,-0.46,-2.74,-0.14,1721228653929
-5.40,-9.01,78.45,0.86,2.79,-1.17,1721228653939
-25.23,-24.74,72.73,-1.81,-1.00,1.25,1721228653949
1.63,-73.54,14.66,-0.16,0.65,0.37,1721228653959
11.16,-5.61,1.56,2.49,2.51,0.15,1721228653969
4.00,-31.43,20.74,-1.50,0.99,0.86,1721228653979
-7.06,-50.60,65.51,1.11,-0.16,-0.89,1721228653989
16.97,78.45,3.01,-0.38,2.01,-0.68,1721228653999
10.54,53.37,-70.42,2.78,0.40,0.25,1721228654009
17.02,-27.84,-64.50,-0.36,0.85,0.08,1721228654019
-4.08,-33.58,-8.47,-2.78,4.37,-2.57,1721228654029
37.33,-0.66,67.90,3.21,-2.87,-0.15,1721228654039
-8.80,68.15,-40.99,2.37,-1.14,1.02,1721228654049
13.69,-4.97,-74.79,-0.41,1.85,1.09,1721228654059
37.96,-77.25,29.48,-0.61,-0.21,0.52,1721228654069
1.68,78.45,61.72,2.45,-1.50,-1.47,1721228654079
-14.52,-78.45,15.45,1.87,-0.79,-0.19,1721228654089
-9.62,1.02,33.86,-1.01,0.41,-0.67,1721228654099
13.21,70.55,78.45,-1.61,1.40,1.47,1721228654109
16.96,33.18,-37.55,1.66,-0.24,1.88,1721228654119
19.40,-35.67,-44.68,1.55,-0.70,1.69,1721228654129
43.98,61.36,-16.70,-1.98,-0.51,0.34,1721228654672
-18.63,-10.42,78.45,-3.08,1.84,0.91,1721228654676
-0.28,-22.67,26.08,1.12,0.05,0.46,1721228654685
14.09,-7.64,-5.06,0.72,0.54,0.91,1721228654695
8.89,8.89,6.44,0.74,0.15,-0.30,1721228654705
8.17,21.30,-12.28,1.48,-1.05,-0.45,1721228654715
-0.26,6.78,-11.17,-0.29,0.35,-0.42,1721228654725
-22.80,31.96,61.17,-0.71,0.00,-0.05,1721228654735
-7.31,-21.43,-0.57,-0.94,-0.77,0.06,1721228654745
-4.73,-27.83,11.85,-0.78,-0.13,-0.57,1721228654755
-3.25,62.93,33.37,1.30,-0.59,0.09,1721228654765
-0.39,-75.74,-8.36,-1.42,1.01,0.30,1721228654775
31.15,-54.74,41.91,2.71,0.54,-0.59,1721228654785
2.90,-6.10,2.19,-0.40,-0.50,-0.06,1721228654795
8.14,24.72,18.85,-0.30,1.09,-0.72,1721228654805
-5.93,10.50,26.51,-0.88,-0.52,-0.50,1721228654815
-22.88,-58.94,41.77,-1.71,0.07,-0.34,1721228654825
-4.95,9.43,57.86,-0.66,0.00,0.76,1721228654835
23.49,78.45,-23.70,4.24,-0.80,0.69,1721228654845
8.49,-0.91,-61.65,1.47,-0.14,0.68,1721228654855
26.04,-64.16,-46.06,-0.58,-4.37,0.71,1721228654865
-8.80,22.96,77.27,-3.01,4.37,-2.42,1721228654875
-19.28,78.45,63.02,-0.01,-0.71,0.95,1721228654885
-27.20,-68.53,-78.45,3.05,1.45,0.85,1721228654895
13.62,-47.35,35.53,-4.05,0.98,0.03,1721228654905
8.19,5.54,78.45,-0.90,1.63,0.75,1721228654915
36.25,58.18,-26.57,1.83,-0.64,1.03,1721228654925
14.04,19.01,-34.18,0.36,0.70,0.55,1721228654935
20.05,20.69,78.45,-1.55,2.27,-0.68,1721228654945
2.01,3.86,-4.13,0.76,-0.67,-1.14,1721228654955
-3.20,-66.38,-62.09,-0.86,0.60,-0.74,1721228654965
-13.31,-39.07,74.37,-0.42,1.66,0.04,1721228654975
-8.30,-10.01,44.07,0.74,-0.31,1.10,1721228654985
-4.13,-14.60,-21.95,0.14,-0.43,1.13,1721228654995
-0.91,25.91,-7.02,-1.58,1.24,0.73,1721228655005
8.70,-74.76,37.08,-1.29,-0.37,-1.42,1721228655015
-10.97,-11.58,50.23,0.63,-0.95,-1.51,1721228655025
-12.10,39.50,15.97,0.46,0.14,-0.74,1721228655035
-3.66,39.43,-54.59,0.85,-1.31,0.96,1721228655045
-4.65,-74.21,-19.94,-0.35,1.07,1.75,1721228655055
4.87,34.64,58.44,0.17,1.59,-0.02,1721228655065
6.02,39.85,-0.58,2.14,-0.50,0.58,1721228655075
10.94,-31.19,-58.44,-0.16,0.55,0.05,1721228655085
-3.92,-57.36,78.45,-2.19,0.21,-1.63,1721228655095
28.36,56.76,56.14,-0.33,-2.39,-1.15,1721228655105
-9.53,3.18,-41.84,0.82,0.60,0.34,1721228655115
-4.76,-4.82,-29.74,0.63,-1.05,1.65,1721228655125
9.65,29.03,70.40,-2.02,2.20,0.70,1721228655135
9.21,-6.39,43.97,1.05,-1.21,-0.38,1721228655145
2.60,-42.77,-78.45,4.37,-1.22,-0.14,1721228655155
16.28,-1.99,-38.89,-3.33,1.16,-0.22,1721228655165
2.89,39.34,60.11,1.26,0.62,-0.76,1721228655175
-11.32,78.45,-4.56,2.02,0.08,0.36,1721228655185
18.27,-78.45,-62.50,-0.70,2.12,-0.18,1721228655195
15.11,-35.13,58.69,-1.09,2.30,-2.23,1721228655205
6.98,78.45,78.45,-0.60,0.94,-0.07,1721228655215
-23.64,-78.45,-67.98,1.27,-0.13,-0.49,1721228655225
4.69,-58.09,-19.62,-0.21,-0.17,-0.91,1721228655235
2.97,78.45,22.94,0.79,-0.24,0.41,1721228655245
-4.71,-78.45,22.21,-1.21,0.76,-0.26,1721228655255
-7.26,32.64,65.58,-0.57,-0.59,-0.36,1721228655265
-1.82,40.87,41.84,0.72,0.04,0.39,1721228655275
23.39,19.75,-78.45,1.59,-1.05,0.85,1721228655285
9.18,-78.45,-36.96,-3.48,0.71,-0.27,1721228655295
6.04,-30.51,78.45,-1.97,3.31,-1.16,1721228655305
-78.45,78.45,78.45,2.21,-1.08,-0.24,1721228655315
-7.42,-78.45,-67.55,2.84,1.35,-0.65,1721228655325
-18.43,-12.40,-25.01,-4.37,0.89,-0.53,1721228655335
11.71,78.45,78.45,0.62,-3.98,-1.86,1721228655345
9.71,-18.69,-4.59,1.46,0.51,-0.79,1721228655355
-37.78,-2.88,-56.11,1.62,-0.39,3.71,1721228655365
27.15,-2.87,19.86,-2.24,0.99,1.42,1721228655375
31.13,78.45,78.45,1.33,0.76,0.25,1721228655385
25.66,-36.38,6.49,2.21,-2.19,-1.20,1721228655395
7.20,-19.20,-78.45,0.76,-1.61,-3.37,1721228655405
-62.38,63.14,54.04,-1.77,0.14,-0.96,1721228655415
4.97,-11.69,17.55,1.27,-0.38,-1.86,1721228655425
-11.62,-65.19,-35.54,0.64,-0.41,1.60,1721228655435
-6.35,78.45,49.31,1.15,-0.30,1.81,1721228655445
19.26,-6.22,34.83,-1.85,-1.01,1.24,1721228655455
8.21,-14.07,78.45,0.17,0.29,-0.25,1721228655465
12.05,48.37,-2.30,1.91,-0.83,0.90,1721228655475
10.89,-51.63,-70.53,-0.63,2.24,-1.87,1721228655485
-0.40,-31.12,25.71,0.32,-0.53,-2.53,1721228655495
28.96,19.24,37.82,-0.92,1.08,-1.20,1721228655505
-20.92,10.88,8.56,-0.71,0.45,0.18,1721228655515
-1.77,-54.94,-15.28,2.21,-1.79,0.96,1721228655525
17.89,-67.18,6.94,-1.57,-0.26,-0.53,1721228655535
8.49,-4.84,78.45,-1.14,0.46,0.72,1721228655545
17.14,9.40,51.83,1.46,-1.48,-1.17,1721228655555
1.89,78.45,-76.50,2.27,-0.77,-0.11,1721228655565
2.54,-78.45,-12.89,-0.01,-1.77,0.26,1721228655575
-27.27,-15.15,78.45,-1.24,3.51,-0.88,1721228655585
25.58,48.64,1.04,1.19,-0.86,0.72,1721228655595
42.42,-78.45,16.77,-2.20,1.16,-0.62,1721228655605
23.00,23.52,73.58,0.32,-0.06,-0.39,1721228655615
-5.69,10.38,34.20,1.13,0.54,0.76,1721228655625
-3.56,-37.92,-47.04,2.68,-0.58,0.79,1721228655635
-11.32,-35.39,-43.47,-1.97,1.21,0.84,1721228655645
-2.31,-34.78,78.45,-2.21,0.69,0.94,1721228655655
1.89,45.53,35.64,-1.03,0.06,1.03,1721228655665
5.49,11.88,-5.70,3.93,-1.30,-0.11,1721228655675
8.58,0.72,-68.37,1.55,-0.73,-0.53,1721228655685
-3.94,-17.23,-39.95,-4.37,0.86,-0.47,1721228655695
-36.36,78.45,71.82,-0.15,-1.21,-1.70,1721228655705
-32.30,-78.45,53.94,0.04,4.37,-1.62,1721228655715
39.77,53.49,-14.96,0.40,-0.94,0.08,1721228655725
6.67,40.38,-3.89,0.90,0.46,1.02,1721228655735
2.80,-66.70,-46.01,1.46,-0.94,0.44,1721228655745
8.32,-28.90,55.74,0.41,0.32,-1.43,1721228655755
18.94,78.45,40.85,0.85,-0.96,-0.26,1721228655765
-11.18,-78.45,-61.98,-0.92,2.94,0.22,1721228655775
-31.34,36.89,76.67,0.71,-1.40,2.78,1721228655785
9.01,8.66,25.19,0.99,-0.54,1.30,1721228655795
8.68,-78.45,-45.71,-0.70,1.86,1.80,1721228655805
-45.94,78.45,61.40,-2.08,-0.04,1.07,1721228655815
-31.14,-33.05,70.01,-1.25,0.22,-2.25,1721228655825
-12.69,43.46,-62.53,1.66,-2.04,0.12,1721228655835
-24.63,-78.45,-78.45,-1.60,1.41,1.56,1721228655845
9.45,-58.87,47.87,-1.70,0.25,0.19,1721228655855
31.42,56.79,78.45,0.61,-0.78,0.44,1721228655865
-13.95,-8.92,-4.02,0.42,-0.66,-0.75,1721228655875
0.85,-19.17,-34.40,-0.57,-1.59,-0.47,1721228655885
6.89,-49.81,65.97,-2.86,1.28,-0.09,1721228655895
-12.88,24.07,4.45,1.44,-0.52,0.03,1721228655905
7.97,-75.07,-20.15,0.40,-1.42,-0.24,1721228655915
-11.22,36.69,62.37,-0.56,0.30,-1.67,1721228655925
0.79,63.29,-3.41,2.77,-0.40,-0.03,1721228655935
-29.55,-70.36,-55.00,-0.96,0.30,1.10,1721228655945
-24.73,-78.45,78.45,-2.75,1.89,1.66,1721228655955
4.46,-9.20,23.60,-3.10,2.06,0.74,1721228655965
7.91,23.01,-78.45,4.37,-1.02,0.22,1721228655975
0.19,-10.15,-78.45,0.64,-2.55,0.04,1721228655985
-0.54,-62.95,55.68,-0.56,3.76,-0.57,1721228655995
-59.30,72.38,-8.65,1.69,-1.87,0.42,1721228656005
12.71,-78.45,-31.12,0.83,4.37,-2.27,1721228656015
27.44,78.45,-12.27,0.08,-1.72,-0.83,1721228656025
-50.46,64.08,41.41,-0.48,-0.07,0.89,1721228656035
5.00,-7.80,27.13,0.45,1.40,1.59,1721228656045
5.15,-71.13,-9.58,1.22,-0.14,0.38,1721228656055
15.33,30.58,7.52,0.28,-0.14,-1.99,1721228656065
-18.58,43.64,-8.10,0.39,-0.54,-0.56,1721228656075
-1.60,-27.76,5.35,-0.50,1.54,-0.53,1721228656085
-13.33,28.79,8.67,0.56,0.44,0.98,1721228656095
31.20,-78.45,-28.01,-4.14,2.08,-0.85,1721228656105
-28.03,53.39,78.45,2.17,-2.74,-1.05,1721228656115
3.15,-13.68,23.20,0.15,0.69,-0.32,1721228656125
-2.25,0.04,-39.26,1.15,-0.89,1.38,1721228656135
7.99,60.70,50.08,0.53,2.60,0.48,1721228656145
14.13,-23.69,14.52,-0.57,-0.39,0.11,1721228656155
6.04,76.56,24.02,0.24,0.80,-1.08,1721228656165
12.42,-18.67,0.60,0.61,-0.86,-0.56,1721228656175
-6.68,-78.45,56.61,-1.53,1.35,-1.64,1721228656185
8.23,24.38,57.51,0.76,-0.73,-0.37,1721228656195
-4.34,-7.43,-4.10,0.47,0.27,0.66,1721228656205
-3.41,78.45,-2.29,0.40,1.05,1.40,1721228656215
13.25,-30.25,-28.87,-0.87,-0.61,0.02,1721228656225
17.69,-43.70,72.07,-1.43,0.57,-0.99,1721228656235
-23.20,78.45,78.45,2.11,-1.84,-0.94,1721228656245
2.62,-18.09,-36.79,2.65,0.70,-1.85,1721228656255
-19.12,61.58,-78.45,2.17,-0.18,-0.36,1721228656265
-50.87,-57.90,-78.01,-0.55,-1.84,2.86,1721228656275
30.22,-7.46,78.45,-2.66,4.37,0.65,1721228656285
-27.06,48.36,78.45,0.87,-0.66,2.20,1721228656295
10.51,-78.45,-67.91,1.80,1.19,0.32,1721228656305
23.17,-41.04,-7.70,0.24,0.02,-1.93,1721228656315
-11.65,22.12,23.21,-2.72,1.58,-1.27,1721228656325
0.21,29.57,65.76,0.39,0.15,0.45,1721228656335
-4.14,-8.43,-54.86,0.39,-1.61,0.20,1721228656345
22.29,5.19,-28.53,-3.57,2.93,1.40,1721228656355
-22.06,-40.96,78.45,-3.02,1.96,0.70,1721228656365
23.50,28.96,2.32,0.92,0.34,0.03,1721228656375
3.38,-24.18,-57.66,4.37,-1.42,0.95,1721228656385
1.10,-35.94,-52.95,-3.06,-1.45,-1.02,1721228656395
78.45,74.19,78.45,-2.87,4.37,-0.57,1721228656405
-24.70,42.47,64.24,1.93,-4.37,1.16,1721228656415
-28.92,-78.45,-65.87,2.11,1.11,1.49,1721228656425
-31.55,51.52,-50.21,0.43,-1.06,2.45,1721228656435
-6.00,36.86,20.54,-1.32,3.89,1.49,1721228656445
4.14,-17.25,18.35,1.85,1.06,1.26,1721228656455
11.88,-46.94,17.85,0.40,-1.45,-0.12,1721228656465
8.06,13.60,35.12,1.01,0.42,-1.48,1721228656475
-12.87,21.70,-48.77,1.84,-2.96,0.12,1721228656485
-15.64,-38.69,1.45,-0.88,-0.40,0.76,1721228656495
-8.58,78.45,29.36,0.89,-0.84,2.77,1721228656505
15.47,-78.45,-78.45,-1.12,-0.93,-0.25,1721228656515
25.22,-67.69,78.45,-0.29,1.81,-1.41,1721228656525
0.65,41.23,78.45,0.09,-1.95,-1.43,1721228656535
-51.91,-69.02,-49.06,3.33,0.03,-0.64,1721228656545
-17.76,26.86,-63.16,-0.21,0.61,1.36,1721228656555
8.30,-24.10,-50.48,-0.25,4.20,2.59,1721228656565
60.77,-13.27,78.45,-1.22,3.39,-1.64,1721228656575
37.39,78.45,78.45,1.72,-0.58,0.44,1721228656585
13.25,-12.28,-78.45,3.63,-1.91,-0.94,1721228656595
15.20,-40.37,-78.45,-0.07,-0.01,-1.02,1721228656605
-19.31,-39.15,-61.65,-4.37,2.88,-2.00,1721228656615
-11.69,-78.45,78.45,0.33,0.90,0.20,1721228656625
78.45,78.45,29.18,2.60,0.79,0.43,1721228656635
-4.63,-76.33,-76.08,4.37,-0.02,1.26,1721228656645
34.14,-17.96,15.23,-1.07,-4.37,1.08,1721228656655
27.82,-26.07,18.05,-4.37,4.37,0.49,1721228656665
67.24,66.40,-23.36,1.43,-1.02,0.31,1721228656680
-17.02,-78.45,1.64,4.37,-0.47,-1.19,1721228656684
-7.95,-60.52,-74.70,0.14,-4.07,-1.58,1721228656694
-6.57,-20.26,17.27,-4.13,-2.73,0.59,1721228656704
78.45,78.45,24.63,0.58,4.37,-0.97,1721228656714
-8.03,-17.17,8.37,3.92,-4.37,1.57,1721228656724
39.31,29.19,-78.45,2.54,-1.69,0.58,1721228656734
3.46,-75.19,17.47,-1.53,4.37,0.65,1721228656744
17.65,52.24,-2.59,0.59,4.37,-4.37,1721228656754
28.38,6.46,-51.44,4.37,-4.37,-2.12,1721228656764
-4.70,29.47,-78.45,0.92,-4.37,-0.80,1721228656774
36.66,9.22,-78.45,-0.08,0.39,0.23,1721228656784
58.83,68.27,-24.98,-0.52,1.60,-1.38,1721228656794
-50.52,-78.45,78.45,-0.18,-3.55,1.09,1721228656804
5.37,-29.95,-26.07,-0.07,3.06,-0.82,1721228656814
11.14,50.23,11.01,2.24,-4.37,0.71,1721228656824
22.67,-78.45,-27.39,-4.37,4.37,-1.46,1721228656834
-9.67,-27.09,78.45,-0.28,1.70,0.97,1721228656844
-78.45,64.86,78.45,-0.06,2.90,-0.94,1721228656854
21.74,-11.10,-30.90,2.58,-2.42,-0.17,1721228656864
-23.29,-48.48,-43.90,-4.37,1.00,0.04,1721228656874
29.57,78.45,78.45,-1.51,0.80,-0.56,1721228656884
-0.02,-78.45,40.20,0.32,0.52,0.24,1721228656894
-1.72,-0.44,-51.89,1.39,-3.18,0.68,1721228656904
8.71,-10.40,18.20,-0.92,-4.37,-1.37,1721228656914
-7.94,1.49,-6.44,-1.72,1.44,-0.55,1721228656924
-34.91,20.27,41.29,1.23,-2.49,0.44,1721228656934
0.23,-31.72,11.69,-1.24,1.88,0.68,1721228656944
4.81,2.94,15.57,1.18,-1.48,0.34,1721228656954
-9.81,-12.05,28.39,-0.20,0.37,-0.26,1721228656964
15.83,21.41,-12.76,1.37,-0.45,0.31,1721228656974
30.12,-78.45,16.21,-2.07,0.56,-1.12,1721228656984
-9.10,25.57,52.37,0.74,-0.45,-0.58,1721228656994
1.79,39.84,-60.23,1.73,-2.48,-0.42,1721228657004
-21.49,-78.45,-39.57,-1.98,-1.81,-0.07,1721228657014
24.91,78.45,78.45,-1.17,3.73,-1.04,1721228657024
-4.33,-4.45,33.60,1.83,-0.98,0.03,1721228657034
-4.77,-17.81,-41.86,0.28,0.75,0.33,1721228657044
13.40,19.46,-18.11,0.31,0.27,0.59,1721228657054
5.67,-31.85,-21.14,-3.63,0.98,-0.33,1721228657064
2.54,22.78,63.66,1.15,0.31,-1.14,1721228657074
1.24,-10.97,3.16,1.14,-0.89,-0.82,1721228657084
-25.71,24.31,-13.76,-0.39,0.44,-0.74,1721228657094
-13.75,-13.90,21.25,-1.21,1.81,-0.47,1721228657104
-9.19,-13.80,34.37,0.64,0.28,0.28,1721228657114
-0.63,68.00,4.72,1.21,0.47,1.13,1721228657124
6.47,-49.24,-35.06,0.96,-0.48,-0.38,1721228657134
10.87,7.18,0.83,-1.38,1.60,-0.42,1721228657144
39.97,28.78,-9.18,1.67,0.16,-1.73,1721228657154
9.84,-78.45,67.17,-1.97,-0.30,-1.27,1721228657164
-17.86,52.85,78.45,1.37,-1.59,0.71,1721228657174
-12.75,15.62,-9.43,3.12,0.84,-0.68,1721228657184
-8.99,-58.77,-66.39,0.52,-1.02,-0.07,1721228657194
15.36,-45.04,-6.67,-3.02,0.93,0.03,1721228657204
33.80,63.21,37.11,1.01,2.37,-0.87,1721228657214
11.91,38.69,-11.36,3.45,-2.79,-0.13,1721228657224
-3.02,6.56,-30.42,-0.96,1.12,-0.57,1721228657234
37.47,-23.46,78.45,1.02,-0.87,-0.53,1721228657244
15.86,40.91,27.32,1.50,-0.57,0.31,1721228657254
-26.38,-78.45,-61.18,1.99,-1.50,0.03,1721228657264
-39.63,18.19,13.46,-1.25,2.01,-0.75,1721228657274
-4.41,2.12,49.93,0.14,1.31,-0.67,1721228657284
-0.68,-3.53,34.07,0.17,0.35,-0.63,1721228657294
5.49,-60.56,-24.29,1.12,-0.56,-0.01,1721228657304
-19.40,10.21,7.70,-0.93,1.68,0.47,1721228657314
10.58,28.70,-12.89,0.38,0.18,0.76,1721228657324
-2.06,-41.45,15.23,1.42,-0.83,1.43,1721228657334
-11.20,53.60,63.36,-0.45,-0.28,-0.09,1721228657344
-1.32,4.70,-18.82,2.65,-1.73,-0.00,1721228657354
-4.38,-51.82,-43.76,-2.46,2.37,0.04,1721228657364
5.70,-3.01,51.60,-0.26,2.13,-0.00,1721228657374
-78.45,38.57,78.45,-1.59,0.03,-0.03,1721228657384
-3.23,-16.67,-78.45,1.64,-1.31,-0.81,1721228657394
8.29,-13.46,-59.79,-2.37,-0.30,0.15,1721228657404
4.64,35.10,76.96,-0.75,1.63,0.62,1721228657414
-3.95,-0.25,-4.30,0.17,-0.45,0.99,1721228657424
24.28,0.22,-28.32,1.32,-2.12,-1.40,1721228657434
-7.14,4.19,6.80,-1.66,1.95,-1.02,1721228657444
14.60,78.45,12.65,0.92,-3.23,0.17,1721228657454
-12.71,8.32,-78.45,0.96,-1.39,-0.10,1721228657464
-11.71,-15.30,-65.34,-3.25,0.52,0.37,1721228657474
-21.47,64.34,18.52,0.47,0.90,1.57,1721228657484
-11.04,-34.93,78.45,-0.75,1.19,0.14,1721228657494
0.32,17.69,41.98,0.38,-0.52,1.02,1721228657504
2.08,9.13,26.87,0.72,0.59,0.30,1721228657514
-0.29,78.45,-78.45,2.32,-2.19,-0.11,1721228657524
-42.53,-78.45,-20.75,-0.19,-4.37,0.43,1721228657534
-16.81,-78.45,46.86,-4.37,4.37,0.78,1721228657544
39.14,-13.70,67.31,-0.17,-4.37,-0.30,1721228657554
19.42,21.09,15.47,3.17,0.37,-1.19,1721228657564
4.98,-21.39,-78.45,2.84,-2.10,0.40,1721228657574
-78.28,-78.45,14.59,-0.26,-4.37,1.00,1721228657584
78.45,78.45,70.80,-1.36,4.37,-2.59,1721228657594
-30.89,-20.96,-23.33,-0.23,-4.37,-1.18,1721228657604
-17.53,-73.60,-71.51,4.37,-0.13,-2.14,1721228657614
-20.13,60.26,39.13,-3.39,-1.87,1.99,1721228657624
36.09,-41.81,78.45,-0.62,4.37,2.40,1721228657634
-11.31,12.42,-35.96,2.41,-3.14,2.71,1721228657644
51.07,-78.45,-25.62,4.37,-2.80,1.13,1721228657654
22.00,-9.93,18.27,-0.28,2.07,-0.80,1721228657664
-10.66,-13.30,66.64,-0.92,0.35,0.06,1721228657674
19.53,20.34,13.53,2.29,2.28,0.22,1721228657684
12.96,-6.32,-42.73,0.81,-0.46,0.39,1721228657694
-2.30,-36.21,-0.54,-2.35,1.32,0.19,1721228657704
-11.90,19.74,74.72,-0.26,-0.60,-0.46,1721228657714
-3.53,-32.94,35.64,1.83,-1.26,0.28,1721228657724
38.75,78.45,-19.44,2.47,-0.28,1.61,1721228657734
8.45,-36.19,-17.46,-0.19,-0.29,1.17,1721228657744
17.20,64.53,68.53,0.07,0.74,-0.37,1721228657754
6.28,78.45,-33.29,-0.45,-1.79,0.08,1721228657764
4.17,-78.45,-50.60,-0.38,1.14,-0.63,1721228657774
-2.97,-54.92,19.13,1.81,0.00,-1.97,1721228657784
-2.99,-39.43,60.79,-0.16,0.12,-0.06,1721228657794
-34.47,78.45,42.50,1.74,-0.25,0.62,1721228657804
0.31,-13.46,3.03,-0.38,-0.55,1.32,1721228657814
7.44,13.40,17.17,-0.02,0.60,0.21,1721228657824
12.77,6.51,6.10,0.13,-1.04,0.12,1721228657834
1.78,-64.01,-29.18,0.58,0.37,0.08,1721228657844
9.03,42.98,9.90,-0.18,0.20,-0.38,1721228657854
3.07,-78.45,77.36,-1.66,-0.34,-0.82,1721228657864
-16.42,30.80,55.69,1.63,-0.31,-0.26,1721228657874
-4.91,17.84,-27.43,2.29,-0.95,0.82,1721228657884
67.20,65.23,4.67,-3.50,4.11,0.15,1721228657894
39.01,12.05,66.67,-0.64,0.62,-2.02,1721228657904
-29.38,-39.18,60.47,1.18,-0.48,-1.14,1721228657914
16.80,26.14,-78.45,4.37,-2.06,0.82,1721228657924
4.96,25.44,-25.50,-0.08,-4.37,2.12,1721228657934
72.76,4.40,36.97,-4.37,4.37,-0.69,1721228657944
-19.53,-78.45,78.45,-1.83,-2.47,-1.25,1721228657954
-9.81,32.32,48.02,3.99,0.08,-1.38,1721228657964
0.66,51.19,-65.68,0.08,-0.86,0.50,1721228657974
-0.91,-20.47,-22.66,-1.07,3.22,-0.02,1721228657984
-20.87,65.40,-7.41,-3.29,1.02,0.69,1721228657994
4.87,20.36,65.86,-0.32,1.92,0.17,1721228658004
-10.58,1.84,-32.21,1.24,-0.19,1.00,1721228658014
30.27,40.85,-52.72,1.82,-4.37,0.08,1721228658024
46.70,-78.45,57.90,-4.37,4.37,-1.91,1721228658034
-36.86,-12.12,-55.75,-1.40,-4.37,-2.07,1721228658044
10.31,-4.53,17.49,3.03,0.72,-1.94,1721228658054
-27.98,21.09,-31.49,-3.12,-0.32,0.04,1721228658064
-23.31,16.56,24.60,-1.15,1.39,0.65,1721228658074
9.68,-47.34,19.46,-0.20,-0.21,-0.90,1721228658084
4.53,-9.21,42.71,0.14,0.52,-0.08,1721228658094
5.30,78.05,8.61,2.80,-0.39,0.88,1721228658104
15.94,-31.98,-58.26,1.70,-0.53,-0.28,1721228658114
-10.96,-13.72,-46.62,-4.37,-0.60,-1.05,1721228658124
-10.03,17.53,78.45,-1.52,-0.90,-1.72,1721228658134
-31.47,78.45,36.21,4.37,-0.21,-0.25,1721228658144
-24.67,-78.45,-78.45,4.37,-2.32,-0.38,1721228658154
-29.44,-54.78,-11.99,-0.71,-4.37,2.07,1721228658164
38.40,-54.81,33.23,-4.07,4.37,1.02,1721228658174
-23.21,78.45,-1.87,-0.27,-4.37,0.74,1721228658184
10.53,-78.45,-78.45,4.15,0.91,-1.17,1721228658194
-29.18,-78.45,-78.45,0.33,-0.63,-0.25,1721228658204
25.25,-49.10,78.45,-1.15,4.37,-0.19,1721228658214
-78.45,-5.19,35.47,-1.37,1.91,-0.02,1721228658224
7.60,27.40,-71.96,3.47,-2.20,-1.24,1721228658234
-3.42,70.42,-78.45,1.45,-4.05,0.41,1721228658244
-13.17,-78.33,-42.39,-0.43,3.50,1.13,1721228658254
-40.14,-52.15,78.45,-0.45,4.37,1.56,1721228658264
78.45,78.45,37.93,3.24,-4.37,1.49,1721228658274
-0.75,-78.45,-58.07,4.37,-1.78,0.76,1721228658284
-31.17,-51.38,-78.07,-3.45,-1.72,2.47,1721228658294
34.34,-63.50,48.67,-4.37,4.37,0.48,1721228658304
-55.83,2.49,43.28,-1.95,3.30,-0.87,1721228658314
-14.52,-30.84,78.45,4.37,-4.37,-1.15,1721228658324
-6.19,61.60,17.17,0.55,0.09,-0.15,1721228658334
3.18,76.38,-59.38,2.49,-1.29,1.52,1721228658344
-28.00,-78.45,-56.08,-2.15,-0.35,1.27,1721228658354
1.14,-57.33,39.02,-0.70,2.48,-0.41,1721228658364
27.75,78.45,52.06,0.53,-0.61,-0.94,1721228658374
-16.66,7.66,-33.76,-1.56,-0.51,-1.07,1721228658384
-39.62,-23.00,47.54,-0.02,0.33,0.47,1721228658394
-8.92,6.37,15.80,-0.97,0.16,1.48,1721228658404
1.73,-41.17,-8.10,1.08,0.14,1.06,1721228658414
10.43,24.30,-0.26,-0.12,0.04,-0.10,1721228658424
8.81,5.14,18.67,-0.42,-0.43,-0.00,1721228658434
6.15,-51.69,42.32,-0.42,-0.13,-0.94,1721228658444
-23.19,74.66,24.84,0.72,-0.66,-1.56,1721228658454
-8.35,17.78,-47.54,1.28,-1.80,-0.44,1721228658464
-11.34,-40.66,-17.20,-1.02,0.77,0.71,1721228658474
-8.99,20.88,57.63,-0.38,0.99,1.35,1721228658484
7.75,-29.94,41.20,1.61,-1.09,1.16,1721228658494
-19.10,41.06,14.63,1.59,0.14,1.39,1721228658504
9.33,56.16,-25.10,1.37,-1.12,0.67,1721228658514
13.34,-26.76,-49.81,-1.09,-0.26,-0.08,1721228658524
-41.28,-78.45,78.45,-3.70,-0.86,-0.76,1721228658534
30.49,78.45,55.27,3.93,-1.09,-2.87,1721228658544
11.78,37.66,-78.45,4.37,-3.66,-1.83,1721228658554
22.02,2.11,-78.45,3.68,-4.37,0.38,1721228658564
26.09,-52.64,-40.29,-1.65,4.37,3.96,1721228658574
-35.58,-78.45,78.45,1.06,4.37,-0.50,1721228658584
78.45,78.45,78.45,0.09,-2.61,0.42,1721228658594
-29.30,-78.45,-78.45,4.37,-0.61,-0.46,1721228658604
-21.21,-59.10,-78.45,-0.55,-4.37,0.50,1721228658614
13.65,-5.47,-6.34,-4.37,4.37,0.11,1721228658624
-78.45,78.45,44.16,-0.47,-4.37,-0.51,1721228658634
14.71,5.50,-43.56,3.03,-2.36,0.17,1721228658644
-17.29,-38.15,-40.52,-1.70,0.93,1.15,1721228658654
12.19,-73.50,78.45,-1.41,2.66,-0.51,1721228658664
-36.42,78.45,46.33,0.60,-3.41,0.43,1721228658674
11.98,-78.45,-45.80,4.16,0.80,0.69,1721228658689
4.09,-52.66,-78.45,-0.94,1.78,2.97,1721228658693
-16.05,-12.27,-50.36,-0.94,-4.37,-0.92,1721228658703
4.29,-78.45,41.12,-0.54,4.37,-2.90,1721228658713
62.87,78.45,5.59,-0.05,-0.74,-0.28,1721228658723
-22.27,18.28,-78.45,0.82,0.28,0.16,1721228658733
-8.87,25.01,-33.57,-3.35,-0.25,-0.54,1721228658743
-21.61,-8.56,-13.32,-4.37,1.44,1.72,1721228658753
-13.99,-41.37,71.74,3.79,0.44,0.95,1721228658763
41.71,34.20,-69.22,2.50,-1.52,0.54,1721228658773
6.82,-9.47,-50.52,0.84,-0.46,-0.18,1721228658783
31.10,15.13,78.45,-0.29,2.64,-1.60,1721228658793
-10.26,8.31,-15.59,-0.16,-1.35,-0.07,1721228658803
-14.33,-78.45,-14.68,-1.18,0.81,0.79,1721228658813
-5.62,49.42,78.45,-1.21,0.41,-0.50,1721228658823
-49.06,49.89,78.45,-1.78,3.57,0.86,1721228658833
-0.08,-76.55,-73.33,3.48,2.11,1.51,1721228658843
0.90,-78.45,-78.45,1.21,-2.96,0.72,1721228658853
16.78,-33.25,78.45,-2.22,3.33,-1.64,1721228658863
-78.45,78.29,78.45,1.86,-4.37,2.48,1721228658873
-6.30,-48.06,-78.45,1.60,3.39,-1.03,1721228658883
26.07,13.39,-74.18,-0.25,-2.82,-0.78,1721228658893
-18.93,-50.46,78.45,2.69,0.01,-0.55,1721228658903
18.23,-67.04,-21.78,-1.33,4.24,-0.64,1721228658913
15.76,-26.74,8.15,0.98,-0.38,-0.02,1721228658923
-12.69,-4.42,27.41,4.32,-1.65,-0.59,1721228658933
-2.83,-8.11,8.23,-0.28,-1.11,0.02,1721228658943
-10.77,1.98,46.03,-0.33,0.52,0.59,1721228658953
-30.15,-78.45,-20.59,-0.33,0.07,0.92,1721228658963
-4.66,12.07,27.90,-0.09,1.13,-1.17,1721228658973
-4.98,30.00,78.45,-0.30,-0.22,-0.34,1721228658983
-7.93,42.83,-65.02,2.12,-1.71,1.21,1721228658993
-8.12,-47.15,-18.72,-1.93,3.32,1.94,1721228659003
13.70,24.72,27.84,-0.57,2.04,1.00,1721228659013
-7.43,-24.79,23.48,-0.50,0.02,-0.45,1721228659023
10.56,67.25,16.88,1.79,-0.16,-0.64,1721228659033
-9.96,-25.85,-22.20,-0.52,-0.84,-0.68,1721228659043
-7.11,-8.46,4.64,-1.19,1.41,-0.14,1721228659053
-6.13,0.78,2.15,-0.06,-0.64,0.73,1721228659063
5.52,-78.45,-6.64,-1.51,0.69,-0.55,1721228659073
2.89,15.18,20.98,-0.21,1.00,-0.91,1721228659083
-18.11,78.45,7.11,1.87,-0.96,0.36,1721228659093
-6.97,-78.45,-60.76,-2.07,0.97,0.22,1721228659103
5.32,-78.45,78.45,-1.94,-0.02,-1.11,1721228659113
78.45,78.45,48.48,0.24,0.68,-1.32,1721228659123
0.75,32.16,-17.79,0.32,-0.40,-1.00,1721228659133
9.51,10.07,-4.51,0.47,-0.92,-0.63,1721228659143
1.26,-10.37,5.65,-1.45,1.80,0.14,1721228659153
4.16,-40.58,8.83,1.84,-0.88,0.06,1721228659163
6.53,11.51,0.67,0.58,-0.61,-0.62,1721228659173
-2.24,0.99,-4.08,0.84,-0.91,-0.20,1721228659183
9.39,42.87,19.22,0.30,1.50,0.10,1721228659193
1.86,-10.89,14.23,-0.06,-0.23,0.49,1721228659203
7.63,-23.90,11.67,0.95,0.28,0.75,1721228659213
0.74,1.30,-17.70,0.34,-0.64,-0.05,1721228659223
-5.69,2.67,22.53,0.07,0.58,-1.00,1721228659233
-13.36,16.77,10.68,-0.86,-0.68,-0.23,1721228659243
-5.32,-10.39,16.84,-0.70,1.29,-0.29,1721228659253
-3.33,4.08,-12.99,-0.68,-0.30,0.39,1721228659263
10.91,-75.95,3.72,-1.16,-0.21,-0.23,1721228659273
-10.93,30.74,78.45,-0.32,0.31,-0.65,1721228659283
12.34,69.18,63.48,0.64,-0.14,0.58,1721228659293
3.40,-18.50,-78.45,1.93,-0.61,0.10,1721228659303
-2.56,-32.47,-47.70,-2.45,1.60,0.30,1721228659313
-0.99,-10.60,-19.91,-1.15,0.37,-0.19,1721228659323
-14.08,13.99,47.23,0.26,-0.38,-0.85,1721228659333
-2.09,37.13,-10.51,1.21,-0.44,0.05,1721228659343
-3.10,-29.71,-9.00,-1.68,1.07,-0.64,1721228659353
-34.51,39.76,29.81,-0.05,0.92,0.49,1721228659363
6.58,-10.94,-8.18,1.39,-1.02,-0.56,1721228659373
-2.00,-21.64,18.71,0.99,1.15,0.18,1721228659383
-15.57,68.37,-52.39,-0.08,-1.61,1.43,1721228659393
17.20,-59.06,22.05,-0.58,1.28,-0.24,1721228659403
-3.75,78.45,9.94,-0.37,-0.13,0.26,1721228659413
6.91,-44.98,-38.32,-1.78,-0.07,-1.38,1721228659423
-2.13,-17.29,12.04,0.97,-0.48,-1.16,1721228659433
-16.49,-19.34,48.51,0.87,-2.05,-0.07,1721228659443
-20.91,-26.63,22.46,0.83,-0.25,1.04,1721228659453
-2.37,39.98,34.30,-0.23,0.65,0.26,1721228659463
-13.74,37.36,1.76,2.26,-0.35,0.84,1721228659473
15.89,42.17,-39.84,0.51,-0.04,0.65,1721228659483
2.05,-52.05,-29.78,-3.13,1.04,-0.11,1721228659493
-9.37,-25.29,78.45,-0.79,0.53,-1.17,1721228659503
-5.22,78.45,42.48,1.89,-1.37,-1.05,1721228659513
-38.38,-78.45,-78.45,3.76,-1.09,-0.33,1721228659523
-19.40,-78.45,10.35,-4.37,0.83,1.03,1721228659533
37.31,78.45,78.45,2.45,-0.12,1.25,1721228659543
-9.96,77.67,-12.64,3.18,-0.46,0.37,1721228659553
-9.20,-78.45,-78.45,3.59,-1.62,2.19,1721228659563
23.88,-78.45,78.45,-1.74,4.37,-1.71,1721228659573
-36.19,78.45,48.62,-4.37,1.12,0.66,1721228659583
-21.61,-78.45,-60.53,4.37,-3.37,-0.07,1721228659593
-19.95,-57.91,-76.11,0.18,0.18,-0.90,1721228659603
-12.56,-71.89,-15.85,-4.37,4.37,-1.24,1721228659613
-78.45,78.45,78.45,0.09,-4.37,-0.03,1721228659623
-78.45,-52.46,-1.34,-0.11,4.37,-1.98,1721228659633
9.86,-35.66,-71.34,1.79,-4.37,2.09,1721228659643
46.10,-59.89,68.91,-2.97,4.37,-0.09,1721228659653
62.14,20.73,-7.99,2.21,1.71,0.58,1721228659663
14.96,-78.45,-38.66,2.28,-2.56,0.75,1721228659673
4.89,-70.27,35.26,0.27,4.37,-1.68,1721228659683
-7.31,8.29,78.45,-0.63,-1.48,-0.57,1721228659693
10.92,13.59,29.06,0.54,1.61,1.32,1721228659703
19.56,24.61,-14.67,-0.03,-0.53,1.30,1721228659713
16.78,-53.97,15.75,-0.20,-0.54,0.32,1721228659723
14.12,-14.75,21.06,0.45,-0.45,-0.04,1721228659733
2.15,3.60,-9.03,0.52,-0.36,-0.64,1721228659743
12.10,-2.80,-17.50,-0.28,-0.71,0.26,1721228659753
-15.39,-31.68,67.22,-2.30,1.17,-0.56,1721228659763
-12.80,37.94,78.45,-0.40,-1.39,-0.80,1721228659773
-8.53,-9.69,-15.00,0.45,-0.66,0.66,1721228659783
12.90,40.11,-52.27,0.24,0.68,1.73,1721228659793
25.21,-11.70,23.26,-0.64,3.43,0.87,1721228659803
12.12,34.21,53.29,1.16,-0.62,-0.03,1721228659813
20.94,-34.78,-41.66,1.62,-1.14,-1.24,1721228659823
-7.52,1.13,78.45,-0.73,1.10,-2.09,1721228659833
2.04,3.67,-18.49,1.63,-0.63,-0.62,1721228659843
-27.13,-78.45,-18.84,0.67,0.08,0.66,1721228659853
-4.04,20.32,21.53,1.03,-0.06,0.55,1721228659863
23.08,78.41,-4.57,-1.82,-0.24,0.59,1721228659873
11.70,22.38,5.35,-0.09,0.10,0.51,1721228659883
9.94,-34.80,-15.31,-0.31,0.08,0.44,1721228659893
30.00,-4.70,46.76,-0.12,1.78,-0.36,1721228659903
9.42,-15.99,13.69,-1.41,-1.42,-1.55,1721228659913
3.35,0.85,14.60,3.06,-0.70,-1.12,1721228659923
-15.29,1.67,-62.81,0.42,0.78,0.03,1721228659933
-1.49,-7.59,7.26,-2.98,0.28,0.80,1721228659943
-10.98,23.77,34.96,0.35,-0.88,1.24,1721228659953
0.28,1.52,0.93,0.71,-0.03,0.72,1721228659963
41.62,52.20,-33.67,0.96,-1.14,0.13,1721228659973
19.03,-21.71,78.45,-1.19,1.40,-0.71,1721228659983
34.74,-7.98,62.73,1.21,-1.59,-1.61,1721228659993
-6.48,59.60,-19.07,3.70,-1.33,-0.84,1721228660003
-25.40,-78.45,-44.73,-1.10,-0.16,-0.00,1721228660013
-48.14,-78.45,78.45,-2.27,-0.51,0.45,1721228660023
-78.45,9.43,55.54,-3.84,3.10,1.55,1721228660033
-1.48,36.44,-24.93,2.83,-1.41,0.85,1721228660043
12.40,-8.64,-60.76,1.00,-0.60,0.75,1721228660053
11.35,-46.70,-4.81,-3.93,1.42,-0.74,1721228660063
-4.23,78.45,41.78,0.31,-1.67,-1.89,1721228660073
12.39,-15.78,18.70,0.94,-0.75,-2.56,1721228660083
-17.25,-1.55,21.97,1.10,-0.46,-0.44,1721228660093
-41.96,78.45,21.15,-0.83,0.28,0.51,1721228660103
1.30,-26.81,-41.35,0.18,-0.66,-0.82,1721228660113
33.34,-73.92,20.74,-3.31,1.19,-1.14,1721228660123
12.27,41.14,43.38,-1.51,3.49,-1.12,1721228660133
25.13,34.03,0.18,-0.29,-1.59,0.83,1721228660143
-16.32,-29.59,61.16,-0.61,1.18,-0.80,1721228660153
-6.02,78.45,-22.52,0.13,-2.04,-0.32,1721228660163
-5.57,-78.45,-70.24,2.84,-1.49,-1.05,1721228660173
3.66,-56.04,-12.11,-1.40,0.63,-0.55,1721228660183
36.93,53.79,78.45,-1.77,1.92,-1.01,1721228660193
-17.56,59.08,1.16,2.16,-1.56,-0.28,1721228660203
-0.38,-78.45,-67.51,4.37,-1.59,0.27,1721228660213
13.26,28.12,28.27,-3.71,0.81,0.29,1721228660223
-33.22,-31.14,58.63,-1.54,-0.91,-0.82,1721228660233
1.53,-65.38,-32.07,2.79,1.52,0.10,1721228660243
-0.45,-0.21,5.42,-2.02,-1.70,1.83,1721228660253
-6.09,56.46,68.37,-2.24,0.15,-0.37,1721228660263
-1.84,-2.57,-6.37,1.52,-0.93,0.12,1721228660273
5.06,-10.02,-16.60,1.18,-0.79,-0.17,1721228660283
-16.34,46.65,76.12,-1.25,1.23,0.30,1721228660293
4.54,-10.14,-25.58,-0.15,0.36,-0.25,1721228660303
3.90,-29.42,-31.73,2.21,-0.49,-0.04,1721228660313
-0.28,-43.84,-21.81,-2.34,0.89,-0.96,1721228660323
-13.65,25.59,78.45,-1.26,0.45,-0.43,1721228660333
3.00,78.45,78.45,3.16,1.02,-0.65,1721228660343
-5.70,-78.45,-51.63,3.70,-1.55,-0.39,1721228660353
-3.81,-78.45,-75.13,-0.75,-2.31,-0.08,1721228660363
15.81,20.69,77.76,-1.71,4.37,-0.08,1721228660373
-4.59,78.45,58.01,3.78,-0.31,0.54,1721228660383
-3.13,1.36,-78.45,3.59,-2.64,-0.30,1721228660393
-1.98,5.40,-62.08,-3.56,-2.48,-0.43,1721228660403
65.01,45.71,47.53,-1.75,4.37,-1.46,1721228660413
-78.45,78.45,16.29,4.37,-4.37,1.64,1721228660423
-9.18,-76.25,-77.61,1.61,1.53,0.38,1721228660433
-33.54,-33.69,71.11,-1.82,-4.37,2.11,1721228660443
75.12,37.34,78.45,3.08,1.50,-1.34,1721228660453
-3.38,7.27,32.87,0.01,-0.93,-2.49,1721228660463
8.09,-32.73,-78.45,-0.32,1.26,-0.68,1721228660473
-17.80,-74.20,78.45,-0.77,2.74,0.84,1721228660483
15.63,27.30,48.27,0.94,0.76,0.48,1721228660493
2.73,38.80,-47.48,2.18,-1.21,0.96,1721228660503
6.09,-34.08,-26.11,-1.72,1.67,0.08,1721228660513
13.36,-44.46,78.45,-2.32,0.68,-1.23,1721228660523
-2.39,18.63,34.88,0.93,-1.00,-0.69,1721228660533
-18.24,5.23,-5.41,0.90,-1.19,-0.63,1721228660543
-13.40,31.08,-1.58,0.52,1.23,1.70,1721228660553
4.43,0.65,-15.52,-1.51,0.50,1.63,1721228660563
14.00,8.33,40.50,0.07,0.94,-0.15,1721228660573
-0.52,-25.11,34.91,-0.46,-1.15,-0.90,1721228660583
-3.67,-21.12,-0.85,0.01,0.14,0.04,1721228660593
-5.48,33.84,16.07,0.50,0.46,0.87,1721228660603
8.60,-54.62,3.82,-1.32,0.62,-1.42,1721228660613
-12.05,35.50,64.71,0.57,-0.51,0.36,1721228660623
-4.80,65.02,15.75,1.61,1.15,1.47,1721228660633
2.90,-78.45,-55.35,0.23,1.29,1.11,1721228660643
15.38,-60.34,67.13,2.37,-0.80,-0.74,1721228660653
1.58,17.59,50.84,-1.27,0.12,-0.87,1721228660663
8.10,39.86,-5.34,1.61,0.38,0.08,1721228660673
-11.23,-52.07,-14.68,1.27,-1.08,0.10,1721228660683
-10.40,25.35,78.45,-1.37,0.63,0.38,1721228660698
13.45,42.75,73.06,0.64,-0.93,0.10,1721228660702
2.30,35.44,-7.02,1.77,-0.17,0.94,1721228660712
8.30,-78.45,-35.90,-1.22,2.41,0.84,1721228660722
-6.02,5.30,-24.22,0.28,-0.80,-0.10,1721228660732
-28.55,19.48,-17.55,-0.61,-1.13,0.20,1721228660742
-6.65,0.03,-5.09,0.39,0.66,0.05,1721228660752
-7.53,-17.75,46.20,-3.38,1.38,0.10,1721228660762
-21.25,4.67,78.45,-1.21,1.36,-1.20,1721228660772
-8.96,56.87,16.26,3.87,-0.88,0.93,1721228660782
-6.89,-59.29,-70.17,1.07,0.88,1.56,1721228660792
9.89,-37.95,18.90,-3.75,1.88,0.98,1721228660802
1.09,78.45,14.34,-1.66,0.37,-0.65,1721228660812
29.05,-78.45,10.89,2.60,-2.00,-2.32,1721228660822
38.95,43.84,-78.45,0.76,-2.19,-1.01,1721228660832
-18.61,-15.84,-20.02,-1.08,2.45,-0.05,1721228660842
24.26,67.58,60.96,-0.28,2.24,0.84,1721228660852
5.16,-10.60,16.32,3.00,-0.36,0.04,1721228660862
11.87,-1.53,-42.04,0.51,-0.52,1.03,1721228660872
18.16,18.07,1.85,-1.75,1.96,-0.59,1721228660882
-10.51,-5.26,39.33,-3.09,0.39,-0.73,1721228660892
-9.15,-7.46,-15.53,2.40,-0.61,-1.25,1721228660902
-20.63,11.71,-22.63,-0.03,-2.01,-0.36,1721228660912
-5.44,-29.37,44.71,-3.01,3.79,0.02,1721228660922
-78.45,69.48,78.45,0.49,-1.75,-0.77,1721228660932
-9.75,2.80,-76.75,-1.15,1.73,0.99,1721228660942
36.49,63.32,-53.97,1.19,-2.07,3.02,1721228660952
-14.29,17.03,-78.45,-0.28,-4.37,0.69,1721228660962
-30.86,0.13,78.45,-3.04,4.37,-1.78,1721228660972
64.12,41.65,20.14,4.37,-2.07,-3.11,1721228660982
-22.59,-14.88,-12.56,-1.60,-0.75,-1.60,1721228660992
-24.88,-59.18,63.42,-2.23,1.98,0.50,1721228661002
-5.85,47.22,46.00,0.59,0.69,2.54,1721228661012
6.31,-8.21,-78.45,2.66,-1.69,0.50,1721228661022
10.27,-8.71,-52.77,-3.09,2.14,-0.25,1721228661032
62.53,72.44,61.95,1.76,0.13,-0.59,1721228661042
-36.42,29.46,63.93,-4.00,-1.34,1.12,1721228661052
-11.78,-73.70,20.74,-0.22,2.01,-2.32,1721228661062
32.05,63.80,40.97,0.31,-0.40,-0.79,1721228661072
-8.77,27.68,21.85,0.79,-1.19,0.05,1721228661082
3.66,-8.25,-36.32,2.12,-0.41,0.95,1721228661092
1.53,-63.52,-15.49,-2.21,1.79,1.66,1721228661102
65.23,78.45,78.45,-0.45,-0.64,-1.93,1721228661112
0.70,20.65,-10.40,-0.45,-1.35,0.68,1721228661122
-10.18,-54.78,54.62,-1.17,1.71,0.27,1721228661132
-20.17,15.89,34.46,0.45,-0.23,-0.38,1721228661142
-9.52,42.66,-23.71,2.68,-0.80,0.06,1721228661152
-8.08,-61.58,-70.85,0.80,1.49,1.00,1721228661162
-7.26,-78.45,32.06,-0.74,-4.03,0.87,1721228661172
33.05,78.45,32.35,-0.85,-1.86,-0.16,1721228661182
30.93,-74.45,-2.90,-0.10,0.80,-1.27,1721228661192
2.38,11.99,-2.88,0.27,-0.38,-0.17,1721228661202
7.03,-23.83,-14.39,-0.61,1.35,-1.62,1721228661212
-19.57,-2.30,33.84,0.31,-1.93,0.09,1721228661222
2.60,2.89,0.82,1.54,0.70,0.33,1721228661232
-34.75,69.67,-2.89,-1.39,-0.18,0.82,1721228661242
-10.64,-78.45,42.98,-1.84,1.25,-0.11,1721228661252
1.07,7.92,2.66,2.59,-0.40,0.03,1721228661262
2.21,-25.84,-2.64,-1.01,-0.40,-0.81,1721228661272
-2.03,15.22,65.62,-0.70,0.69,-0.18,1721228661282
18.33,69.80,78.45,-0.46,0.28,-0.53,1721228661292
-19.25,16.44,6.55,0.69,-0.34,0.94,1721228661302
2.10,-74.07,-78.45,-0.45,1.08,0.12,1721228661312
11.18,-38.90,78.45,-2.68,-0.60,-0.80,1721228661322
10.16,78.45,78.45,2.64,-1.83,0.13,1721228661332
19.68,-38.92,-11.78,-0.90,0.41,-2.18,1721228661342
27.83,78.45,-8.17,2.05,-1.16,-1.19,1721228661352
-2.67,-3.33,-7.98,-0.92,-0.66,0.38,1721228661362
-27.64,-45.89,35.59,0.56,0.67,0.10,1721228661372
-19.98,22.90,-13.17,-0.10,-0.67,0.11,1721228661382
13.91,-45.22,-14.68,0.47,1.26,0.28,1721228661392
13.71,22.26,-7.52,-1.25,-0.33,0.75,1721228661402
31.91,4.50,76.28,0.33,-0.38,0.06,1721228661412
19.63,78.45,27.47,2.31,-1.07,-0.11,1721228661422
14.71,-0.28,-57.56,1.53,-0.70,-0.13,1721228661432
6.23,2.86,29.83,-1.56,3.66,-0.82,1721228661442
16.43,1.40,78.45,-1.96,-0.70,-0.61,1721228661452
-9.26,-19.63,-51.77,2.43,-1.17,-0.56,1721228661462
-14.94,11.43,-60.08,-1.39,0.18,0.59,1721228661472
-7.87,-35.11,-0.81,0.12,-4.37,0.86,1721228661482
11.92,-45.93,43.87,-2.10,3.54,-0.08,1721228661492
-29.80,48.78,62.23,-1.75,-3.55,-0.17,1721228661502
20.26,78.45,18.72,2.85,2.31,0.07,1721228661512
5.42,-78.45,-78.45,4.14,-0.25,1.50,1721228661522
46.29,-78.45,-15.43,-0.40,-4.29,0.18,1721228661532
17.63,-18.12,10.13,-1.51,4.37,-2.11,1721228661542
-8.55,11.84,16.48,-1.80,-1.57,-1.53,1721228661552
-20.90,23.37,36.89,0.23,-2.44,-0.87,1721228661562
-14.26,-76.27,78.45,-0.41,-1.88,0.59,1721228661572
48.64,78.45,78.45,1.66,4.09,2.31,1721228661582
6.76,-23.81,-61.64,4.37,0.27,1.77,1721228661592
31.74,-59.09,-78.45,3.69,-1.41,0.47,1721228661602
25.11,-39.02,-47.05,-0.81,1.36,-1.47,1721228661612
78.45,78.45,-45.96,0.17,4.37,-4.37,1721228661622
-19.14,5.19,36.17,3.99,-4.37,0.46,1721228661632
-36.57,-59.21,-60.14,-1.35,4.36,0.57,1721228661642
6.22,-14.09,11.27,-2.79,-0.63,0.16,1721228661652
64.16,54.81,13.79,2.80,0.02,-0.78,1721228661662
12.86,-48.06,3.79,0.02,-0.07,1.04,1721228661672
-9.55,78.45,19.26,1.29,0.19,1.24,1721228661682
23.84,-31.77,-17.41,0.59,-0.15,-0.19,1721228661692
10.68,-23.44,-10.48,-4.37,1.37,-1.45,1721228661702
0.88,78.45,17.91,-1.46,-1.21,-1.64,1721228661712
-15.69,-6.25,-15.12,-0.55,0.24,-1.89,1721228661722
-9.16,-0.01,-24.00,1.35,-1.01,-0.06,1721228661732
-35.68,62.38,78.45,-1.27,1.33,0.22,1721228661742
-7.91,78.45,-4.89,2.35,0.22,1.14,1721228661752
6.93,-78.45,-76.37,-0.88,1.53,1.57,1721228661762
47.03,-24.36,78.45,4.22,-0.71,0.26,1721228661772
31.14,-25.68,78.45,-1.91,2.41,-0.55,1721228661782
13.94,78.45,30.95,1.46,0.11,-1.21,1721228661792
0.56,33.45,-67.82,1.03,-2.85,-0.15,1721228661802
-20.10,-60.65,-57.16,-2.45,-1.71,0.45,1721228661812
41.70,-12.98,78.45,-2.52,4.37,0.23,1721228661822
-27.76,78.45,63.51,3.37,-2.50,1.90,1721228661832
-8.60,6.54,-78.45,4.37,-0.45,1.33,1721228661842
-3.22,5.55,-78.45,-2.91,0.52,-0.60,1721228661852
45.07,10.48,14.35,-2.47,4.37,0.29,1721228661862
19.99,49.45,-31.48,-0.37,-0.72,-1.85,1721228661872
26.59,-78.45,7.75,3.19,0.43,-0.72,1721228661882
-0.52,-27.67,20.54,1.37,-0.79,-1.22,1721228661892
5.14,78.45,63.25,-0.14,0.17,-0.16,1721228661902
7.41,40.92,-73.32,2.16,-1.90,0.44,1721228661912
-28.87,-78.45,4.82,-0.80,-4.37,1.21,1721228661922
-7.09,3.07,78.45,-1.53,3.90,-1.94,1721228661932
-30.29,-12.18,-78.45,-0.57,-1.46,-1.92,1721228661942
8.73,-36.94,-64.78,4.37,-1.99,0.81,1721228661952
2.83,-51.48,-59.32,-2.47,-3.10,0.44,1721228661962
65.22,52.18,-9.05,-1.10,4.37,-2.30,1721228661972
-2.98,9.36,-12.09,-0.08,-3.24,0.56,1721228661982
-4.75,-38.93,25.20,0.56,-4.18,-0.67,1721228661992
2.29,6.43,78.45,-1.91,2.57,-1.24,1721228662002
50.98,28.68,78.45,3.18,0.99,-0.40,1721228662012
-4.92,-1.29,-72.13,-0.59,-2.06,-0.00,1721228662022
-10.96,11.28,-66.85,-2.77,1.40,1.11,1721228662032
-18.72,-73.83,3.75,0.26,-1.56,1.23,1721228662042
5.96,20.87,20.54,-3.41,2.04,0.05,1721228662052
8.76,2.50,78.45,-0.97,2.39,-2.15,1721228662062
-15.69,78.45,10.42,2.63,-1.24,0.08,1721228662072
-17.31,-78.45,-76.35,-0.03,2.24,0.77,1721228662082
-0.27,-29.71,78.45,-1.68,-0.51,-0.69,1721228662092
-78.17,56.70,-78.45,0.54,-2.03,1.83,1721228662102
29.19,-37.19,-16.40,0.03,2.24,0.43,1721228662112
9.00,13.91,78.45,-1.75,0.90,-0.40,1721228662122
0.50,60.36,78.45,1.13,-0.44,-0.63,1721228662132
-15.96,-78.45,-71.97,2.44,-1.77,-0.48,1721228662142
-12.55,-65.56,-58.00,-0.37,1.93,-1.17,1721228662152
-11.41,18.27,18.78,-1.13,1.68,0.93,1721228662162
6.76,0.98,10.13,2.13,0.26,1.97,1721228662172
-7.72,63.55,59.41,-1.48,0.05,1.24,1721228662182
32.99,40.01,3.54,0.09,0.48,-0.17,1721228662192
34.82,-63.09,-62.36,1.21,-0.61,0.19,1721228662202
-9.51,-72.14,-3.30,-0.84,-4.37,-0.36,1721228662212
25.29,4.20,78.45,-2.28,4.37,-2.04,1721228662222
-62.55,22.37,63.70,3.89,-3.61,0.18,1721228662232
-2.12,-57.34,-78.45,1.85,3.02,0.50,1721228662242
-5.17,13.15,-78.45,0.51,-3.25,1.35,1721228662252
55.39,46.40,1.83,-2.13,3.73,0.23,1721228662262
-2.85,5.86,59.91,2.48,-2.97,0.35,1721228662272
13.78,-21.18,-46.78,-0.41,-0.47,-0.55,1721228662282
1.82,-9.83,-6.20,-1.85,0.23,-1.29,1721228662292
-3.65,-1.79,14.13,1.16,-0.77,-0.78,1721228662302
-17.24,-78.45,-10.43,-0.70,-0.73,-0.45,1721228662312
-14.37,13.09,49.25,0.54,-0.25,0.57,1721228662322
20.43,65.16,38.51,0.41,-0.42,-0.03,1721228662332
9.60,-16.43,-50.11,-0.21,-0.61,1.00,1721228662342
6.36,-9.45,-7.41,-2.65,2.77,0.55,1721228662352
8.86,29.59,-46.96,1.04,-0.91,0.30,1721228662362
25.98,-78.45,-55.17,-2.98,2.59,-1.13,1721228662372
14.46,56.33,17.07,1.71,-3.65,-1.97,1721228662382
-19.86,23.49,32.69,-0.32,-0.21,0.65,1721228662392
-3.24,17.48,-61.03,1.02,-0.30,1.89,1721228662402
37.63,-29.80,78.45,-1.39,3.71,0.74,1721228662412
7.24,10.07,34.67,0.43,-1.22,0.27,1721228662422
13.94,-20.71,-78.45,3.77,-0.97,-0.71,1721228662432
-0.45,-57.92,-51.38,-4.37,0.16,-1.89,1721228662442
10.44,78.45,75.54,-0.72,-1.71,-2.06,1721228662452
-21.05,-10.99,78.45,-0.15,2.57,0.06,1721228662462
-3.09,-9.08,-47.54,0.53,0.63,0.63,1721228662472
-1.86,-14.37,-29.92,0.75,-2.25,-0.14,1721228662482
0.13,-4.30,35.74,-0.24,0.31,0.34,1721228662492
24.87,49.51,22.96,0.80,0.40,0.46,1721228662502
20.79,34.85,-62.91,1.58,-0.87,0.22,1721228662512
7.13,-6.23,-24.04,-1.88,-0.16,-0.11,1721228662522
-30.11,-28.43,77.30,-0.75,-0.51,-1.24,1721228662532
12.45,8.95,54.70,0.34,0.83,-0.91,1721228662542
-9.49,-78.45,-57.26,1.69,-0.29,1.27,1721228662552
33.45,78.45,40.67,-0.97,2.16,0.28,1721228662562
21.13,6.77,7.61,-0.96,1.01,-0.02,1721228662572
-2.52,-34.96,-20.90,1.49,-0.72,0.09,1721228662582
9.17,12.09,-78.45,-2.15,1.30,-0.04,1721228662592
-1.41,-8.33,18.34,1.80,0.42,-0.08,1721228662602
-5.49,56.20,72.32,0.52,-0.11,0.19,1721228662612
4.31,-21.77,-13.79,0.15,0.46,-1.31,1721228662622
5.73,44.91,6.87,1.27,0.17,-0.77,1721228662632
-6.20,-12.94,-26.30,-1.34,0.18,0.03,1721228662642
-11.72,31.48,75.11,0.95,0.28,0.41,1721228662652
-7.13,-5.21,56.73,0.37,-0.70,0.49,1721228662662
-3.97,-14.82,-24.21,1.73,0.52,0.21,1721228662672
2.58,39.13,-57.08,-0.51,0.50,0.51,1721228662682
-3.30,-70.98,-37.07,-3.95,2.25,-0.60,1721228662692
-14.14,11.53,54.90,0.30,-0.72,-0.66,1721228662707
-0.67,-33.93,1.11,0.78,-0.88,-1.34,1721228662711
45.01,78.45,-78.45,3.01,-1.59,0.56,1721228662721
-31.81,-78.45,40.63,-0.28,-4.37,2.04,1721228662731
-5.04,-19.73,29.70,-0.24,3.56,-1.80,1721228662741
48.09,78.45,44.29,0.74,-0.17,-1.76,1721228662751
-5.30,2.47,-22.97,2.14,0.34,0.01,1721228662761
-0.54,0.87,-50.96,-0.45,-0.00,1.41,1721228662771
3.32,-45.56,-5.60,-1.41,4.21,0.72,1721228662781
28.97,-54.76,78.45,0.67,3.05,-1.79,1721228662791
-28.97,78.45,78.45,2.52,-3.33,0.06,1721228662801
-12.29,-15.81,-78.45,1.88,-0.30,0.47,1721228662811
13.67,47.57,-52.83,-1.18,-2.71,0.27,1721228662821
-11.77,-7.37,-11.57,-4.37,4.37,0.52,1721228662831
-20.27,-45.00,19.45,3.16,-2.72,-0.44,1721228662841
78.45,78.45,-15.89,4.37,-2.10,1.05,1721228662851
8.70,-44.50,-51.40,-2.15,0.94,-0.49,1721228662861
12.80,31.43,23.07,-2.91,1.67,-2.29,1721228662871
28.39,5.02,19.41,-0.52,-0.23,-0.74,1721228662881
5.33,-2.24,53.08,-0.93,0.76,0.03,1721228662891
22.83,45.26,78.45,-0.27,-1.05,0.07,1721228662901
-11.05,-8.53,-32.78,2.94,1.22,1.14,1721228662911
31.24,63.39,-78.45,3.11,-1.17,1.03,1721228662921
-4.93,-34.75,-24.78,-1.08,-1.72,1.19,1721228662931
-42.27,33.51,56.06,-1.96,3.95,-3.21,1721228662941
78.45,26.21,76.38,1.37,-1.76,-0.68,1721228662951
-19.59,36.07,-38.31,-1.46,-0.24,-1.06,1721228662961
-16.42,-78.45,57.03,-0.27,-1.14,-1.53,1721228662971
-13.20,68.64,-2.89,1.02,0.86,2.21,1721228662981
13.12,-44.39,29.42,0.25,-1.00,-0.09,1721228662991
-16.09,69.31,19.53,-0.69,1.87,1.93,1721228663001
3.83,-10.60,39.59,-0.20,-1.01,0.19,1721228663011
29.00,65.86,20.88,0.71,0.82,-0.90,1721228663021
6.79,3.73,10.36,-0.57,-1.69,-0.31,1721228663031
8.28,-31.13,-4.11,-0.08,0.85,-1.11,1721228663041
19.86,57.94,-31.58,1.42,-1.36,-0.52,1721228663051
-27.36,-72.39,-14.68,-3.93,0.37,-0.19,1721228663061
-21.56,-4.22,78.45,-1.64,3.33,0.46,1721228663071
10.66,78.45,53.93,1.98,0.84,0.79,1721228663081
5.53,-26.61,-73.57,4.37,-2.08,1.06,1721228663091
-9.17,-65.12,-56.31,-3.21,-4.37,-0.19,1721228663101
47.49,-78.45,78.45,-1.38,4.37,-1.74,1721228663111
-68.28,-76.65,78.45,-0.42,-4.33,-2.91,1721228663121
-14.72,58.37,7.65,4.37,0.48,-2.04,1721228663131
7.46,-1.64,-42.08,4.37,-4.37,1.48,1721228663141
17.50,-32.87,-9.17,-3.39,4.37,1.90,1721228663151
23.20,57.02,44.13,1.53,-1.18,-0.07,1721228663161
76.44,-4.86,78.45,1.52,-0.67,-1.72,1721228663171
-28.07,68.66,-38.90,-0.36,-2.39,0.24,1721228663181
12.99,-27.67,3.68,-1.73,2.98,-0.60,1721228663191
7.58,10.18,34.98,0.29,-0.79,0.77,1721228663201
22.93,-26.22,18.98,0.71,-1.47,0.78,1721228663211
12.71,-24.13,59.61,-1.84,0.61,-1.01,1721228663221
-5.92,5.92,41.33,0.66,-1.38,-0.94,1721228663231
-10.84,34.27,-42.58,1.75,-1.56,0.56,1721228663241
-4.55,-36.73,-30.39,0.01,-0.22,0.79,1721228663251
7.81,78.45,37.76,0.71,0.95,-0.31,1721228663261
-2.77,-6.07,-26.71,-0.87,-2.15,0.41,1721228663271
-17.71,-78.45,31.01,-0.09,1.11,-0.87,1721228663281
47.95,78.45,4.50,-0.73,-1.81,0.24,1721228663291
-1.61,-11.74,-5.54,0.03,0.30,0.71,1721228663301
10.40,-2.20,-11.37,-0.89,0.22,0.85,1721228663311
-13.53,36.63,78.45,-1.55,0.94,-0.32,1721228663321
-3.70,78.45,11.83,1.21,0.02,-0.04,1721228663331
-3.68,-78.45,-59.96,-0.26,-0.64,0.15,1721228663341
-38.91,-78.45,78.45,-1.77,0.72,-0.22,1721228663351
-36.62,78.45,-0.03,-1.78,3.20,0.32,1721228663361
9.06,33.09,-51.28,3.29,-1.81,0.61,1721228663371
-6.13,-46.60,-64.56,-2.46,0.92,1.09,1721228663381
4.54,-20.34,78.45,3.51,1.14,1.43,1721228663391
29.22,78.45,32.77,1.22,-2.25,-0.11,1721228663401
-9.64,-78.45,-55.09,2.57,1.82,1.76,1721228663411
18.45,-78.45,-78.45,1.82,-4.37,-1.29,1721228663421
13.91,-37.59,3.39,-0.02,4.37,-1.76,1721228663431
-9.72,13.85,78.45,-1.38,1.11,-1.12,1721228663441
24.56,38.23,-23.13,3.04,-1.91,-1.04,1721228663451
-29.29,-14.37,-77.62,-0.34,0.74,0.56,1721228663461
8.27,-31.54,-1.69,-4.10,1.83,-1.75,1721228663471
-4.05,29.73,78.45,0.72,0.00,-0.39,1721228663481
-27.63,14.71,-78.45,4.37,0.74,1.68,1721228663491
-48.29,-42.42,-68.90,-0.39,-4.37,2.94,1721228663501
37.53,-35.41,23.21,-4.37,4.37,-1.53,1721228663511
-78.45,60.20,-17.34,-2.19,-4.37,0.45,1721228663521
-0.47,-10.03,10.24,1.43,2.42,-1.39,1721228663531
-31.78,31.22,-0.73,0.24,-1.15,1.88,1721228663541
2.07,40.56,44.63,-2.28,4.37,0.98,1721228663551
-15.91,-35.84,21.34,-1.59,-0.54,0.68,1721228663561
20.26,54.52,-9.64,2.25,-2.31,-0.94,1721228663571
21.00,-1.17,-40.64,-1.26,2.94,-0.02,1721228663581
1.19,-37.89,33.42,-2.24,3.54,-1.06,1721228663591
15.18,69.23,78.45,1.06,-2.11,-1.42,1721228663601
-1.49,-15.56,23.09,0.96,-0.16,-0.85,1721228663611
7.62,-5.88,-52.31,-0.94,0.67,0.62,1721228663621
0.41,3.48,2.75,-1.71,1.29,-0.53,1721228663631
-26.64,5.70,58.99,-1.30,0.51,-1.44,1721228663641
-18.74,71.90,-20.63,0.98,0.27,-0.64,1721228663651
-10.42,-59.38,-36.50,1.58,-1.71,-1.17,1721228663661
-20.29,-46.46,56.12,-1.42,-0.36,1.07,1721228663671
-27.45,78.45,78.45,-0.59,2.94,2.69,1721228663681
3.98,50.90,3.50,2.04,-0.74,0.22,1721228663691
16.36,-17.54,-45.18,2.88,-1.91,0.05,1721228663701
-8.48,-41.80,4.53,-3.26,-0.97,-1.08,1721228663711
-5.94,1.23,39.99,-1.82,0.57,-2.45,1721228663721
-27.89,3.55,14.69,-0.20,0.64,0.34,1721228663731
-20.21,-78.45,-46.69,2.28,-0.68,0.64,1721228663741
-27.76,-15.84,18.83,-3.22,0.50,2.01,1721228663751
7.89,-24.62,57.77,-1.36,0.98,0.53,1721228663761
8.72,14.19,11.99,-0.74,0.52,0.25,1721228663771
-2.32,40.89,12.26,0.77,-0.83,-0.06,1721228663781
5.66,14.40,-14.28,1.91,-1.21,-0.65,1721228663791
-10.38,-33.16,1.05,-2.56,1.46,-0.93,1721228663801
-12.94,3.45,22.53,0.49,-0.56,0.76,1721228663811
-1.42,-3.46,-1.56,1.24,0.30,-0.14,1721228663821
-5.21,21.08,-47.28,0.68,-0.64,-0.17,1721228663831
-15.86,-78.45,-30.62,-4.37,0.47,0.33,1721228663841
-2.50,31.91,78.45,1.01,-1.23,0.16,1721228663851
-4.22,78.45,3.39,2.40,-0.20,-0.26,1721228663861
19.49,-41.44,-50.75,3.82,0.20,1.05,1721228663871
-1.46,-78.45,-63.05,-4.37,-0.83,1.59,1721228663881
4.71,78.45,22.60,-1.74,4.37,-0.41,1721228663891
-6.48,53.46,16.76,2.41,-4.37,0.21,1721228663901
-23.92,-61.33,-62.69,0.39,3.28,-0.99,1721228663911
3.03,-10.36,-9.13,-0.40,-2.47,-0.96,1721228663921
-15.90,-21.84,78.45,-4.04,2.01,-0.35,1721228663931
-20.59,2.34,-56.16,2.05,-0.43,0.11,1721228663941
-0.35,-14.41,-57.52,3.72,-2.16,0.15,1721228663951
8.70,-43.78,78.45,-1.03,-0.26,1.28,1721228663961
-12.50,23.79,31.23,0.54,1.69,-0.93,1721228663971
-2.94,-4.32,-42.56,1.42,-1.62,-0.16,1721228663981
21.48,-8.42,-58.27,-1.53,1.08,-0.14,1721228663991
15.65,-2.34,78.45,0.42,0.41,-0.24,1721228664001
-29.44,48.20,48.61,0.24,-1.32,-0.56,1721228664011
-7.52,-42.15,-73.15,2.00,-1.48,-1.02,1721228664021
-12.42,22.66,-41.88,-4.37,0.98,-0.42,1721228664031
53.67,78.45,78.45,-2.08,1.90,-0.73,1721228664041
20.43,5.97,78.45,0.54,-1.61,0.75,1721228664051
5.28,-78.45,78.45,-3.78,-0.05,-1.11,1721228664061
-28.74,71.72,78.45,-2.84,1.17,1.21,1721228664071
-56.32,59.29,32.32,3.76,-0.76,1.28,1721228664081
2.20,-41.41,-75.97,0.46,-0.86,0.02,1721228664091
-6.36,-68.50,45.73,-2.21,4.37,-0.02,1721228664101
-15.19,-34.15,74.00,1.46,1.01,-1.02,1721228664111
4.18,54.61,-78.45,1.62,-1.54,-0.63,1721228664121
-11.04,-57.10,1.13,-1.43,1.35,-0.34,1721228664131
-6.14,-11.26,48.40,-0.42,-0.15,0.40,1721228664141
-0.83,25.85,36.11,1.64,0.06,1.50,1721228664151
-11.61,59.80,6.33,1.30,-0.18,1.27,1721228664161
13.54,-42.60,1.41,-1.39,1.52,-0.21,1721228664171
-0.31,-40.86,53.85,0.60,-0.95,-0.89,1721228664181
29.22,78.45,-8.58,0.09,-0.81,-0.88,1721228664191
-8.84,18.88,-78.45,1.26,-2.36,0.48,1721228664201
39.42,-23.02,-24.85,-3.19,4.37,-0.64,1721228664211
17.53,18.92,40.38,4.37,-3.95,1.19,1721228664221
-38.61,78.45,26.11,0.86,0.13,-0.18,1721228664231
4.45,-4.26,-65.63,1.54,-0.59,0.02,1721228664241
38.94,54.48,-58.29,0.08,-2.67,-0.73,1721228664251
3.30,-22.87,67.32,1.22,0.23,0.01,1721228664261
-4.60,-0.44,-28.48,-0.50,-0.24,-0.34,1721228664271
14.76,-17.84,23.50,1.15,-0.42,-0.70,1721228664281
-6.55,15.01,64.92,-0.29,0.81,-0.10,1721228664291
-3.10,-54.19,48.15,-1.40,0.34,-0.44,1721228664301
-23.76,10.13,36.18,0.87,-0.91,-0.73,1721228664311
-5.93,11.90,-70.80,1.50,-2.51,0.86,1721228664321
6.47,-43.82,0.61,-1.81,2.35,0.56,1721228664331
3.35,44.12,78.45,0.57,-2.65,-0.33,1721228664341
6.83,78.45,-7.46,2.20,-0.83,-0.05,1721228664351
2.14,-8.13,-45.62,0.65,-0.98,0.88,1721228664361
37.05,-78.45,29.77,-4.37,3.94,-0.98,1721228664371
20.58,28.46,59.91,-0.92,3.19,-0.78,1721228664381
-5.92,0.16,-32.45,0.72,-1.69,0.98,1721228664391
-7.80,-31.15,-8.37,-1.85,2.15,0.65,1721228664401
38.56,59.74,11.86,-0.13,-0.19,0.29,1721228664411
16.27,-31.80,-48.01,1.83,-2.16,-0.09,1721228664421
-13.60,-40.79,78.45,-1.17,-0.73,-0.23,1721228664431
24.15,78.45,52.51,1.40,-1.34,-0.69,1721228664441
-11.32,-78.45,-41.36,0.66,1.55,0.20,1721228664451
-15.19,-78.45,-78.45,1.68,-0.49,-0.05,1721228664461
20.71,35.23,78.45,0.14,0.91,-0.46,1721228664471
-28.42,57.43,0.85,0.19,-1.43,0.54,1721228664481
7.49,-78.45,-57.03,3.82,-1.19,0.57,1721228664491
16.79,-78.45,-12.78,-4.37,-1.71,-2.42,1721228664501
-23.66,32.93,-42.16,-4.37,3.10,-3.55,1721228664511
37.50,-0.08,-78.45,4.37,2.01,-1.23,1721228664521
5.96,-78.45,-60.45,3.36,-1.10,4.06,1721228664531
-20.74,-78.45,23.66,2.46,-3.40,-0.02,1721228664541
-30.81,78.45,-78.45,-1.82,-3.49,-1.31,1721228664551
6.02,-25.18,17.24,-0.23,1.08,-1.14,1721228664561
-16.39,-11.77,0.99,0.91,-1.57,-0.80,1721228664571
-8.77,55.77,13.93,-1.69,3.47,0.67,1721228664581
0.19,-10.40,8.71,0.35,0.17,0.73,1721228664591
7.62,-17.07,6.65,-0.31,0.19,0.33,1721228664601
-2.24,78.45,11.37,1.05,0.49,0.07,1721228664611
9.64,-20.05,-77.52,2.91,-1.98,0.14,1721228664621
-7.27,-38.57,-22.87,-1.27,1.40,-0.38,1721228664631
-18.54,73.14,22.84,-1.01,0.80,0.07,1721228664641
9.65,-52.44,41.28,0.68,-0.61,-0.85,1721228664651
