AccX,AccY,AccZ,GyrX,GyrY,GyrZ,Time
1.43,12.13,9.36,0.67,-1.03,-0.78,1721228905136
2.99,4.88,-3.14,0.85,-0.98,-0.91,1721228905141
-6.33,4.26,-19.80,-0.30,1.29,-0.86,1721228905151
-9.39,-5.43,-5.83,-0.91,-0.60,-0.35,1721228905161
-20.38,-24.23,37.15,-2.47,0.77,-0.29,1721228905171
-12.29,17.49,38.13,1.08,-1.35,1.21,1721228905181
-0.62,2.11,-1.62,0.72,0.26,0.45,1721228905191
2.89,-1.23,-5.88,1.32,-0.84,0.90,1721228905201
2.62,-3.86,-3.34,-1.37,0.15,-0.06,1721228905211
11.78,17.55,-4.27,0.25,0.42,-0.59,1721228905221
2.29,-1.60,10.58,-0.31,-1.53,-0.77,1721228905231
-2.23,-4.13,17.23,-0.76,1.33,-1.02,1721228905241
-9.71,6.70,14.01,-0.34,-0.48,-0.48,1721228905251
-15.89,10.83,21.57,-0.03,-1.05,0.03,1721228905261
-12.94,14.62,20.71,0.02,-0.38,0.78,1721228905271
0.20,6.31,12.04,0.17,-0.60,1.21,1721228905281
8.16,-7.08,8.79,-0.13,0.21,2.65,1721228905291
21.46,-3.19,-0.32,-0.79,1.36,1.36,1721228905301
22.35,-6.38,3.25,-0.31,-0.48,-0.56,1721228905311
11.58,4.30,6.05,-0.34,-0.43,-2.57,1721228905321
-0.80,6.53,7.55,0.08,-2.25,-3.29,1721228905331
-25.21,15.93,5.12,-0.33,0.25,-2.62,1721228905341
-26.89,-8.75,27.12,-0.14,-0.89,0.01,1721228905351
-21.56,0.73,15.49,0.02,0.02,1.87,1721228905361
-3.39,3.30,-0.11,0.38,0.18,2.76,1721228905371
7.32,-4.86,-3.08,0.34,0.21,2.31,1721228905381
13.39,-1.21,-1.56,-0.45,0.13,0.91,1721228905391
14.27,3.96,26.97,-0.50,0.39,-0.58,1721228905401
8.72,-8.39,12.24,-0.77,-0.43,-1.61,1721228905411
1.43,0.64,23.42,-0.52,-1.54,-1.78,1721228905421
-11.66,6.11,25.14,-0.17,-0.13,-1.57,1721228905431
-13.94,-1.81,3.36,0.08,-0.53,-0.82,1721228905441
-5.24,-6.26,6.30,-0.33,-0.08,0.83,1721228905451
-3.93,0.24,10.08,-0.16,0.04,1.38,1721228905461
4.79,3.95,9.20,-0.28,0.40,1.29,1721228905471
8.53,2.59,11.77,0.08,0.49,0.88,1721228905481
10.43,-10.79,17.26,-0.11,-0.02,-0.18,1721228905491
11.03,25.61,26.17,0.13,-0.09,-0.71,1721228905501
4.17,-5.24,10.34,0.61,-0.95,-1.23,1721228905511
1.97,-1.52,5.94,0.32,-0.06,-1.29,1721228905521
-5.06,0.93,9.72,0.59,-0.04,-1.03,1721228905531
-12.01,3.50,17.00,0.63,-0.10,-0.31,1721228905541
-8.31,4.50,15.05,0.74,0.02,0.41,1721228905551
-4.93,-9.51,6.43,0.44,0.09,0.74,1721228905561
3.13,-8.50,6.32,0.13,0.06,0.98,1721228905571
6.63,-8.37,3.90,0.04,0.42,0.70,1721228905581
10.66,-0.95,14.01,0.00,0.57,0.24,1721228905591
3.32,23.53,12.04,0.03,0.32,-0.80,1721228905601
4.20,5.12,13.90,0.44,-1.06,-1.39,1721228905611
-6.91,-18.64,-3.17,-0.43,0.31,-1.83,1721228905621
-15.35,-20.03,20.67,-0.26,0.54,-1.07,1721228905631
-15.56,-8.69,11.42,0.88,-0.46,-0.22,1721228905641
-12.71,-16.60,4.41,0.06,0.30,0.64,1721228905651
-4.66,4.77,25.44,0.38,0.20,1.60,1721228905661
1.77,7.19,9.34,0.86,0.18,2.46,1721228905671
7.77,-8.29,-13.14,0.87,-0.15,1.39,1721228905681
13.54,0.54,2.14,-0.26,0.47,-0.15,1721228905691
9.62,7.59,12.34,0.08,0.05,-0.93,1721228905701
4.86,-3.41,10.13,0.30,-1.26,-0.79,1721228905711
-0.58,-7.82,-7.92,0.35,0.18,-1.14,1721228905721
-8.89,-12.01,-1.67,-0.50,-0.07,-0.77,1721228905731
-8.18,-20.68,8.66,-0.79,0.25,0.09,1721228905741
-7.94,3.34,36.55,0.30,0.04,0.69,1721228905751
4.26,14.39,27.52,0.10,0.77,0.84,1721228905761
-2.24,6.10,2.76,1.06,-0.52,1.09,1721228905771
5.93,-4.54,-6.30,-0.01,-0.12,0.58,1721228905781
2.70,-6.89,-4.13,-0.73,0.53,0.67,1721228905791
16.25,-11.45,46.03,-0.24,1.11,0.59,1721228905801
5.54,15.22,23.53,0.62,-0.58,0.71,1721228905811
11.16,12.89,5.97,0.67,-0.29,-0.27,1721228905821
8.76,-5.72,-1.77,-0.30,-0.68,-1.13,1721228905831
-3.31,-9.29,17.15,-0.84,0.47,-1.50,1721228905841
-6.92,-1.42,5.75,0.50,-0.49,-1.11,1721228905851
-17.01,-12.00,0.39,0.17,0.58,-1.46,1721228905861
-13.78,4.63,-3.56,-0.37,0.01,-0.14,1721228905871
-14.88,-1.48,20.11,-0.91,0.45,0.54,1721228905881
-1.78,11.72,36.95,-0.44,0.30,1.22,1721228905891
1.17,-24.36,6.90,-0.24,-0.07,1.39,1721228905901
11.58,-4.20,13.26,0.41,0.70,1.54,1721228905911
6.45,1.06,-6.22,-1.34,0.03,0.52,1721228905921
11.32,15.13,12.23,-0.43,0.94,-0.49,1721228905931
6.49,-0.41,6.07,-0.26,-0.99,-0.87,1721228905941
6.06,-7.01,7.59,-0.57,-0.01,-1.31,1721228905951
2.43,6.58,17.70,-0.86,0.47,-1.31,1721228905961
-10.21,9.17,25.10,-0.21,-0.20,-0.94,1721228905971
-5.33,3.49,3.47,0.54,-0.47,-0.40,1721228905981
-9.23,-14.68,-4.67,0.76,0.98,0.74,1721228905991
-13.99,-24.21,4.35,-0.75,-0.25,0.52,1721228906001
15.49,-7.12,36.08,-1.34,1.84,0.27,1721228906011
-2.31,31.16,28.18,-0.44,-0.33,-0.35,1721228906021
7.25,-21.24,2.30,2.29,-1.49,-1.06,1721228906031
-4.06,-7.19,-7.08,0.18,1.92,-0.22,1721228906041
-1.85,-2.65,-2.91,1.31,-1.39,0.77,1721228906051
-5.68,-14.45,-19.02,-2.37,1.42,0.01,1721228906061
10.89,-10.69,53.45,-0.39,0.95,0.09,1721228906071
-15.98,16.10,56.11,0.13,-1.52,0.27,1721228906081
6.44,-29.78,2.10,3.41,-1.84,-0.25,1721228906091
-10.57,13.41,-1.22,0.97,1.29,0.23,1721228906101
6.28,15.92,-2.38,0.07,-0.23,0.03,1721228906111
-6.57,-3.31,-9.20,-0.82,-0.04,-0.18,1721228906121
-2.54,-23.92,4.70,0.17,-0.79,-0.39,1721228906131
-5.13,-35.65,13.65,-0.94,0.04,0.25,1721228906141
5.06,9.36,23.63,-0.30,2.33,0.01,1721228906151
6.76,20.20,35.97,0.47,-1.06,-0.21,1721228906161
-5.75,10.07,9.36,-0.02,-0.25,-0.18,1721228906171
-11.95,-23.84,-4.54,1.05,-0.34,0.68,1721228906181
3.50,-16.53,-30.52,0.14,0.48,0.64,1721228906191
5.71,-11.65,4.79,-1.96,-0.15,1.23,1721228906201
-5.03,26.62,30.84,1.04,1.32,0.15,1721228906211
7.32,2.16,33.81,0.19,-2.22,0.01,1721228906221
6.82,-1.58,-8.76,1.57,-0.56,-1.14,1721228906231
-2.11,-19.38,-18.95,-3.60,-0.47,-1.86,1721228906241
-3.59,-1.76,30.63,-0.42,3.33,-0.67,1721228906251
-19.74,22.63,10.24,0.16,-1.73,1.00,1721228906261
-26.33,10.18,10.41,-0.10,2.51,1.53,1721228906271
-9.84,36.12,44.69,0.07,0.28,0.48,1721228906281
0.40,2.23,9.62,0.73,-1.34,0.11,1721228906291
1.82,-8.28,-9.91,1.22,1.91,0.67,1721228906301
-0.17,-30.20,-16.05,-2.12,-0.54,0.17,1721228906311
7.47,-9.18,36.66,-0.05,1.13,0.12,1721228906321
-13.14,34.45,-26.77,-1.60,-0.02,-1.70,1721228906331
11.87,2.66,20.36,3.28,-3.43,-0.22,1721228906341
-6.17,-0.68,-7.46,-1.91,0.56,-0.44,1721228906351
1.08,22.02,24.02,-0.47,-0.35,-0.17,1721228906361
0.85,-19.37,-2.70,1.40,-0.99,-0.51,1721228906371
-13.50,-5.65,-3.51,-1.36,1.00,0.33,1721228906381
-7.99,6.58,14.96,0.18,-0.44,0.86,1721228906391
-4.18,13.03,6.05,0.30,-0.35,1.24,1721228906401
6.50,15.68,19.56,-0.40,0.71,0.99,1721228906411
3.16,3.43,11.85,-0.58,0.00,0.53,1721228906421
15.05,-35.60,2.96,-0.46,-1.16,-1.22,1721228906431
3.52,0.35,15.57,-0.60,0.33,-0.73,1721228906441
-0.59,-1.18,10.85,0.27,-1.00,-0.75,1721228906451
-11.97,-10.61,6.68,0.20,-0.33,-0.08,1721228906461
-9.83,5.79,-1.42,0.16,-0.03,0.45,1721228906471
-8.53,-13.91,8.87,-1.21,-0.09,0.77,1721228906481
-11.81,28.11,57.70,-0.90,1.00,1.68,1721228906491
8.23,20.66,61.92,-0.91,0.30,2.09,1721228906501
7.06,-36.86,3.31,1.74,-0.83,0.72,1721228906511
4.24,-12.36,-35.49,0.86,1.01,0.04,1721228906521
13.03,-7.56,-26.49,0.47,-1.33,-0.77,1721228906531
0.25,-22.78,-24.62,-1.39,0.03,-1.42,1721228906541
-7.67,-24.27,25.29,-3.49,0.09,-1.42,1721228906551
0.90,14.56,69.39,0.07,-0.11,0.07,1721228906561
-33.45,-12.83,60.26,0.00,-2.59,1.29,1721228906571
14.49,-44.61,-37.13,1.87,3.17,0.73,1721228906581
22.19,68.05,-9.05,1.02,0.10,0.36,1721228906591
8.33,4.75,-4.06,0.68,-0.11,-0.09,1721228906601
3.65,-15.30,-0.71,-1.62,0.67,-0.22,1721228906611
7.98,-5.70,27.69,0.81,-0.63,-0.77,1721228906621
15.15,58.06,7.08,0.82,-1.36,-0.76,1721228906631
1.98,9.12,-2.00,1.73,0.12,-0.48,1721228906641
5.63,-11.30,4.44,1.87,-0.44,-0.93,1721228906651
4.31,-9.79,-14.12,-0.12,0.58,-0.90,1721228906661
-8.61,-5.60,0.15,-2.77,-1.12,0.24,1721228906671
-29.91,64.84,52.97,0.71,-0.38,1.55,1721228906681
4.63,8.65,21.16,0.58,0.51,1.83,1721228906691
24.52,-62.39,-19.49,2.76,-0.85,0.56,1721228906701
1.72,-38.26,-32.42,-3.39,0.12,-2.05,1721228906711
12.57,6.16,69.13,-0.45,-1.24,-1.67,1721228906721
-11.76,15.67,66.42,-1.10,4.37,-2.16,1721228906731
2.10,23.45,19.63,4.37,-3.42,0.34,1721228906741
-26.52,0.46,-37.57,0.16,2.21,0.82,1721228906751
-3.90,-41.49,-17.34,-0.36,-0.86,0.44,1721228906761
-7.06,-22.59,-8.84,-4.03,1.66,-0.36,1721228906771
15.60,33.74,66.81,1.88,-1.17,0.87,1721228906781
-11.17,4.26,32.16,1.19,-0.12,1.07,1721228906791
10.81,-13.72,-17.31,4.37,-2.03,-0.43,1721228906801
3.10,6.59,-60.94,-1.34,-0.32,-1.05,1721228906811
0.89,-33.21,-12.10,-4.37,1.47,-1.07,1721228906821
-20.27,5.18,64.15,-0.26,0.04,-0.89,1721228906831
-15.05,24.19,18.71,0.93,-1.77,-0.23,1721228906841
-5.74,-10.69,-36.79,1.74,-0.32,0.34,1721228906851
0.65,-6.67,-8.05,-1.61,0.59,1.37,1721228906861
15.73,-27.59,59.41,-1.15,3.26,1.21,1721228906871
4.21,0.53,-9.13,0.32,0.45,0.46,1721228906881
10.32,11.20,18.17,1.38,-1.11,-0.34,1721228906891
6.45,-8.79,-0.52,1.02,-0.36,-1.29,1721228906901
1.91,18.68,-8.91,-0.27,-0.63,-1.50,1721228906911
-5.17,-19.40,3.40,-2.21,1.12,-1.49,1721228906921
-9.52,-13.39,41.57,-0.38,0.23,-0.84,1721228906931
-8.80,-10.50,27.20,0.22,-0.92,0.28,1721228906941
-30.52,27.82,3.92,0.42,1.29,1.13,1721228906951
-3.14,12.30,1.85,0.84,-0.45,0.82,1721228906961
1.09,-8.00,-7.32,0.92,-0.42,0.08,1721228906971
12.05,3.86,9.96,-1.14,0.02,-0.71,1721228906981
12.09,-23.33,25.22,-1.31,1.07,-1.08,1721228906991
7.35,0.22,36.77,0.55,-1.65,-0.58,1721228907001
-3.39,8.25,22.90,-0.11,0.42,-1.47,1721228907011
-10.41,-7.48,6.69,0.09,-0.85,-1.93,1721228907021
-2.33,8.35,10.11,0.35,0.68,-1.48,1721228907031
-18.13,12.35,22.48,0.08,0.49,0.41,1721228907041
-4.61,3.34,3.77,1.48,-0.60,0.76,1721228907051
-8.17,-27.29,8.56,1.15,0.62,1.56,1721228907061
-0.18,-5.36,-9.46,0.11,-0.07,0.82,1721228907071
9.55,6.08,0.04,-0.69,0.25,0.31,1721228907081
0.13,-1.03,28.72,-0.57,0.61,-0.49,1721228907091
3.98,2.26,14.64,0.80,-1.92,-1.03,1721228907101
-11.71,-43.40,4.20,1.93,0.13,-1.81,1721228907111
0.70,-9.53,-45.86,-0.77,-0.13,-1.32,1721228907121
-1.53,-2.21,18.78,0.49,-0.82,-0.47,1721228907131
0.97,78.45,-18.78,-1.94,0.84,0.20,1721228907146
0.71,34.94,45.34,1.37,-1.53,2.11,1721228907150
2.25,-6.29,-7.56,1.13,-1.64,0.54,1721228907160
10.67,-4.08,5.57,-0.90,1.23,0.82,1721228907170
-11.81,-17.62,44.67,-0.63,-0.00,-1.37,1721228907180
-2.55,21.85,2.59,0.82,-0.34,-1.62,1721228907190
0.51,-2.46,-8.03,0.61,-2.00,-0.81,1721228907200
-8.26,10.75,-15.46,-0.61,1.45,-0.10,1721228907210
-2.06,1.87,3.25,-0.66,-0.42,0.76,1721228907220
-5.69,-31.78,16.67,-1.54,0.50,-0.28,1721228907230
0.39,6.81,41.31,0.85,-1.26,-0.05,1721228907240
-0.03,-6.01,7.22,0.57,-0.42,-0.14,1721228907250
-6.44,7.58,-7.98,1.17,-1.02,-0.11,1721228907260
-2.17,3.19,-2.60,-2.12,0.09,-0.26,1721228907270
-8.63,-15.11,16.90,-0.76,1.26,-0.53,1721228907280
-2.06,-6.12,18.16,1.18,-1.46,-0.30,1721228907290
-3.89,-3.67,-7.34,0.26,-0.01,-0.18,1721228907300
-1.20,6.93,7.51,0.01,-0.08,0.30,1721228907310
-2.78,12.25,10.04,0.19,-0.14,0.72,1721228907320
1.25,2.49,0.60,-0.19,-0.23,0.15,1721228907330
-7.07,-19.39,5.72,0.31,0.13,0.27,1721228907340
3.30,-8.23,-4.81,-0.56,-0.18,-0.58,1721228907350
-0.98,-11.89,27.73,-0.93,-0.49,-0.19,1721228907360
-1.80,17.94,30.11,0.84,-0.16,0.65,1721228907370
7.75,-9.50,36.85,0.74,-0.64,0.70,1721228907380
-0.95,-8.89,-14.72,-0.01,0.35,-0.14,1721228907390
3.45,-4.47,20.66,-0.70,0.60,-0.34,1721228907400
7.69,-11.07,24.48,1.08,-0.78,-0.81,1721228907410
-1.04,7.69,2.99,0.42,-0.42,-0.36,1721228907420
4.21,-9.92,-3.71,2.47,-0.48,-0.60,1721228907430
-3.52,14.36,-23.49,0.12,0.25,-0.63,1721228907440
4.67,-9.82,2.50,-2.41,0.45,-0.67,1721228907450
-15.03,-5.22,38.27,-0.80,1.65,-0.00,1721228907460
-12.46,-10.56,25.90,1.26,-1.80,0.20,1721228907470
-12.77,11.07,8.78,0.38,0.93,1.09,1721228907480
-2.57,31.97,20.20,0.01,-0.17,0.40,1721228907490
4.98,-2.65,6.20,0.34,0.10,-0.08,1721228907500
2.90,-23.16,-12.12,0.73,-0.46,-0.60,1721228907510
3.94,-11.82,-11.07,-0.89,0.40,-1.19,1721228907520
2.90,3.69,23.72,-0.18,0.10,-0.96,1721228907530
-10.86,10.85,23.22,0.07,-0.26,-0.46,1721228907540
0.02,-3.91,2.72,1.24,0.08,-0.34,1721228907550
-11.79,12.77,-14.27,-0.04,0.07,0.38,1721228907560
-16.15,13.58,47.26,-2.00,0.59,0.20,1721228907570
0.15,-3.98,28.41,1.17,-0.61,0.37,1721228907580
1.21,-0.57,-3.21,-0.16,0.14,0.63,1721228907590
11.81,4.53,-16.34,0.89,0.43,0.05,1721228907600
0.97,-22.44,-11.21,-1.15,0.44,-0.45,1721228907610
5.80,-15.45,40.12,0.28,0.59,-1.19,1721228907620
-11.34,63.30,23.15,0.62,-1.78,-0.62,1721228907630
-2.13,-2.82,-6.28,0.21,-0.76,-1.02,1721228907640
-7.94,4.50,-20.08,-1.74,1.44,0.58,1721228907650
5.52,-45.97,39.49,-0.65,1.13,0.17,1721228907660
9.89,-7.04,25.51,1.90,1.28,0.05,1721228907670
10.13,-38.01,-0.14,0.08,-0.52,-0.92,1721228907680
-7.37,-13.28,22.91,-0.72,0.76,-0.81,1721228907690
-9.57,50.21,23.69,0.50,1.01,-0.78,1721228907700
1.42,6.36,2.97,0.09,-0.34,0.06,1721228907710
0.68,-78.45,-13.03,0.78,-0.88,0.25,1721228907720
-7.03,-3.39,-2.30,-2.32,0.23,0.26,1721228907730
13.32,11.98,43.06,1.05,-0.92,-0.20,1721228907740
-2.27,37.25,-15.44,0.21,-0.08,0.16,1721228907750
5.94,-18.97,-4.64,1.13,-0.72,-1.51,1721228907760
-3.07,9.00,1.19,-1.94,0.96,-0.98,1721228907770
5.28,17.24,40.78,1.35,-0.44,-0.24,1721228907780
-10.93,-8.91,20.43,-0.76,0.27,-0.71,1721228907790
-8.63,-15.33,0.43,1.07,-0.29,0.23,1721228907800
0.29,-1.12,-2.43,0.26,0.31,0.33,1721228907810
4.27,-1.06,-3.53,1.92,0.12,0.65,1721228907820
2.11,9.54,-21.95,0.32,0.18,0.46,1721228907830
2.74,-2.60,0.87,-2.88,0.80,-0.20,1721228907840
-5.82,5.93,47.60,0.31,1.41,-1.60,1721228907850
9.07,-27.19,60.61,0.65,-2.41,-1.15,1721228907860
-8.71,-13.77,-25.05,0.83,0.31,-1.51,1721228907870
-15.01,18.82,9.80,1.78,0.35,-0.15,1721228907880
-13.65,-1.52,-7.91,1.39,-0.75,1.26,1721228907890
-3.48,-2.85,-11.17,-0.63,0.56,1.72,1721228907900
30.14,-8.24,78.45,-1.29,4.35,1.05,1721228907910
13.25,45.75,34.05,-0.22,0.18,0.03,1721228907920
7.56,-12.24,1.84,1.25,-2.19,-1.02,1721228907930
12.56,14.59,1.58,0.62,1.24,-1.90,1721228907940
-12.32,12.69,-6.35,-0.35,-1.00,-0.94,1721228907950
-11.74,-1.72,-2.83,0.05,0.42,-0.75,1721228907960
-17.23,-27.54,6.31,-1.29,0.52,1.23,1721228907970
-13.08,9.29,39.85,-0.26,0.01,1.17,1721228907980
30.98,55.16,39.48,0.49,0.97,1.61,1721228907990
4.26,17.96,-7.70,2.17,-1.10,1.29,1721228908000
11.55,-42.55,-19.30,-0.82,2.18,-0.16,1721228908010
-8.34,-18.73,-2.50,-2.93,-1.02,-1.29,1721228908020
9.55,16.97,36.10,-0.02,1.37,-1.52,1721228908030
-10.27,4.99,-5.03,-0.03,-1.18,-0.25,1721228908040
9.12,5.37,17.66,0.77,1.96,0.02,1721228908050
-8.00,-38.71,16.09,-0.73,-0.90,1.96,1721228908060
-17.89,17.10,18.02,0.14,2.22,1.79,1721228908070
1.33,7.27,21.12,0.76,-1.73,1.30,1721228908080
31.43,-56.63,-23.85,0.61,1.86,-0.15,1721228908090
-1.81,-5.08,-19.39,-1.96,-0.57,-0.74,1721228908100
9.94,-22.62,5.55,-0.72,1.97,-1.21,1721228908110
-5.57,-3.96,4.80,0.32,-1.47,-1.12,1721228908120
-4.98,-2.57,25.91,-0.11,1.16,-0.53,1721228908130
-12.73,6.46,17.56,0.06,-0.89,0.79,1721228908140
-3.70,-0.03,1.62,0.18,0.81,1.14,1721228908150
-0.39,-12.32,-10.02,2.12,-0.09,1.53,1721228908160
5.91,-20.97,-26.93,1.40,-1.19,0.31,1721228908170
1.67,1.85,-5.94,-3.83,-0.22,-0.02,1721228908180
75.25,78.45,78.45,1.75,2.39,-0.59,1721228908190
21.24,45.60,53.06,1.01,-2.58,0.55,1721228908200
22.41,-78.45,-23.98,0.57,3.28,-1.12,1721228908210
-23.31,-23.06,-52.38,-0.32,-1.06,-2.21,1721228908220
-0.77,-11.66,-11.20,0.90,-2.22,-1.42,1721228908230
-4.57,-3.93,14.10,-1.99,1.43,0.96,1721228908240
-1.20,17.63,31.98,0.55,-0.16,1.53,1721228908250
8.07,30.53,64.78,0.80,0.66,1.31,1721228908260
7.00,9.72,5.94,0.59,-0.43,1.35,1721228908270
9.53,-10.10,-0.82,0.77,0.30,0.93,1721228908280
-0.63,-2.81,-26.56,0.23,0.09,-0.30,1721228908290
8.70,-6.38,-14.92,1.86,-0.48,-1.06,1721228908300
-1.15,-7.43,-23.51,-0.28,-0.65,-1.56,1721228908310
-3.34,-9.91,-6.92,-3.81,0.73,-1.55,1721228908320
42.51,78.45,78.45,2.41,1.01,-2.09,1721228908330
-10.61,25.46,51.55,1.81,-0.51,0.26,1721228908340
-35.27,-78.45,-24.33,1.34,0.52,2.52,1721228908350
-0.72,-11.99,-36.12,0.33,1.33,0.40,1721228908360
-5.08,-0.74,-34.16,1.65,-0.76,0.55,1721228908370
5.90,-12.78,-17.65,-0.10,0.05,-1.20,1721228908380
6.66,-27.99,-18.03,-4.29,0.25,-1.96,1721228908390
-15.27,23.04,48.16,0.01,0.03,-0.43,1721228908400
1.63,27.81,34.31,0.36,0.33,0.52,1721228908410
5.76,-42.60,26.53,1.75,-0.67,2.32,1721228908420
-21.94,-52.80,-31.93,-3.23,-0.48,0.37,1721228908430
-5.01,-6.85,47.95,-1.10,3.41,-0.29,1721228908440
2.45,-6.21,-45.14,-0.49,-0.51,-0.69,1721228908450
6.96,-2.93,11.68,2.44,-2.31,0.81,1721228908460
-18.57,59.95,-18.24,-3.08,2.78,0.66,1721228908470
-4.61,3.80,3.99,0.90,-1.78,0.56,1721228908480
6.98,-28.72,0.54,1.78,-0.77,0.78,1721228908490
-2.27,-19.00,-25.11,-2.10,-0.30,1.02,1721228908500
11.31,-14.85,44.24,-1.12,-0.22,0.21,1721228908510
10.70,4.51,25.30,0.22,0.27,0.42,1721228908520
-27.13,24.96,27.04,-0.37,0.13,0.33,1721228908530
-1.30,17.96,21.05,0.84,-1.37,-1.04,1721228908540
-16.80,-30.32,-10.96,2.03,-1.23,-0.94,1721228908550
-10.71,-14.20,-26.68,1.01,1.27,0.38,1721228908560
1.95,-21.18,-12.17,-0.09,-1.22,1.59,1721228908570
16.39,-9.94,78.45,-2.31,2.07,1.15,1721228908580
-18.76,78.45,58.61,-0.98,1.99,-0.62,1721228908590
-4.75,10.77,17.82,2.19,-2.57,-0.85,1721228908600
53.09,78.45,-23.61,1.87,0.97,-1.49,1721228908610
3.46,-25.28,-9.87,-0.66,-0.54,-0.51,1721228908620
1.01,-29.07,-45.86,-1.35,2.60,0.26,1721228908630
4.15,-19.04,-10.14,-1.77,0.47,0.52,1721228908640
-15.43,-19.62,78.45,-1.36,-1.25,0.10,1721228908650
-25.76,78.45,-0.66,-4.37,1.68,-2.19,1721228908660
6.63,18.28,7.90,3.56,-4.37,-0.84,1721228908670
-37.66,28.29,-3.37,2.66,1.52,0.75,1721228908680
-3.33,-15.90,-14.64,1.13,-1.85,-0.30,1721228908690
-19.97,-10.83,-31.61,-1.53,1.60,0.77,1721228908700
0.71,-20.41,-9.24,-2.94,-0.88,1.35,1721228908710
32.00,-39.80,78.45,0.64,2.11,2.18,1721228908720
9.35,31.00,78.45,1.04,-2.21,4.07,1721228908730
5.86,-5.72,-68.25,4.37,-0.47,0.25,1721228908740
18.84,-12.45,-42.51,2.00,-0.01,-0.81,1721228908750
-0.20,-18.36,-63.84,-0.20,0.10,-2.15,1721228908760
-1.89,-28.34,-13.20,-2.70,-1.93,-1.60,1721228908770
-31.23,26.22,2.13,-4.37,1.24,0.33,1721228908780
-36.45,41.70,68.77,-1.90,4.37,-0.73,1721228908790
9.93,-3.86,38.18,4.37,-3.77,0.66,1721228908800
1.73,-0.71,2.15,2.25,2.86,2.76,1721228908810
27.51,46.41,-3.76,-0.15,-1.91,1.59,1721228908820
-20.91,10.33,-9.42,-1.44,0.67,0.93,1721228908830
4.76,-16.27,-15.54,0.60,-0.01,-0.27,1721228908840
-1.14,-23.78,9.29,-3.70,1.07,-1.48,1721228908850
-2.19,7.00,64.86,-0.67,0.48,-1.38,1721228908860
-15.30,11.61,43.86,0.37,-0.70,-0.73,1721228908870
-18.02,-48.74,-17.38,4.00,-0.24,0.92,1721228908880
-27.91,-57.08,-30.01,-3.00,-0.63,0.90,1721228908890
-1.56,4.81,-4.69,-4.37,1.44,-0.37,1721228908900
69.13,78.45,66.62,1.41,2.22,-2.11,1721228908910
1.95,-4.97,22.09,3.04,-1.70,-0.16,1721228908920
28.52,78.45,19.90,2.55,1.34,0.72,1721228908930
8.18,7.77,-26.48,0.82,-0.74,0.85,1721228908940
2.26,-42.47,-17.61,-2.07,1.49,0.47,1721228908950
8.19,-41.65,35.05,-1.99,0.85,-0.57,1721228908960
29.35,44.55,38.02,2.01,0.08,-1.67,1721228908970
5.51,-10.63,3.32,2.68,-0.87,-1.15,1721228908980
-7.29,37.97,-1.20,0.24,1.50,-1.05,1721228908990
1.46,-66.13,78.45,0.12,-0.50,-0.13,1721228909000
-11.19,29.17,27.23,-1.49,-1.21,1.59,1721228909010
-6.13,-33.02,-6.29,3.85,-1.09,1.02,1721228909020
1.65,-6.82,-64.77,3.55,0.04,-0.22,1721228909030
16.66,-9.84,-39.02,1.99,-1.06,-0.03,1721228909040
9.10,0.27,-24.65,-3.28,0.61,-0.88,1721228909050
0.85,-7.09,32.00,-4.37,1.52,-1.59,1721228909060
-45.46,78.45,20.38,-2.02,2.31,-1.84,1721228909070
12.08,-41.14,14.94,4.37,-2.08,-1.42,1721228909080
-59.37,58.50,-37.41,-1.00,3.47,1.11,1721228909090
21.19,-22.22,-2.50,0.74,-2.12,0.45,1721228909100
-5.64,-17.04,44.11,-2.46,2.23,0.04,1721228909110
6.05,-13.64,16.70,-2.05,4.37,-0.78,1721228909120
15.38,10.05,28.78,3.19,-4.35,-0.20,1721228909130
-4.21,-16.26,-28.58,2.66,1.71,-0.92,1721228909140
2.43,-7.69,-33.90,0.76,-1.75,0.90,1721228909155
6.33,-34.75,-27.64,-3.97,2.84,0.05,1721228909159
14.08,-78.45,78.45,-1.06,1.31,0.58,1721228909169
-41.20,78.45,15.95,-3.40,-3.01,3.79,1721228909179
18.80,-52.33,-52.49,4.37,2.52,-1.04,1721228909189
-17.51,-1.66,-78.45,4.37,0.18,-0.69,1721228909199
24.87,-12.18,-19.23,-3.01,2.26,-0.99,1721228909209
20.12,1.01,-40.25,-4.37,4.37,1.69,1721228909219
-5.99,-47.27,14.66,-4.37,4.37,-1.05,1721228909229
76.43,78.45,71.71,0.76,-4.37,-2.18,1721228909239
-3.30,0.62,15.57,3.23,0.61,1.72,1721228909249
77.41,78.45,38.34,4.37,-0.33,1.84,1721228909259
24.17,-45.32,-25.53,-1.25,-0.45,1.85,1721228909269
24.17,-2.05,-55.20,-0.30,0.86,-0.60,1721228909279
-25.07,18.97,-14.09,-4.37,3.52,-1.75,1721228909289
-0.14,-10.46,78.45,1.07,-3.60,-0.62,1721228909299
-13.29,-27.49,-14.49,-1.16,0.56,-1.28,1721228909309
4.93,-7.44,67.31,0.74,1.07,-0.43,1721228909319
-15.80,7.83,-1.14,0.69,0.79,2.34,1721228909329
3.79,-17.81,-14.95,0.85,0.02,1.19,1721228909339
10.18,-7.44,-11.88,-2.42,0.54,0.67,1721228909349
12.42,18.33,39.33,-1.20,0.55,-0.51,1721228909359
7.24,24.88,32.63,-0.52,0.12,-0.56,1721228909369
4.63,-8.43,8.55,-0.13,-1.30,-1.11,1721228909379
-12.17,-25.16,31.13,-1.48,1.05,-0.97,1721228909389
-16.36,-1.50,20.57,-0.51,-0.70,0.06,1721228909399
-4.92,-11.36,1.75,-0.13,0.83,0.69,1721228909409
-13.52,17.17,6.03,-0.07,0.05,1.54,1721228909419
-0.24,19.96,-3.57,-0.25,0.50,0.69,1721228909429
8.31,-3.34,-3.80,-0.10,-0.66,0.21,1721228909439
-6.46,-7.34,14.16,-0.51,0.72,-0.27,1721228909449
1.22,-21.25,21.36,-0.48,-0.17,-1.01,1721228909459
-2.87,10.28,23.03,-0.52,0.15,-0.86,1721228909469
-4.76,16.30,16.42,0.73,-0.54,-0.09,1721228909479
15.49,-52.24,6.92,0.82,-0.50,-1.16,1721228909489
3.07,-1.88,-0.01,-0.29,1.25,0.77,1721228909499
2.14,-19.26,-9.83,-1.18,-0.01,-0.63,1721228909509
0.25,-2.07,10.17,0.10,-0.80,-0.97,1721228909519
-7.75,15.38,10.64,0.48,-0.01,-0.33,1721228909529
-2.89,-1.27,20.07,0.85,-0.61,-0.30,1721228909539
-6.09,58.05,33.68,0.04,0.62,0.66,1721228909549
5.19,20.06,35.51,0.87,-0.30,0.88,1721228909559
9.17,-33.48,-16.80,2.70,0.74,0.05,1721228909569
9.11,-6.92,-24.56,3.25,-0.58,0.56,1721228909579
-3.42,-35.98,-27.70,-1.37,-1.08,-0.68,1721228909589
-4.47,17.94,-1.67,-4.37,0.32,-1.75,1721228909599
61.81,64.55,78.45,0.10,1.76,-1.59,1721228909609
-9.94,-12.06,39.63,0.69,-2.30,-0.04,1721228909619
-7.70,0.32,-16.75,-0.85,2.58,0.13,1721228909629
-7.47,-25.61,23.22,-0.04,-0.47,0.92,1721228909639
1.75,-0.43,14.32,-0.07,0.19,-0.05,1721228909649
2.88,6.56,12.69,0.13,0.02,-0.24,1721228909659
6.90,18.49,11.19,-0.05,0.68,0.32,1721228909669
-0.23,20.95,9.71,0.67,-0.09,-0.11,1721228909679
16.38,-36.79,13.47,0.46,-0.59,-1.49,1721228909689
-1.64,-12.45,6.73,-1.27,1.01,-0.71,1721228909699
-0.03,3.00,47.65,-0.32,0.18,-0.55,1721228909709
-8.60,13.90,36.62,0.02,-1.10,-0.20,1721228909719
-0.33,38.02,3.63,1.54,0.42,0.80,1721228909729
1.28,-6.14,-34.60,2.87,-0.23,1.30,1721228909739
10.81,-52.15,-32.17,-0.70,1.49,-0.30,1721228909749
5.49,-10.68,-10.08,-2.18,-0.81,-0.27,1721228909759
-20.62,16.16,55.44,-2.59,0.83,-0.43,1721228909769
-8.78,2.37,10.93,-1.10,-0.14,-1.02,1721228909779
-15.40,25.57,43.00,1.98,-1.30,0.77,1721228909789
-7.91,19.55,21.48,0.16,1.16,0.62,1721228909799
2.94,-5.99,-1.23,1.51,-0.88,0.57,1721228909809
-0.34,-7.57,-29.36,-0.17,1.48,0.01,1721228909819
0.32,-23.93,-0.85,-1.06,-0.03,-0.11,1721228909829
-18.34,61.44,-16.68,-0.26,0.55,-0.59,1721228909839
-4.56,-66.02,18.26,0.53,-1.12,-1.24,1721228909849
-8.91,-17.60,46.84,-1.24,2.19,-0.22,1721228909859
42.87,78.45,53.27,1.76,-0.58,0.53,1721228909869
0.80,9.17,5.08,1.55,-0.07,0.87,1721228909879
8.64,-61.67,23.68,0.47,0.13,-0.85,1721228909889
-3.85,-32.72,-15.33,-0.90,0.15,0.03,1721228909899
-1.76,2.34,-3.83,-2.03,-0.75,-0.09,1721228909909
13.75,11.31,57.83,-0.04,2.00,-1.13,1721228909919
-18.27,20.54,26.78,0.27,-1.63,0.69,1721228909929
3.64,11.80,-11.35,3.79,1.19,0.03,1721228909939
1.02,-11.88,-26.30,0.21,-0.85,-0.29,1721228909949
16.34,-69.43,9.39,-4.37,0.98,-1.81,1721228909959
8.37,-16.39,78.45,0.25,-0.39,0.25,1721228909969
9.42,-37.52,5.65,2.29,1.25,-0.95,1721228909979
8.78,-22.96,-33.87,4.26,-0.12,-0.10,1721228909989
0.36,7.68,-78.45,0.82,-0.68,1.12,1721228909999
23.83,-42.55,-22.24,0.28,0.95,0.71,1721228910009
28.26,61.47,-5.49,-1.83,-2.15,-0.45,1721228910019
-2.49,-10.26,28.46,-2.18,3.34,-0.56,1721228910029
2.46,41.78,56.28,-1.53,0.89,-1.25,1721228910039
-0.34,9.72,9.54,1.47,-4.03,-1.43,1721228910049
-21.97,-13.73,7.16,-0.24,1.73,-0.62,1721228910059
-8.26,-8.03,-14.16,1.53,-0.81,0.07,1721228910069
-15.13,6.38,-24.64,2.37,-1.45,2.16,1721228910079
5.47,2.81,-21.65,0.77,1.03,2.91,1721228910089
9.03,-18.91,-17.44,-1.87,0.41,2.11,1721228910099
14.18,-46.95,78.45,-3.11,2.11,-0.34,1721228910109
-10.51,68.25,75.47,-0.41,-3.95,-2.31,1721228910119
8.37,1.51,6.29,3.49,-3.33,-2.33,1721228910129
-0.43,-1.98,-15.17,1.84,2.81,-0.28,1721228910139
-27.22,-78.45,-78.45,2.73,-0.79,-0.03,1721228910149
-13.99,3.96,-37.71,-2.76,-1.47,1.27,1721228910159
5.05,-25.73,43.66,-4.20,-1.31,0.54,1721228910169
-26.09,20.78,32.66,-3.30,-0.34,2.70,1721228910179
1.18,-4.85,26.32,2.78,-1.72,1.22,1721228910189
7.39,0.79,24.50,0.55,0.68,0.75,1721228910199
0.08,9.10,-7.54,-1.45,0.52,-0.64,1721228910209
19.31,25.60,22.08,-0.25,-0.73,-0.22,1721228910219
5.54,57.56,44.63,-0.33,-0.18,-0.58,1721228910229
4.69,22.40,-14.03,-0.04,-1.49,0.47,1721228910239
-0.85,-78.45,43.41,2.72,-0.68,-0.19,1721228910249
-47.31,-53.81,-78.45,2.28,3.03,-2.28,1721228910259
6.17,24.72,5.12,-2.31,-3.64,-1.19,1721228910269
-54.83,21.08,78.45,-1.74,2.12,0.15,1721228910279
-0.21,-10.88,72.04,2.36,-1.53,1.12,1721228910289
-2.69,-1.92,-23.50,1.12,0.89,1.44,1721228910299
9.26,15.00,-0.21,1.26,-0.13,1.24,1721228910309
10.66,-19.41,-18.88,2.21,-0.32,0.59,1721228910319
15.41,-11.56,-30.65,-0.28,-0.32,-0.48,1721228910329
6.14,-29.14,-15.70,-3.41,0.46,-0.62,1721228910339
9.58,-32.63,78.45,-0.42,-0.90,-1.79,1721228910349
-32.96,9.50,57.77,-1.13,-1.80,-0.56,1721228910359
8.03,6.81,-10.01,2.18,2.73,0.20,1721228910369
-26.48,58.34,-25.71,2.44,0.06,1.83,1721228910379
4.08,-38.50,-17.94,0.37,0.67,0.44,1721228910389
11.03,-25.45,19.41,0.05,-0.83,1.20,1721228910399
-44.05,47.58,30.66,-1.62,-3.00,2.27,1721228910409
31.15,78.45,9.69,-1.59,4.37,-0.12,1721228910419
-11.25,-62.51,-17.30,2.34,-2.16,0.45,1721228910429
9.40,22.14,1.92,0.25,-1.35,-0.58,1721228910439
11.88,-6.87,9.05,-3.12,0.20,-0.28,1721228910449
-31.10,54.67,10.35,-1.57,-0.03,0.92,1721228910459
12.39,-78.45,36.40,2.64,-1.48,1.06,1721228910469
-15.02,-21.41,3.89,-1.04,0.39,-0.54,1721228910479
1.63,-10.37,38.56,0.12,-0.99,-1.40,1721228910489
-44.31,8.07,26.67,-2.27,1.74,-0.69,1721228910499
16.25,-41.67,31.31,4.13,-4.37,-0.52,1721228910509
-37.95,37.90,17.09,-1.99,1.91,-0.26,1721228910519
-9.22,33.36,9.83,0.06,-0.74,1.54,1721228910529
1.64,-76.12,46.48,1.75,0.81,1.80,1721228910539
18.62,-12.40,35.05,-2.43,-1.65,0.16,1721228910549
-41.98,73.28,71.67,-0.78,1.49,1.04,1721228910559
-14.08,11.17,16.20,-3.07,1.76,-1.64,1721228910569
12.05,2.28,34.53,2.74,-4.37,-1.90,1721228910579
-6.59,-17.55,2.51,-1.14,2.23,-2.07,1721228910589
-11.96,10.14,-5.66,1.16,-0.73,-0.05,1721228910599
-15.07,3.23,-7.08,3.16,-0.73,1.37,1721228910609
0.61,9.88,-13.23,-0.69,-0.40,1.91,1721228910619
12.63,-20.68,78.45,-2.35,4.37,1.06,1721228910629
22.70,4.86,42.15,1.41,-1.00,0.18,1721228910639
4.88,-1.62,-9.53,2.67,-1.92,-0.57,1721228910649
5.82,-10.38,-45.06,0.09,1.95,-1.93,1721228910659
-34.85,-55.97,-1.26,-1.75,-0.82,-1.00,1721228910669
-4.81,0.21,43.36,-1.20,0.44,-0.41,1721228910679
2.48,20.61,44.24,-1.95,3.33,0.04,1721228910689
10.54,22.26,62.84,2.75,-2.38,1.28,1721228910699
-3.70,3.59,-9.85,0.95,0.80,1.55,1721228910709
23.87,-34.29,-29.31,4.27,0.53,1.02,1721228910719
3.95,-62.91,-59.87,1.43,-2.00,-0.80,1721228910729
0.03,-25.84,-23.85,-4.37,0.86,-1.32,1721228910739
-32.73,-49.62,78.45,-4.37,-0.08,-1.92,1721228910749
-44.80,78.45,78.45,-4.37,-1.21,-0.80,1721228910759
-30.83,13.75,-15.10,4.37,-1.53,-1.28,1721228910769
-46.53,-11.74,-39.31,3.10,-0.22,0.13,1721228910779
33.49,-78.45,-57.51,-2.97,2.23,-0.38,1721228910789
0.07,-8.73,-2.19,-0.70,-2.51,0.21,1721228910799
-7.83,23.90,78.45,-1.32,-4.37,1.61,1721228910809
11.69,28.14,-20.22,2.16,-0.75,-0.38,1721228910819
11.50,-78.45,19.22,1.21,-0.93,0.34,1721228910829
0.92,5.00,-2.20,0.02,0.60,-0.20,1721228910839
-2.21,54.27,22.78,-0.19,1.33,-1.06,1721228910849
-1.98,-4.54,24.95,0.09,-1.68,-1.36,1721228910859
-12.59,-70.55,32.70,-1.80,1.95,-0.34,1721228910869
-29.84,32.80,17.05,0.90,0.07,1.63,1721228910879
-18.95,47.61,-18.62,0.93,-0.56,-0.13,1721228910889
-8.60,-70.91,-12.37,0.97,-1.16,0.16,1721228910899
0.05,-0.32,-3.67,-1.55,-0.25,0.75,1721228910909
8.63,8.72,50.09,-1.17,1.74,0.45,1721228910919
11.69,21.19,55.45,-0.19,-1.27,0.13,1721228910929
9.08,-22.70,12.31,2.31,-1.33,-1.47,1721228910939
1.27,-1.27,0.22,0.78,0.36,-0.17,1721228910949
-2.17,-13.05,-10.64,0.72,-0.79,-0.05,1721228910959
-1.20,12.45,-12.48,-0.74,-0.27,0.18,1721228910969
9.91,3.22,15.05,-2.28,2.02,-0.38,1721228910979
-20.84,15.98,36.49,-1.63,-0.75,-0.70,1721228910989
-0.40,-47.19,47.51,2.93,-2.14,-0.43,1721228910999
-10.14,-8.90,26.34,-1.47,-0.31,-0.02,1721228911009
36.59,78.45,24.63,1.77,-0.36,1.10,1721228911019
3.21,-30.73,-29.19,3.60,-0.26,1.02,1721228911029
6.65,-16.02,-48.24,1.85,0.24,0.63,1721228911039
17.26,3.38,-42.62,-3.51,0.09,-0.43,1721228911049
-17.68,15.79,-9.10,-4.37,1.27,-0.82,1721228911059
0.88,78.45,-0.95,-1.87,0.13,-1.91,1721228911069
-4.30,-78.45,26.91,0.42,-2.71,-1.03,1721228911079
-17.12,-25.40,-33.10,-3.13,2.62,-0.45,1721228911089
-27.06,-57.57,26.39,-0.16,-1.73,-0.03,1721228911099
-1.80,19.15,-7.12,-1.04,0.12,0.45,1721228911109
-1.48,-25.46,9.46,2.09,-0.09,2.32,1721228911119
10.31,26.47,-18.78,0.31,-0.10,1.57,1721228911129
-2.70,40.36,36.26,-0.55,2.49,0.80,1721228911139
8.68,4.13,8.94,0.23,-1.19,0.21,1721228911149
0.85,-27.17,-3.38,1.53,0.20,-1.61,1721228911164
-29.90,29.91,-4.27,-1.46,-1.16,-1.34,1721228911168
-18.86,14.45,-35.67,-2.34,1.85,-0.76,1721228911178
-14.12,5.74,2.47,1.54,-0.68,1.04,1721228911188
16.23,46.64,-1.13,1.05,-0.10,0.98,1721228911198
13.21,19.48,-1.25,0.25,0.91,1.42,1721228911208
22.67,-57.85,1.26,-2.35,1.00,-1.51,1721228911218
2.34,-1.15,28.15,-0.83,-0.82,-0.82,1721228911228
20.70,28.67,16.23,0.97,-1.86,-0.65,1721228911238
5.43,-30.07,-15.81,1.97,-0.52,-1.12,1721228911248
-15.17,21.02,-18.12,0.22,-0.39,-0.91,1721228911258
21.40,46.45,-5.59,1.10,0.19,-0.62,1721228911268
-0.70,-9.02,-3.80,0.32,-0.08,0.03,1721228911278
7.80,-35.38,9.09,-0.90,0.44,-0.08,1721228911288
-1.07,-14.85,45.93,-0.16,-0.69,-0.49,1721228911298
20.34,66.02,4.60,-0.77,0.61,0.32,1721228911308
-1.06,3.62,-0.77,1.67,-0.23,1.15,1721228911318
5.01,14.00,-16.64,1.73,1.02,0.54,1721228911328
6.56,2.97,-18.58,1.40,0.15,-0.17,1721228911338
4.14,-52.46,-13.54,-1.61,1.15,-0.99,1721228911348
-6.92,-13.68,-6.34,-1.90,-0.93,-0.86,1721228911358
-3.48,78.45,35.89,1.60,1.15,-0.62,1721228911368
4.92,-17.87,24.21,2.27,-0.30,-0.14,1721228911378
-6.01,-0.41,6.91,-2.30,1.18,0.45,1721228911388
2.27,6.29,76.77,0.79,-1.43,0.73,1721228911398
7.53,62.68,50.00,0.00,0.53,0.93,1721228911408
4.21,-78.45,4.24,3.25,-0.27,0.98,1721228911418
-15.06,-28.90,-64.13,2.51,-2.28,-0.94,1721228911428
18.21,8.02,-55.40,-4.29,0.97,-0.09,1721228911438
-1.37,-42.80,78.45,-2.49,4.37,0.55,1721228911448
8.26,15.46,9.65,0.51,-0.53,1.01,1721228911458
-3.09,-18.79,8.21,1.77,-1.11,0.88,1721228911468
2.45,21.63,3.50,-0.33,0.49,-0.36,1721228911478
5.06,-0.35,36.09,0.19,-0.11,-0.47,1721228911488
1.52,-6.78,-3.52,0.54,-0.50,-0.28,1721228911498
-9.64,-17.00,-7.18,-2.07,1.93,-0.00,1721228911508
-7.21,-10.47,46.55,0.20,-0.32,0.45,1721228911518
-2.90,56.94,14.26,-0.78,1.23,0.68,1721228911528
-1.38,-35.39,-24.69,2.05,0.67,1.10,1721228911538
9.83,9.44,-26.76,-1.18,-1.54,0.63,1721228911548
12.70,-3.61,78.45,-1.24,3.65,-0.30,1721228911558
-8.35,5.64,0.15,-1.73,-0.38,-0.51,1721228911568
14.65,-32.34,5.10,2.98,-2.36,-1.11,1721228911578
-41.04,11.56,23.19,-1.35,1.21,0.05,1721228911588
-9.11,14.77,4.12,1.67,-1.02,0.96,1721228911598
-9.81,-40.82,10.75,0.03,0.65,0.96,1721228911608
11.13,4.51,44.04,-0.22,0.83,0.98,1721228911618
2.97,47.64,42.22,-0.02,-0.75,1.27,1721228911628
34.70,-56.51,-11.96,2.99,-0.97,-1.06,1721228911638
6.26,2.45,-24.55,0.42,0.65,0.10,1721228911648
5.90,-7.82,-21.02,-0.27,-1.46,0.36,1721228911658
-2.60,-15.03,-5.51,-3.90,1.18,-1.11,1721228911668
12.43,-5.87,78.45,0.22,0.06,-2.13,1721228911678
-1.76,33.20,58.99,1.94,-2.51,0.08,1721228911688
-8.29,-4.24,-71.42,3.52,0.37,1.04,1721228911698
-4.65,-19.87,-18.47,0.51,0.07,1.57,1721228911708
-9.15,-78.45,15.00,-2.10,-0.01,0.85,1721228911718
28.12,-25.06,70.65,-2.26,1.03,0.24,1721228911728
0.38,26.76,59.76,-0.08,-0.55,-0.77,1721228911738
10.74,28.89,12.49,1.42,-1.17,-0.51,1721228911748
4.29,-24.72,-13.61,4.04,-0.63,-1.02,1721228911758
-6.52,-53.37,-34.75,-0.40,0.18,-0.87,1721228911768
-7.77,-7.61,-23.57,-3.07,0.33,-1.03,1721228911778
-1.90,-3.26,78.45,-2.02,0.42,-0.57,1721228911788
-41.01,8.71,38.11,-2.29,-0.54,0.70,1721228911798
2.15,25.37,78.45,1.93,1.20,1.08,1721228911808
7.07,19.06,-1.72,0.97,-0.51,1.62,1721228911818
16.71,-43.42,-20.89,1.57,0.01,-0.23,1721228911828
10.85,19.18,-10.30,-1.22,0.06,0.24,1721228911838
12.14,-18.34,23.86,-1.17,2.00,-1.22,1721228911848
6.03,-4.41,20.93,0.58,0.60,-1.35,1721228911858
-10.03,-3.62,35.31,0.60,-1.67,-1.22,1721228911868
-14.65,29.95,43.04,0.37,1.07,-0.14,1721228911878
-0.09,-5.47,-5.86,0.66,-0.42,0.43,1721228911888
3.90,0.79,-10.91,3.66,-0.28,2.09,1721228911898
7.60,-37.06,-21.14,-0.75,0.74,1.53,1721228911908
-0.27,23.07,-1.36,-2.89,1.38,0.61,1721228911918
23.83,11.68,20.84,-0.45,1.59,-0.56,1721228911928
11.36,-15.71,50.50,0.09,-1.66,-0.96,1721228911938
-6.02,10.34,44.85,0.62,0.85,-1.32,1721228911948
-10.39,7.37,-15.20,0.55,-1.35,-0.53,1721228911958
-20.59,24.53,15.70,0.69,2.49,1.03,1721228911968
-7.64,-14.11,-6.93,0.34,0.11,1.04,1721228911978
2.35,-32.74,-2.94,0.97,-1.02,1.29,1721228911988
26.89,15.68,34.44,-1.32,2.58,0.81,1721228911998
7.48,26.59,10.46,0.38,-0.52,-0.22,1721228912008
4.11,-22.26,-34.65,2.15,-1.02,-1.04,1721228912018
7.17,-5.10,16.61,-0.53,1.14,-1.58,1721228912028
-21.53,-9.71,75.57,-1.08,-0.13,-0.09,1721228912038
-63.51,75.39,45.71,-0.63,-2.47,0.62,1721228912048
2.58,-15.54,-18.39,4.37,0.25,-0.93,1721228912058
-6.94,3.14,-22.75,2.00,-1.17,0.98,1721228912068
3.04,-21.54,-12.26,-2.96,0.23,1.01,1721228912078
-35.62,29.42,-7.17,-4.37,0.21,0.20,1721228912088
-12.06,28.54,40.61,-1.79,-0.00,-0.95,1721228912098
8.00,-3.29,29.07,3.01,-1.66,0.01,1721228912108
-7.34,-13.74,-19.37,0.43,0.18,0.77,1721228912118
-11.78,10.37,-19.29,0.78,-0.47,0.24,1721228912128
-0.87,-3.99,-8.80,-1.01,-0.54,0.57,1721228912138
15.53,-64.33,78.45,-3.42,4.29,-0.33,1721228912148
-7.46,31.31,78.45,-0.17,-1.67,-0.78,1721228912158
-2.40,15.59,20.57,1.41,-1.71,-1.45,1721228912168
-20.88,23.84,-39.00,2.46,1.25,0.16,1721228912178
-0.41,-17.64,-41.98,1.22,0.52,1.45,1721228912188
-1.95,-40.96,-33.96,-2.43,0.99,1.74,1721228912198
10.31,-3.54,-3.91,-4.37,0.30,0.01,1721228912208
8.20,40.57,47.88,-0.19,-0.85,-1.75,1721228912218
3.07,28.54,78.45,1.64,-2.56,0.56,1721228912228
7.26,2.69,-78.45,4.37,1.11,0.68,1721228912238
14.81,-31.80,-39.37,3.83,-0.84,-0.31,1721228912248
-4.33,-78.45,-78.45,1.34,0.94,-0.36,1721228912258
-31.37,44.41,-27.98,-4.37,-0.39,-1.15,1721228912268
1.46,-9.42,20.01,-4.00,3.33,-0.28,1721228912278
-55.25,-6.79,78.45,-1.66,-1.41,1.02,1721228912288
10.98,-16.07,14.12,4.37,-2.58,1.32,1721228912298
1.18,-4.55,-16.52,1.48,1.86,0.61,1721228912308
14.30,36.57,-23.21,0.49,-0.50,-0.17,1721228912318
-22.68,11.36,-11.26,-2.88,-0.76,0.37,1721228912328
1.58,-30.77,47.00,0.32,0.08,-0.48,1721228912338
-15.63,-7.29,7.58,-1.06,-0.58,-0.32,1721228912348
9.25,-8.80,0.21,4.37,-0.61,-0.86,1721228912358
-11.13,-21.47,-9.11,-0.83,-0.44,1.64,1721228912368
-3.07,-10.44,44.41,-2.59,1.01,0.34,1721228912378
-15.56,53.44,63.24,-1.23,0.12,-0.48,1721228912388
3.69,6.11,16.72,3.41,-1.76,0.31,1721228912398
-0.14,-13.66,-15.76,1.30,1.43,0.32,1721228912408
8.21,-40.32,-32.82,0.09,-0.46,-0.07,1721228912418
4.56,61.77,7.19,-2.00,0.50,0.20,1721228912428
-6.00,-18.58,62.51,-4.37,1.01,0.32,1721228912438
-29.20,-17.87,63.11,-4.37,-0.13,-0.20,1721228912448
15.56,-38.80,13.92,4.37,-2.31,-0.90,1721228912458
-14.38,4.71,-0.58,-1.19,1.36,0.00,1721228912468
7.30,-3.84,-6.09,2.02,-1.59,0.73,1721228912478
-4.08,-7.86,-6.94,-4.10,1.25,0.64,1721228912488
-44.69,51.82,73.46,1.09,0.83,0.13,1721228912498
-0.42,28.44,64.77,1.93,-1.05,0.62,1721228912508
39.61,-78.45,-49.19,3.88,-1.54,-1.54,1721228912518
-0.82,-13.13,-63.64,4.37,0.85,-0.37,1721228912528
14.31,6.39,-43.17,-1.72,-4.37,-0.16,1721228912538
43.00,45.96,4.27,-4.37,4.24,0.50,1721228912548
-6.66,39.33,78.45,-2.69,4.37,-0.90,1721228912558
10.80,17.49,58.04,2.11,-4.32,1.45,1721228912568
1.38,-24.63,-28.70,2.14,4.37,0.47,1721228912578
-2.28,-15.52,-21.15,0.88,-3.73,1.16,1721228912588
-6.21,-3.55,-17.99,-0.15,0.42,0.66,1721228912598
-3.27,-2.86,-15.73,-4.37,1.08,1.44,1721228912608
6.51,49.95,78.45,0.30,-1.37,0.19,1721228912618
-11.48,-0.40,52.60,0.47,-0.75,-0.69,1721228912628
-0.98,-16.05,-26.71,2.66,-0.57,-1.44,1721228912638
-6.79,-13.78,-12.27,0.53,-0.22,-0.86,1721228912648
-0.77,-3.20,-14.38,-0.92,0.00,0.20,1721228912658
0.19,-3.27,-6.45,-2.18,-0.82,0.52,1721228912668
13.65,5.83,69.45,-0.71,1.55,0.61,1721228912678
7.33,19.27,43.75,1.28,-1.27,0.57,1721228912688
5.06,2.44,0.14,4.37,-0.72,0.31,1721228912698
9.68,-10.52,-41.73,1.63,0.70,0.06,1721228912708
13.71,-48.97,-33.47,-0.81,-0.47,-0.70,1721228912718
-4.07,-3.50,-16.39,-4.37,-0.57,-0.60,1721228912728
65.69,78.45,78.45,-0.38,3.89,-1.91,1721228912738
-5.60,-2.97,33.36,3.67,-4.37,1.40,1721228912748
-35.14,10.32,-50.47,0.77,3.90,0.95,1721228912758
9.38,-16.76,-11.15,1.32,-0.77,1.05,1721228912768
7.67,-20.89,-21.06,0.85,-1.95,-0.12,1721228912778
4.74,5.17,14.00,-1.69,0.02,-1.60,1721228912788
19.41,14.02,17.55,-0.75,1.33,-0.78,1721228912798
-8.07,-16.36,30.26,-2.83,-0.22,-0.71,1721228912808
-1.58,22.29,42.15,2.16,-1.65,-0.61,1721228912818
-13.13,-57.36,3.47,-1.06,0.34,-0.58,1721228912828
-3.45,-8.00,2.37,0.93,-1.14,0.08,1721228912838
-7.30,8.22,4.00,-0.04,0.47,1.39,1721228912848
8.14,-11.70,7.71,1.15,-0.04,-0.22,1721228912858
2.12,-9.31,31.46,-1.13,0.48,-0.05,1721228912868
-2.25,9.33,4.32,0.77,-0.09,0.31,1721228912878
-1.37,-11.50,-11.31,1.00,-0.83,-0.58,1721228912888
3.52,11.70,25.47,-1.55,2.24,-0.74,1721228912898
6.02,36.69,34.96,0.31,-0.99,-0.54,1721228912908
-1.82,-5.80,0.86,1.65,-0.86,-0.51,1721228912918
-1.87,-11.77,-16.33,-0.05,1.63,0.15,1721228912928
-3.22,-13.63,-16.35,-1.37,0.62,0.07,1721228912938
0.36,7.48,4.36,0.29,-0.71,0.56,1721228912948
11.46,48.63,24.38,0.45,1.31,-0.48,1721228912958
7.81,25.93,35.89,-0.16,-0.82,-0.21,1721228912968
10.16,-24.56,13.55,1.40,-0.06,-2.14,1721228912978
-6.69,-17.33,-25.94,-0.65,1.33,-0.72,1721228912988
0.15,-0.30,-6.76,-2.45,-0.43,0.55,1721228912998
5.71,-8.63,36.21,-1.08,2.38,-0.42,1721228913008
1.84,27.57,17.88,1.40,-1.49,0.59,1721228913018
-0.20,15.51,-1.70,2.25,-0.64,0.16,1721228913028
2.20,6.85,3.71,-1.28,-0.18,-0.01,1721228913038
2.35,-50.02,15.44,-1.46,1.10,-0.72,1721228913048
1.57,-1.73,14.70,1.51,-1.73,1.22,1721228913058
18.64,32.39,-1.78,0.04,0.65,-0.44,1721228913068
-0.28,-8.07,14.28,-0.27,-0.52,-1.53,1721228913078
-24.13,44.43,12.09,1.33,-0.85,-1.07,1721228913088
-8.96,39.68,6.29,1.17,0.34,0.09,1721228913098
-2.36,-3.06,-20.60,-0.60,-0.71,0.83,1721228913108
16.43,-57.00,14.36,-0.43,1.45,0.47,1721228913118
-14.87,-11.94,51.54,-0.75,-0.99,0.76,1721228913128
-16.87,63.04,27.10,-1.63,0.60,-1.08,1721228913138
0.33,-10.72,17.32,2.41,-1.65,-0.94,1721228913148
16.33,31.36,-24.72,0.99,-0.40,-0.05,1721228913158
5.85,-0.41,-18.05,0.23,0.61,0.32,1721228913173
5.51,-15.86,-16.24,0.18,0.35,-0.34,1721228913177
0.80,-70.06,5.90,-2.77,-0.11,-1.90,1721228913187
-3.96,-23.19,78.45,-0.10,-0.10,-0.82,1721228913197
-22.13,50.58,51.41,-0.87,-3.59,-0.27,1721228913207
-4.78,-5.09,-13.87,4.37,1.91,-0.32,1721228913217
-14.11,0.37,-25.97,0.03,-1.70,0.73,1721228913227
-9.65,-39.49,-28.37,-1.66,3.36,0.06,1721228913237
1.10,-47.73,1.09,-2.63,0.10,-0.24,1721228913247
6.34,-18.45,78.45,-0.45,-0.52,0.12,1721228913257
-6.06,40.19,8.22,-0.30,-0.82,-0.37,1721228913267
20.45,40.62,5.92,1.92,0.07,0.28,1721228913277
6.38,21.63,9.66,-1.79,0.67,0.56,1721228913287
2.45,-3.81,4.77,-1.29,-0.03,-0.41,1721228913297
12.60,-29.39,-8.77,4.37,-0.30,-0.83,1721228913307
17.05,0.27,-47.19,1.40,-1.54,-0.99,1721228913317
-6.52,-44.99,-14.62,-4.37,1.51,0.23,1721228913327
3.51,-9.50,63.44,0.99,-1.91,1.69,1721228913337
7.73,59.87,78.45,1.33,-3.23,1.33,1721228913347
3.90,-12.86,-14.49,4.37,1.60,-0.31,1721228913357
18.10,17.80,-24.61,0.58,-1.46,0.69,1721228913367
-10.59,-78.45,-27.71,-0.62,2.37,0.71,1721228913377
-11.90,-45.82,-26.63,-1.39,-0.10,-1.33,1721228913387
20.25,14.96,34.18,-4.37,1.43,-2.36,1721228913397
-50.43,41.67,60.03,-1.11,0.11,-0.23,1721228913407
18.35,-27.78,29.56,4.37,-0.87,-1.14,1721228913417
-7.66,72.69,-78.45,2.21,-2.03,0.55,1721228913427
-5.02,-33.13,-11.01,-3.09,0.92,0.60,1721228913437
-26.55,-51.04,45.32,-4.13,-0.32,0.24,1721228913447
30.65,78.45,17.72,-0.31,-0.38,-0.53,1721228913457
2.30,-2.11,8.91,3.35,0.30,0.33,1721228913467
12.92,5.79,-15.29,4.37,-1.09,-0.34,1721228913477
-7.94,-24.13,-44.64,-0.20,0.21,-0.82,1721228913487
8.37,19.68,-19.03,-4.08,0.88,-0.89,1721228913497
1.00,-22.37,48.01,-2.27,3.51,-0.90,1721228913507
-13.62,56.78,35.52,0.52,-2.40,0.28,1721228913517
9.39,-13.10,23.92,3.26,0.89,-0.64,1721228913527
1.93,-17.36,-13.71,1.18,0.62,0.75,1721228913537
-2.93,1.36,-30.42,1.90,-0.81,1.06,1721228913547
8.06,-19.08,-12.12,-2.84,0.25,-0.26,1721228913557
1.84,-57.71,78.45,-3.27,1.67,-1.83,1721228913567
-78.45,64.92,78.45,-0.93,-1.73,-1.75,1721228913577
8.82,-8.78,14.22,4.37,-1.61,-1.63,1721228913587
-17.97,-1.60,-34.28,0.11,-0.04,-0.16,1721228913597
-3.07,6.12,-15.71,-0.60,0.28,0.19,1721228913607
-2.08,-12.36,-8.62,-2.29,-0.23,0.46,1721228913617
15.39,-70.21,78.45,-3.64,3.44,-0.56,1721228913627
18.18,78.45,43.76,0.82,-2.29,-1.01,1721228913637
4.10,0.24,14.09,2.19,-0.06,-0.92,1721228913647
5.75,-0.91,-23.20,0.35,1.35,-0.40,1721228913657
-3.41,-11.20,-11.80,-1.18,0.30,-0.36,1721228913667
-6.37,5.91,-0.47,-1.47,-0.27,-0.17,1721228913677
-18.05,24.54,-2.12,-0.59,0.30,-0.49,1721228913687
-3.78,-21.18,10.85,0.68,-0.55,0.18,1721228913697
-0.34,0.00,-2.75,0.55,0.37,0.41,1721228913707
5.13,11.05,-4.42,0.76,-0.41,0.29,1721228913717
10.50,-21.95,-18.30,-4.30,0.28,-0.63,1721228913727
0.63,-0.46,51.97,-0.24,1.45,-1.18,1721228913737
-0.57,-2.16,48.77,0.83,-1.31,-1.05,1721228913747
-36.62,28.21,14.94,2.61,0.13,1.51,1721228913757
-2.70,-19.61,-13.81,0.12,0.76,-0.25,1721228913767
19.16,37.62,-1.68,-1.78,0.80,-0.35,1721228913777
-4.87,2.24,3.80,-2.25,0.21,-0.34,1721228913787
-23.69,27.38,19.00,-0.48,1.05,-0.37,1721228913797
10.35,-37.19,21.10,1.68,-1.46,-0.43,1721228913807
-1.66,-9.65,10.30,-0.45,1.10,0.61,1721228913817
-12.98,15.19,8.26,1.56,0.28,1.40,1721228913827
1.38,-5.51,-7.63,0.64,-1.13,-0.00,1721228913837
2.52,-0.42,3.45,-2.23,0.77,-0.41,1721228913847
6.84,19.23,35.55,-0.81,0.44,-0.33,1721228913857
5.74,-11.32,34.31,1.82,-1.28,-1.26,1721228913867
-10.13,2.88,17.57,-0.17,0.16,-1.97,1721228913877
-14.03,6.82,-5.66,2.27,-0.44,-0.33,1721228913887
-20.28,18.50,-7.03,2.84,-0.42,1.77,1721228913897
-12.06,2.82,-15.95,-1.51,1.85,1.38,1721228913907
31.40,-78.45,-8.25,-4.37,0.99,-0.39,1721228913917
-5.44,32.16,49.36,-0.47,1.22,1.07,1721228913927
5.11,-0.59,11.98,0.62,-1.87,-0.31,1721228913937
11.91,7.87,16.34,0.72,3.39,-2.41,1721228913947
-17.36,-12.28,-10.62,-1.07,-0.50,-0.92,1721228913957
18.37,74.51,23.28,-1.50,3.67,-1.50,1721228913967
-8.62,0.74,35.87,-0.36,-2.41,0.07,1721228913977
-26.57,-78.45,-9.36,0.39,1.92,0.66,1721228913987
-2.62,-8.78,-16.54,1.57,-0.01,1.43,1721228913997
8.50,31.74,-18.65,0.90,-1.25,1.01,1721228914007
1.48,-2.52,1.68,-2.58,0.97,0.15,1721228914017
3.21,19.94,36.63,-0.82,0.31,-0.63,1721228914027
4.56,1.24,35.99,0.83,-1.35,-0.61,1721228914037
6.28,-29.74,12.08,1.71,-0.26,-1.31,1721228914047
-25.27,24.55,-1.54,2.04,0.53,0.09,1721228914057
-0.44,21.82,5.69,-1.13,0.67,0.39,1721228914067
-9.88,-0.80,66.38,-1.21,2.66,-0.14,1721228914077
3.00,10.79,17.02,0.98,-0.57,0.42,1721228914087
-6.36,-32.36,-6.73,4.08,-1.00,-0.03,1721228914097
-17.05,54.89,-21.23,0.88,0.16,0.36,1721228914107
4.95,-10.74,-0.85,-2.27,0.45,0.06,1721228914117
11.59,-10.60,62.52,-2.09,2.41,-0.54,1721228914127
-1.16,-8.70,46.67,0.01,-1.93,-0.31,1721228914137
-6.04,11.48,-9.31,-0.89,1.74,-0.42,1721228914147
0.06,15.58,-5.60,2.05,-1.04,0.33,1721228914157
-13.01,-15.20,-27.62,4.37,-1.17,0.45,1721228914167
8.46,-17.69,-50.05,0.54,-0.78,-0.12,1721228914177
0.20,-31.25,-13.52,-4.37,1.76,-0.14,1721228914187
-9.05,57.07,78.45,-0.09,0.65,0.54,1721228914197
-66.78,13.92,1.05,-1.59,1.50,0.97,1721228914207
14.64,-60.36,18.50,4.37,-2.12,0.72,1721228914217
-20.29,27.73,-57.96,-2.73,-0.20,0.09,1721228914227
-4.63,-3.18,-12.37,-0.60,-3.71,0.98,1721228914237
74.00,44.34,15.19,-4.37,4.00,-0.58,1721228914247
8.09,35.47,0.55,-0.73,-0.94,-2.38,1721228914257
26.20,23.76,73.42,1.03,0.83,0.40,1721228914267
-13.76,9.47,-14.08,-1.64,1.36,1.01,1721228914277
13.85,-34.91,-7.30,2.12,0.42,-1.24,1721228914287
-6.19,-9.89,-48.39,2.17,-1.91,-0.78,1721228914297
-4.01,-32.75,-35.66,-3.04,-1.38,-0.73,1721228914307
-24.18,2.44,24.15,-4.37,-0.64,0.19,1721228914317
6.02,78.45,55.78,-1.38,-0.22,0.50,1721228914327
8.98,78.45,19.07,2.43,0.51,0.69,1721228914337
4.58,34.00,3.05,0.02,-0.47,0.30,1721228914347
16.15,-43.56,-31.56,1.36,-0.38,-1.75,1721228914357
0.32,-38.06,-40.27,4.37,0.37,-0.88,1721228914367
-36.45,78.15,-54.96,-1.10,-4.32,-0.29,1721228914377
11.33,-66.71,3.66,-0.56,1.40,1.26,1721228914387
-38.97,13.51,78.45,0.84,3.10,-0.66,1721228914397
10.67,30.76,38.34,0.51,-0.03,2.99,1721228914407
-9.65,45.10,-55.71,3.74,0.41,2.35,1721228914417
18.08,-20.52,-39.21,3.95,-0.36,0.53,1721228914427
-1.49,-78.45,-38.40,-1.88,1.14,0.87,1721228914437
3.14,-24.22,-18.52,-2.08,0.07,-1.16,1721228914447
-31.15,36.63,78.45,-2.61,-1.57,0.69,1721228914457
-2.55,-9.91,-21.39,-1.05,1.95,-1.96,1721228914467
0.98,-30.18,-2.44,4.37,-4.37,-1.77,1721228914477
-6.87,57.93,49.85,-1.78,0.82,-0.36,1721228914487
-4.39,20.98,10.20,0.58,-0.51,1.09,1721228914497
-9.54,-16.54,8.63,1.94,-0.76,1.61,1721228914507
-6.62,1.78,1.65,-0.72,-0.08,1.69,1721228914517
9.15,12.90,8.08,0.09,2.87,1.11,1721228914527
23.91,-32.19,-14.95,0.94,0.60,-0.66,1721228914537
0.87,-1.16,-12.70,0.07,-2.53,-1.36,1721228914547
15.81,-36.58,72.87,-2.58,1.35,-2.53,1721228914557
-24.81,23.91,54.44,-0.70,-0.12,-0.69,1721228914567
-19.28,-78.45,3.63,3.82,0.02,1.60,1721228914577
-3.90,4.46,-77.11,1.87,-0.53,2.21,1721228914587
6.48,23.29,-28.88,0.63,1.45,0.97,1721228914597
15.16,-4.91,-2.61,-0.90,0.52,1.09,1721228914607
27.63,-78.45,-63.32,-4.37,1.34,-1.06,1721228914617
8.23,-8.64,73.81,0.76,-0.26,-0.99,1721228914627
8.39,47.24,72.36,1.31,-3.87,-0.12,1721228914637
20.86,-6.73,21.05,4.37,1.23,0.35,1721228914647
28.98,78.45,-13.56,2.29,0.59,1.17,1721228914657
-8.33,-78.45,-37.59,0.69,0.24,-0.58,1721228914667
-6.53,-1.14,-37.05,-0.10,-0.65,-0.42,1721228914677
-6.06,5.58,-11.43,-1.94,0.32,0.30,1721228914687
0.55,-23.66,-1.46,-3.93,1.96,0.36,1721228914697
-10.81,32.96,74.37,0.05,-0.89,0.38,1721228914707
20.79,18.94,67.13,1.47,-0.83,0.37,1721228914717
17.14,-51.08,-22.25,1.71,0.17,-2.33,1721228914727
35.53,57.44,-26.78,-0.92,0.01,-1.40,1721228914737
3.02,-30.06,1.32,-4.37,1.56,-0.39,1721228914747
-3.54,10.69,36.38,1.89,0.18,-0.80,1721228914757
6.58,-8.86,21.35,3.34,-0.53,-0.83,1721228914767
-4.59,-1.78,-9.52,1.27,1.35,-0.58,1721228914777
-1.18,-17.29,-14.86,-1.96,-1.19,1.33,1721228914787
31.32,35.06,78.45,-1.25,1.50,0.38,1721228914797
6.15,-15.50,-64.35,0.52,0.99,0.32,1721228914807
32.81,-60.41,-12.72,4.37,-0.39,0.55,1721228914817
-9.11,-26.89,-65.88,-4.37,0.50,-2.06,1721228914827
14.51,19.82,24.04,-2.67,-1.86,-1.53,1721228914837
1.44,-2.10,74.61,-0.48,4.37,-2.67,1721228914847
-8.14,-15.49,33.84,2.53,-4.37,-0.26,1721228914857
-3.08,-4.01,3.43,-2.92,4.18,0.54,1721228914867
29.31,78.45,25.54,0.98,0.41,1.13,1721228914877
4.69,-25.78,1.17,3.31,-0.98,0.79,1721228914887
4.50,-36.24,20.60,1.73,1.48,0.96,1721228914897
24.85,18.32,-18.19,-0.50,-0.98,0.02,1721228914907
-18.81,21.09,-14.11,-3.04,1.02,0.29,1721228914917
14.14,-37.12,39.80,-1.98,2.65,-1.90,1721228914927
-18.20,41.00,65.65,-0.24,-2.95,-2.99,1721228914937
-3.64,9.03,8.35,2.01,0.15,-1.94,1721228914947
-20.97,-27.58,-10.30,0.79,1.92,1.42,1721228914957
-10.83,-26.91,-12.45,-0.26,-0.87,1.83,1721228914967
21.81,59.78,-1.65,-2.74,0.69,1.09,1721228914977
-4.53,0.62,29.02,0.36,0.19,1.35,1721228914987
9.33,-8.13,1.83,1.91,0.00,0.29,1721228914997
8.56,-8.87,-9.87,0.26,0.59,-0.32,1721228915007
0.86,0.89,6.39,-1.75,-0.07,-1.54,1721228915017
11.18,5.79,26.14,-1.30,0.04,-2.75,1721228915027
3.35,-20.27,35.51,2.03,-2.37,-1.12,1721228915037
-37.34,20.77,36.50,-1.09,2.03,0.46,1721228915047
-5.07,8.67,0.67,2.61,-0.53,1.66,1721228915057
-4.82,-47.80,-1.25,2.30,-0.42,1.07,1721228915067
18.90,22.86,-35.02,-1.38,-1.25,1.07,1721228915077
48.71,78.45,20.34,-2.17,4.37,0.11,1721228915087
2.24,-3.71,18.92,-1.18,-0.78,-0.78,1721228915097
19.29,-78.45,-0.15,4.37,-1.46,-0.99,1721228915107
56.03,78.45,-61.62,-0.35,-1.11,-0.22,1721228915117
-15.76,27.01,-39.21,3.32,-0.69,0.61,1721228915652
-9.14,16.78,-15.66,1.94,0.36,0.62,1721228915656
6.16,-13.24,-32.52,0.31,-0.19,0.08,1721228915666
-0.09,-25.64,-17.95,-4.37,0.94,0.24,1721228915676
-12.82,-57.54,78.45,-1.80,0.36,0.29,1721228915685
-10.78,24.33,72.68,-2.03,1.29,-0.29,1721228915695
-1.47,14.84,26.58,3.28,-1.93,-0.76,1721228915704
-24.69,2.37,-16.76,3.01,0.42,-0.07,1721228915714
-4.68,7.12,-27.79,2.51,-0.56,0.66,1721228915724
-5.90,42.24,-50.93,-1.23,0.02,1.45,1721228915734
8.20,-78.45,6.83,-4.37,2.11,-0.34,1721228915744
-17.71,-78.45,62.16,-3.57,-0.06,-0.49,1721228915754
-57.37,58.78,78.45,0.09,-2.40,0.53,1721228915764
7.31,65.88,23.19,2.86,1.71,0.07,1721228915774
-13.33,-21.61,-27.59,4.37,-1.00,2.00,1721228915784
10.94,-25.97,-78.45,3.56,-4.28,-0.36,1721228915794
-29.84,4.42,-62.73,-1.14,-4.37,0.99,1721228915804
78.45,-7.07,6.52,-4.37,4.37,-1.43,1721228915814
-29.02,-13.97,-78.45,-2.10,3.70,-1.49,1721228915824
45.83,69.84,1.16,2.10,-4.37,0.74,1721228915834
-2.80,2.34,47.85,-2.88,2.50,0.64,1721228915844
4.76,18.41,47.38,1.38,-0.99,0.33,1721228915854
12.71,-3.71,20.63,3.65,-0.30,0.79,1721228915864
4.17,23.16,-35.09,1.51,2.21,0.36,1721228915874
43.93,-78.45,-4.69,-4.37,0.02,-0.19,1721228915884
0.85,-78.45,78.45,-1.83,1.42,-2.16,1721228915894
78.45,60.44,76.58,4.37,2.04,-3.58,1721228915904
57.58,-78.45,-42.60,4.37,-0.43,-1.29,1721228915914
-78.45,47.78,-78.45,0.95,1.11,3.77,1721228915924
-3.06,-11.77,-66.37,1.95,-4.37,1.57,1721228915934
23.34,48.71,-47.66,-4.37,4.37,-0.04,1721228915944
-15.20,-42.53,-17.56,-4.37,0.79,-1.93,1721228915954
29.93,65.01,78.45,-2.02,1.05,-2.27,1721228915964
-50.47,31.34,78.45,0.58,-1.30,0.46,1721228915974
-65.26,-78.45,-78.45,4.37,-0.13,3.17,1721228915984
-9.68,-58.86,-78.45,3.19,0.73,1.43,1721228915994
-40.96,-36.73,-49.60,0.11,-1.18,1.34,1721228916004
76.83,26.62,-23.48,0.07,4.37,-0.56,1721228916014
5.98,-78.45,78.45,-1.42,-3.68,-2.09,1721228916024
-78.45,78.45,78.45,0.20,-4.37,0.59,1721228916034
28.49,-78.45,-3.53,4.37,3.45,-2.38,1721228916044
-24.39,-37.28,-78.45,4.37,0.98,0.97,1721228916054
4.63,-7.02,-78.45,0.26,0.91,0.05,1721228916064
4.13,-55.35,-43.34,0.15,4.37,0.48,1721228916074
-49.51,-78.45,78.45,-1.00,-4.37,2.26,1721228916084
31.63,78.45,78.45,-0.08,2.92,0.95,1721228916094
-25.46,-78.45,-78.45,4.37,1.14,0.12,1721228916104
9.27,-50.05,-69.62,4.37,-3.05,-1.33,1721228916114
-35.57,-19.91,-78.45,-0.14,0.99,-1.17,1721228916124
-22.07,-36.32,-30.49,-4.37,4.31,0.60,1721228916134
-0.56,-25.98,78.45,-0.37,-0.18,0.12,1721228916144
16.52,55.59,78.45,-0.56,3.09,-0.30,1721228916154
-32.63,-78.45,-23.49,2.68,-1.10,0.36,1721228916164
-33.31,27.11,21.30,3.03,-1.77,-0.03,1721228916174
-6.76,8.80,-7.80,-0.70,-0.16,0.02,1721228916184
-30.40,-78.45,1.68,-1.24,1.65,0.76,1721228916194
16.36,0.28,12.24,-1.28,-0.19,0.20,1721228916204
-1.76,19.03,15.82,-0.15,0.20,-0.02,1721228916214
0.26,-1.07,9.40,2.33,0.12,-0.37,1721228916224
-2.13,18.16,-21.83,0.95,0.13,-0.17,1721228916234
11.25,-78.45,-11.38,-4.37,0.78,-1.09,1721228916244
-18.45,-45.32,78.45,0.13,-0.74,-1.13,1721228916254
-2.45,78.45,78.45,0.28,1.37,1.52,1721228916264
-53.24,-78.45,-78.45,4.37,1.49,4.15,1721228916274
13.55,-12.35,-64.32,4.37,-3.75,1.59,1721228916284
-14.02,-17.90,42.09,0.28,-4.37,-0.53,1721228916294
37.94,55.39,-15.84,-4.37,4.37,-0.80,1721228916304
-53.32,78.45,46.13,2.93,-2.29,0.41,1721228916314
20.71,29.61,76.09,2.39,-3.52,-0.05,1721228916324
-33.33,-78.45,-30.05,0.65,3.36,0.12,1721228916334
29.27,49.52,-36.66,1.88,-1.26,-0.36,1721228916344
-12.17,-7.86,-44.03,1.92,-2.51,0.44,1721228916354
5.25,-13.36,1.65,-3.29,0.31,1.69,1721228916364
6.62,-59.41,78.45,-2.57,2.48,1.70,1721228916374
7.19,54.43,32.07,0.88,0.70,1.17,1721228916384
14.08,-5.08,2.68,2.33,-0.97,0.53,1721228916394
26.59,-54.78,-11.33,-4.37,1.45,-3.37,1721228916404
1.85,-4.01,29.77,-1.97,-3.16,-3.48,1721228916414
12.94,78.45,75.89,-0.28,-2.40,-1.85,1721228916424
1.68,-22.80,-14.59,4.37,3.28,-1.19,1721228916434
6.34,-20.09,-78.45,4.17,0.76,1.73,1721228916444
5.05,-1.74,-56.03,0.22,-2.06,1.42,1721228916454
-2.13,-24.56,1.28,-4.37,-0.12,0.29,1721228916464
-27.33,33.13,78.45,-4.20,1.01,0.90,1721228916474
16.75,42.47,58.28,-1.00,3.92,-0.46,1721228916484
-24.85,-58.16,4.88,1.53,-0.72,-0.45,1721228916494
6.06,-6.48,-36.80,4.37,-1.11,-1.44,1721228916504
-17.09,-28.18,-40.90,1.31,1.09,-0.96,1721228916514
-10.26,-11.93,-24.35,-1.87,-1.11,-0.17,1721228916524
-2.88,9.92,-3.76,-4.37,-0.55,0.44,1721228916534
-19.41,30.48,78.45,0.80,-0.85,2.30,1721228916544
4.92,5.94,78.45,0.33,1.07,1.13,1721228916554
-3.78,74.33,-25.45,1.56,0.40,1.62,1721228916564
11.82,-4.11,11.07,2.20,0.56,0.81,1721228916574
-10.51,-78.45,-9.57,3.45,1.46,-0.00,1721228916584
19.31,28.06,2.97,2.68,-4.13,-1.14,1721228916594
-43.38,-63.19,37.34,-1.48,-4.37,-0.41,1721228916604
23.60,-15.10,13.18,-4.37,0.97,-2.03,1721228916614
-24.93,62.35,44.86,0.14,1.36,-0.57,1721228916624
-5.44,-19.41,-9.47,4.37,1.91,1.58,1721228916634
4.91,-4.19,1.92,2.64,-1.05,2.16,1721228916644
-6.53,35.27,-24.22,-1.84,1.66,1.24,1721228916654
12.46,-25.74,14.78,-2.31,1.74,-0.06,1721228916664
24.19,56.07,9.39,0.06,-0.03,-0.07,1721228916674
9.50,2.69,-14.39,2.84,-0.22,-0.56,1721228916684
20.40,13.79,-25.49,2.60,-0.36,-1.15,1721228916694
0.10,7.30,-42.22,-0.01,-0.04,-0.90,1721228916704
-16.48,-78.45,-35.65,-4.37,2.38,-0.64,1721228916714
-30.15,-27.89,78.45,1.80,-2.80,-2.72,1721228916724
-6.92,22.69,78.45,0.32,2.91,1.04,1721228916734
-28.10,2.64,-22.81,4.37,1.56,3.92,1721228916744
11.30,-24.09,-78.45,4.37,-4.37,1.32,1721228916754
-39.28,-29.28,-36.28,-0.11,0.85,0.35,1721228916764
-1.67,-27.42,-35.67,-4.37,4.37,-1.32,1721228916774
23.99,-41.20,-53.89,-4.37,-3.75,-2.40,1721228916784
-78.45,78.45,78.45,-0.46,-1.94,-0.56,1721228916794
-52.34,65.38,42.55,4.37,0.86,3.80,1721228916804
-77.63,11.79,-63.04,4.37,-0.03,4.37,1721228916814
-61.94,-7.79,-38.35,-0.85,-4.37,1.20,1721228916824
69.49,-78.45,-78.45,-4.37,4.37,-0.85,1721228916834
-12.82,-55.03,-18.95,-3.01,3.99,-2.31,1721228916844
-58.39,78.45,78.45,0.69,-4.37,-3.50,1721228916854
1.87,-6.85,35.11,0.13,4.37,-1.18,1721228916864
-20.55,-6.05,-32.60,0.57,-4.37,0.23,1721228916874
-48.20,-27.05,-63.46,-0.69,-4.37,1.51,1721228916884
75.58,-20.95,-8.41,-2.31,4.37,1.70,1721228916894
-28.29,-2.83,12.64,-0.44,-2.20,0.82,1721228916904
12.66,-23.63,78.45,-0.09,-1.01,0.25,1721228916914
-24.02,62.68,78.45,0.00,-1.34,0.01,1721228916924
15.93,-78.45,11.73,-0.08,3.12,-0.92,1721228916934
18.68,22.45,-73.75,4.37,-2.62,1.16,1721228916944
32.96,-33.22,-17.14,-1.57,3.86,1.78,1721228916954
40.49,-7.88,-52.73,-1.15,1.57,-0.44,1721228916964
26.42,-1.03,-18.86,-1.66,-0.60,-0.97,1721228916974
3.49,-0.01,1.13,-3.87,1.49,-2.97,1721228916984
28.02,-22.80,78.45,-0.11,1.09,-3.94,1721228916994
-60.52,45.21,67.77,0.65,-1.18,-2.57,1721228917004
-38.10,-68.15,-7.08,3.30,1.95,-0.56,1721228917014
-29.21,-39.85,-18.65,-0.36,-1.08,0.59,1721228917024
-48.63,36.87,-0.49,-3.67,0.68,3.56,1721228917034
21.70,-4.72,56.75,-0.22,1.19,3.34,1721228917044
11.18,21.56,42.24,1.05,-1.64,2.39,1721228917054
41.35,-27.60,-14.86,3.34,-0.35,0.85,1721228917064
-2.78,-47.49,-33.24,2.10,1.31,-1.17,1721228917074
6.14,-2.43,-17.98,-0.57,-1.54,-2.28,1721228917084
-0.78,-3.05,-2.65,-4.37,0.95,-1.99,1721228917094
30.83,57.77,78.45,0.92,2.28,-2.63,1721228917104
-32.63,-1.72,25.27,-0.11,-3.17,-1.41,1721228917114
0.56,6.20,0.49,4.37,1.25,-1.69,1721228917124
-40.15,-58.71,-31.66,-1.38,1.61,1.60,1721228917134
-19.10,-51.27,-5.20,1.90,-1.53,1.44,1721228917144
37.92,78.45,-0.94,-3.35,0.26,1.51,1721228917154
-17.25,-5.16,46.99,-0.66,-0.00,-0.06,1721228917164
16.86,-10.82,37.26,2.31,-1.89,-0.62,1721228917174
-8.54,-22.19,9.65,1.51,-0.48,0.01,1721228917184
-13.44,10.58,-14.22,3.02,-0.50,-0.38,1721228917194
-4.24,-0.96,-19.46,1.59,-0.00,-0.41,1721228917204
-8.02,21.01,-28.10,-0.58,-0.28,0.14,1721228917214
-6.91,-1.52,-9.50,-4.37,0.76,-0.01,1721228917224
-1.32,-20.23,60.96,-0.49,1.46,1.13,1721228917234
2.22,15.42,41.96,0.35,0.72,0.56,1721228917244
-18.85,-42.69,15.99,0.73,-0.66,-0.10,1721228917254
-4.39,0.26,20.62,0.30,0.86,-0.58,1721228917264
-5.49,48.57,9.10,1.73,-0.65,0.71,1721228917274
-8.18,-39.38,-14.30,3.26,-0.72,1.35,1721228917284
6.56,-14.93,-7.02,-2.47,0.08,1.37,1721228917294
0.81,5.18,65.58,-1.00,2.80,0.48,1721228917304
17.95,78.45,4.66,0.57,-1.91,0.25,1721228917314
42.17,-78.45,-14.52,-0.27,1.81,-0.56,1721228917324
-7.34,-30.59,-7.43,-1.15,-2.23,-0.86,1721228917334
3.87,17.50,-12.25,-3.51,-1.26,-0.29,1721228917344
-17.18,65.23,5.78,0.00,0.26,-0.38,1721228917354
-34.33,-78.45,-11.30,-0.19,-0.47,1.37,1721228917364
-16.51,-53.11,17.56,-4.31,-1.80,0.66,1721228917374
78.45,78.45,78.45,2.55,-0.42,-0.43,1721228917384
1.28,14.55,28.68,1.56,0.61,-0.54,1721228917394
-8.58,78.45,-21.62,4.37,-0.99,0.67,1721228917404
2.95,-57.95,-67.80,4.37,-3.38,-0.43,1721228917414
-29.04,-4.93,-49.39,-1.05,-4.37,1.03,1721228917424
46.01,-9.92,-4.31,-4.37,4.37,0.85,1721228917434
-12.25,-5.10,-13.30,-4.37,-1.94,0.22,1721228917444
-36.51,16.08,78.45,-0.08,2.71,-0.24,1721228917454
-22.90,38.64,26.46,3.50,-1.04,0.08,1721228917464
-7.98,-19.35,-14.20,0.87,0.52,1.47,1721228917474
0.89,-9.76,-24.98,-0.95,-2.35,0.73,1721228917484
1.30,1.02,14.35,-4.37,-0.93,-0.52,1721228917494
24.84,78.45,78.45,1.20,1.86,-2.62,1721228917504
9.46,-7.21,11.49,2.77,-1.90,-0.63,1721228917514
-6.13,-26.73,-25.16,4.37,3.04,-0.78,1721228917524
3.21,-16.67,-43.61,2.88,-1.16,0.66,1721228917534
-0.48,5.01,-46.29,-4.37,2.57,0.77,1721228917544
17.09,-27.56,39.82,-4.37,4.37,1.52,1721228917554
1.59,78.45,61.04,4.37,-4.37,-1.24,1721228917564
40.94,-22.27,-39.17,2.70,1.72,-2.16,1721228917574
3.19,-60.30,-78.45,4.37,0.95,2.08,1721228917584
27.85,4.47,-35.05,1.72,-4.37,-0.75,1721228917594
-0.11,34.56,-10.16,-0.67,-4.26,-0.88,1721228917604
6.09,-19.33,-10.03,-4.37,4.37,-0.52,1721228917614
5.06,-33.12,78.45,1.52,-0.89,-0.81,1721228917624
13.72,-28.30,78.45,-0.18,-2.77,2.00,1721228917634
-17.96,-78.45,-57.96,2.88,0.10,-0.18,1721228917644
5.21,16.89,-23.48,-1.20,-1.55,-0.27,1721228917659
7.81,23.00,-12.09,-1.32,-0.12,-0.42,1721228917663
8.43,54.96,-3.15,-2.17,-0.35,0.91,1721228917673
2.76,-6.86,-5.50,-0.97,1.05,0.95,1721228917683
-0.28,-77.44,8.18,-2.39,0.40,-0.79,1721228917693
1.02,-22.81,78.45,-1.27,-1.18,-1.91,1721228917703
-43.20,48.60,78.45,0.13,0.84,-0.11,1721228917713
0.20,-38.87,-62.20,4.37,1.47,-1.48,1721228917723
-11.05,31.44,-78.45,2.26,-1.77,-1.90,1721228917733
-6.92,9.78,-28.34,-3.52,2.09,-0.27,1721228917743
-4.84,-14.90,-0.11,-4.37,0.26,-0.17,1721228917753
-44.62,49.69,40.32,-0.72,2.27,1.84,1721228917763
14.47,-78.07,44.64,0.67,-1.78,-1.74,1721228917773
-9.23,25.20,-3.77,-1.70,1.07,-1.41,1721228917783
-15.18,49.53,19.31,0.17,-1.25,-0.42,1721228917793
-0.46,-1.54,-11.52,1.74,-0.88,0.54,1721228917803
4.98,-15.87,-17.87,-0.44,2.31,0.50,1721228917813
4.59,-15.71,-1.75,-2.31,-0.14,-0.30,1721228917823
14.12,9.70,21.50,-0.90,2.23,-1.39,1721228917833
-32.25,20.49,25.49,-1.66,-2.59,-2.15,1721228917843
2.85,-20.25,4.28,2.31,-1.47,-3.07,1721228917853
-23.34,-24.38,6.53,-0.98,1.08,0.95,1721228917863
-14.16,7.32,-8.12,2.77,0.08,0.39,1721228917873
-11.92,-46.69,-19.08,-1.60,-0.03,0.67,1721228917883
16.62,-11.67,64.65,-3.93,2.27,0.83,1721228917893
47.17,78.45,78.45,0.35,-0.06,0.58,1721228917903
32.97,-78.45,-18.40,1.79,0.58,-1.55,1721228917913
29.89,-14.58,-78.45,4.37,-1.68,-1.02,1721228917923
17.42,-26.17,-51.89,-0.14,0.97,-0.77,1721228917933
2.95,-4.49,-43.73,-0.08,-0.36,-2.21,1721228917943
-7.63,-15.92,-11.15,-4.37,4.37,-2.21,1721228917953
-16.50,-17.84,75.15,-4.37,3.26,-2.15,1721228917963
-53.36,46.30,-78.45,-4.37,-3.32,-1.74,1721228917973
0.15,-3.79,-33.72,3.36,-1.24,-0.45,1721228917983
-7.63,-36.40,-57.42,4.37,2.02,2.21,1721228917993
75.85,78.45,-78.45,4.37,-4.37,3.32,1721228918003
38.47,-39.44,-74.06,-2.45,4.37,0.42,1721228918013
-20.56,-5.19,-78.45,-0.12,2.91,-3.65,1721228918023
59.13,46.27,78.45,-0.10,0.08,-3.09,1721228918033
3.63,-1.92,14.65,3.96,-2.90,-1.56,1721228918043
-19.41,-22.44,-39.33,-0.63,2.63,-0.99,1721228918053
-13.88,28.32,-22.22,0.68,-0.99,0.30,1721228918063
-20.56,49.91,-11.31,-2.28,-0.20,-0.51,1721228918073
-9.45,-1.34,61.05,0.75,1.19,0.46,1721228918083
13.73,-30.61,62.82,-0.85,-1.10,0.92,1721228918093
-5.39,-35.15,37.46,-1.73,2.08,1.54,1721228918103
7.98,37.13,59.98,-1.25,1.95,2.76,1721228918113
9.09,-4.07,21.21,2.85,0.27,1.09,1721228918123
0.55,20.95,-10.29,1.89,-0.03,0.51,1721228918133
7.58,37.31,-6.53,0.42,0.18,0.43,1721228918143
7.85,-2.16,-8.91,1.13,0.12,-0.80,1721228918153
10.12,-49.89,28.72,-0.42,1.35,-1.29,1721228918163
-6.00,14.26,-0.65,-2.34,-0.72,-0.43,1721228918173
23.60,43.29,53.25,-0.08,2.51,-1.62,1721228918183
-13.80,-69.59,78.45,1.36,0.68,-0.61,1721228918193
-17.08,12.68,35.38,0.06,-1.56,-1.14,1721228918203
-64.67,50.84,16.28,4.37,0.99,2.96,1721228918213
-2.81,10.66,-17.60,1.96,-0.84,2.75,1721228918223
11.86,-18.10,-26.25,0.08,1.39,1.68,1721228918233
17.11,-19.54,-7.73,-2.65,0.67,0.41,1721228918243
7.14,20.04,62.83,-3.30,1.19,-1.13,1721228918253
-18.17,35.23,-34.47,-3.07,-1.09,-2.65,1721228918263
12.05,-61.18,37.34,1.68,-2.46,-2.11,1721228918273
-17.34,-2.14,-44.56,-4.37,1.01,-1.23,1721228918283
-17.56,18.57,28.99,1.69,-1.47,0.83,1721228918293
-7.05,-13.55,-6.22,1.00,0.87,-0.34,1721228918303
2.10,45.18,-6.41,1.22,-0.22,0.82,1721228918313
0.92,18.64,-14.25,0.73,0.27,1.54,1721228918323
3.36,-8.45,-15.43,-0.20,0.07,1.59,1721228918333
16.76,-34.59,-13.78,-3.59,2.53,0.43,1721228918343
19.41,21.78,36.10,0.00,0.28,-0.78,1721228918353
-32.01,29.93,0.13,-1.58,-3.15,-1.14,1721228918363
37.27,-44.77,60.84,0.13,1.94,-1.02,1721228918373
-1.85,3.76,-0.53,-1.44,1.14,-0.05,1721228918383
3.42,-11.04,-1.31,0.81,-0.02,-0.56,1721228918393
-2.77,-5.02,50.02,0.40,-1.23,-1.09,1721228918403
-15.55,20.24,21.25,-0.41,-0.29,-0.56,1721228918413
-28.98,-46.02,-11.27,3.65,0.65,1.59,1721228918423
-23.66,-44.29,-26.13,0.38,0.23,1.30,1721228918433
-2.85,16.31,-11.65,-1.03,-0.03,1.76,1721228918443
9.49,9.77,2.72,-4.37,1.17,0.36,1721228918453
-6.45,61.56,78.45,-1.25,-1.82,0.07,1721228918463
4.70,-8.45,11.57,1.68,-1.07,-1.14,1721228918473
1.12,-33.49,-6.31,4.37,0.45,0.05,1721228918483
-7.95,-4.16,-59.41,2.72,-1.20,0.98,1721228918493
-5.63,-42.69,-17.63,-0.86,1.53,-0.35,1721228918503
-6.16,1.08,-8.45,-3.82,-0.65,0.17,1721228918513
31.84,44.51,78.45,-0.12,2.02,-0.27,1721228918523
2.95,14.61,61.93,1.06,-2.69,1.34,1721228918533
16.16,-31.42,-6.48,3.88,1.79,-0.26,1721228918543
-44.09,-73.60,-16.46,1.35,0.17,-0.16,1721228918553
-4.20,-0.58,-33.78,1.15,-1.61,-0.39,1721228918563
-10.28,-19.99,-19.53,-0.62,0.44,0.95,1721228918573
-5.37,1.56,-5.99,-3.71,-0.20,1.27,1721228918583
49.16,78.45,78.45,0.62,0.87,0.91,1721228918593
3.37,1.83,26.89,0.56,-0.61,0.92,1721228918603
-14.50,-44.45,10.90,3.75,-0.93,0.16,1721228918613
-0.99,-8.80,-9.24,-1.80,-0.66,-0.65,1721228918623
1.20,3.99,2.48,-1.32,-0.88,-0.27,1721228918633
0.51,50.48,19.32,-0.10,-0.03,0.03,1721228918643
-8.78,7.36,18.40,-0.81,0.11,-0.31,1721228918653
-7.44,-32.00,2.55,2.57,0.39,0.71,1721228918663
-7.51,-47.91,-15.37,-0.27,-1.60,-0.13,1721228918673
1.30,-5.61,35.88,-4.34,0.29,0.17,1721228918683
-75.45,68.38,19.97,1.18,-0.65,0.05,1721228918693
-7.14,13.83,22.79,2.08,0.07,0.32,1721228918703
-2.35,-7.89,-18.57,3.49,-0.62,1.06,1721228918713
0.97,-43.09,-31.74,1.44,0.81,0.22,1721228918723
-1.26,-38.16,-54.87,2.16,-0.13,-0.11,1721228918733
16.64,-21.88,-31.52,-3.83,-0.18,-0.93,1721228918743
-0.02,21.25,52.65,-4.37,1.83,-1.12,1721228918753
-78.45,78.45,-12.15,-1.70,-1.80,-1.79,1721228918763
1.81,11.50,36.49,4.10,1.66,-0.78,1721228918773
-4.23,-20.74,-70.59,3.79,3.54,0.68,1721228918783
19.67,-35.43,-63.61,3.71,-2.97,0.13,1721228918793
-2.60,-3.21,-56.48,-4.37,3.57,0.46,1721228918803
34.51,6.20,36.12,-4.37,4.37,-0.38,1721228918813
-46.68,21.04,54.36,-0.64,1.27,-1.17,1721228918823
-9.58,-9.73,32.93,1.65,-2.66,-2.38,1721228918833
1.41,-30.59,38.56,1.82,3.82,-1.21,1721228918843
0.28,-12.08,-27.60,-0.87,0.50,0.22,1721228918853
-14.37,12.21,-5.63,-0.26,-0.63,1.07,1721228918863
19.82,4.28,71.24,-0.43,-0.24,0.78,1721228918873
-6.23,9.74,25.06,-0.60,-0.02,1.22,1721228918883
16.76,-78.45,-18.98,3.63,-0.63,0.08,1721228918893
-24.58,21.77,-78.45,2.48,-1.89,0.75,1721228918903
10.67,-21.71,-11.54,-2.42,0.80,-0.59,1721228918913
-34.00,-78.45,69.59,-4.37,0.56,-1.00,1721228918923
36.18,78.45,78.45,1.35,-0.32,-1.95,1721228918933
4.00,11.26,44.39,4.23,1.65,0.09,1721228918943
2.96,8.81,-29.14,4.37,-2.04,-0.46,1721228918953
7.80,-63.88,-46.88,-0.49,3.47,1.27,1721228918963
37.86,-52.50,-47.70,-0.27,0.88,0.41,1721228918973
0.12,-18.57,-4.63,-4.37,3.45,-0.21,1721228918983
65.14,78.45,78.45,-0.42,1.86,-1.59,1721228918993
0.24,6.10,39.45,2.58,-2.99,0.03,1721228919003
2.52,-12.82,-43.72,3.33,3.06,-0.50,1721228919013
24.73,37.55,-7.30,0.25,-3.09,-0.09,1721228919023
-31.29,-13.48,11.22,-4.37,-2.93,0.22,1721228919033
61.73,-78.45,78.45,-4.37,4.37,-0.07,1721228919043
-20.57,78.45,17.70,-0.34,-1.13,0.42,1721228919053
-3.64,-38.14,-21.69,4.37,-0.46,2.03,1721228919063
1.93,-15.49,-73.94,3.24,-2.88,-0.10,1721228919073
2.16,8.88,-2.40,-0.95,-1.73,-1.20,1721228919083
20.70,3.90,5.39,-3.97,3.51,-1.24,1721228919093
-16.22,-15.39,12.50,-4.37,0.05,-1.67,1721228919103
-8.32,-0.93,0.63,-3.76,1.20,0.20,1721228919113
11.55,28.37,19.68,3.87,-3.08,1.11,1721228919123
-1.81,-3.11,-16.82,3.33,-1.26,-0.60,1721228919133
-0.47,21.25,-27.02,1.15,0.52,-0.34,1721228919143
-5.90,-16.89,-26.41,1.49,-0.32,-0.12,1721228919153
-10.59,-21.54,-20.62,-1.15,0.06,-0.52,1721228919163
-2.32,1.65,-1.16,-4.37,-0.59,-0.43,1721228919173
-2.29,11.60,41.21,-0.54,2.41,0.22,1721228919183
6.83,-69.63,32.60,1.11,-1.65,-0.18,1721228919193
1.38,3.13,32.89,0.78,-0.12,0.09,1721228919203
19.81,47.78,-0.00,1.47,-0.14,-0.09,1721228919213
-2.60,10.93,-22.07,2.01,-0.70,0.28,1721228919223
6.44,-37.91,-24.76,1.68,-0.67,-0.33,1721228919233
-7.59,-16.79,3.40,-4.03,-0.17,-0.38,1721228919243
22.37,-6.99,78.45,-0.97,1.18,-1.21,1721228919253
-14.94,-2.10,32.50,-0.90,-3.21,0.43,1721228919263
3.32,-4.53,-3.04,4.37,-3.06,-0.85,1721228919273
3.36,6.48,-13.39,1.24,-0.25,1.34,1721228919283
9.04,-15.80,-20.21,2.60,-0.37,0.61,1721228919293
14.87,-33.41,-23.88,-4.37,0.47,-0.58,1721228919303
-4.00,14.66,39.86,-4.37,-0.07,-1.04,1721228919313
-78.45,78.45,44.12,-2.19,-0.15,-1.88,1721228919323
13.11,-25.69,30.43,4.37,-2.85,-1.57,1721228919333
-2.58,4.27,-8.84,1.43,2.94,1.12,1721228919343
12.95,-43.79,-32.05,1.78,-0.75,0.15,1721228919353
-6.37,-21.98,-28.99,-0.70,-2.85,-0.01,1721228919363
-4.51,16.72,0.59,-4.37,-0.25,0.00,1721228919373
-4.23,20.85,30.91,-2.99,4.37,-1.86,1721228919383
12.76,0.71,38.94,3.72,-3.64,-1.12,1721228919393
-16.95,-39.34,-65.41,1.15,3.58,-0.62,1721228919403
-16.30,39.97,-45.77,1.17,-1.39,-0.01,1721228919413
-1.09,1.77,-26.31,2.46,-1.08,0.78,1721228919423
1.53,-29.54,-26.19,-2.24,0.31,-0.09,1721228919433
-1.17,-11.44,50.24,-4.37,1.26,-0.10,1721228919443
30.03,72.41,78.45,1.68,0.78,-0.23,1721228919453
8.18,-28.56,40.05,2.06,-0.40,-0.92,1721228919463
4.72,4.96,17.25,0.51,1.16,-1.53,1721228919473
12.57,19.57,2.59,-0.72,-0.48,-0.57,1721228919483
-4.50,-16.14,-16.24,-0.71,-0.49,-1.37,1721228919493
-12.37,-13.49,-4.75,-1.81,0.81,-0.68,1721228919503
-4.27,-7.05,31.12,0.22,0.57,0.06,1721228919513
0.60,-8.55,-5.37,1.50,-0.29,-0.84,1721228919523
1.01,6.50,1.48,-0.00,-0.45,1.27,1721228919533
12.82,21.78,43.18,-0.83,3.39,0.12,1721228919543
0.45,16.96,39.19,-1.21,-1.38,0.25,1721228919553
-4.67,-66.62,27.87,3.49,-1.75,-0.40,1721228919563
-41.82,71.92,-8.82,-0.80,1.67,0.81,1721228919573
17.65,8.66,-9.87,1.30,-0.44,-1.01,1721228919583
-8.88,24.45,-8.07,-2.17,-2.16,-0.65,1721228919593
25.36,-14.23,78.45,-0.66,3.73,-0.72,1721228919603
0.57,37.74,45.78,1.45,-2.46,0.45,1721228919613
-11.33,-34.41,-34.01,4.37,-0.87,0.28,1721228919623
-17.31,4.20,-37.47,1.48,-1.19,0.92,1721228919633
-4.03,-30.56,-19.89,-1.95,1.36,0.82,1721228919643
-0.27,-0.64,0.02,-4.37,-0.71,1.44,1721228919653
-26.60,15.18,52.62,0.65,-1.52,-0.20,1721228919668
9.44,14.94,46.50,2.49,-1.81,-0.26,1721228919672
1.05,27.76,-11.86,3.28,-0.74,0.07,1721228919682
-9.03,18.12,-28.06,0.85,0.59,0.44,1721228919692
-14.48,-78.45,-22.34,-4.37,2.69,0.43,1721228919702
20.66,-7.36,42.35,-2.54,-0.29,0.36,1721228919712
-47.30,30.33,-14.82,1.23,0.67,-0.38,1721228919722
5.91,-44.46,-24.00,4.37,0.19,-1.34,1721228919732
-20.32,4.74,-78.45,2.63,-3.05,-0.32,1721228919742
-3.20,3.85,-33.49,-2.19,-0.02,-0.49,1721228919752
37.80,-53.07,-16.96,-1.86,4.37,-0.12,1721228919762
10.91,78.45,-63.41,-0.48,1.87,-4.37,1721228919772
1.10,-28.67,-58.93,4.30,2.65,-0.86,1721228919782
-15.92,-10.45,-78.45,4.37,1.59,0.55,1721228919792
-4.56,-19.01,-78.45,4.37,-4.37,0.84,1721228919802
21.37,11.08,-49.05,-0.30,2.93,0.85,1721228919812
-18.98,-7.90,-23.39,-4.37,3.63,0.05,1721228919822
11.42,45.77,78.45,0.03,2.92,-0.75,1721228919832
-18.54,10.82,78.45,2.42,-1.59,-0.05,1721228919842
-78.45,-78.45,7.10,1.81,2.52,0.94,1721228919852
-2.01,50.77,-65.35,4.37,-2.65,0.46,1721228919862
-33.55,1.89,-50.82,-0.21,-2.01,3.14,1721228919872
78.45,-16.66,-15.60,-4.37,4.37,0.81,1721228919882
-1.57,-28.66,78.45,-4.37,-2.24,-0.14,1721228919892
-5.59,73.82,78.45,-0.76,-3.53,0.43,1721228919902
31.88,-78.45,2.85,4.37,1.26,-1.62,1721228919912
-28.71,24.27,-29.95,4.20,-3.11,1.27,1721228919922
-7.12,31.29,-49.12,-0.35,-2.05,0.43,1721228919932
25.60,30.58,3.76,-2.27,2.39,0.79,1721228919942
2.47,-29.65,3.10,-3.98,-0.29,0.56,1721228919952
17.58,-37.44,78.45,-3.80,2.76,-0.56,1721228919962
-22.76,-6.21,-23.12,-1.01,-3.60,-1.49,1721228919972
16.26,-16.02,25.83,4.37,2.05,-0.17,1721228919982
-15.54,10.80,0.21,1.51,0.48,2.40,1721228919992
4.43,-8.70,-21.99,2.15,-0.84,2.65,1721228920002
9.09,-36.62,-16.67,-2.08,0.66,1.99,1721228920012
6.91,3.99,5.83,-4.37,0.68,0.66,1721228920022
8.06,78.45,25.53,-1.12,-0.01,-0.94,1721228920032
27.27,-53.85,8.83,2.39,-1.47,-1.33,1721228920042
-1.49,5.11,-6.28,3.22,-1.64,-1.22,1721228920052
-7.69,-8.22,-19.19,-0.45,-1.93,-0.69,1721228920062
-17.00,21.46,-6.24,-4.32,-0.60,0.97,1721228920072
-1.87,6.57,78.45,-1.55,1.42,0.34,1721228920082
-1.26,6.39,38.16,0.83,-1.03,2.05,1721228920092
29.38,-32.87,66.97,4.14,-0.85,2.68,1721228920102
4.30,-21.34,-50.35,3.06,-0.86,1.72,1721228920112
25.09,14.03,-66.89,-2.58,1.94,0.49,1721228920122
-19.58,5.17,-18.29,-4.37,0.53,1.41,1721228920132
14.71,-66.70,49.45,-2.42,1.85,-1.50,1721228920142
-29.60,29.94,78.45,-3.81,-0.84,-1.91,1721228920152
8.75,18.90,36.42,4.18,-3.00,-1.54,1721228920162
-15.44,-35.15,-8.60,0.16,1.21,0.13,1721228920172
-15.55,12.89,-10.22,1.86,-1.31,-0.20,1721228920182
-21.77,8.13,-19.37,1.71,-1.83,0.42,1721228920192
1.54,28.36,-3.34,-0.78,-0.05,0.83,1721228920202
0.02,5.78,-1.71,-3.04,0.34,1.51,1721228920212
8.39,-45.66,73.48,0.25,1.29,1.00,1721228920222
8.79,9.12,49.54,0.82,-1.11,0.16,1721228920232
-0.94,0.70,-12.06,3.54,-2.13,-0.45,1721228920242
3.61,-11.70,-21.98,0.86,-0.16,-1.00,1721228920252
10.15,10.84,-10.66,-1.85,-0.99,-1.13,1721228920262
12.56,28.55,-2.68,-3.86,1.41,0.40,1721228920272
-7.40,-78.45,24.45,-2.21,2.13,0.05,1721228920282
5.33,-24.35,44.75,1.58,-2.74,-2.15,1721228920292
2.59,20.44,2.90,1.73,-0.97,-2.50,1721228920302
-69.77,-78.45,-31.91,4.37,-0.50,1.50,1721228920312
-31.90,6.55,-48.95,-2.28,-0.24,0.14,1721228920322
19.63,54.69,-1.72,-3.60,2.03,-0.01,1721228920332
4.08,-6.94,12.99,0.00,1.07,1.79,1721228920342
-4.93,-78.45,-28.06,1.78,0.08,0.22,1721228920352
6.54,0.63,-5.79,0.43,-0.38,0.48,1721228920362
26.97,52.10,22.81,0.45,-0.17,-1.93,1721228920372
-6.41,38.08,25.12,-0.46,-1.37,-1.37,1721228920382
2.60,-20.88,18.68,-1.37,-1.45,-2.74,1721228920392
-3.33,-15.64,-3.99,1.97,1.65,-0.98,1721228920402
-20.93,4.38,-48.92,2.99,-0.76,-0.34,1721228920412
-18.30,-48.26,-13.26,-3.02,1.81,-0.84,1721228920422
-20.55,-73.77,78.45,-0.72,0.18,-0.81,1721228920432
-45.77,23.15,78.45,-0.36,0.88,0.77,1721228920442
-9.36,-4.75,-23.18,2.42,0.80,1.25,1721228920452
20.77,15.08,-40.15,1.48,-0.53,-0.23,1721228920462
11.97,-4.17,-30.89,0.19,0.71,-0.10,1721228920472
6.92,-26.54,-30.30,-1.01,-0.42,-1.73,1721228920482
15.81,-50.42,-28.69,-4.37,0.12,-3.56,1721228920492
75.93,78.45,78.45,1.83,3.33,-2.01,1721228920502
3.93,36.60,57.40,3.38,-3.48,-0.29,1721228920512
-32.98,26.14,-11.17,1.65,1.69,1.94,1721228920522
21.86,-78.45,13.24,0.62,-0.86,1.90,1721228920532
5.36,1.68,-24.38,-3.83,0.17,0.11,1721228920542
2.29,-11.19,33.11,-3.24,3.28,-1.58,1721228920552
10.25,18.18,19.65,0.13,1.81,-1.75,1721228920562
-14.06,-23.42,4.08,3.01,-3.38,-0.13,1721228920572
-33.88,26.01,-53.43,0.42,1.05,0.89,1721228920582
-4.98,-6.18,43.13,-2.94,2.19,1.29,1721228920592
7.34,-12.61,28.41,1.42,-0.62,1.01,1721228920602
1.20,-23.24,-3.04,2.00,-1.05,0.11,1721228920612
18.13,29.84,-34.84,2.97,0.10,-0.28,1721228920622
-13.63,-66.37,-28.15,3.41,0.95,0.02,1721228920632
-2.31,-6.23,-39.12,-0.66,-1.94,-1.63,1721228920642
-5.60,14.37,1.53,-4.37,-0.69,0.02,1721228920652
-33.89,78.45,78.45,0.01,2.83,-1.14,1721228920662
2.35,5.60,36.44,2.78,-2.54,-0.50,1721228920672
-15.33,-66.46,-17.79,4.37,2.31,-0.76,1721228920682
10.60,30.43,-78.45,2.08,-1.65,1.24,1721228920692
1.96,-9.00,-55.45,-0.84,3.02,0.80,1721228920702
12.65,-5.46,-9.67,-3.76,-0.36,1.58,1721228920712
2.52,0.74,21.89,-4.37,3.29,0.17,1721228920722
4.44,78.45,61.59,-2.30,-3.61,-2.98,1721228920732
31.07,39.26,36.90,1.27,0.51,-0.27,1721228920742
-1.01,-41.35,-7.74,3.41,-0.04,0.84,1721228920752
-4.63,-9.48,-70.65,4.04,-1.24,0.45,1721228920762
4.54,5.66,-75.19,2.95,0.01,0.28,1721228920772
29.29,-26.92,-60.84,-0.46,-2.49,0.01,1721228920782
6.85,10.61,-1.76,-4.37,4.37,-0.15,1721228920792
-78.45,78.45,78.45,-0.05,-2.34,-1.07,1721228920802
-2.77,-11.09,-52.41,3.50,-1.09,-0.44,1721228920812
-36.40,-0.86,-78.45,4.37,-0.66,1.43,1721228920822
1.32,-36.01,-78.45,0.39,-2.28,0.34,1721228920832
40.72,3.05,-51.17,-0.83,4.37,-1.67,1721228920842
-3.81,-51.40,13.41,-4.37,3.40,-2.96,1721228920852
69.50,57.72,78.45,-1.46,3.49,-3.24,1721228920862
11.12,-43.33,78.45,2.06,-3.24,-0.42,1721228920872
0.81,4.08,-34.24,0.34,3.61,-1.00,1721228920882
-5.74,-12.04,6.33,-0.75,-2.42,-0.23,1721228920892
0.61,8.21,9.31,-0.25,1.32,0.23,1721228920902
18.57,52.52,24.60,1.10,0.47,-0.08,1721228920912
-5.79,19.20,-4.70,1.99,-1.46,0.03,1721228920922
-12.67,-58.58,-1.43,0.83,0.91,-0.97,1721228920932
-10.43,-16.03,-12.90,-1.79,-0.82,-0.30,1721228920942
4.78,15.04,21.82,-1.74,0.50,-0.02,1721228920952
-8.33,2.84,6.90,-1.37,-0.34,-0.40,1721228920962
6.82,-0.23,15.87,-0.21,1.20,0.34,1721228920972
31.40,78.45,16.80,1.43,0.09,0.14,1721228920982
6.45,11.95,-25.69,2.21,-2.43,0.14,1721228920992
8.43,-22.32,-18.29,0.47,0.13,-1.11,1721228921002
2.72,-16.86,1.16,-4.33,-0.89,-1.21,1721228921012
48.25,78.45,42.63,1.75,0.86,-1.99,1721228921022
-7.82,-7.81,8.80,3.58,-3.93,-0.77,1721228921032
-3.71,-11.36,-39.10,-0.68,3.68,-0.34,1721228921042
3.24,-39.21,38.78,-4.16,-0.80,-0.07,1721228921052
-19.36,52.36,59.20,-0.33,2.93,0.90,1721228921062
-3.93,0.82,25.57,-0.90,-2.83,1.23,1721228921072
10.30,-35.44,-6.45,4.37,-2.14,-0.05,1721228921082
-16.74,22.63,-0.89,-0.36,1.25,0.26,1721228921092
6.93,27.14,-12.06,-1.15,0.44,-0.75,1721228921102
-5.80,6.21,36.67,-2.36,0.32,-0.68,1721228921112
6.66,40.99,47.99,-1.16,1.93,-1.20,1721228921122
-10.38,-32.68,18.70,-0.05,-3.52,-0.87,1721228921132
-12.59,-25.01,-44.07,-2.08,4.19,-0.63,1721228921142
-14.80,17.23,28.87,0.96,-0.38,2.28,1721228921152
5.46,-10.67,3.65,0.95,-0.44,0.77,1721228921162
11.69,-26.35,3.06,3.17,-1.15,1.47,1721228921172
-23.22,29.93,-16.80,-0.54,-0.84,1.48,1721228921182
12.28,-7.69,18.35,-1.42,1.66,0.70,1721228921192
16.43,1.09,20.45,-0.27,0.37,-1.97,1721228921202
-10.56,4.63,19.98,-0.62,-1.68,-2.98,1721228921212
-8.61,-13.62,5.66,1.94,-1.36,-1.97,1721228921222
-15.57,3.58,5.72,1.11,0.47,0.30,1721228921232
-15.81,-13.92,-5.28,0.95,-0.10,1.41,1721228921242
-2.57,-2.11,6.84,-1.67,-0.36,3.02,1721228921252
7.92,2.11,17.69,-0.22,2.68,3.11,1721228921262
16.92,-16.83,30.14,0.15,0.06,0.79,1721228921272
22.09,28.23,25.54,0.02,-0.46,-0.81,1721228921282
9.59,9.49,11.39,-0.22,-0.46,-1.68,1721228921292
19.69,-33.43,-1.81,0.01,-0.86,-3.38,1721228921302
-1.05,-7.53,-1.41,1.94,-1.00,-2.19,1721228921312
-9.61,5.91,-2.62,0.74,-1.00,-0.59,1721228921322
-9.53,4.06,-10.63,0.88,0.46,0.37,1721228921332
-0.16,-11.09,45.08,-2.47,1.09,1.36,1721228921342
2.95,-67.36,78.45,-2.06,1.74,0.88,1721228921352
44.46,77.32,56.60,-1.22,0.57,0.11,1721228921362
15.06,-49.74,1.26,1.85,0.05,0.10,1721228921372
17.01,43.89,-12.99,3.28,-0.31,-0.31,1721228921382
9.49,8.36,-24.11,2.19,-0.58,-0.68,1721228921392
2.86,-40.60,-20.15,-0.03,-0.88,-1.36,1721228921402
-7.20,-10.48,7.41,-2.63,-0.08,-0.58,1721228921412
0.33,20.13,42.62,0.50,0.11,-0.35,1721228921422
-27.02,-45.89,37.50,-0.33,-0.09,0.68,1721228921432
-5.91,2.72,5.26,1.12,-0.61,-0.54,1721228921442
23.42,53.80,7.76,1.34,-0.77,-0.67,1721228921452
-6.83,4.20,-0.74,1.17,0.25,0.90,1721228921462
-1.36,-18.22,-14.21,0.80,-0.01,0.05,1721228921472
-3.20,-38.94,6.18,-1.66,0.28,0.10,1721228921482
-1.69,5.11,4.25,-0.44,0.77,1.21,1721228921492
22.91,10.51,-8.00,2.54,-0.32,0.33,1721228921502
-0.07,-30.42,-18.44,-3.28,1.45,-0.51,1721228921512
15.04,-48.60,78.45,0.14,-0.21,-2.11,1721228921522
12.13,68.78,41.36,0.25,-3.03,-0.12,1721228921532
-27.59,-78.45,-16.29,3.11,1.36,0.17,1721228921542
-6.68,-4.43,-11.44,-2.74,-0.77,0.24,1721228921552
-7.61,-22.53,46.29,-3.64,2.51,0.90,1721228921562
-4.64,8.17,47.58,-2.14,0.89,1.25,1721228921572
-6.35,25.50,46.49,0.24,0.00,0.23,1721228921582
1.15,-3.62,-2.90,0.65,-0.48,-0.65,1721228921592
3.83,30.37,3.00,1.49,0.33,-1.49,1721228921602
0.72,-0.80,-9.39,-2.23,-0.72,-0.95,1721228921612
-4.75,-21.74,53.37,-0.38,-0.51,-0.31,1721228921622
-26.12,45.53,19.50,-0.71,1.05,0.91,1721228921632
2.69,16.90,18.22,1.82,-0.15,0.61,1721228921642
7.18,-11.67,4.49,2.92,0.44,-0.20,1721228921652
1.63,-13.78,-15.56,4.04,0.02,0.09,1721228921662
4.36,-6.60,-27.12,-1.78,1.66,-0.78,1721228921677
-1.12,7.75,-11.21,-4.01,1.19,-0.86,1721228921681
11.20,-2.37,59.32,0.16,2.26,-0.69,1721228921691
-12.10,23.10,45.37,-0.75,-1.61,0.30,1721228921701
-5.50,-56.79,18.54,3.05,-0.87,0.59,1721228921711
-4.18,-4.86,-9.49,-2.19,1.35,1.63,1721228921721
8.22,17.01,17.03,0.82,0.38,1.37,1721228921731
-24.81,25.96,1.74,-1.06,-0.41,-0.78,1721228921741
2.66,6.51,6.43,0.63,-0.53,-0.94,1721228921751
-4.80,-1.21,-21.31,1.17,-0.45,-0.53,1721228921761
-4.18,-35.15,-13.46,-1.36,1.54,-1.53,1721228921771
0.99,-49.60,49.76,-0.94,1.12,-0.91,1721228921781
-63.32,78.45,14.06,1.46,1.11,1.59,1721228921791
-1.52,-40.41,-0.76,2.61,-0.40,0.42,1721228921801
2.71,29.96,-9.56,-0.23,1.35,0.43,1721228921811
1.96,-2.30,17.91,-0.09,0.33,0.59,1721228921821
-4.48,-3.98,-8.84,-0.45,-0.59,-0.56,1721228921831
12.22,-6.87,16.38,-2.08,1.78,-0.34,1721228921841
-10.07,13.58,22.81,-1.55,0.89,-0.86,1721228921851
-3.97,-2.11,22.65,1.86,-1.97,-0.67,1721228921861
-3.96,-1.58,-28.89,1.85,2.09,0.18,1721228921871
-3.04,-2.91,-10.07,-1.80,-0.29,2.08,1721228921881
7.25,43.70,11.87,-0.25,2.25,0.36,1721228921891
6.83,-25.67,18.49,-1.21,0.70,-0.37,1721228921901
7.96,-4.67,1.39,2.68,-1.92,-0.19,1721228921911
2.92,39.10,-12.58,-0.96,-0.64,-0.95,1721228921921
-5.67,-8.21,35.70,-2.91,1.21,-2.56,1721228921931
-5.89,-4.24,17.57,1.93,-1.58,-0.71,1721228921941
-10.79,7.33,16.69,0.12,1.25,0.50,1721228921951
-5.62,6.82,12.58,0.55,0.27,0.79,1721228921961
-6.89,-55.78,-3.03,0.57,-0.29,1.31,1721228921971
1.02,8.61,-0.09,2.77,-0.17,2.27,1721228921981
5.26,-7.36,-12.64,-0.12,0.21,1.00,1721228921991
2.38,1.31,17.98,-1.74,1.49,-0.04,1721228922001
19.46,73.64,29.03,-0.77,0.68,-0.68,1721228922011
-1.22,-22.52,3.87,0.99,-1.58,-1.30,1721228922021
-9.48,-10.63,-52.89,-2.71,3.59,-0.79,1721228922031
14.87,62.93,-10.29,-1.62,-1.15,0.16,1721228922041
3.96,6.72,30.17,1.13,-0.73,0.22,1721228922051
6.14,20.68,-11.46,0.86,-1.84,0.90,1721228922061
-5.14,-27.54,16.19,-0.96,1.70,0.59,1721228922071
4.02,4.22,53.46,-1.47,0.86,0.37,1721228922081
-0.45,6.81,41.07,0.19,-1.60,-0.17,1721228922091
-5.71,-11.81,-7.21,2.19,-1.28,-0.20,1721228922101
-19.67,7.82,-49.60,2.74,-0.37,0.72,1721228922111
4.60,-21.11,-33.05,0.90,-0.08,0.54,1721228922121
9.79,-5.97,-13.81,-2.98,0.56,0.45,1721228922131
-7.22,-24.51,63.83,-3.45,1.15,0.53,1721228922141
-14.08,78.45,3.69,-2.95,-0.96,-1.72,1721228922151
5.11,-7.22,4.12,3.60,-2.06,-2.03,1721228922161
-16.25,17.09,-46.54,-0.94,0.75,-0.59,1721228922171
0.81,-0.16,3.92,-2.07,-0.98,0.41,1721228922181
12.44,-16.24,36.85,-0.90,0.86,0.78,1721228922191
-12.07,7.61,-0.20,2.07,0.14,2.31,1721228922201
23.65,-42.01,-5.89,1.01,-1.28,0.80,1721228922211
6.77,-5.34,6.10,-2.13,1.73,0.99,1721228922221
18.53,53.37,36.17,1.61,0.14,-1.28,1721228922231
8.16,-0.09,20.94,0.31,-0.98,-0.49,1721228922241
3.03,-3.00,17.49,-0.54,-0.83,-1.31,1721228922251
-10.65,-30.55,15.44,-0.01,0.44,-1.53,1721228922261
-26.73,19.40,7.55,3.17,0.52,-0.70,1721228922271
-19.59,5.23,-27.89,3.36,-0.44,0.84,1721228922281
3.92,-18.41,-24.41,2.10,-1.62,1.08,1721228922291
0.34,-21.43,-11.37,-4.37,0.80,-0.06,1721228922301
8.51,-7.37,78.45,0.10,-0.59,1.50,1721228922311
-4.43,23.80,78.45,0.56,-0.35,1.31,1721228922321
-41.26,-78.45,-13.65,4.37,0.18,2.37,1721228922331
-17.73,-53.14,-78.45,4.37,-3.89,-0.71,1721228922341
-36.36,-30.21,-78.45,-0.03,0.20,-0.02,1721228922351
9.37,-14.44,-13.92,0.86,4.37,-0.19,1721228922361
-72.12,-44.19,78.45,0.09,-4.37,-0.81,1721228922371
-36.95,-7.91,-41.67,-0.99,-0.10,0.97,1721228922381
11.13,-11.37,13.76,4.37,2.04,-0.03,1721228922391
11.94,-29.30,-35.19,4.37,-1.05,-0.85,1721228922401
-1.02,-78.45,-78.45,0.19,0.51,0.53,1721228922411
54.31,1.66,-78.45,-4.01,-2.83,-1.68,1721228922421
18.02,-17.84,23.98,-4.37,2.52,-2.51,1721228922431
-78.45,78.45,23.45,-4.37,2.92,0.10,1721228922441
5.96,-68.72,-9.28,4.37,-0.62,-0.38,1721228922451
-23.24,8.10,-29.35,4.37,-1.46,0.39,1721228922461
-6.07,-72.53,-25.39,1.33,-0.08,0.04,1721228922471
1.23,31.39,-33.83,-3.40,-0.55,-0.13,1721228922481
7.32,-5.04,0.98,-4.37,0.57,0.90,1721228922491
4.50,-5.04,-0.72,-1.45,4.20,0.79,1721228922501
9.42,-35.61,17.22,1.87,-3.22,0.27,1721228922511
0.65,-5.74,-4.13,-0.16,0.40,-0.95,1721228922521
-7.05,2.90,-9.56,1.40,-0.73,-0.21,1721228922531
-11.62,-0.88,-0.21,0.22,0.55,-0.26,1721228922541
-7.89,-16.63,25.90,-2.16,1.29,-0.20,1721228922551
-8.93,50.12,26.37,0.20,-0.65,1.57,1721228922561
2.67,-12.09,-0.19,1.35,-0.29,1.17,1721228922571
5.32,-0.65,-9.49,-0.52,1.15,1.14,1721228922581
10.64,-12.29,17.66,-0.80,0.43,-0.35,1721228922591
-0.45,2.56,-0.57,-0.02,-0.38,-1.10,1721228922601
8.32,-6.53,-16.99,2.11,-1.00,-0.92,1721228922611
-4.09,-15.35,-2.05,-0.80,1.03,-1.17,1721228922621
-6.85,-10.75,33.90,-0.55,0.04,-0.81,1721228922631
13.81,64.68,6.94,-1.48,0.19,-0.32,1721228922641
-7.77,6.56,34.96,0.20,0.72,-0.16,1721228922651
-2.15,-4.06,-3.48,0.16,0.09,0.26,1721228922661
9.63,1.80,-8.24,4.37,1.01,0.91,1721228922671
-10.51,-58.88,-26.68,0.77,-1.67,-0.59,1721228922681
16.12,61.72,-3.89,-4.37,0.21,-0.93,1721228922691
18.68,-7.74,78.45,1.06,2.51,-0.39,1721228922701
5.64,7.45,78.45,0.69,-2.99,-0.03,1721228922711
-7.20,29.42,-23.23,2.64,0.16,0.73,1721228922721
2.30,-9.38,-13.36,4.24,0.29,1.01,1721228922731
7.41,-25.35,-33.51,3.10,0.32,0.72,1721228922741
12.65,-22.74,-62.00,0.49,-2.28,-0.74,1721228922751
5.77,-1.76,-5.20,-4.37,-0.80,-0.70,1721228922761
1.31,-78.45,78.45,-4.37,2.78,-0.98,1721228922771
7.73,47.87,78.45,2.17,-4.37,0.90,1721228922781
9.50,-22.06,-22.22,4.37,1.74,-2.36,1721228922791
-7.57,1.19,-42.80,2.47,-1.69,-0.41,1721228922801
-5.63,-74.78,-52.87,-1.58,1.96,0.48,1721228922811
0.47,-4.98,-18.38,-4.34,-2.92,1.61,1721228922821
14.71,-21.84,47.15,-4.37,2.39,-0.04,1721228922831
-44.40,10.66,26.62,-0.16,-1.52,0.13,1721228922841
10.11,-30.93,-4.53,4.37,-1.26,0.54,1721228922851
-33.39,23.49,4.59,0.10,1.02,0.28,1721228922861
-3.79,38.92,12.73,-0.53,0.25,-0.66,1721228922871
-0.95,-18.55,-3.42,-0.45,-0.28,-2.35,1721228922881
-11.46,-29.43,40.91,-1.44,0.61,-0.61,1721228922891
-5.85,6.16,17.67,0.19,0.37,1.03,1721228922901
4.20,-3.70,-48.23,3.21,-0.67,0.83,1721228922911
-3.30,-16.19,-15.68,2.22,-1.19,1.22,1721228922921
-0.24,21.00,-1.70,-4.37,0.81,0.99,1721228922931
16.15,51.98,50.96,-2.53,3.09,-1.46,1721228922941
6.11,14.13,32.23,1.95,-2.05,-1.33,1721228922951
5.64,-73.82,43.67,4.37,-0.93,-1.18,1721228922961
-14.98,-23.68,-31.06,2.41,-1.07,0.60,1721228922971
-4.70,17.10,-52.45,-2.79,2.59,0.47,1721228922981
-11.71,5.41,-18.71,-4.37,-0.65,2.05,1721228922991
6.02,-54.92,78.45,-2.17,4.37,1.04,1721228923001
7.39,22.31,78.45,0.70,-0.44,0.75,1721228923011
-2.59,-78.45,-17.98,4.20,-1.49,0.19,1721228923021
-11.63,-24.43,-78.45,2.01,-1.91,-0.95,1721228923031
-5.83,5.15,-21.17,-0.04,0.21,0.13,1721228923041
26.82,56.18,19.27,-3.25,3.80,-0.43,1721228923051
-2.57,4.91,16.44,0.09,0.69,-0.27,1721228923061
15.42,-14.78,36.61,0.10,-1.98,0.17,1721228923071
-3.22,-27.04,19.96,-1.22,2.12,-1.15,1721228923081
0.18,0.53,0.46,2.12,-2.47,0.33,1721228923091
-18.02,2.71,-42.79,-0.05,1.29,0.20,1721228923101
-16.95,-32.69,1.97,-1.71,-0.02,1.87,1721228923111
38.73,78.45,3.99,0.87,2.22,1.00,1721228923121
2.74,1.39,-2.29,0.52,-1.73,1.39,1721228923131
16.54,-35.61,-4.22,-2.18,1.52,-0.90,1721228923141
10.86,-23.22,40.78,-0.64,-0.08,-0.18,1721228923151
-3.56,33.83,36.88,-0.96,0.60,-0.45,1721228923161
0.97,0.58,19.67,1.75,-2.63,-0.67,1721228923171
-68.23,63.26,23.09,1.72,1.13,0.68,1721228923181
9.23,1.44,10.30,0.19,-0.09,0.67,1721228923191
-11.37,-49.82,19.83,-1.99,1.98,0.71,1721228923201
-3.56,-8.78,28.40,0.87,-0.75,1.01,1721228923211
14.88,41.39,-30.32,1.22,-1.16,1.26,1721228923221
9.79,-21.71,-3.01,4.37,-0.33,0.85,1721228923231
1.88,-0.78,-28.06,-0.96,-0.62,0.15,1721228923241
21.50,-41.24,78.45,-4.37,2.67,-0.36,1721228923251
-13.74,61.61,74.12,-3.34,-3.14,-0.03,1721228923261
10.73,-78.45,7.47,4.37,-0.54,-2.71,1721228923271
-7.77,12.43,-78.45,3.79,-0.94,-0.91,1721228923281
-11.80,-56.37,-24.44,0.44,-4.37,1.08,1721228923291
78.45,4.97,5.25,-4.37,4.37,1.55,1721228923301
-26.15,58.25,-14.60,-4.37,-0.98,1.63,1721228923311
-17.93,78.45,78.45,-0.84,-4.37,0.31,1721228923321
18.81,-24.45,-3.27,4.37,2.39,-2.45,1721228923331
6.43,-1.50,-33.80,2.84,-0.19,1.35,1721228923341
12.73,-45.25,-14.80,-1.18,0.37,-1.35,1721228923351
5.88,-5.02,11.02,-1.04,-3.14,-1.73,1721228923361
1.24,-8.40,48.84,-3.80,0.06,-2.31,1721228923371
-43.37,3.63,-33.29,0.62,-1.92,-0.71,1721228923381
1.20,-16.23,-11.81,3.99,-0.13,0.39,1721228923391
-7.41,1.55,-19.87,1.24,0.03,1.71,1721228923401
15.62,15.13,0.57,-3.48,0.54,0.82,1721228923411
11.47,-42.80,78.45,-4.37,2.44,0.61,1721228923421
33.84,66.79,38.41,0.43,-1.31,-0.15,1721228923431
8.80,-6.92,1.53,3.09,-1.56,-0.80,1721228923441
-1.53,-2.72,-12.06,0.84,-0.02,-1.56,1721228923451
-8.87,3.36,14.48,-1.16,-1.98,-1.95,1721228923461
-18.45,-25.25,20.57,-1.08,1.50,-0.44,1721228923471
-13.13,18.15,3.54,-1.76,0.25,0.28,1721228923481
3.00,0.98,3.25,3.48,-1.49,0.88,1721228923491
4.22,23.48,-5.21,-0.14,0.51,1.15,1721228923501
11.96,49.99,19.29,1.09,0.93,1.26,1721228923511
16.36,-20.26,-6.44,1.08,-0.41,-0.91,1721228923521
10.57,-10.44,18.48,0.37,2.84,-1.91,1721228923531
25.49,57.10,-3.77,-3.10,-1.48,-1.18,1721228923541
37.32,68.64,0.95,-0.15,2.16,-1.74,1721228923551
3.38,-13.10,20.03,2.69,-0.22,0.35,1721228923561
12.30,-15.89,-8.88,-1.58,0.65,-0.80,1721228923571
-1.05,-19.96,63.27,0.02,0.96,-0.60,1721228923581
5.99,14.15,27.71,0.43,-1.22,1.11,1721228923591
-8.92,-62.40,-39.47,1.41,0.07,1.24,1721228923601
-6.76,-36.63,-15.94,-1.65,0.38,0.07,1721228923611
0.16,-0.55,-3.60,-0.44,-0.96,-0.49,1721228923621
-19.74,19.98,19.39,-1.29,1.17,0.72,1721228923631
13.07,-34.25,35.10,1.15,-1.47,0.28,1721228923641
-4.28,-8.82,4.87,-1.37,1.36,-0.36,1721228923651
-2.15,7.62,16.51,0.94,-0.81,0.06,1721228923661
4.14,-9.48,13.20,1.26,0.49,-0.60,1721228923671
-0.98,-26.66,-9.57,0.22,0.92,0.40,1721228923686
0.67,2.45,-2.87,-1.02,0.75,0.58,1721228923690
7.01,-1.28,36.58,-0.34,1.73,0.19,1721228923700
-3.40,7.87,8.82,-0.74,-1.03,0.75,1721228923710
8.24,-27.81,14.79,3.23,-0.63,0.09,1721228923720
4.01,-3.87,26.90,-3.20,0.73,0.02,1721228923730
41.91,78.45,63.41,1.27,-0.57,-1.49,1721228923740
4.14,-10.02,38.55,0.83,-1.03,0.16,1721228923750
-36.92,52.52,20.41,1.10,0.69,0.50,1721228923760
-0.73,-0.41,-1.53,0.11,-0.30,0.70,1721228923770
4.48,-25.82,20.85,-0.42,1.07,0.45,1721228923780
-2.17,-3.82,-1.02,0.01,0.14,-0.02,1721228923790
8.42,14.33,-5.94,-0.22,-0.22,-0.60,1721228923800
-3.52,-9.15,31.29,-0.56,1.55,0.01,1721228923810
5.28,-5.44,13.25,0.33,-0.51,0.00,1721228923820
2.01,-3.87,13.47,0.12,-0.15,-0.28,1721228923830
-15.86,15.49,-6.35,1.26,-0.07,-0.35,1721228923840
-1.84,-78.45,49.12,0.91,-1.16,-1.73,1721228923850
-9.47,10.69,13.99,-3.61,0.89,-0.27,1721228923860
-55.98,76.04,44.63,-1.39,1.13,-0.02,1721228923870
-4.59,-15.43,8.56,1.99,-1.36,-0.27,1721228923880
-7.56,-19.53,-4.55,1.74,1.64,1.36,1721228923890
10.89,10.94,-36.02,2.45,-0.72,1.02,1721228923900
13.99,22.68,-31.06,1.23,0.86,1.00,1721228923910
5.69,-16.81,-20.21,-1.93,-0.27,-0.13,1721228923920
7.57,-14.78,53.67,-4.37,2.10,-1.49,1721228923930
-45.67,78.45,73.28,-0.88,1.21,-3.90,1721228923940
-0.12,-2.95,24.72,3.72,-3.87,-2.10,1721228923950
-12.91,6.98,20.45,0.37,3.49,0.79,1721228923960
-4.93,6.92,3.48,1.88,-2.71,2.43,1721228923970
-6.63,4.12,-14.30,-2.91,2.78,2.01,1721228923980
7.26,-28.42,16.96,-2.61,0.09,0.96,1721228923990
10.01,-5.04,21.30,-1.63,2.38,-0.09,1721228924000
-5.56,8.27,12.40,-0.36,-2.01,-0.41,1721228924010
17.17,-31.16,0.85,3.87,-1.55,-1.78,1721228924020
-11.03,-14.76,-42.34,-1.66,0.39,-1.33,1721228924030
-2.07,-16.34,20.98,-2.19,-0.73,-0.37,1721228924040
-4.08,-1.46,23.92,-0.71,1.30,1.00,1721228924050
1.73,-1.22,13.64,1.26,-1.46,0.79,1721228924060
3.23,-8.27,-12.37,-0.02,1.62,1.06,1721228924070
1.11,39.99,-9.02,-0.07,-0.08,0.54,1721228924080
7.23,32.02,22.72,0.06,-1.60,0.04,1721228924090
7.26,-16.43,17.06,-0.90,-1.27,-0.87,1721228924100
6.38,-46.06,3.67,1.94,0.92,0.09,1721228924110
5.11,-6.19,-10.29,-1.23,-0.18,-0.57,1721228924120
0.17,-1.13,5.09,0.43,-0.45,-1.78,1721228924130
-21.05,21.27,4.28,0.53,-0.98,0.83,1721228924140
-18.53,22.48,5.47,1.75,0.56,1.21,1721228924150
-9.45,-13.36,-5.87,-0.62,-0.17,1.15,1721228924160
13.30,-28.27,23.76,-1.21,1.86,1.23,1721228924170
1.43,10.15,37.95,1.21,0.70,2.00,1721228924180
26.42,29.88,17.43,0.26,-0.82,0.13,1721228924190
9.94,-15.10,10.32,-0.56,-1.21,-2.50,1721228924200
-0.45,-2.23,0.57,1.29,-1.48,-1.67,1721228924210
-23.00,-10.22,-36.62,1.48,-0.72,-1.10,1721228924220
-20.74,-31.46,-14.49,-0.65,0.06,0.08,1721228924230
-10.58,-6.86,15.76,-1.99,0.66,1.48,1721228924240
-8.18,19.61,46.31,1.03,-0.10,2.13,1721228924250
-0.42,3.14,44.29,-0.67,0.75,0.54,1721228924260
11.99,27.12,6.17,1.52,-1.17,0.04,1721228924270
6.59,-11.13,-11.90,2.78,-0.62,-0.46,1721228924280
-0.12,-28.21,-25.82,0.72,-0.47,-0.59,1721228924290
-7.76,-27.40,-26.48,-1.38,-0.41,0.22,1721228924300
-11.32,7.34,-8.65,-4.37,-0.65,0.47,1721228924310
-71.28,72.88,36.14,-1.98,0.81,-0.15,1721228924320
15.29,-33.90,44.60,2.03,-3.73,-0.28,1721228924330
0.53,-5.12,23.72,-1.44,1.37,0.37,1721228924340
6.45,2.44,22.59,0.38,-0.65,0.21,1721228924350
-0.12,1.92,1.05,1.36,-1.02,-0.78,1721228924360
-18.14,3.10,-0.49,-0.15,0.25,-0.49,1721228924370
-11.70,4.32,-3.06,1.12,-0.34,0.52,1721228924380
4.46,26.98,-1.48,0.84,-0.06,1.04,1721228924390
4.91,19.48,0.28,-1.63,0.21,1.52,1721228924400
1.02,-33.52,52.30,-1.61,1.76,0.14,1721228924410
17.02,44.74,29.86,0.79,-1.64,-0.31,1721228924420
21.56,-43.57,-22.97,3.60,-1.09,-2.11,1721228924430
14.75,40.96,-15.61,2.74,-0.34,-0.52,1721228924440
-5.66,-14.57,-22.45,2.70,-1.09,-0.88,1721228924450
-17.09,2.74,-11.06,-2.39,-0.87,-0.53,1721228924460
3.60,9.79,51.07,-2.77,4.37,0.33,1721228924470
4.04,43.05,53.35,0.52,-0.87,1.16,1721228924480
7.67,-55.81,4.28,4.37,0.44,0.24,1721228924490
11.35,-34.08,-27.37,2.48,1.66,-0.28,1721228924500
14.67,15.78,-34.51,-2.49,-2.52,-1.91,1721228924510
-2.11,-4.52,69.77,-3.38,3.41,-0.84,1721228924520
1.46,-0.76,18.75,0.41,0.45,-1.85,1721228924530
12.62,46.20,78.45,3.09,-3.33,-1.43,1721228924540
-1.75,-2.22,-13.90,1.28,0.73,-0.30,1721228924550
6.90,-5.58,-9.99,3.51,0.10,0.73,1721228924560
0.74,-5.13,-42.39,1.24,-2.41,0.81,1721228924570
10.81,-7.49,4.94,-3.78,0.27,0.30,1721228924580
12.77,-49.00,74.17,-3.35,3.22,0.25,1721228924590
9.28,0.66,13.58,0.62,-1.04,0.28,1721228924600
5.49,-18.50,22.33,2.73,-1.91,0.09,1721228924610
-1.53,-22.35,75.14,-0.55,1.48,-1.33,1721228924620
-13.16,66.14,14.77,-0.87,-0.95,-0.46,1721228924630
-7.69,-78.45,-5.94,1.52,-1.16,-0.75,1721228924640
-14.20,-16.28,14.63,-2.29,0.90,0.32,1721228924650
-12.90,12.74,3.61,2.09,-0.14,2.41,1721228924660
3.21,-7.60,-9.56,0.80,-1.04,1.45,1721228924670
2.29,1.35,2.39,-3.28,1.42,-0.27,1721228924680
-12.94,-9.26,27.80,-2.14,0.24,-0.62,1721228924690
8.51,9.33,33.42,1.70,-2.54,-1.15,1721228924700
0.63,14.47,-4.92,0.09,0.70,-0.11,1721228924710
0.18,-4.59,6.73,-0.36,-0.43,-0.36,1721228924720
5.15,9.60,12.81,0.71,0.10,0.36,1721228924730
6.25,24.06,-0.60,0.09,0.04,0.88,1721228924740
-4.17,0.48,-22.61,-2.88,1.36,-0.35,1721228924750
4.59,-22.74,24.13,-0.35,-0.78,-0.75,1721228924760
-6.88,28.45,7.35,0.13,-0.53,-1.11,1721228924770
0.19,1.90,4.29,0.56,-0.61,-0.67,1721228924780
0.87,-34.21,11.25,-0.17,1.79,-0.89,1721228924790
-3.37,4.81,11.90,-1.38,0.46,0.03,1721228924800
-2.77,5.07,7.78,1.50,0.73,0.57,1721228924810
-4.94,-28.09,-0.99,2.21,-0.77,0.87,1721228924820
1.07,0.97,0.53,-1.50,1.20,0.72,1721228924830
1.68,2.23,18.77,-1.89,1.34,0.23,1721228924840
13.09,-13.80,11.46,0.66,-0.64,-0.57,1721228924850
3.13,-0.32,-2.17,0.76,-1.58,-0.96,1721228924860
-0.25,43.98,12.49,-0.18,1.31,-0.89,1721228924870
-2.44,-0.68,5.78,-1.00,0.25,-1.49,1721228924880
3.70,-41.82,9.41,2.87,-1.52,-1.79,1721228924890
-49.88,49.11,19.86,-2.35,0.39,0.01,1721228924900
1.58,-4.01,8.44,0.73,0.83,-0.04,1721228924910
-7.17,-2.80,-1.42,1.51,-1.37,1.37,1721228924920
-16.04,-34.91,-2.23,1.11,0.56,0.86,1721228924930
9.50,3.17,19.94,0.25,0.43,1.66,1721228924940
-11.48,16.06,8.31,-0.04,0.49,0.85,1721228924950
12.87,46.24,14.11,-0.55,0.51,-0.85,1721228924960
9.85,-14.93,33.80,-1.82,-0.96,-1.93,1721228924970
-26.64,-78.45,23.87,-0.40,-0.29,-1.26,1721228924980
5.47,78.45,-5.88,1.60,0.22,-1.37,1721228924990
-25.92,-0.94,7.78,-0.98,0.95,-0.20,1721228925000
-8.20,-15.45,-5.76,-0.26,0.62,0.60,1721228925010
1.89,4.41,6.72,2.10,0.52,2.08,1721228925020
3.13,-5.75,-23.27,1.75,-0.75,1.00,1721228925030
11.44,0.69,-5.80,-2.31,1.67,0.14,1721228925040
9.62,2.44,54.82,-0.81,1.68,-0.06,1721228925050
10.59,62.91,78.45,-1.01,-0.90,0.10,1721228925060
-18.63,-78.45,3.96,1.07,-1.69,-1.57,1721228925070
-9.18,-26.09,-13.98,-2.03,3.96,-1.42,1721228925080
-8.99,31.63,-41.48,-0.40,-2.58,-1.21,1721228925090
-12.27,-23.37,-0.33,-2.53,1.66,-1.22,1721228925100
6.58,1.68,41.38,0.67,0.25,0.56,1721228925110
17.72,36.78,29.85,1.40,-0.25,1.01,1721228925120
2.05,10.94,-2.50,2.59,-0.44,0.39,1721228925130
-26.97,-57.58,8.98,2.67,-0.71,-0.04,1721228925140
-10.78,-13.52,-25.20,-0.74,-0.11,-0.66,1721228925150
-8.42,17.03,-41.81,0.06,-0.41,-0.25,1721228925160
-11.86,5.53,1.86,-3.57,-0.16,-0.28,1721228925170
1.21,-37.75,61.78,-2.31,1.64,-0.72,1721228925180
-8.97,16.84,78.45,1.32,-1.16,-0.37,1721228925190
-2.68,-1.26,21.97,1.18,-0.50,0.49,1721228925200
45.63,70.11,-29.80,3.28,-1.01,0.56,1721228925210
2.05,0.22,-34.61,1.72,-0.45,0.37,1721228925220
-0.29,-70.35,-35.46,2.08,-1.01,0.25,1721228925230
-6.02,-25.35,-27.51,-0.78,-0.70,-0.50,1721228925240
-7.08,21.18,10.45,-4.37,-0.01,0.16,1721228925250
-20.04,43.29,34.61,-0.15,4.37,-1.55,1721228925260
14.01,-78.45,40.70,2.99,-4.37,0.39,1721228925270
-0.84,-6.08,-17.69,-1.68,3.50,0.26,1721228925280
7.82,78.45,31.62,1.45,-0.90,-0.12,1721228925290
-0.64,11.32,-8.26,1.25,-2.20,0.65,1721228925300
1.48,7.98,-21.35,1.16,-1.65,0.69,1721228925310
-5.75,-38.70,-15.30,-1.98,0.50,1.14,1721228925320
3.63,1.11,21.75,-0.90,0.33,0.43,1721228925330
7.65,-5.18,29.49,-0.29,-0.15,0.14,1721228925340
-9.50,18.08,34.40,-1.76,0.17,-0.41,1721228925350
-11.55,30.37,4.81,1.38,-0.41,-0.52,1721228925360
-10.89,-65.51,-16.00,3.51,-0.91,0.14,1721228925370
-9.65,-22.04,-31.88,-2.22,0.16,-0.41,1721228925380
4.01,3.23,28.16,-3.30,-1.03,0.68,1721228925390
2.27,20.32,70.44,1.17,2.20,0.71,1721228925400
5.20,2.09,29.50,2.16,-1.57,0.49,1721228925410
20.59,27.61,-13.62,4.37,0.18,-1.19,1721228925420
-1.11,-19.55,-31.54,3.13,-1.28,-0.22,1721228925430
-13.52,18.05,-21.62,-4.29,0.19,0.01,1721228925440
-2.79,-8.21,78.45,-4.04,4.37,0.46,1721228925450
13.61,38.72,57.37,0.16,-1.98,1.39,1721228925460
-14.20,-57.28,-12.22,4.37,-1.07,-0.59,1721228925470
10.81,-10.45,-55.64,-0.03,-1.57,-0.65,1721228925480
6.58,47.18,-16.19,-0.48,2.23,-0.15,1721228925490
0.28,-10.27,-2.26,-0.34,0.24,0.46,1721228925500
20.60,-67.61,-2.49,-4.12,2.09,-2.18,1721228925510
17.41,-38.19,78.45,-0.49,-0.20,-0.85,1721228925520
20.27,71.77,78.45,1.87,-4.15,1.68,1721228925530
3.27,-27.98,-35.89,4.37,1.96,-1.64,1721228925540
2.16,-4.57,-36.72,2.93,-1.50,-1.09,1721228925550
-14.77,4.13,-49.80,-2.74,-0.58,-0.36,1721228925560
9.70,-12.00,-33.86,-2.88,3.84,-0.55,1721228925570
4.69,-50.26,41.54,-2.02,4.31,0.30,1721228925580
-5.58,24.23,47.71,0.12,0.07,0.75,1721228925590
4.68,-1.39,31.47,0.40,0.09,-0.46,1721228925600
-8.11,-40.34,-21.10,1.76,1.25,-0.68,1721228925610
-27.15,-26.80,-53.95,2.51,-1.97,-0.67,1721228925620
-4.70,-9.98,1.03,-0.13,-1.29,-0.31,1721228925630
5.73,-6.10,-15.78,-0.15,-0.65,1.42,1721228926194
3.92,-27.95,-16.06,-0.67,-0.38,1.01,1721228926200
13.73,-61.68,24.81,-2.21,1.19,-0.44,1721228926210
17.11,78.45,66.24,-0.13,1.17,-2.44,1721228926220
-1.80,9.38,37.63,3.03,-1.32,-2.00,1721228926230
60.02,78.45,-5.66,4.37,-0.50,-2.65,1721228926240
-19.26,-30.48,-78.45,0.93,-1.67,0.89,1721228926250
9.79,9.68,-23.34,-0.50,-2.86,1.14,1721228926260
-3.42,-1.02,-14.28,-4.37,4.37,0.82,1721228926270
1.05,-78.45,78.45,-2.89,0.17,0.43,1721228926280
-29.86,78.45,31.96,0.58,-4.30,-1.05,1721228926290
4.31,-5.30,10.85,4.11,-0.97,-2.10,1721228926300
-14.42,15.47,5.55,3.06,-0.30,0.68,1721228926310
-19.75,21.00,-5.07,0.09,-2.11,0.45,1721228926320
-13.06,4.17,-6.70,-2.81,1.75,-0.81,1721228926330
-7.34,-46.44,27.21,-1.18,-1.19,0.08,1721228926340
-24.31,37.45,20.25,0.83,1.90,1.86,1721228926350
-22.05,11.13,8.24,1.49,-3.72,0.68,1721228926360
0.00,-11.03,-11.48,3.06,1.68,1.47,1721228926370
7.67,-10.93,-34.47,0.32,-3.42,1.52,1721228926380
22.99,-40.68,10.51,-4.37,2.40,-0.35,1721228926390
24.54,-29.53,78.45,1.12,3.36,-1.31,1721228926400
-7.07,-10.42,45.58,-0.87,-4.37,1.13,1721228926410
10.35,-15.18,-7.57,4.37,0.75,-1.50,1721228926420
-12.33,-65.96,-18.98,1.12,0.02,0.55,1721228926430
-17.61,-23.38,-35.85,-0.39,-2.34,-0.33,1721228926440
-8.50,30.21,25.01,-4.37,-2.01,1.09,1721228926450
-37.60,78.45,78.45,-3.01,4.08,1.18,1721228926460
16.63,2.90,41.37,3.23,-0.67,1.88,1721228926470
4.60,-12.04,-21.20,3.89,-0.62,2.15,1721228926480
13.92,-67.22,-24.63,0.82,0.51,-0.05,1721228926490
-13.98,4.98,-20.98,-1.32,-3.02,-0.49,1721228926500
-3.05,-19.82,43.13,-4.37,3.18,-1.62,1721228926510
-26.01,20.56,26.99,-0.20,0.62,-1.97,1721228926520
-2.37,15.59,16.90,3.99,-2.19,-0.52,1721228926530
-20.25,36.49,-38.42,2.77,1.91,0.70,1721228926540
3.27,-57.22,-19.84,-0.66,0.14,-0.10,1721228926550
-28.25,-78.45,8.63,-3.94,0.20,0.65,1721228926560
49.90,78.18,13.52,0.47,1.63,-0.31,1721228926570
7.71,-7.92,19.06,-1.92,0.45,-1.35,1721228926580
8.45,-14.69,6.77,2.05,-1.34,-1.33,1721228926590
0.56,25.88,23.20,0.06,-0.89,-2.28,1721228926600
-21.01,44.32,-1.69,-1.61,1.70,-0.84,1721228926610
-18.88,-18.61,60.79,-0.94,-0.29,0.21,1721228926620
-5.08,-24.54,20.86,1.44,-1.22,0.15,1721228926630
0.32,-1.84,-0.99,2.93,0.48,1.53,1721228926640
1.70,-6.14,-22.16,3.26,-0.21,2.17,1721228926650
23.04,23.09,-36.48,0.10,1.05,-0.27,1721228926660
8.16,-18.26,-9.61,-2.86,-1.14,-0.95,1721228926670
3.84,-44.36,78.45,-4.37,2.96,-2.30,1721228926680
-47.98,21.88,64.96,-2.48,-2.79,-0.27,1721228926690
2.75,-78.45,39.70,4.37,-1.97,-0.02,1721228926700
-62.63,26.47,-22.13,-2.81,1.12,0.88,1721228926710
-2.41,-2.94,31.94,1.50,-0.31,0.86,1721228926720
3.35,10.71,-8.86,-1.29,0.56,2.45,1721228926730
-3.65,-47.80,-32.79,0.80,-0.06,1.11,1721228926740
7.54,14.68,32.48,-1.28,1.21,0.71,1721228926750
-12.52,57.27,0.58,0.22,-0.22,-0.13,1721228926760
27.64,-66.66,10.31,0.51,-1.35,-1.99,1721228926770
2.05,-10.57,28.19,-0.87,0.65,-1.76,1721228926780
-37.33,69.68,34.79,0.18,-1.76,-0.71,1721228926790
7.81,-12.05,27.72,4.37,1.04,-1.23,1721228926800
-4.70,-12.31,-18.56,0.86,0.78,0.74,1721228926810
3.80,-16.56,-17.31,-0.38,-0.95,0.89,1721228926820
-5.09,14.45,-0.34,-4.37,0.20,1.50,1721228926830
-8.71,9.20,63.79,-0.90,0.57,-0.08,1721228926840
5.79,-4.60,51.99,1.42,-0.98,-0.12,1721228926850
-12.20,20.11,10.20,3.22,-1.15,-0.35,1721228926860
-7.85,50.58,-12.19,1.45,0.60,0.30,1721228926870
-1.97,32.38,-3.89,-0.90,-0.06,0.69,1721228926880
-27.34,-78.45,62.47,-3.02,-0.05,0.92,1721228926890
8.72,4.57,78.15,-0.66,-1.03,0.86,1721228926900
9.19,-3.22,-1.20,-4.37,3.12,-0.22,1721228926910
5.47,-3.02,11.11,4.10,-3.71,-0.74,1721228926920
-8.31,-19.98,-58.27,1.07,2.28,-0.73,1721228926930
-11.19,7.15,-44.01,0.32,-0.38,0.45,1721228926940
-16.24,8.59,-9.07,-2.82,-1.27,0.15,1721228926950
27.17,30.75,78.45,-1.30,2.60,1.04,1721228926960
1.30,-3.57,44.86,0.57,-1.65,0.76,1721228926970
8.59,-74.76,-26.47,4.37,0.64,0.15,1721228926980
-0.65,-19.37,-72.25,-2.03,-0.92,0.10,1721228926990
-5.00,11.35,0.28,-1.56,0.20,-0.67,1721228927000
0.53,4.45,13.62,-0.99,-0.43,-0.77,1721228927010
-9.29,4.28,11.16,-1.32,0.07,-0.87,1721228927020
-3.02,-13.95,32.00,-0.24,-0.58,0.26,1721228927030
0.53,-77.17,30.89,-0.96,0.85,0.58,1721228927040
-23.93,78.45,26.64,0.87,0.64,0.13,1721228927050
14.04,38.52,6.99,1.01,-0.32,-0.62,1721228927060
-4.46,-2.68,-12.51,0.25,-0.49,0.28,1721228927070
-4.75,-13.95,-9.55,2.50,-0.12,1.59,1721228927080
-2.49,-33.65,-9.71,-0.33,-0.13,0.74,1721228927090
8.24,-24.85,60.75,-4.37,0.89,-0.63,1721228927100
48.26,78.45,50.70,0.56,1.88,-2.32,1721228927110
3.87,-2.68,57.10,2.66,-2.57,-1.11,1721228927120
-44.97,41.66,3.59,3.86,0.78,-0.06,1721228927130
-1.42,-12.50,-19.57,1.71,-1.06,0.20,1721228927140
-1.20,-25.61,-26.42,-0.40,0.46,0.72,1721228927150
-2.92,-19.22,-11.57,-2.02,-0.13,1.23,1721228927160
1.24,27.13,68.82,-1.37,3.08,0.49,1721228927170
-25.05,24.24,-9.21,-0.65,0.35,-0.02,1721228927180
11.76,-68.18,15.35,1.18,-2.84,-1.36,1721228927190
2.77,12.48,78.45,-3.00,2.65,-0.53,1721228927200
20.95,78.45,78.45,-0.78,-2.78,1.73,1721228927210
-23.82,-78.45,-55.61,4.37,0.73,-1.19,1721228927220
-23.74,-55.16,-78.45,4.37,-2.08,2.29,1721228927230
-56.58,46.42,-28.85,-0.20,-4.37,1.15,1721228927240
38.55,78.45,-73.86,-2.06,4.37,1.27,1721228927250
9.32,-78.45,78.45,-1.34,-2.66,-0.30,1721228927260
-0.71,-10.76,44.05,1.72,-4.37,-0.22,1721228927270
13.24,-28.10,6.90,0.69,2.66,-3.10,1721228927280
-17.85,5.10,16.62,1.26,-0.30,0.92,1721228927290
-6.38,4.18,-5.30,2.49,0.15,0.32,1721228927300
0.56,-25.03,-7.52,1.76,-1.17,1.18,1721228927310
0.04,-0.65,-40.43,-3.96,1.74,0.48,1721228927320
22.10,27.86,25.69,1.59,3.27,-1.61,1721228927330
-3.33,6.17,14.72,1.76,-2.29,0.56,1721228927340
4.62,-69.72,-7.55,4.12,-2.28,-0.71,1721228927350
0.06,-18.44,-21.41,-2.27,0.34,0.12,1721228927360
1.87,1.36,28.89,-1.57,-0.46,-0.01,1721228927370
-12.04,32.41,34.79,-4.37,3.10,-0.73,1721228927380
22.05,30.06,5.03,2.97,-2.24,0.02,1721228927390
-9.21,36.64,-24.17,2.26,0.23,0.65,1721228927400
10.15,25.42,-22.13,-0.68,0.12,0.43,1721228927410
-2.22,-78.45,-62.09,-3.17,-0.66,-1.41,1721228927420
-13.46,-75.99,-46.02,-0.72,0.19,-1.78,1721228927430
-15.84,18.61,78.45,-1.23,-0.02,-1.02,1721228927440
-26.09,19.72,66.86,1.06,-0.53,-0.45,1721228927450
-20.08,-32.56,-15.16,4.37,0.70,1.77,1721228927460
1.07,-8.81,-35.75,2.93,-2.99,2.07,1721228927470
16.73,15.72,-52.11,-1.77,-1.42,0.82,1721228927480
21.94,0.28,14.03,-4.37,3.69,0.28,1721228927490
14.55,40.28,-53.21,-2.45,2.01,-1.49,1721228927500
-9.28,-13.64,9.78,3.98,-4.37,-0.02,1721228927510
3.86,-3.80,2.56,1.91,-0.10,-2.72,1721228927520
-26.70,10.89,-35.25,-4.37,-1.16,-1.95,1721228927530
2.92,5.31,37.61,1.55,0.30,-0.54,1721228927540
-25.38,-73.27,14.07,0.33,-1.90,1.20,1721228927550
-3.91,-9.86,-10.47,-1.10,2.56,0.85,1721228927560
-22.38,52.73,7.96,1.32,0.83,1.25,1721228927570
11.55,-12.92,11.44,2.89,-0.36,0.25,1721228927580
7.85,-21.00,25.02,0.84,1.58,-0.52,1721228927590
14.81,-8.32,66.45,-1.32,-0.16,-0.58,1721228927600
-20.30,27.83,49.99,-2.36,0.90,-0.24,1721228927610
6.55,-36.85,-15.61,4.37,-0.95,-0.87,1721228927620
-2.61,-38.06,-78.45,0.40,0.96,-1.67,1721228927630
-2.60,-16.98,-10.54,-4.37,-1.39,-0.32,1721228927640
-37.06,20.71,75.71,-1.54,2.25,-0.30,1721228927650
-8.99,16.41,53.72,4.16,-0.87,0.17,1721228927660
-3.99,29.73,-16.42,4.00,-0.40,1.02,1721228927670
16.50,-24.50,-41.05,1.79,0.54,0.23,1721228927680
4.08,-35.90,-31.29,-2.93,0.12,-0.36,1721228927690
6.05,-1.96,7.86,-3.65,-3.11,-0.23,1721228927700
26.56,-2.17,78.45,-3.66,4.37,0.33,1721228927710
31.29,20.36,64.33,0.69,-1.04,1.39,1721228927720
17.31,-44.27,-20.84,4.37,-1.45,-1.04,1721228927730
-5.04,35.45,-75.49,1.12,-1.36,-0.58,1721228927740
0.42,-69.07,-13.47,-1.29,1.79,0.27,1721228927750
-8.11,-10.33,-6.16,-4.34,0.39,-0.40,1721228927760
7.30,8.53,46.76,1.71,0.46,0.55,1721228927770
-7.90,-11.56,51.75,-1.47,-0.89,1.18,1721228927780
-0.09,0.23,-9.53,1.75,-0.35,-0.30,1721228927790
12.18,15.18,9.25,0.42,-0.16,0.53,1721228927800
2.54,-28.12,-14.12,0.45,1.00,-0.54,1721228927810
16.02,65.66,-1.70,0.88,-0.67,-0.89,1721228927820
-0.44,-25.80,-13.00,-2.98,1.52,-1.06,1721228927830
12.49,-7.01,78.45,0.42,0.72,-1.27,1721228927840
4.79,20.81,78.45,-0.76,-2.15,0.38,1721228927850
34.69,57.92,2.52,0.71,1.22,-1.21,1721228927860
1.19,6.35,23.75,-0.52,1.08,-0.22,1721228927870
-8.79,-17.11,0.81,0.19,0.29,0.15,1721228927880
4.03,-1.30,-29.37,2.81,0.15,1.60,1721228927890
9.04,-8.37,-21.95,0.67,-1.60,0.87,1721228927900
6.04,-22.18,-9.89,-3.74,1.28,-0.05,1721228927910
16.86,11.50,78.45,0.28,1.43,-0.10,1721228927920
7.53,18.31,78.45,-0.10,-1.64,1.88,1721228927930
3.90,0.95,-7.91,1.70,0.20,-0.87,1721228927940
-27.09,-69.01,-1.58,1.82,-0.64,-0.55,1721228927950
-5.90,-7.88,-27.70,-0.42,1.12,-0.43,1721228927960
-36.32,29.70,3.75,-0.61,-0.67,1.79,1721228927970
1.37,-39.01,28.55,-2.43,3.54,-0.47,1721228927980
39.48,45.98,43.02,2.94,-0.34,-0.78,1721228927990
24.58,69.74,14.58,2.30,-0.46,1.11,1721228928000
12.22,-24.38,-21.18,-1.84,-0.94,-0.02,1721228928010
13.62,-40.45,31.68,-1.25,1.19,-0.50,1721228928020
-16.51,78.45,10.13,1.30,0.44,0.64,1721228928030
-1.60,-10.20,-31.00,1.28,-1.18,-1.34,1721228928040
-7.30,-9.62,-9.49,-0.94,1.91,-1.44,1721228928050
-10.52,-11.08,17.07,-0.83,-0.50,0.35,1721228928060
-42.36,72.34,64.13,-0.80,1.28,2.23,1721228928070
-6.60,24.60,49.35,-0.01,-0.69,1.08,1721228928080
7.43,-61.35,2.52,1.78,-1.04,-1.30,1721228928090
-4.78,-11.13,-26.42,0.47,0.91,0.68,1721228928100
6.53,-0.77,-33.76,-0.14,-0.83,1.22,1721228928110
-2.70,-11.59,-15.22,-4.23,1.39,0.23,1721228928120
18.27,49.65,19.79,0.16,1.39,-1.09,1721228928130
-5.64,-9.90,43.60,-0.73,-1.67,-0.68,1721228928140
13.40,41.22,53.40,-2.11,2.08,-1.20,1721228928150
-15.99,-22.00,41.89,-3.24,0.36,-2.05,1721228928160
-9.93,-3.52,8.49,1.86,-2.13,-0.05,1721228928170
-8.82,2.14,15.35,0.34,0.74,2.01,1721228928180
8.88,37.99,5.88,0.84,0.91,1.60,1721228928190
14.51,-21.72,33.03,0.46,-0.26,0.67,1721228928205
9.91,-15.65,17.83,1.08,-0.62,0.04,1721228928209
1.71,-10.95,-0.51,0.41,-0.40,-0.54,1721228928219
14.30,8.44,-2.28,2.40,-0.59,-1.45,1721228928229
-17.22,-31.76,1.13,0.71,0.11,-0.09,1721228928239
-15.87,2.09,0.36,-1.89,-0.18,1.05,1721228928249
-39.49,53.12,28.06,-0.65,2.49,0.88,1721228928259
10.15,-14.71,32.28,0.62,-1.86,0.13,1721228928269
4.14,-48.17,11.01,1.18,1.16,-0.47,1721228928279
22.98,66.58,-8.32,-0.37,-0.60,-1.59,1721228928289
-11.75,11.34,-5.37,1.51,-1.10,-0.83,1721228928299
-18.41,-27.37,27.33,-0.76,1.91,1.41,1721228928309
-10.10,15.40,9.72,1.04,0.01,2.60,1721228928319
13.86,-37.40,2.04,1.45,-0.58,0.64,1721228928329
15.51,24.72,-4.58,0.82,0.44,0.33,1721228928339
16.61,29.98,5.71,0.72,0.31,0.04,1721228928349
0.70,3.04,-6.98,0.46,-0.69,-0.43,1721228928359
-2.84,-49.96,-2.49,1.67,-1.35,-0.97,1721228928369
0.00,-2.21,-28.34,-2.93,-0.74,-0.85,1721228928379
6.59,8.68,61.92,-1.48,0.02,-1.19,1721228928389
-15.60,-28.43,15.99,-0.29,0.31,-0.32,1721228928399
-15.19,-7.53,35.40,0.71,-1.02,-0.06,1721228928409
-13.71,23.04,20.47,0.64,-0.30,1.79,1721228928419
-1.69,9.50,-7.94,0.42,-0.45,1.84,1721228928429
16.01,-8.41,18.92,-0.89,0.57,1.84,1721228928439
8.61,-22.32,1.88,-0.86,1.38,0.44,1721228928449
12.82,12.61,-6.32,0.64,-0.62,-0.47,1721228928459
5.48,-8.42,-5.25,1.31,-1.95,-1.34,1721228928469
-2.85,-31.79,29.23,-3.21,-0.51,-2.03,1721228928479
-19.49,78.45,13.35,-0.57,1.41,-1.49,1721228928489
-0.72,16.91,16.85,2.28,-1.33,-0.43,1721228928499
-17.06,-78.45,-29.11,-2.16,1.51,1.44,1721228928509
-0.88,7.45,3.91,-0.26,-1.22,1.57,1721228928519
-7.47,-7.13,-1.07,1.11,-0.90,1.49,1721228928529
1.87,-28.33,-9.00,0.92,1.11,0.89,1721228928539
4.30,-2.16,0.73,-1.11,0.01,0.02,1721228928549
16.63,50.86,27.75,-1.12,0.79,-0.94,1721228928559
19.36,34.08,66.70,-1.53,-1.58,-0.16,1721228928569
-1.08,-32.80,25.93,-0.01,-1.98,-0.84,1721228928579
-2.73,-11.41,6.85,1.92,0.90,-0.02,1721228928589
-2.36,-15.61,-45.60,0.53,-0.75,-0.98,1721228928599
1.17,-7.23,-14.41,-1.68,-0.31,-0.34,1721228928609
-3.22,10.02,20.36,-2.32,-0.01,0.13,1721228928619
-20.75,54.58,15.08,-0.03,-0.12,0.70,1721228928629
5.60,-7.53,27.95,0.49,-0.68,0.67,1721228928639
7.63,-5.76,18.36,-1.30,0.80,0.78,1721228928649
11.77,-6.05,38.83,-0.00,-0.09,0.50,1721228928659
4.92,2.11,18.11,-0.56,0.34,-0.60,1721228928669
-13.96,22.61,4.35,1.93,-0.86,-1.07,1721228928679
-0.22,-1.93,1.62,2.58,-0.44,-1.35,1721228928689
-40.52,-64.05,3.00,0.36,0.62,-0.38,1721228928699
-12.24,17.35,-0.81,-1.68,0.09,0.77,1721228928709
-14.75,28.77,22.23,-0.35,0.77,1.48,1721228928719
-2.29,-38.19,46.82,-0.36,0.77,0.99,1721228928729
5.85,3.78,10.52,1.78,-1.53,0.86,1721228928739
25.08,25.37,4.29,1.41,-0.21,-0.60,1721228928749
7.73,5.70,-13.75,1.72,-0.70,-0.45,1721228928759
4.46,-9.97,-11.31,0.75,0.17,-1.36,1721228928769
3.86,11.23,-7.80,-2.92,-0.58,-1.49,1721228928779
25.65,-44.33,78.45,-2.01,2.48,-1.32,1721228928789
-6.19,-8.97,74.43,1.24,-2.65,-0.10,1721228928799
-2.93,-13.41,11.98,2.41,0.77,0.51,1721228928809
1.85,-1.29,-2.94,1.81,0.05,0.86,1721228928819
-4.75,-34.56,-15.86,-0.98,0.77,0.11,1721228928829
0.60,1.74,1.41,-0.28,0.50,0.27,1721228928839
-0.36,5.43,0.93,0.39,-0.27,0.17,1721228928849
13.91,33.59,5.61,-1.10,1.59,-0.89,1721228928859
-6.18,78.45,59.96,-0.21,-1.01,-0.40,1721228928869
37.76,-78.45,8.68,0.19,-1.55,-2.37,1721228928879
-2.21,-5.74,6.61,2.22,2.46,-1.42,1721228928889
3.17,43.61,-41.52,-2.49,-3.05,0.02,1721228928899
16.99,-24.63,13.70,-1.37,2.19,-1.93,1721228928909
-15.27,-12.68,8.15,0.78,-2.23,0.25,1721228928919
-3.00,73.51,22.28,2.60,1.71,0.38,1721228928929
4.98,15.35,25.25,-1.06,1.57,0.22,1721228928939
1.42,-1.90,26.40,-0.32,-0.53,-0.66,1721228928949
-4.19,-45.40,4.86,1.63,0.25,-0.17,1721228928959
37.42,67.53,-30.32,3.49,-1.35,0.21,1721228928969
3.65,-2.84,-31.54,-0.92,0.34,-0.46,1721228928979
-3.21,12.36,-4.56,-3.34,-0.36,-0.43,1721228928989
0.73,6.36,29.07,-3.77,2.24,-0.30,1721228928999
-1.87,-53.83,42.06,1.45,-1.34,0.25,1721228929009
2.61,-0.33,67.90,-1.53,0.45,-0.77,1721228929019
-17.90,48.20,30.72,0.62,-0.25,-0.23,1721228929029
2.38,-8.22,-4.81,2.67,0.02,-0.61,1721228929039
-5.93,1.81,2.40,1.18,0.77,-0.20,1721228929049
-3.93,-25.84,-14.33,0.95,0.14,-0.03,1721228929059
-8.25,6.41,-29.47,1.02,-0.66,1.19,1721228929069
0.79,11.49,-14.88,0.45,0.96,0.56,1721228929079
9.79,3.95,-11.27,-1.21,-0.22,1.15,1721228929089
35.51,-78.45,78.45,-4.37,4.37,-1.65,1721228929099
-42.79,78.45,78.45,-0.47,-1.19,-2.35,1721228929109
0.79,3.78,14.28,3.76,-2.12,-2.04,1721228929119
18.71,26.38,-62.65,4.37,1.82,-0.30,1721228929129
4.62,-12.92,-68.51,1.60,-0.81,1.21,1721228929139
-32.91,41.14,-59.15,0.06,-0.88,-0.64,1721228929149
3.49,-42.28,-4.65,-4.37,4.37,-0.96,1721228929159
36.28,-69.11,52.97,-1.11,0.18,0.09,1721228929169
-1.28,75.49,64.83,-1.28,2.35,0.13,1721228929179
-69.02,-78.45,-78.45,4.37,-0.65,-0.08,1721228929189
-14.58,-43.77,-71.35,3.50,-4.37,0.42,1721228929199
-0.90,-20.89,-74.67,-0.13,2.81,-0.43,1721228929209
16.14,41.59,-3.27,-4.37,2.74,0.05,1721228929219
72.15,-78.45,78.45,1.49,3.68,0.28,1721228929229
2.35,20.26,78.45,0.77,-2.78,2.28,1721228929239
-21.83,-78.45,3.96,4.37,1.22,0.98,1721228929249
25.34,-39.80,-78.45,4.37,-2.97,-3.12,1721228929259
9.34,-0.71,-36.29,-0.19,3.30,-0.75,1721228929269
-57.90,36.49,-26.67,-4.37,3.42,0.55,1721228929279
67.54,-67.53,78.45,-0.26,3.17,0.73,1721228929289
23.73,27.27,11.62,0.46,0.88,1.28,1721228929299
13.18,-33.97,7.91,4.37,-2.02,-0.04,1721228929309
-3.85,-2.06,-36.59,-0.82,-0.09,-0.36,1721228929319
7.00,12.53,-2.28,-3.26,0.46,-1.07,1721228929329
-11.95,-44.45,78.45,-3.43,1.55,-0.96,1721228929339
-17.74,10.70,47.41,-2.07,-0.62,0.92,1721228929349
3.81,7.74,6.34,1.48,1.15,1.03,1721228929359
-3.46,-20.29,-14.06,1.52,0.24,0.41,1721228929369
-0.73,-8.09,-8.84,-0.49,-0.72,-0.03,1721228929379
0.49,0.12,0.09,-3.59,0.81,-0.29,1721228929389
6.75,14.86,43.81,-1.36,1.74,-1.47,1721228929399
2.67,8.73,45.12,0.89,-2.25,-0.84,1721228929409
13.07,-24.82,22.46,4.37,-0.57,-1.63,1721228929419
-9.94,-7.03,-18.68,0.61,0.20,-0.08,1721228929429
0.87,24.22,-13.49,-1.17,-0.06,0.72,1721228929439
-18.79,15.83,-17.03,-3.51,0.10,0.37,1721228929449
-0.43,-43.16,51.44,0.48,-0.67,-0.09,1721228929459
-5.00,7.51,29.48,-1.90,0.48,0.12,1721228929469
2.68,-1.45,16.46,1.63,-0.86,0.75,1721228929479
2.12,1.14,-18.11,1.02,-1.27,0.87,1721228929489
-1.52,-30.56,-4.74,-0.33,0.81,0.66,1721228929499
-1.60,-4.66,-3.84,-2.40,-0.75,-0.55,1721228929509
0.63,78.45,9.79,-1.28,2.85,-0.15,1721228929519
4.24,-3.54,2.10,2.65,-1.92,-0.34,1721228929529
1.71,-24.24,-60.25,0.05,3.26,-0.79,1721228929539
0.54,-11.27,-24.25,-1.29,-2.46,-0.00,1721228929549
-20.52,-34.46,23.52,-4.31,-3.76,0.16,1721228929559
49.28,54.42,78.45,-4.37,4.33,-0.74,1721228929569
3.42,-5.00,58.23,2.49,-3.22,0.01,1721228929579
-0.21,-9.65,3.96,0.57,-0.53,-0.75,1721228929589
-6.34,7.53,4.10,2.18,-0.09,0.96,1721228929599
4.21,26.37,0.91,0.23,0.12,1.09,1721228929609
-8.08,35.19,-18.99,-0.69,0.31,1.18,1721228929619
25.96,-75.04,-39.20,-3.08,-1.13,-1.25,1721228929629
-1.52,-2.28,1.18,-0.16,-0.14,-0.88,1721228929639
1.02,6.51,15.60,-1.96,-0.20,-0.40,1721228929649
-13.31,3.43,29.23,-1.11,-0.34,-1.56,1721228929659
-5.25,-9.65,10.84,1.52,-1.03,-1.45,1721228929669
-21.27,20.08,-0.34,-0.26,0.34,1.38,1721228929679
-1.87,30.12,20.91,0.64,-0.10,1.50,1721228929689
3.67,-5.07,4.16,0.90,0.32,1.11,1721228929699
8.07,-6.33,7.79,1.19,-0.51,1.35,1721228929709
5.57,-12.67,9.53,-0.79,0.52,0.14,1721228929719
7.57,-0.18,9.83,-0.04,-0.35,-0.95,1721228929729
5.29,1.12,10.61,0.41,-0.86,-1.63,1721228929739
-2.45,43.31,23.53,0.92,0.09,-1.48,1721228929749
-9.07,14.97,5.53,0.91,-0.16,-0.20,1721228929759
-16.70,-63.48,21.78,-0.06,1.54,1.01,1721228929769
-4.10,-4.53,-1.95,-0.69,0.38,1.04,1721228929779
10.20,10.31,21.55,-0.78,0.56,1.31,1721228929789
7.20,-0.40,27.35,-0.35,0.50,-0.02,1721228929799
5.11,18.58,25.51,0.50,-0.28,-1.20,1721228929809
-20.06,15.36,6.57,1.73,-1.02,-1.05,1721228929819
-7.38,-11.63,-25.79,1.96,1.32,-1.14,1721228929829
-40.62,-78.45,-22.09,0.87,0.11,0.98,1721228929839
-12.39,-4.66,-15.04,-4.37,-0.80,0.50,1721228929849
-71.58,78.45,78.45,1.17,0.42,1.22,1721228929859
-5.29,0.11,64.94,0.46,0.57,1.79,1721228929869
13.50,-27.16,2.42,4.37,0.03,2.38,1721228929879
28.43,30.84,-39.93,1.92,-1.17,0.51,1721228929889
20.93,5.76,-47.64,-0.68,0.65,-0.46,1721228929899
13.50,-44.71,-17.30,-3.66,1.80,-1.60,1721228929909
2.51,10.11,24.48,-3.59,-0.98,-1.54,1721228929919
-0.91,-3.74,-20.81,-3.74,4.37,-2.35,1721228929929
13.66,0.58,78.45,0.47,0.66,-0.49,1721228929939
-7.65,3.30,-0.31,0.40,0.80,0.59,1721228929949
5.48,-31.90,-17.72,3.44,0.95,0.89,1721228929959
-3.35,-59.07,-38.38,1.67,-1.53,1.39,1721228929969
32.53,66.37,-41.27,-4.31,-0.59,-0.20,1721228929979
11.53,-37.20,78.45,-4.37,4.28,-0.23,1721228929989
-18.93,9.32,74.09,0.39,-2.05,1.36,1721228929999
9.45,-17.39,5.60,0.77,0.68,0.50,1721228930009
3.80,-1.91,3.14,-0.59,0.47,0.56,1721228930019
3.18,-3.68,1.37,-1.00,0.47,-0.27,1721228930029
10.35,13.18,-0.06,-0.47,-0.04,-0.98,1721228930039
-0.12,-1.18,10.85,-0.73,-0.54,-1.25,1721228930049
-2.98,39.55,28.51,0.34,0.51,-1.30,1721228930059
-4.25,9.16,9.39,1.68,-0.90,-0.10,1721228930069
-32.79,-64.83,4.35,1.59,2.17,1.61,1721228930079
-1.19,1.59,-5.49,0.36,-0.03,1.73,1721228930089
4.41,-3.59,-3.73,-0.21,-0.81,1.00,1721228930099
3.08,-1.89,4.51,-1.01,1.24,0.50,1721228930109
15.80,6.25,39.47,-0.75,-0.52,-0.52,1721228930119
16.54,52.88,36.28,-0.34,0.10,-2.09,1721228930129
-4.33,57.94,9.60,1.48,-0.99,-0.94,1721228930139
-4.15,6.43,-23.00,1.96,-0.83,0.09,1721228930149
-0.02,-78.45,-2.60,-2.55,1.60,0.83,1721228930159
-6.74,-28.58,-0.43,-2.19,1.77,0.25,1721228930169
-11.29,78.45,52.07,-3.49,1.14,0.76,1721228930179
-3.32,58.39,16.26,-0.59,-0.91,-0.77,1721228930189
19.91,-21.77,21.69,4.37,-1.61,-0.86,1721228930199
-0.27,-4.93,-20.64,0.62,-0.02,-0.57,1721228930214
-3.50,-5.28,-29.03,-0.92,-1.20,-0.97,1721228930218
3.52,5.08,-7.32,-3.99,0.49,-1.02,1721228930228
13.55,6.68,78.45,-1.22,3.84,-1.33,1721228930238
-5.86,-6.84,22.20,1.36,-3.62,-0.25,1721228930248
-10.71,-50.14,-56.19,1.59,4.37,1.09,1721228930258
-5.77,-21.41,-19.10,1.27,-1.06,2.12,1721228930268
4.29,-0.78,-14.40,1.47,-0.35,0.28,1721228930278
10.53,-35.38,5.75,-3.93,0.62,-0.51,1721228930288
36.62,64.59,16.55,-2.16,1.42,-1.88,1721228930298
-36.33,50.02,31.62,-1.28,-0.88,-1.34,1721228930308
0.46,-2.19,1.12,3.60,-2.77,-1.42,1721228930318
-11.54,-3.20,-1.68,0.77,2.19,-1.15,1721228930328
-8.46,-22.46,-27.95,1.59,-1.59,1.39,1721228930338
-4.17,38.87,10.57,-4.37,2.09,1.05,1721228930348
11.03,-17.35,27.17,-3.18,1.21,-0.48,1721228930358
-9.48,5.89,49.63,-1.25,-0.47,-1.03,1721228930368
15.50,-0.93,56.93,2.88,-1.40,-0.75,1721228930378
-6.06,-7.80,-5.73,-0.18,0.61,-0.49,1721228930388
31.04,78.45,-0.34,0.93,-1.03,-0.76,1721228930398
-10.77,33.46,1.36,-2.42,0.60,1.47,1721228930408
4.75,-15.18,48.19,-1.42,0.56,-0.30,1721228930418
2.72,-13.28,-2.13,3.89,-2.10,0.82,1721228930428
-19.80,29.84,-49.84,4.37,-0.25,0.58,1721228930438
-5.67,-39.05,-40.68,1.52,-1.09,0.05,1721228930448
4.30,-1.58,-12.96,-4.32,0.67,0.12,1721228930458
1.15,-78.45,78.45,-4.37,3.84,-1.61,1721228930468
15.17,68.07,77.25,-0.17,-4.20,-1.38,1721228930478
-2.32,-7.73,16.63,1.20,1.55,-0.38,1721228930488
-7.38,6.36,0.56,1.70,-0.46,3.00,1721228930498
7.50,-36.83,-13.34,3.74,-0.65,1.21,1721228930508
10.60,-2.94,-39.65,0.38,0.54,0.06,1721228930518
19.53,5.14,3.71,-2.73,-0.37,-1.02,1721228930528
36.74,-42.85,78.45,-3.08,2.94,-1.82,1721228930538
-17.76,27.47,65.54,-0.90,-4.37,0.47,1721228930548
13.05,-78.45,-8.32,3.62,4.23,-2.17,1721228930558
-78.45,11.25,-34.25,0.31,-0.79,0.52,1721228930568
-12.53,5.80,-35.78,2.27,-2.53,1.39,1721228930578
-39.77,15.98,7.02,-1.05,-2.08,2.39,1721228930588
4.17,-7.11,21.47,-3.16,3.68,1.36,1721228930598
-22.85,9.29,38.62,-1.46,-0.62,0.04,1721228930608
23.19,35.23,4.67,0.78,-0.96,-1.43,1721228930618
7.23,-7.48,-15.77,0.78,-0.91,-1.20,1721228930628
8.71,-78.45,-37.47,-4.37,2.38,-3.37,1721228930638
-2.93,-29.90,78.45,1.88,-1.95,-2.89,1721228930648
-47.95,78.45,78.45,3.05,-4.37,0.01,1721228930658
-2.38,-8.05,-78.45,4.37,1.64,0.52,1721228930668
-3.35,-17.61,-29.83,1.79,0.23,1.61,1721228930678
-9.19,-29.79,-78.45,0.09,-0.07,0.20,1721228930688
-16.26,1.30,-5.79,-4.37,-1.47,0.33,1721228930698
-8.03,-6.08,42.48,-3.47,2.17,0.29,1721228930708
25.01,69.25,22.44,-0.32,-2.67,-0.67,1721228930718
17.48,5.46,29.50,-1.06,1.09,-1.10,1721228930728
5.61,-36.75,-6.64,1.56,1.27,-1.39,1721228930738
1.68,-2.89,-22.39,3.81,-0.65,-1.44,1721228930748
-16.02,-15.89,-14.17,1.21,-2.65,-0.45,1721228930758
-22.79,16.55,1.58,-2.82,1.01,0.26,1721228930768
