AccX,AccY,AccZ,GyrX,GyrY,GyrZ,Time
0.43,-1.78,8.67,0.06,0.28,-0.09,1721229222138
-4.86,-1.01,15.58,-0.43,0.24,-0.06,1721229222143
-0.37,8.41,29.91,-0.11,0.47,-0.03,1721229222153
-1.56,6.32,14.95,0.56,-0.29,0.11,1721229222163
2.16,-19.28,-0.65,0.67,-0.13,0.07,1721229222173
-2.43,3.41,-2.17,-0.44,0.07,-0.03,1721229222183
-6.45,9.04,12.53,-0.35,0.53,0.32,1721229222193
-2.83,-17.75,31.90,0.14,-0.02,0.37,1721229222203
-8.60,14.54,16.49,0.55,0.07,0.43,1721229222213
1.95,5.10,3.27,1.18,-0.32,0.87,1721229222223
5.59,3.47,-6.24,-1.32,0.94,0.43,1721229222233
7.79,-11.06,19.81,-0.45,1.92,-0.21,1721229222243
-0.92,12.13,15.03,0.79,-1.25,-0.26,1721229222253
3.56,-6.21,-39.18,2.04,-1.21,-0.55,1721229222263
-6.26,-1.66,-8.17,-1.40,0.07,-0.45,1721229222273
-11.33,-13.07,44.87,-1.50,2.93,-0.16,1721229222283
-23.49,27.48,27.43,-0.29,0.39,0.46,1721229222293
-4.30,-30.87,23.67,1.88,-1.66,0.59,1721229222303
-7.74,4.48,17.70,-0.58,0.92,0.99,1721229222313
-7.58,-15.21,26.66,0.26,-0.81,0.46,1721229222323
-2.94,3.34,10.31,0.41,0.53,0.13,1721229222333
-3.51,4.49,-3.68,1.16,-0.36,1.15,1721229222343
-2.97,9.82,-10.33,-0.33,0.05,1.08,1721229222353
3.30,-9.19,-2.54,-1.73,-0.02,1.05,1721229222363
6.69,1.75,65.89,0.41,1.02,0.55,1721229222373
2.47,21.00,31.49,0.63,-2.38,0.49,1721229222383
9.34,-18.12,-26.39,3.25,-1.25,-0.59,1721229222393
-7.37,-3.41,-9.28,-1.30,-0.49,-0.28,1721229222403
-8.97,-3.77,7.54,-1.08,-0.49,0.00,1721229222413
1.53,-14.30,49.27,1.17,1.01,0.78,1721229222423
-18.12,23.55,40.31,0.25,-0.70,1.28,1721229222433
-2.25,4.26,-0.34,0.17,0.12,1.29,1721229222443
-1.71,-3.79,-0.01,-0.15,-0.66,1.79,1721229222453
3.75,-0.28,-0.12,-0.43,0.23,1.27,1721229222463
8.60,6.30,0.39,0.10,-0.70,1.43,1721229222473
9.21,1.96,-2.94,-0.59,0.08,0.55,1721229222483
9.97,-11.05,26.27,-1.34,0.03,-0.01,1721229222493
-0.06,2.20,16.40,-0.43,-0.72,-0.34,1721229222503
-0.31,-1.00,5.50,-0.09,-0.69,-0.64,1721229222513
-5.13,4.97,5.16,-1.08,0.09,-0.48,1721229222523
-16.53,15.59,33.94,-0.21,-0.67,0.50,1721229222533
-16.24,-11.28,10.40,-0.63,-0.91,1.57,1721229222543
2.40,-13.38,8.68,-0.93,0.44,2.49,1721229222553
9.85,-1.98,22.84,-0.43,0.46,2.13,1721229222563
12.55,19.09,13.77,-0.42,-1.08,1.65,1721229222573
18.06,5.49,-5.54,0.95,-0.69,0.92,1721229222583
9.09,-1.23,-1.87,-0.19,-0.12,0.47,1721229222593
4.94,-1.15,27.88,-0.71,-0.49,-0.39,1721229222603
14.95,26.07,3.24,-1.11,-0.33,-1.63,1721229222613
-8.94,11.01,27.31,0.51,-1.64,-0.77,1721229222623
-11.28,-16.63,12.75,0.19,-0.14,0.28,1721229222633
-5.67,0.45,2.75,-0.01,-0.06,1.67,1721229222643
-1.21,-0.03,12.59,0.00,-0.18,1.93,1721229222653
3.15,2.02,6.70,-0.02,0.20,1.75,1721229222663
8.09,-5.57,10.98,-0.35,0.16,0.90,1721229222673
4.75,6.91,16.73,-0.21,-0.40,0.32,1721229222683
4.16,1.74,6.84,0.35,-1.21,-0.20,1721229222693
-2.05,-16.88,0.75,0.25,0.05,-0.61,1721229222703
-5.46,-11.40,0.24,-1.09,-0.75,-0.83,1721229222713
-10.58,0.08,21.65,-0.19,-0.78,0.03,1721229222723
-13.38,7.72,6.14,-0.68,-0.04,0.78,1721229222733
-1.78,1.97,5.00,1.39,-1.36,1.49,1721229222743
-5.82,18.39,38.56,-1.27,0.17,1.61,1721229222753
4.56,4.49,27.86,-0.21,0.20,1.88,1721229222763
20.09,-25.18,-11.51,0.77,-0.16,1.17,1721229222773
16.41,-5.56,-5.00,0.72,0.16,0.80,1721229222783
12.40,-22.76,-11.26,-0.38,-0.45,-1.34,1721229222793
-4.36,-17.24,42.83,-2.91,-0.94,-2.08,1721229222803
11.26,22.84,78.45,2.09,1.22,-2.00,1721229222813
-49.93,-51.00,20.29,2.42,-3.65,0.56,1721229222823
-38.44,1.41,-26.92,-0.08,1.50,1.10,1721229222833
-7.33,-5.80,-2.59,1.22,-1.21,2.53,1721229222843
-0.13,20.70,-3.84,0.40,-0.26,3.12,1721229222853
-0.32,-1.56,28.15,0.59,1.15,3.17,1721229222863
32.18,6.59,37.12,-0.26,0.23,1.78,1721229222873
27.06,-7.15,15.67,0.99,-0.58,-0.24,1721229222883
28.36,-15.35,-11.57,1.07,-0.60,-2.31,1721229222893
8.84,-16.86,-4.53,-0.26,-0.12,-4.32,1721229222903
-14.77,8.17,17.03,-1.35,-2.13,-4.37,1721229222913
-2.82,26.99,61.02,-0.05,2.83,-3.05,1721229222923
-29.36,-11.94,27.72,0.72,-1.76,0.14,1721229222933
-28.65,-28.30,-10.46,-1.70,2.12,1.92,1721229222943
0.27,-19.00,20.41,0.57,-0.09,1.89,1721229222953
7.67,-13.36,0.21,0.41,0.42,1.34,1721229222963
12.19,-3.15,12.67,0.10,0.40,0.96,1721229222973
10.71,33.51,2.12,-0.02,0.25,-1.22,1721229222983
9.18,5.86,6.08,0.51,-1.15,-1.11,1721229222993
2.72,-10.79,-7.99,-0.05,0.40,-1.98,1721229223003
1.40,-13.23,8.46,-0.96,-0.60,-2.86,1721229223013
-11.93,2.11,15.74,0.34,-0.17,-1.38,1721229223023
-8.74,11.47,2.26,-0.16,-0.42,0.21,1721229223033
-6.41,-10.08,-0.78,-0.48,0.33,0.95,1721229223043
-6.87,-30.99,44.45,-1.15,0.36,0.56,1721229223053
-5.44,10.30,15.47,-1.19,1.69,0.20,1721229223063
9.53,-3.55,13.57,1.87,-1.12,-0.18,1721229223073
8.32,11.28,-9.98,0.04,-0.71,-1.70,1721229223083
7.27,14.75,-7.48,0.07,0.06,-1.23,1721229223093
0.06,-3.29,-1.60,-1.43,-0.22,-1.39,1721229223103
-3.46,-13.94,31.41,-1.16,1.52,-1.52,1721229223113
-7.74,-12.04,23.69,0.37,-0.72,-0.46,1721229223123
2.60,3.03,10.38,0.76,-0.04,-0.19,1721229223133
10.93,11.06,-2.74,0.68,0.24,-0.18,1721229223143
11.23,16.10,-0.25,-0.25,0.65,-0.43,1721229223153
2.72,4.67,32.53,-0.93,1.41,-0.90,1721229223163
-4.30,-1.55,24.01,-0.44,0.07,-1.17,1721229223173
-6.39,-25.61,9.73,0.36,-0.83,-0.47,1721229223183
-1.88,-3.27,5.23,-1.14,1.20,-0.55,1721229223193
-1.14,5.39,15.99,-0.12,-0.22,-0.48,1721229223203
-22.49,3.19,30.28,-0.31,0.16,-0.64,1721229223213
2.83,3.60,17.86,1.31,-0.67,-0.59,1721229223223
-4.34,6.50,12.31,-0.43,0.94,-0.14,1721229223233
2.69,1.63,4.74,0.86,0.11,-0.30,1721229223243
2.72,-17.92,2.53,1.92,0.23,-0.34,1721229223253
-0.36,-6.13,-6.79,0.88,0.12,-1.19,1721229223263
4.07,-10.33,-7.64,-0.85,0.71,-1.74,1721229223273
-5.58,2.03,4.37,-2.25,-0.20,-1.21,1721229223283
25.02,78.45,25.73,-0.69,2.17,-2.33,1721229223293
-3.94,2.90,26.09,1.53,-1.34,-0.71,1721229223303
-6.00,-15.15,-16.65,0.75,2.57,0.05,1721229223313
-1.15,-16.68,-19.70,0.50,0.60,-0.42,1721229223323
9.23,-8.12,-15.53,1.13,-0.52,-0.74,1721229223333
4.12,-16.03,-4.43,-2.49,0.46,-1.07,1721229223343
-0.96,5.01,32.47,-0.31,0.33,-1.08,1721229223353
-27.18,-12.87,23.47,-1.19,0.03,-1.59,1721229223363
4.09,9.46,11.75,1.84,-1.37,-0.58,1721229223373
-12.30,-4.48,-5.57,-0.17,1.11,-0.19,1721229223383
2.69,-7.09,-6.22,1.50,0.29,-0.19,1721229223393
-8.14,-23.94,-6.25,-1.10,0.87,0.14,1721229223403
2.02,-7.22,23.96,-1.09,1.54,-0.83,1721229223413
-3.67,45.88,68.83,-0.53,-0.18,-0.67,1721229223423
-3.09,7.88,11.65,1.53,-0.58,-0.58,1721229223433
-9.47,-43.35,-17.64,1.70,1.33,0.08,1721229223443
-6.69,-26.94,-24.77,0.20,-0.00,-0.54,1721229223453
6.52,3.16,-16.50,-1.17,0.66,-0.52,1721229223463
-6.07,3.36,7.26,-0.62,0.19,-0.40,1721229223473
4.89,-4.75,1.20,-0.61,4.13,-1.91,1721229223483
-12.71,-9.20,11.15,0.11,-3.06,0.34,1721229223493
-10.31,-34.26,-34.50,-1.00,3.92,0.31,1721229223503
-7.95,-31.35,9.27,0.72,-1.03,1.03,1721229223513
-0.27,5.70,-7.93,-1.22,1.83,1.13,1721229223523
5.65,13.19,5.97,1.01,-0.91,0.46,1721229223533
10.91,-32.80,2.55,-1.28,1.92,0.47,1721229223543
2.00,6.12,35.29,-0.95,0.11,0.00,1721229223553
2.46,-2.14,32.04,0.06,-0.60,-0.49,1721229223563
-1.10,-1.78,0.10,0.44,-0.45,-0.83,1721229223573
-4.35,-4.50,-10.66,0.20,1.14,-0.20,1721229223583
-10.64,-10.02,-11.76,-0.08,-0.72,1.12,1721229223593
-9.88,-17.85,2.27,-3.14,1.23,1.41,1721229223603
22.40,-12.99,67.98,0.33,2.14,0.57,1721229223613
0.13,6.70,44.67,1.04,-2.41,1.14,1721229223623
20.86,21.71,-0.38,1.51,1.48,0.43,1721229223633
0.55,-3.45,-6.01,-0.34,-0.30,0.16,1721229223643
0.57,-5.34,-3.96,-0.87,0.69,-0.41,1721229223653
-7.31,-23.15,36.22,-2.73,0.35,-1.29,1721229223663
-11.22,3.52,25.28,-1.27,-0.69,-0.09,1721229223673
-13.14,-2.98,31.82,-1.33,0.34,0.91,1721229223683
1.37,4.58,12.33,2.19,-1.75,1.96,1721229223693
1.09,-2.86,-0.23,0.45,0.30,2.16,1721229223703
5.40,-1.51,-0.70,1.32,0.12,1.66,1721229223713
17.96,38.31,1.79,-0.67,-0.22,0.46,1721229223723
-1.28,0.64,34.02,-0.38,0.07,-0.02,1721229223733
3.79,-11.82,13.72,0.24,-1.27,-0.40,1721229223743
3.95,-7.53,-3.98,0.71,0.18,-0.85,1721229223753
-7.18,-23.77,-7.53,-0.24,-0.42,-1.61,1721229223763
-34.86,37.69,17.62,-0.18,-0.14,0.64,1721229223773
-5.00,-2.42,16.51,-0.43,0.15,1.19,1721229223783
4.09,-0.99,3.57,2.00,-0.73,1.46,1721229223793
1.64,1.13,1.89,0.23,-0.15,1.56,1721229223803
16.50,12.56,2.21,0.32,0.45,0.99,1721229223813
6.85,1.97,2.67,0.16,-0.04,0.64,1721229223823
-6.23,-49.58,17.62,-0.58,0.42,-0.85,1721229223833
-2.03,-6.09,21.89,-0.82,-0.29,-1.40,1721229223843
-8.18,12.87,21.90,0.10,-1.47,-1.17,1721229223853
-18.70,26.53,16.68,1.16,-0.09,0.76,1721229223863
-2.33,-0.92,-6.92,0.63,-0.13,1.56,1721229223873
1.79,-22.16,-5.04,1.05,0.29,2.41,1721229223883
10.34,-48.69,-15.49,-0.91,0.28,0.98,1721229223893
4.59,3.82,2.05,-2.25,-1.30,0.95,1721229223903
11.20,0.38,60.54,-0.54,2.00,0.58,1721229223913
-14.86,13.71,20.36,-0.66,-1.04,0.94,1721229223923
9.89,-9.24,2.66,4.37,-1.38,-0.26,1721229223933
-4.78,29.52,-19.96,-0.54,-0.86,0.32,1721229223943
0.66,8.39,3.92,-2.48,-0.18,0.18,1721229223953
1.77,-15.00,49.72,0.39,2.53,0.51,1721229223963
-9.76,-3.32,18.40,-0.37,-1.69,1.07,1721229223973
-8.06,11.15,3.24,1.51,-1.24,0.83,1721229223983
-0.39,-16.55,-9.15,0.41,0.59,0.16,1721229223993
0.96,-4.03,-1.95,-0.86,-0.73,0.32,1721229224003
-2.87,-4.13,36.25,-0.96,0.12,0.24,1721229224013
-3.73,-3.87,20.97,-0.17,-0.09,0.38,1721229224023
1.72,1.95,3.22,1.08,-0.84,0.58,1721229224033
0.71,-7.23,17.57,-0.83,0.63,0.66,1721229224043
-2.51,18.15,27.97,-0.50,0.15,0.99,1721229224053
8.08,-21.37,17.38,0.24,-0.87,-0.50,1721229224063
4.34,0.27,-7.44,0.19,0.31,-0.22,1721229224073
-2.10,-2.48,-14.79,0.43,-0.49,-0.32,1721229224083
0.93,-10.96,-8.90,-0.51,-0.15,-0.28,1721229224093
-1.68,-12.51,47.50,-2.80,0.12,0.00,1721229224103
5.36,23.73,46.02,-2.58,3.71,0.50,1721229224113
1.09,9.39,38.80,1.61,-1.43,0.76,1721229224123
-6.34,-32.74,-12.84,0.05,1.70,1.24,1721229224133
3.95,2.31,-3.02,-0.90,-0.54,0.44,1721229224148
16.39,3.15,4.87,-0.55,0.67,-0.59,1721229224153
2.00,-4.16,6.38,-0.69,-0.43,-1.72,1721229224163
7.70,-10.73,12.43,-0.75,-0.82,-2.26,1721229224173
-1.91,21.03,29.07,-0.55,0.31,-2.37,1721229224183
-17.64,9.67,28.36,0.42,-0.86,-0.72,1721229224193
-39.14,-64.24,5.61,0.97,1.22,0.98,1721229224203
-8.58,-4.50,-10.98,0.94,0.42,1.26,1721229224213
2.70,-6.73,-5.03,0.79,-0.17,1.24,1721229224223
5.42,3.35,17.61,-1.76,1.08,0.37,1721229224233
20.25,20.64,64.44,0.10,1.23,-1.10,1721229224243
0.53,6.69,34.98,1.31,-2.47,-0.92,1721229224253
10.13,-34.03,-2.20,1.79,0.87,-1.44,1721229224263
-6.70,-7.90,-19.30,-0.12,-0.05,-0.66,1721229224273
2.62,5.60,-1.43,-2.08,0.45,-0.13,1721229224283
-4.74,-3.95,16.42,-0.50,0.46,0.17,1721229224293
1.36,-9.44,9.02,-1.72,0.20,-0.23,1721229224303
3.64,-1.43,10.37,1.59,-0.58,-0.67,1721229224313
0.38,-2.78,-0.96,0.19,-0.53,-0.90,1721229224323
7.03,-11.21,16.10,-0.55,1.32,-0.97,1721229224333
-11.76,16.20,29.19,-0.10,-0.43,-1.46,1721229224343
-15.63,-6.40,13.28,1.55,-0.96,-1.01,1721229224353
-13.10,6.15,-4.57,0.31,-0.12,0.35,1721229224363
-7.85,10.94,-9.62,0.30,0.39,1.29,1721229224373
2.98,6.77,-8.23,-0.03,-0.06,1.29,1721229224383
5.34,-40.83,-9.96,-1.76,1.90,0.46,1721229224393
2.39,-20.04,65.36,-1.83,0.62,-0.09,1721229224403
38.76,78.45,14.28,-1.88,0.01,-1.74,1721229224413
3.42,2.74,10.83,2.47,-2.86,-1.18,1721229224423
0.07,9.48,-18.64,0.57,0.31,-1.43,1721229224433
-10.55,-27.04,-6.16,-1.12,-0.46,-0.80,1721229224443
-14.57,16.57,5.87,-2.47,0.70,-0.33,1721229224453
-5.13,-8.22,15.70,-0.22,-0.83,0.38,1721229224463
-3.90,21.08,38.33,-0.53,0.99,1.51,1721229224473
0.89,8.70,23.94,-0.05,-0.66,0.94,1721229224483
3.71,-7.07,-0.95,1.19,-0.55,0.21,1721229224493
1.98,-8.03,-3.60,1.09,-0.25,0.10,1721229224503
0.42,-14.70,-6.54,0.32,0.10,-0.55,1721229224513
2.76,39.19,3.90,-0.90,-0.14,-0.02,1721229224523
3.46,-36.98,37.09,-2.25,0.92,-0.12,1721229224533
-3.99,19.40,34.78,-1.04,1.35,0.08,1721229224543
4.13,-24.50,27.47,0.71,-1.62,-0.65,1721229224553
-24.37,17.61,14.46,0.26,1.06,0.17,1721229224563
0.27,0.69,3.57,0.47,-0.08,0.52,1721229224573
-4.26,-25.77,-7.75,0.43,-0.04,0.10,1721229224583
1.49,0.78,0.68,0.39,-0.06,0.42,1721229224593
4.44,-5.82,-0.43,0.51,-0.07,0.12,1721229224603
4.24,7.07,19.56,-0.76,1.14,-0.23,1721229224613
7.59,28.15,17.93,-0.46,-0.08,0.10,1721229224623
9.24,-4.72,7.00,1.25,-0.70,-0.00,1721229224633
-0.20,-11.60,-0.58,-0.57,0.80,-0.35,1721229224643
-0.06,-7.45,22.06,-1.16,-0.26,-0.47,1721229224653
-5.10,10.77,28.88,0.10,0.15,-0.87,1721229224663
-4.22,10.92,8.31,1.66,-0.60,-0.24,1721229224673
-8.01,13.77,-10.21,2.06,-0.10,0.72,1721229224683
-4.79,-19.72,-9.74,-0.61,0.07,0.45,1721229224693
1.43,-0.11,3.24,-2.97,0.36,0.62,1721229224703
3.14,31.24,45.39,-0.66,0.81,0.77,1721229224713
7.80,-0.87,13.41,1.28,-0.75,0.16,1721229224723
7.69,-7.75,10.86,1.51,0.94,-0.34,1721229224733
-2.84,-17.63,-20.96,-0.39,-0.65,-1.43,1721229224743
0.42,2.28,18.58,-1.22,0.81,-1.78,1721229224753
11.87,-4.95,48.12,0.39,0.80,-1.12,1721229224763
-9.18,-12.12,18.08,0.40,-1.22,0.09,1721229224773
-2.46,-7.54,-10.25,-0.88,1.63,-0.13,1721229224783
-11.66,9.91,10.81,-0.20,0.45,0.32,1721229224793
0.41,16.25,11.29,0.02,-0.28,-0.06,1721229224803
-6.24,-16.53,3.58,0.42,-0.59,0.14,1721229224813
-2.87,-23.18,6.19,-0.47,1.05,0.45,1721229224823
7.09,-1.35,20.04,-1.02,1.56,0.27,1721229224833
-29.65,29.72,1.71,-0.31,0.03,0.30,1721229224843
13.91,-63.03,5.07,2.16,-1.15,-0.18,1721229224853
-3.69,-8.24,-28.31,-0.18,1.01,-0.78,1721229224863
9.95,-9.19,-15.86,0.68,-0.33,-0.69,1721229224873
-4.92,-11.88,14.97,-2.92,1.75,-1.01,1721229224883
-22.82,-38.53,78.45,-0.54,-0.98,-0.71,1721229224893
-78.45,75.64,50.85,-0.23,-1.91,0.85,1721229224903
7.86,-22.81,19.44,4.37,-0.71,-0.38,1721229224913
-6.56,-5.98,-35.68,1.73,1.37,1.29,1721229224923
14.90,-20.43,-36.36,1.18,-1.47,1.36,1721229224933
6.84,-13.48,-48.55,-2.78,1.17,0.04,1721229224943
-4.94,5.48,37.76,-2.51,-0.50,-0.46,1721229224953
65.40,55.41,78.45,-0.92,4.37,-1.64,1721229224963
-34.70,-13.59,49.89,0.68,-4.37,0.20,1721229224973
11.10,-46.18,-27.37,1.87,4.37,-1.22,1721229224983
-20.99,11.34,-53.70,0.70,1.28,2.08,1721229224993
15.09,24.83,-3.49,1.19,-0.64,1.35,1721229225003
2.54,9.59,-5.64,-1.37,-0.16,1.28,1721229225013
9.53,-7.49,8.74,1.37,-0.78,0.14,1721229225023
24.24,24.37,5.60,-0.29,0.06,-0.46,1721229225033
-11.97,11.70,0.83,0.09,-1.00,-0.76,1721229225043
6.81,-29.45,23.68,-0.18,-1.00,-1.54,1721229225053
-22.11,-19.92,28.46,-1.36,0.82,-1.20,1721229225063
-9.44,11.27,25.12,1.61,-1.59,-0.05,1721229225073
-1.52,-11.21,30.37,0.35,-0.15,1.56,1721229225083
21.92,62.25,10.93,-0.26,1.52,1.82,1721229225093
7.25,12.22,3.00,1.13,-1.11,1.57,1721229225103
22.75,-23.59,-26.65,1.78,1.27,-0.19,1721229225113
5.21,-16.56,-34.02,0.06,-0.43,-1.69,1721229225123
7.30,-2.55,-16.92,-1.57,-1.97,-1.67,1721229225133
-32.33,5.11,46.92,-4.37,-0.49,-0.94,1721229225143
-8.49,-11.29,29.75,-4.37,4.37,-0.27,1721229225153
-6.91,15.06,34.94,2.87,-4.37,2.33,1721229225163
-3.35,-42.93,-7.25,-1.11,1.38,0.84,1721229225173
20.16,19.16,-12.19,1.69,0.42,1.65,1721229225183
9.15,-15.72,-11.65,3.19,-0.01,0.39,1721229225193
15.29,22.81,-10.21,-1.94,-1.58,-0.34,1721229225203
-3.30,-2.38,47.99,-2.84,1.25,-0.10,1721229225213
16.83,59.77,16.26,-3.76,4.37,-0.80,1721229225223
-20.32,-32.59,-2.49,4.05,-4.37,0.99,1721229225233
11.72,-29.00,-78.45,4.08,4.37,-0.74,1721229225243
-40.39,-37.29,-61.18,-2.66,0.39,-0.54,1721229225253
-2.49,2.10,-11.44,-1.37,-1.86,0.63,1721229225263
21.32,38.46,70.90,-3.14,1.97,0.85,1721229225273
-69.61,45.55,-2.38,-4.37,2.54,-1.80,1721229225283
32.88,-39.70,29.95,4.37,-4.37,0.05,1721229225293
-0.46,-18.52,8.58,-0.65,4.37,-1.86,1721229225303
-4.75,27.79,9.29,1.72,-4.37,0.45,1721229225313
11.11,-20.99,43.75,0.20,3.36,-0.72,1721229225323
-18.33,13.24,31.12,-2.86,-0.31,0.65,1721229225333
13.93,52.56,61.00,0.58,0.92,1.08,1721229225343
-23.10,-8.42,15.21,-1.35,-0.62,2.24,1721229225353
36.77,-63.79,15.04,4.37,-4.00,0.20,1721229225363
6.31,2.33,-13.89,-1.07,2.45,-0.48,1721229225373
-11.63,-13.37,3.07,-0.37,-2.88,-0.62,1721229225383
0.56,16.68,24.30,-0.81,-1.13,-1.41,1721229225393
-10.32,27.12,15.61,-0.01,1.01,-0.36,1721229225403
-14.10,1.21,-13.72,-0.89,-0.78,0.06,1721229225413
-3.32,-19.74,7.69,1.81,-1.18,0.09,1721229225423
-4.64,-28.43,38.03,-2.06,0.30,0.20,1721229225433
-3.97,13.36,17.72,1.40,-0.60,1.21,1721229225443
-1.41,1.81,-4.41,-0.35,-0.64,0.16,1721229225453
1.84,1.89,12.73,-0.79,0.51,-0.34,1721229225463
1.48,-30.30,16.67,0.36,-0.12,-0.59,1721229225473
1.03,-3.45,1.97,1.20,-0.77,-0.19,1721229225483
-2.04,9.34,6.97,-0.36,0.89,-0.37,1721229225493
-1.97,-0.42,10.37,-0.38,-0.04,-0.58,1721229225503
-4.99,-2.77,3.79,1.42,-0.39,0.64,1721229225513
-2.73,-19.54,-2.14,0.77,0.06,0.75,1721229225523
0.30,14.59,15.99,-1.28,0.73,1.17,1721229225533
6.55,58.72,20.31,-0.49,1.22,0.34,1721229225543
5.51,11.94,9.03,1.37,-1.23,0.65,1721229225553
24.17,-52.67,-20.74,0.59,1.27,-0.74,1721229225563
1.60,-1.81,-12.09,-2.79,-0.11,-0.92,1721229225573
-1.97,1.64,20.53,0.01,-0.56,-1.16,1721229225583
-3.39,-8.96,-4.17,-0.70,2.91,-1.06,1721229225593
-19.93,-54.09,12.46,2.00,-2.53,0.97,1721229225603
-7.33,-16.22,-34.67,-2.50,1.40,0.15,1721229225613
-0.91,18.22,31.35,1.52,-0.30,1.35,1721229225623
-3.37,-4.35,2.99,-0.38,-0.55,0.42,1721229225633
13.34,-17.43,-0.86,2.00,-1.37,0.23,1721229225643
14.94,37.07,15.23,-0.64,0.52,0.26,1721229225653
7.02,-1.11,27.08,-0.85,0.06,-0.57,1721229225663
1.68,5.65,41.06,-0.83,0.27,-1.03,1721229225673
0.38,6.38,8.77,0.68,-0.98,-0.88,1721229225683
-0.45,-21.50,0.72,3.23,-0.79,-1.18,1721229225693
-50.05,68.15,13.74,-0.31,0.44,0.28,1721229225703
-9.46,2.81,9.07,-2.76,-0.28,0.29,1721229225713
-22.92,13.83,27.91,-2.23,2.40,0.52,1721229225723
7.91,-64.65,13.69,1.92,-3.02,1.24,1721229225733
4.34,-15.62,-11.99,-0.91,2.63,0.23,1721229225743
6.24,-9.99,7.10,-0.31,-0.55,0.51,1721229225753
3.94,11.29,10.96,-1.42,0.39,-1.16,1721229225763
-5.94,6.51,28.84,-0.74,0.07,-1.14,1721229225773
-7.57,24.44,13.00,0.16,0.19,-0.31,1721229225783
-2.01,-1.72,2.92,0.52,-0.57,-0.05,1721229225793
1.55,-26.07,6.59,0.63,0.87,0.80,1721229225803
2.76,-16.34,1.88,0.20,-0.03,0.67,1721229225813
3.13,5.87,4.52,-0.91,0.61,0.49,1721229225823
13.38,4.60,28.98,-0.54,0.59,-0.08,1721229225833
0.31,31.62,28.97,0.53,-0.19,-0.62,1721229225843
-0.06,6.56,6.96,1.65,-1.91,-0.89,1721229225853
2.65,-43.96,7.00,1.29,1.54,-2.01,1721229225863
-8.09,-9.68,-19.09,-0.82,-0.80,-0.43,1721229225873
-16.41,7.34,-3.05,-1.38,0.66,0.40,1721229225883
-3.43,5.63,35.69,-0.85,0.16,0.56,1721229225893
20.50,41.76,-8.15,-1.17,0.36,-0.04,1721229225903
7.16,-1.12,16.77,2.15,-1.71,0.23,1721229225913
1.73,-11.95,-26.23,1.30,1.07,-0.24,1721229225923
-0.60,-9.29,-19.02,1.01,-0.56,-0.18,1721229225933
-3.90,-4.36,-4.98,-0.92,-0.44,-0.69,1721229225943
2.99,11.06,30.53,-1.16,1.08,-0.33,1721229225953
10.22,14.14,56.54,0.21,0.19,0.55,1721229225963
-11.99,-37.60,8.10,0.02,-0.86,0.91,1721229225973
21.42,42.44,39.95,1.29,0.74,-0.02,1721229225983
-0.72,14.98,-18.59,1.26,-1.92,0.75,1721229225993
8.22,-32.53,-5.95,-1.20,1.40,-0.12,1721229226003
-6.25,-22.96,67.42,-3.21,0.77,-0.21,1721229226013
26.79,-18.34,78.45,0.58,2.10,-1.86,1721229226023
-21.41,16.87,40.33,-0.23,-2.99,0.25,1721229226033
6.40,-6.90,17.59,4.37,-0.98,-0.09,1721229226043
-3.83,-23.07,-25.80,1.77,0.34,1.01,1721229226053
-1.79,-37.63,-27.33,-0.77,0.31,0.64,1721229226063
-5.77,-0.26,-8.14,-3.16,-0.23,0.25,1721229226073
16.21,45.25,5.87,0.10,1.08,-0.42,1721229226083
-25.34,71.32,-31.16,-2.36,-0.61,-0.06,1721229226093
16.22,-21.39,35.81,1.26,-2.99,-0.84,1721229226103
-1.07,-26.71,24.56,-1.40,2.80,-1.20,1721229226113
-13.52,11.84,-6.36,-0.08,-1.87,-0.87,1721229226123
-0.69,-19.11,17.21,3.67,-2.37,0.33,1721229226133
-19.14,-11.66,-29.73,-0.66,0.46,0.79,1721229226143
2.13,-1.50,-6.91,-1.10,0.47,0.82,1721229226158
7.27,26.79,-0.85,-0.94,0.18,0.85,1721229226163
-2.40,-13.40,20.95,-0.85,0.76,0.50,1721229226173
12.79,-30.03,4.25,1.81,-1.51,-0.43,1721229226183
2.85,32.72,3.61,-0.44,-0.31,-0.94,1721229226193
7.74,15.03,33.00,-1.26,0.87,-1.24,1721229226203
-7.24,-11.81,8.61,0.31,-0.87,-0.45,1721229226213
6.18,15.06,20.37,-0.25,1.51,-0.91,1721229226223
-11.41,-28.33,69.35,-1.37,-0.01,0.02,1721229226233
-8.86,18.63,6.77,-0.20,2.75,0.57,1721229226243
-2.93,-57.29,0.34,3.86,-1.93,1.06,1721229226253
5.32,-6.06,-71.63,-1.51,2.94,-0.10,1721229226263
17.23,24.59,-5.73,-4.06,-1.14,-0.47,1721229226273
-6.51,44.43,41.51,-1.16,0.98,-0.12,1721229226283
-4.91,-8.42,-12.68,-0.04,0.20,-1.20,1721229226293
19.30,-38.13,78.45,0.88,0.25,-1.15,1721229226303
-27.83,1.99,-1.41,-4.37,-0.47,-0.47,1721229226313
-3.40,78.45,18.04,-2.83,4.37,-0.97,1721229226323
-9.00,-6.68,3.76,3.68,-4.37,1.62,1721229226333
-1.02,-16.57,-32.56,-0.03,4.10,0.97,1721229226343
12.29,-16.39,-13.06,0.43,-0.54,0.90,1721229226353
4.25,-1.57,-9.24,0.83,-1.87,-0.08,1721229226363
6.90,11.01,1.18,-1.28,-0.44,0.04,1721229226373
6.13,1.81,47.61,-3.28,1.08,-0.19,1721229226383
9.09,-1.98,75.50,-0.63,4.37,-0.86,1721229226393
-1.40,-11.22,23.90,2.49,-3.92,0.14,1721229226403
3.86,-33.43,59.10,4.37,4.08,-0.82,1721229226413
-20.98,-20.08,-72.09,-0.84,-0.22,-1.07,1721229226423
2.28,30.16,-4.43,-1.43,-1.82,0.20,1721229226433
-13.80,6.66,78.45,-2.02,1.77,1.28,1721229226443
-0.24,1.21,-32.59,-3.46,4.20,0.40,1721229226453
10.40,-8.73,23.46,3.91,-4.37,1.37,1721229226463
13.32,8.61,-10.06,-0.19,2.06,-1.59,1721229226473
-21.00,11.28,-7.93,-1.13,0.05,0.76,1721229226483
1.92,-1.68,-13.05,2.42,-0.53,-0.22,1721229226493
-14.68,-34.20,13.49,-2.04,0.51,0.27,1721229226503
-21.20,-36.03,48.17,-1.78,1.05,-0.08,1721229226513
-42.91,69.93,27.17,-0.95,3.83,0.51,1721229226523
6.88,20.67,4.85,1.55,-1.78,0.55,1721229226533
0.57,-7.69,-8.20,1.22,-0.61,0.58,1721229226543
-0.73,-34.31,-14.51,1.00,0.05,-0.42,1721229226553
-6.00,7.50,-11.43,-0.98,-1.15,0.15,1721229226563
3.76,-6.49,39.81,-1.02,1.63,0.13,1721229226573
-18.60,17.19,15.77,-0.02,0.35,0.74,1721229226583
6.97,17.07,2.95,1.03,-1.04,0.49,1721229226593
1.04,-2.94,-13.76,0.39,-0.23,0.55,1721229226603
-3.87,-41.23,44.50,-2.66,-0.24,-0.83,1721229226613
-7.04,1.27,50.87,0.48,-0.29,-0.09,1721229226623
-16.42,10.89,5.26,1.15,-0.56,0.43,1721229226633
1.80,6.75,0.13,0.55,-0.12,-0.52,1721229226643
1.09,9.74,-5.20,-0.05,-0.51,0.28,1721229226653
-0.98,-21.52,-8.77,-1.01,1.12,0.22,1721229226663
-0.67,-8.88,3.51,-1.14,0.19,0.34,1721229226673
8.04,-1.73,49.96,1.53,1.53,0.55,1721229226683
4.40,21.83,9.57,1.06,-2.07,-0.08,1721229226693
-0.50,-17.45,-8.35,0.73,2.26,-0.58,1721229226703
-5.08,-14.78,-14.12,-2.63,-0.72,-0.17,1721229226713
2.49,10.83,29.16,-0.59,1.38,-0.34,1721229226723
-16.26,5.26,-42.71,-0.24,-0.75,-0.09,1721229226733
4.21,-1.16,9.15,1.06,-0.97,0.06,1721229226743
0.56,-2.14,8.44,-0.88,1.29,0.21,1721229226753
4.60,-21.32,28.49,0.17,0.49,-0.30,1721229226763
-1.52,13.33,27.69,0.27,-0.93,0.38,1721229226773
2.15,-2.57,6.77,0.65,0.02,0.36,1721229226783
4.29,4.68,-17.60,0.66,-0.45,0.47,1721229226793
5.77,7.58,-17.26,0.66,0.18,-0.22,1721229226803
-0.54,-13.53,-11.25,-1.29,-0.86,-0.77,1721229226813
-8.29,-48.96,31.42,-3.03,0.51,-0.51,1721229226823
14.81,43.38,59.83,-0.14,3.17,-0.78,1721229226833
-7.60,-24.27,12.47,3.40,-2.41,-0.11,1721229226843
-13.47,18.88,-38.19,2.07,0.88,0.52,1721229226853
-0.01,-14.22,0.13,1.81,0.25,0.62,1721229226863
-1.39,0.44,-7.40,-3.11,0.36,0.98,1721229226873
-1.12,-19.91,31.87,-1.53,0.27,0.70,1721229226883
-2.27,-1.89,7.89,-0.35,1.23,-0.16,1721229226893
8.74,-2.04,22.24,0.79,-1.57,-0.47,1721229226903
1.07,-1.70,4.92,0.32,0.19,-0.90,1721229226913
-9.62,-44.48,11.50,0.03,-0.15,-0.95,1721229226923
15.69,33.70,-2.11,0.50,0.48,-0.52,1721229226933
-2.44,0.50,16.72,0.57,0.01,0.61,1721229226943
-12.96,26.23,8.20,-0.33,0.05,0.57,1721229226953
6.30,-24.97,15.34,1.60,-1.45,-0.35,1721229226963
-3.11,-20.07,-3.92,-0.17,0.92,0.17,1721229226973
2.93,-3.38,17.28,-0.90,-0.38,0.10,1721229226983
0.94,6.11,22.50,-0.45,1.42,-0.47,1721229226993
-4.29,13.50,20.90,0.46,-0.62,0.11,1721229227003
0.43,-4.14,0.71,2.32,-0.92,0.07,1721229227013
4.30,-2.80,-20.65,1.07,0.69,0.03,1721229227023
0.30,0.21,-6.56,-2.18,-0.44,0.08,1721229227033
0.11,-13.67,30.50,-2.06,1.12,0.21,1721229227043
11.77,48.02,28.28,-0.44,-0.01,0.03,1721229227053
4.69,-4.56,16.05,0.64,-1.07,-0.25,1721229227063
-4.13,2.75,8.18,0.12,0.86,-0.74,1721229227073
-4.44,3.18,2.53,0.82,-0.40,0.24,1721229227083
-5.85,-5.81,-6.95,1.94,-0.88,0.89,1721229227093
-4.36,-10.54,-0.33,-1.26,0.03,1.16,1721229227103
7.23,-9.51,55.07,-1.04,1.17,0.55,1721229227113
2.77,8.54,37.54,-0.51,-0.28,-0.10,1721229227123
7.47,17.58,8.69,1.53,-1.16,-0.94,1721229227133
0.71,-3.75,-7.16,2.15,-0.87,-0.66,1721229227143
0.72,-16.14,-2.94,0.67,0.38,-0.39,1721229227153
-0.23,10.38,-0.47,-1.20,-0.07,0.06,1721229227163
-4.07,-7.36,41.20,-1.98,0.08,-0.24,1721229227173
-2.64,15.80,40.83,-1.01,1.90,0.22,1721229227183
-1.28,1.64,11.71,1.34,-1.65,0.55,1721229227193
11.23,5.84,-10.52,2.49,-0.37,0.01,1721229227203
-3.09,-7.65,-5.81,-0.32,-0.15,0.13,1721229227213
-2.96,-31.42,37.15,-1.45,2.02,-0.26,1721229227223
4.31,12.16,16.14,0.56,0.25,-0.12,1721229227233
-1.15,-0.74,-9.28,-1.20,-0.97,-0.08,1721229227243
9.33,-43.53,30.86,2.04,-1.85,-0.65,1721229227253
-6.57,-22.60,27.75,-1.66,0.30,0.37,1721229227263
8.26,-3.52,40.75,-0.06,1.43,0.14,1721229227273
2.90,11.70,30.06,0.15,-0.96,-0.11,1721229227283
-1.39,5.73,11.87,0.22,-0.44,-0.61,1721229227293
-8.44,13.29,7.01,0.10,-0.32,0.15,1721229227303
5.91,-17.33,12.77,1.05,-0.34,-0.12,1721229227313
-7.12,-19.83,-2.36,0.13,-0.21,0.10,1721229227323
-1.85,2.51,9.93,-0.68,-0.71,0.86,1721229227333
-20.38,9.38,-3.39,-0.13,-0.02,1.26,1721229227343
7.40,-7.09,6.97,0.29,0.17,0.54,1721229227353
6.37,24.03,25.57,-0.46,1.75,-0.34,1721229227363
-0.61,3.89,26.50,-0.65,-0.83,-0.36,1721229227373
-6.76,-66.85,-4.12,2.28,-1.29,-1.30,1721229227383
-10.47,4.68,-19.23,-1.48,0.48,-0.80,1721229227393
-8.99,-11.92,0.45,0.21,-1.10,0.94,1721229227403
-2.19,18.19,-0.06,-0.25,0.42,1.01,1721229227413
0.13,-9.49,24.27,-1.71,0.40,0.52,1721229227423
8.52,9.05,49.87,-1.40,1.61,0.62,1721229227433
8.09,19.31,36.93,0.81,-0.78,0.28,1721229227443
13.07,-17.96,12.28,3.97,-0.43,-0.64,1721229227453
-2.64,-23.17,-21.55,1.87,0.68,-0.56,1721229227463
6.12,-10.00,-9.24,-0.50,-1.51,-1.02,1721229227473
-9.70,7.33,-4.26,-2.47,0.20,-0.11,1721229227483
-5.78,-13.67,4.83,-0.22,0.00,0.57,1721229227493
-2.08,-4.05,4.76,-0.43,0.39,0.60,1721229227503
11.66,16.80,33.39,-1.31,1.69,0.78,1721229227513
8.38,5.62,56.30,0.93,-0.15,0.16,1721229227523
-2.85,6.09,16.59,0.32,-1.40,-0.05,1721229227533
7.96,-13.48,-5.80,2.00,-0.49,-0.16,1721229227543
1.07,-32.97,-13.96,0.67,-0.10,-0.75,1721229227553
19.34,35.10,-5.04,-0.73,-0.33,-1.23,1721229227563
-9.71,0.82,0.26,-1.21,1.13,0.42,1721229227573
7.92,-8.14,11.46,0.44,0.67,0.05,1721229227583
1.39,-18.17,22.52,0.19,-0.64,0.49,1721229227593
-2.43,2.35,24.60,-0.22,0.67,0.23,1721229227603
5.44,6.30,-2.93,1.63,-0.63,0.05,1721229227613
13.89,-59.67,-6.82,0.10,1.56,-0.95,1721229227623
1.98,-24.93,-1.82,-2.94,-0.51,-2.98,1721229227633
-4.16,18.88,27.19,-0.03,0.17,-0.61,1721229227643
-2.04,-0.86,-12.84,-1.12,0.43,0.38,1721229227653
2.23,2.09,-4.81,2.55,-1.01,0.62,1721229227663
-2.68,-14.20,44.31,-0.82,0.55,0.09,1721229227673
-0.31,-0.14,-0.08,0.23,0.14,-0.18,1721229227683
12.00,-10.19,6.69,0.68,-0.62,-0.55,1721229227693
-3.30,-18.58,26.73,-1.22,0.96,-0.53,1721229227703
-6.19,32.32,3.86,-0.24,0.10,-0.83,1721229227713
-2.26,-39.29,6.81,1.79,-1.02,0.03,1721229227723
-1.97,-5.44,-12.01,-1.77,1.03,-1.12,1721229227733
20.76,64.16,40.03,-0.19,0.25,-0.63,1721229227743
-16.89,-28.90,11.39,1.47,-0.76,0.90,1721229227753
-3.25,-6.95,2.20,-0.35,0.71,0.59,1721229227763
10.01,19.31,1.10,0.54,0.11,-0.25,1721229227773
-6.98,4.60,11.38,-0.49,0.22,-0.05,1721229227783
1.35,5.36,23.09,-0.92,0.76,-0.02,1721229227793
10.35,-43.25,16.42,0.20,-0.29,-0.52,1721229227803
7.78,5.51,12.89,0.68,0.14,-1.00,1721229227813
-0.13,-19.73,-10.10,-0.25,-0.09,-1.29,1721229227823
-2.49,2.14,15.50,-0.83,0.76,-1.36,1721229227833
-9.09,59.92,40.87,-0.13,1.13,-0.90,1721229227843
-3.51,3.31,16.90,0.89,-0.59,-0.09,1721229227853
-0.37,-24.02,8.57,1.35,0.89,1.26,1721229227863
-4.41,-21.16,-13.54,1.24,0.46,0.72,1721229227873
32.10,55.54,-10.56,-0.46,-1.08,-0.86,1721229227883
-9.32,14.25,-2.50,-2.09,0.26,-0.37,1721229227893
2.36,-10.07,22.02,-1.49,0.33,-0.81,1721229227903
0.01,-11.32,23.27,0.29,0.38,-0.73,1721229227913
1.20,-4.47,31.47,0.60,-0.57,-0.14,1721229227923
-0.47,39.16,-5.52,1.09,0.83,0.04,1721229227933
-0.17,-4.27,-2.00,0.54,-1.11,0.44,1721229227943
-6.62,-36.99,7.61,-1.53,0.51,0.17,1721229227953
4.20,1.58,44.83,-0.28,1.47,0.66,1721229227963
-1.23,2.75,-21.96,-0.95,-0.74,0.37,1721229227973
4.19,1.75,1.09,3.15,-0.57,-0.61,1721229227983
-19.08,-29.44,-25.69,-1.43,0.44,0.29,1721229227993
-10.10,-41.15,33.40,-2.57,0.81,-0.44,1721229228003
8.06,17.30,51.56,0.54,2.77,0.08,1721229228013
-10.12,-16.37,26.24,2.07,-1.98,0.21,1721229228023
25.50,5.60,15.61,4.37,2.06,0.64,1721229228033
25.88,-43.21,-5.68,0.19,0.76,0.98,1721229228043
-5.81,16.94,-4.15,-2.51,-0.20,0.03,1721229228053
1.41,5.53,46.98,-2.42,0.59,-0.82,1721229228063
-8.66,-38.83,21.55,-0.98,0.47,-1.46,1721229228073
23.75,50.62,48.69,1.66,-2.07,-1.23,1721229228083
-19.20,46.50,11.14,-0.25,0.56,0.62,1721229228093
-4.74,-65.49,15.99,-0.26,-1.24,-0.03,1721229228103
-4.28,-27.83,-38.85,-0.12,2.77,0.56,1721229228113
13.11,14.17,-26.83,-1.99,-1.75,0.44,1721229228123
12.59,-12.06,30.45,-1.91,2.89,0.09,1721229228133
-0.42,-19.80,10.68,0.62,-0.21,-0.53,1721229228143
-14.26,24.32,9.18,1.92,-1.70,-0.03,1721229228153
3.90,34.60,45.83,-0.74,1.26,0.59,1721229228168
-5.96,8.43,43.78,-1.54,0.46,1.00,1721229228173
-8.30,-78.45,-4.14,1.46,-0.20,1.18,1721229228183
6.93,15.53,9.29,0.72,0.88,-1.15,1721229228193
12.65,-3.50,6.02,-0.26,-1.32,-0.83,1721229228203
-7.05,14.29,-0.32,-0.73,0.52,-0.91,1721229228213
-10.48,-28.32,9.81,-0.03,-0.51,-0.50,1721229228223
-6.85,13.79,29.69,-1.44,0.86,-0.19,1721229228233
-3.21,18.53,43.53,0.06,-0.86,0.13,1721229228243
-24.03,-62.87,-6.90,3.86,-0.06,0.49,1721229228253
-2.84,-7.13,-47.21,-0.02,-0.14,-0.09,1721229228263
2.60,-1.21,7.72,-3.60,0.96,0.69,1721229228273
6.15,78.45,49.81,-0.72,-0.10,0.74,1721229228283
-15.45,12.64,31.03,-2.17,-0.09,1.34,1721229228293
-10.03,-78.45,-0.47,4.33,-3.24,-0.07,1721229228303
-9.04,-6.10,15.56,-0.67,3.13,-2.42,1721229228313
12.77,24.21,-5.26,-0.17,-3.18,-0.19,1721229228323
-26.73,-35.48,-42.06,-1.16,4.37,0.78,1721229228333
-8.64,-2.88,-23.45,2.53,-1.48,1.67,1721229228343
11.04,-1.39,-9.58,1.95,-1.77,1.11,1721229228353
2.70,-1.19,-8.78,-3.63,1.76,0.77,1721229228363
-17.57,78.45,40.15,0.04,0.11,-0.33,1721229228373
-0.81,6.77,64.10,0.08,-1.74,-0.32,1721229228383
14.23,-52.95,-10.54,2.86,-1.71,-1.50,1721229228393
-3.96,-7.39,-23.30,0.62,0.86,-0.71,1721229228403
0.43,-15.76,-18.17,1.68,-0.38,-0.26,1721229228413
-13.37,5.30,-2.04,-1.58,-0.24,0.69,1721229228423
-2.32,0.92,34.18,-0.47,1.23,0.58,1721229228433
7.61,-12.19,24.38,-0.32,2.32,0.89,1721229228443
-0.24,-49.78,26.86,0.27,-1.85,1.27,1721229228453
2.39,-15.24,-0.09,-0.88,1.67,-0.12,1721229228463
9.28,15.35,-23.43,1.80,-1.39,-0.61,1721229228473
7.83,-9.62,-22.97,3.88,-0.90,-0.37,1721229228483
-8.34,-30.79,-18.20,-3.03,0.21,-0.14,1721229228493
-22.72,-41.55,78.45,-1.26,-0.31,-0.44,1721229228503
-11.94,46.27,10.77,-2.24,-1.33,-0.08,1721229228513
38.27,33.97,14.06,4.37,-1.46,0.88,1721229228523
-2.11,-22.40,-37.88,3.21,2.08,0.08,1721229228533
8.39,-11.20,-47.82,3.15,-0.15,0.36,1721229228543
11.05,-6.33,-70.36,-3.82,0.22,-0.84,1721229228553
-1.58,3.10,0.94,-4.37,-0.37,-0.62,1721229228563
78.45,78.45,-8.03,1.50,4.37,-1.96,1721229228573
-19.07,-10.72,39.69,-0.62,-4.37,2.67,1721229228583
29.52,-28.83,58.90,4.19,4.37,0.76,1721229228593
-10.47,-6.48,-15.51,0.02,1.22,0.38,1721229228603
2.66,-2.70,-12.39,-0.16,-1.04,-0.21,1721229228613
-5.06,0.89,-4.79,-0.88,-0.79,0.18,1721229228623
0.74,-44.60,3.02,-1.54,1.59,-0.24,1721229228633
1.92,10.60,21.55,-0.14,0.04,0.29,1721229228643
-15.98,11.50,20.71,-1.31,0.00,-0.77,1721229228653
2.80,4.80,8.00,1.43,-1.28,0.24,1721229228663
-14.53,-31.89,-13.22,-0.48,1.50,0.21,1721229228673
-0.44,-0.49,-2.73,0.17,0.15,-0.81,1721229228683
0.08,-10.23,-1.66,0.63,-0.12,0.42,1721229228693
-8.36,-16.08,11.24,-0.24,0.08,-0.69,1721229228703
28.50,34.51,27.41,1.47,1.40,-1.80,1721229228713
9.29,18.47,-2.00,-0.13,-1.27,0.33,1721229228723
1.84,-7.95,-2.84,-3.14,1.73,0.19,1721229228733
1.02,-10.30,43.25,0.62,-0.14,0.03,1721229228743
-26.73,17.07,2.44,1.51,-0.31,-0.56,1721229228753
2.87,-26.20,-4.76,2.31,-0.90,0.14,1721229228763
-10.87,-16.42,-3.47,-1.95,0.37,-0.72,1721229228773
8.74,29.68,26.76,-0.21,-0.22,-0.49,1721229228783
-38.54,13.65,52.61,-1.29,0.59,0.53,1721229228793
2.66,0.54,4.72,1.37,-1.84,-0.12,1721229228803
30.22,-9.67,18.40,2.84,4.30,0.68,1721229228813
-10.31,-44.05,-37.69,-1.56,-0.12,-0.07,1721229228823
25.66,31.62,13.58,-1.33,-0.68,-1.57,1721229228833
0.60,14.14,28.30,0.10,-0.14,-0.55,1721229228843
2.18,-3.22,13.19,-1.74,1.80,-1.00,1721229228853
-3.34,-0.12,24.26,1.65,-2.16,0.30,1721229228863
3.19,-11.76,1.73,-0.10,1.70,-0.73,1721229228873
-1.19,4.10,2.57,0.40,0.19,1.12,1721229228883
2.11,-10.24,16.08,0.95,-1.06,0.45,1721229228893
2.30,0.11,-6.23,0.62,0.63,0.16,1721229228903
4.69,-35.72,-7.09,0.70,-0.07,0.10,1721229228913
-3.68,1.34,-4.84,-1.71,-0.04,-0.47,1721229228923
3.00,6.19,26.96,-1.64,1.16,-1.18,1721229228933
-6.28,-18.27,37.07,-0.44,-0.25,-0.75,1721229228943
-12.18,30.61,26.87,0.98,0.66,0.48,1721229228953
-3.79,2.98,-9.84,0.63,-0.61,0.52,1721229228963
-4.30,-29.45,0.29,2.19,-0.35,0.76,1721229228973
-1.88,-3.25,-3.42,-1.42,-0.28,0.81,1721229228983
8.41,10.92,-0.69,-1.08,0.31,-0.54,1721229228993
7.31,-22.82,34.80,-1.02,0.27,-0.23,1721229229003
-15.64,22.82,45.80,-1.74,0.46,-0.44,1721229229013
-3.16,10.53,12.45,1.44,-0.74,-0.46,1721229229023
-9.31,-47.81,-18.28,4.37,-0.60,0.70,1721229229033
-7.16,-15.60,-57.40,0.17,-1.09,-0.15,1721229229043
4.19,-11.23,-11.60,-4.37,1.45,-0.08,1721229229053
-1.06,-15.28,39.62,-0.54,1.75,0.68,1721229229063
-59.07,12.45,-2.99,-2.94,1.00,-1.70,1721229229073
27.29,32.75,18.70,3.00,-3.43,-1.40,1721229229083
-4.34,-20.79,-0.61,-0.91,2.66,0.54,1721229229093
22.17,42.53,13.94,-0.50,-0.41,0.31,1721229229103
2.14,4.35,4.36,-0.92,0.64,0.26,1721229229113
-4.65,-8.83,-2.50,-0.88,0.32,-0.14,1721229229123
9.50,0.67,10.40,1.50,-1.59,-0.41,1721229229133
4.69,0.94,24.21,-0.35,0.67,-0.51,1721229229143
-6.12,9.88,14.88,-0.57,-0.33,-0.23,1721229229153
-1.80,-19.04,1.87,1.42,-1.10,-0.22,1721229229163
-16.93,-25.42,2.10,-1.22,0.58,0.60,1721229229173
2.90,0.83,-12.75,0.79,-0.51,-0.14,1721229229183
-2.14,-26.15,5.59,-0.76,-0.18,1.39,1721229229193
-0.02,-2.08,21.01,0.79,0.79,0.78,1721229229203
19.85,70.72,-7.39,-1.55,2.11,0.34,1721229229213
14.28,-42.90,8.32,-0.09,-0.21,0.11,1721229229223
3.36,6.81,32.88,-0.26,2.10,-0.93,1721229229233
-0.98,1.53,-3.30,0.18,-2.35,-1.32,1721229229243
5.17,-7.75,-10.98,2.99,-0.75,-0.42,1721229229253
-31.05,-12.77,-15.37,-3.06,-0.55,1.12,1721229229263
-1.36,-0.89,43.04,-0.50,-0.17,1.16,1721229229273
0.05,-15.44,29.03,0.40,1.14,1.34,1721229229283
-3.37,13.34,19.21,-0.44,-1.13,0.83,1721229229293
6.52,6.86,3.43,0.55,-0.01,0.30,1721229229303
-2.34,-47.83,13.97,-0.57,0.26,-0.70,1721229229313
2.55,4.91,9.51,-1.45,0.21,-0.49,1721229229323
-40.10,38.48,19.86,0.08,0.45,-0.73,1721229229333
-13.41,-32.20,16.01,-0.22,-0.89,-0.08,1721229229343
-4.97,-4.67,-7.94,-2.26,1.28,0.15,1721229229353
-32.08,26.84,13.24,0.90,0.73,1.67,1721229229363
0.16,-59.84,18.74,0.87,-0.93,-0.01,1721229229373
1.97,-0.46,-17.82,-0.94,1.17,0.23,1721229229383
34.74,40.56,29.16,1.43,0.20,0.26,1721229229393
-4.64,-11.90,6.91,-0.85,0.51,-0.13,1721229229403
9.82,-5.31,4.73,2.82,-2.23,-0.29,1721229229413
-8.68,16.61,35.81,0.01,0.39,-0.02,1721229229423
-1.15,-1.38,-0.69,-0.21,-0.61,-1.04,1721229229433
3.85,9.49,8.31,-0.90,0.38,-0.58,1721229229443
-16.11,18.30,18.47,0.24,0.38,1.35,1721229229453
-11.69,-15.27,21.33,-1.74,-0.35,0.38,1721229229463
4.80,-25.35,15.72,1.94,-2.06,0.26,1721229229473
-3.36,15.89,15.87,-1.28,0.49,1.01,1721229229483
24.90,52.34,-13.16,-0.20,-0.45,0.39,1721229229493
0.87,-23.14,-3.13,1.68,-0.67,0.43,1721229229503
-1.49,5.85,8.14,-1.36,0.36,0.02,1721229229513
3.84,0.61,9.55,0.08,-0.73,-0.38,1721229229523
1.26,-5.32,29.99,-0.28,-0.26,-0.32,1721229229533
-3.12,28.22,4.68,0.48,0.62,-0.31,1721229229543
-1.20,-1.41,6.61,0.33,-0.53,-0.29,1721229229553
4.86,3.56,-2.55,-0.07,0.77,0.22,1721229229563
-1.09,-2.78,13.20,-0.69,0.33,0.28,1721229229573
2.09,-1.90,-1.93,0.45,-0.42,0.55,1721229229583
7.34,0.98,24.99,-0.65,0.57,0.57,1721229229593
-1.40,22.82,19.62,-0.30,0.58,-0.55,1721229229603
1.95,-0.06,4.49,1.40,-1.43,-0.15,1721229229613
-2.83,-11.45,-31.81,-0.27,1.90,-0.42,1721229229623
-15.65,-18.48,33.31,-1.86,-0.39,-0.64,1721229229633
-35.70,40.13,-14.61,-1.47,1.88,0.20,1721229229643
3.29,-26.87,6.04,2.38,-2.06,1.46,1721229229653
-3.09,-9.42,-24.03,-3.77,1.64,1.11,1721229229663
2.54,13.96,30.49,0.70,-0.85,0.53,1721229229673
-0.97,-4.82,-13.80,-0.86,-1.06,-0.00,1721229229683
14.54,21.22,35.90,0.32,0.61,-0.03,1721229229693
-3.26,-10.67,13.20,-0.11,0.49,0.05,1721229229703
1.40,-4.25,-6.45,0.10,-0.65,-0.20,1721229229713
1.37,5.24,-2.27,-1.83,-0.08,-0.78,1721229229723
2.34,-0.26,27.07,-0.31,1.30,-0.67,1721229229733
-12.14,-25.04,23.34,-0.41,-0.90,0.18,1721229229743
-7.59,31.79,34.43,0.09,0.33,0.58,1721229229753
-7.03,-21.36,3.87,0.04,0.36,0.76,1721229229763
1.06,-9.45,4.81,-0.41,0.47,0.01,1721229229773
3.40,-2.66,10.17,0.07,-0.40,0.11,1721229229783
7.92,1.98,14.10,-0.39,1.37,-0.15,1721229229793
-1.64,-4.94,30.25,-0.29,-0.38,-0.69,1721229229803
0.64,15.32,12.40,0.22,-0.00,-0.26,1721229229813
1.09,2.38,-4.36,0.54,-0.58,0.25,1721229229823
-1.04,-2.53,3.17,-0.17,0.84,0.34,1721229229833
2.53,-2.52,11.61,-0.28,0.54,-0.25,1721229229843
-3.22,4.35,4.70,-0.18,-0.23,-0.34,1721229229853
6.29,-31.97,10.75,2.14,-1.47,-0.25,1721229229863
-1.01,-7.30,19.05,-2.20,0.37,0.19,1721229229873
25.71,64.43,11.30,-1.17,1.13,-0.55,1721229229883
-0.55,-5.78,24.19,0.47,-1.18,-0.30,1721229229893
1.94,1.79,-0.05,1.72,-1.16,-0.58,1721229229903
-11.76,14.82,-9.47,-0.18,0.25,0.02,1721229229913
9.70,-56.52,15.37,-0.96,0.80,-1.13,1721229229923
-4.86,-3.67,4.51,-0.74,0.97,0.12,1721229229933
1.34,0.98,15.66,0.77,-0.30,0.14,1721229229943
7.61,16.23,25.12,-0.47,-0.53,0.16,1721229229953
2.59,42.51,31.27,0.77,0.34,0.37,1721229229963
-1.73,7.18,2.72,0.86,-0.98,0.50,1721229229973
15.21,-55.76,5.29,4.37,-1.40,0.16,1721229229983
-6.60,-8.53,-43.60,-2.06,-0.04,0.06,1721229229993
15.12,8.91,11.43,-1.02,-0.85,-0.72,1721229230003
-1.16,0.32,21.60,-0.97,0.72,-0.42,1721229230013
-0.33,-21.68,18.61,-0.42,-0.05,-0.58,1721229230023
-0.65,8.65,37.42,1.42,-1.14,0.30,1721229230033
-8.17,27.81,-1.50,0.32,-0.26,0.58,1721229230043
-0.03,-6.47,-1.40,-0.51,-0.46,0.06,1721229230053
3.51,-29.22,23.97,-0.41,0.54,-0.04,1721229230063
0.38,3.29,-1.47,0.68,-0.47,0.46,1721229230073
2.95,-19.51,-4.31,-0.55,-0.07,-0.90,1721229230083
0.81,-28.53,19.23,-0.52,0.36,-0.81,1721229230093
19.53,36.60,2.23,1.50,0.02,-0.81,1721229230103
-1.46,2.55,-3.64,-0.06,-0.84,0.15,1721229230113
6.84,1.35,29.69,-1.92,2.04,0.24,1721229230123
0.95,-17.07,19.81,-0.08,0.29,0.30,1721229230133
10.38,-5.58,-2.85,2.66,-1.38,-0.23,1721229230143
-0.23,-12.11,-4.81,-1.55,0.88,-0.03,1721229230153
5.90,41.51,18.14,0.61,-0.07,-0.40,1721229230163
-2.60,-22.07,31.48,-0.67,-0.35,-0.96,1721229230178
2.45,3.99,25.22,-0.47,-1.06,-0.64,1721229230183
-4.95,-1.44,15.88,0.33,0.00,-0.28,1721229230193
1.50,-2.93,-1.17,1.68,-0.20,-0.21,1721229230203
-7.45,-1.01,8.34,-1.27,0.78,-0.08,1721229230213
-2.23,-7.61,36.64,-0.65,0.27,0.95,1721229230223
-0.01,14.82,34.91,-1.86,0.55,1.05,1721229230233
6.79,-0.01,29.12,0.41,-1.08,-0.11,1721229230243
3.28,23.93,3.59,0.77,-0.27,-0.41,1721229230253
1.58,-1.74,-4.83,-0.50,-1.09,-0.60,1721229230263
-5.23,-4.03,22.27,-1.13,0.19,-0.45,1721229230273
-5.09,-7.37,5.65,0.96,-0.73,-0.03,1721229230283
-11.98,3.66,-39.79,1.99,-0.82,0.28,1721229230293
-2.45,-22.77,-14.59,0.61,0.15,0.23,1721229230303
4.62,-16.07,-11.20,-4.09,0.30,0.58,1721229230313
47.94,78.45,78.45,-0.82,1.33,0.01,1721229230323
3.15,36.93,46.07,0.10,-3.15,2.24,1721229230333
-1.65,-78.45,-17.87,4.37,-1.80,1.32,1721229230343
-18.38,-23.17,-78.45,1.67,-0.13,-0.52,1721229230353
11.96,-28.29,-6.41,-2.83,-0.84,-0.98,1721229230363
27.67,36.88,-33.19,-2.83,2.22,-0.90,1721229230373
-1.27,-19.13,78.45,-1.97,4.37,-0.23,1721229230383
-64.06,13.57,7.41,-0.91,-4.37,-0.13,1721229230393
46.72,-44.88,3.09,1.84,3.83,-0.78,1721229230403
-67.04,46.07,-3.33,0.95,1.88,1.45,1721229230413
28.84,-1.01,-23.79,2.29,-2.33,0.03,1721229230423
-6.94,-15.62,-16.25,-4.37,2.95,-0.27,1721229230433
28.03,54.63,68.07,-0.68,-1.72,-0.34,1721229230443
-10.97,35.41,10.02,-3.49,0.31,-2.02,1721229230453
25.32,-49.03,36.85,4.37,-4.37,-0.78,1721229230463
-31.90,35.13,-15.44,-1.85,3.67,-0.04,1721229230473
18.06,43.74,-3.79,-0.11,-3.71,0.57,1721229230483
2.92,0.30,-5.07,1.80,1.03,0.12,1721229230493
-1.53,-48.86,-14.48,-1.24,0.53,1.03,1721229230503
2.10,-21.48,24.54,-3.12,-1.56,-1.15,1721229230513
-8.69,38.51,60.93,-0.65,1.00,-1.47,1721229230523
-1.27,3.10,29.72,3.04,-1.50,-0.10,1721229230533
12.91,18.86,-29.78,3.99,1.12,0.93,1721229230543
4.81,-41.17,-30.11,1.03,-0.32,0.71,1721229230553
-14.44,5.26,-23.43,-2.76,-0.04,-0.61,1721229230563
1.24,-3.68,4.35,-4.37,-1.32,-0.47,1721229230573
5.28,33.02,77.01,-2.08,4.05,-1.57,1721229230583
0.99,48.04,31.49,1.67,-4.37,1.89,1721229230593
1.41,-8.85,-20.54,4.37,-0.56,0.18,1721229230603
0.16,-42.76,-18.11,-1.76,0.92,0.08,1721229230613
-3.58,-3.09,-3.49,-0.00,-0.44,-0.79,1721229230623
0.65,0.74,-9.25,0.62,-1.06,-0.71,1721229230633
-3.85,-6.98,13.83,-0.71,0.71,-0.35,1721229230643
-17.65,26.42,19.67,0.22,0.91,0.59,1721229230653
-0.40,8.34,4.91,1.87,-0.98,0.96,1721229230663
4.20,-19.59,0.32,0.20,2.65,0.10,1721229230673
-1.48,4.53,-1.53,-2.86,-0.64,0.57,1721229230683
0.66,23.95,43.82,0.10,1.46,-0.10,1721229230693
-15.76,-17.31,7.30,-1.00,0.82,-0.39,1721229230703
14.43,-10.96,17.48,3.99,-3.16,-0.84,1721229230713
-1.21,-6.70,-7.28,-0.79,1.18,-0.30,1721229230723
-0.83,-6.69,3.02,0.67,-0.23,-0.20,1721229230733
-13.14,13.10,3.60,-0.03,0.21,0.17,1721229230743
5.89,12.85,-11.87,0.67,0.21,0.30,1721229230753
-2.49,-76.58,39.76,-0.92,-0.24,-0.30,1721229230763
-0.75,-3.63,36.18,-0.32,1.40,-0.47,1721229230773
6.08,7.22,-9.46,-0.52,-1.26,-0.54,1721229230783
-15.96,-56.04,35.21,2.80,-1.91,0.09,1721229230793
8.36,35.42,-4.58,-0.92,0.24,-0.64,1721229230803
-6.32,22.01,-6.22,-2.37,-0.55,0.99,1721229230813
-3.96,-62.91,-2.70,1.24,-1.16,0.46,1721229230823
-3.56,20.25,25.88,-1.88,1.70,0.78,1721229230833
3.72,28.22,1.21,-0.19,-1.05,0.34,1721229230843
-15.63,-72.08,13.59,2.76,-1.66,0.19,1721229230853
-23.26,24.20,-1.54,-1.76,1.07,0.80,1721229230863
7.03,23.79,5.81,-0.92,-0.38,-0.69,1721229230873
-12.64,-43.90,37.70,-1.97,0.85,-1.29,1721229230883
-3.18,-1.38,36.70,1.39,-1.32,-0.07,1721229230893
-18.44,22.09,-8.64,0.02,-0.39,0.53,1721229230903
-3.75,-78.45,49.15,2.66,-1.01,1.11,1721229230913
-42.05,45.93,17.55,-1.89,0.96,2.05,1721229230923
56.69,49.75,51.94,1.61,2.29,-0.43,1721229230933
-9.49,-25.73,25.16,-1.74,0.16,-1.25,1721229230943
9.00,-12.67,19.01,2.35,-2.57,-0.46,1721229230953
-38.56,43.02,-18.66,0.20,0.46,-0.17,1721229230963
-6.18,-31.18,5.04,-0.07,-0.21,-0.44,1721229230973
-11.29,-18.52,-47.66,-0.67,3.36,-0.51,1721229230983
-12.14,9.21,-0.33,-0.24,-0.67,1.53,1721229230993
3.81,-0.70,22.09,0.61,-0.34,0.92,1721229231003
13.15,58.14,36.74,0.12,-0.19,0.31,1721229231013
3.64,-22.93,34.26,-0.99,-1.60,-0.80,1721229231023
-0.96,-18.63,13.66,-0.05,0.43,-0.59,1721229231033
-15.57,25.27,-9.32,1.36,-0.73,0.19,1721229231043
0.30,-7.67,-5.38,0.57,-0.40,0.71,1721229231053
-2.47,-7.23,-8.96,-0.53,1.45,0.64,1721229231063
-0.19,9.69,35.74,-1.31,-0.50,0.92,1721229231073
-16.67,-3.26,16.47,-2.45,2.03,-1.42,1721229231083
9.43,8.66,8.30,1.42,-3.59,-0.76,1721229231093
0.29,0.80,-23.93,0.48,0.63,-0.92,1721229231103
-3.05,-8.38,-7.80,0.13,-0.39,0.06,1721229231113
-1.41,-15.87,-1.02,-0.49,0.51,0.22,1721229231123
-2.01,8.49,21.03,0.04,-0.57,0.99,1721229231133
-9.86,17.24,23.54,-0.50,-0.43,1.31,1721229231143
6.82,-6.00,8.42,1.79,-1.66,0.71,1721229231153
0.23,-12.47,19.25,-0.29,0.47,0.27,1721229231163
2.25,-1.09,3.49,0.21,-0.24,-0.15,1721229231173
-12.80,5.52,-16.31,2.43,-1.22,-0.51,1721229231183
-6.44,-27.11,-6.24,-2.16,0.72,-0.65,1721229231193
-13.01,-13.77,78.45,-0.86,-0.36,0.18,1721229231203
-20.30,21.62,6.22,-1.97,0.35,-0.17,1721229231213
24.09,-27.87,6.93,4.37,-3.94,0.77,1721229231223
-33.95,14.74,-29.83,-3.38,0.18,0.32,1721229231233
24.68,19.35,35.02,0.14,-1.02,0.42,1721229231243
-1.87,-8.66,-13.80,-0.60,2.02,-0.65,1721229231253
21.75,-23.82,1.15,4.11,-3.45,-0.06,1721229231263
-39.62,34.25,-8.52,-4.23,0.33,0.19,1721229231273
4.02,4.75,46.80,1.19,-0.43,-0.18,1721229231283
-7.42,5.12,27.85,-0.13,-0.38,0.92,1721229231293
12.58,15.47,-9.40,0.27,-0.30,0.87,1721229231303
26.90,-74.96,36.63,-2.99,1.88,-0.97,1721229231313
1.41,-10.03,20.86,0.78,-0.58,-0.32,1721229231323
5.83,18.22,-5.35,0.89,-1.08,-0.33,1721229231333
-2.81,-10.57,9.96,-0.93,0.25,-0.63,1721229231343
-3.24,12.83,40.65,-0.51,-0.25,-0.83,1721229231353
-8.54,22.81,30.15,-0.30,-0.75,-0.08,1721229231363
9.51,-46.37,-4.73,3.49,-0.34,-1.12,1721229231373
-4.92,-6.20,-7.04,0.98,1.11,-0.15,1721229231383
-14.16,1.45,-8.69,-0.67,-1.53,0.15,1721229231393
-4.34,-8.51,-2.21,-1.47,1.54,-0.28,1721229231403
-0.82,-12.33,14.27,-0.70,0.09,0.25,1721229231413
-6.21,-2.49,27.78,-1.45,1.33,-0.19,1721229231423
-6.43,18.32,15.70,-0.93,-0.62,-1.07,1721229231433
0.60,-5.41,14.09,1.43,-1.13,-0.65,1721229231443
-3.35,9.55,-2.23,1.29,0.83,0.21,1721229231453
-9.03,25.80,-12.59,0.86,-0.53,0.51,1721229231463
9.26,-11.15,-0.41,0.16,1.30,-0.30,1721229231473
-28.81,-78.45,48.69,-3.56,-0.11,-1.08,1721229231483
-0.52,13.57,54.85,0.45,0.29,-1.36,1721229231493
23.40,51.67,8.56,0.94,-2.05,-0.08,1721229231503
5.80,-22.99,-5.79,4.37,-0.32,0.11,1721229231513
-9.79,-0.10,-38.85,-0.73,0.54,1.19,1721229231523
10.35,19.95,-0.82,-1.64,0.15,0.22,1721229231533
0.88,-34.31,78.45,-3.52,1.24,-0.09,1721229231543
-10.92,-24.44,44.20,-1.86,0.34,-0.75,1721229231553
27.34,37.78,42.92,0.95,-2.34,-1.14,1721229231563
-3.39,27.04,-7.13,1.80,0.58,-0.34,1721229231573
0.56,-2.52,-2.57,0.90,-0.93,-0.11,1721229231583
-10.50,8.29,-8.04,-3.90,1.19,-0.13,1721229231593
-10.16,-5.08,44.22,-0.10,0.57,0.51,1721229231603
6.89,-30.12,-11.22,1.94,-0.40,-1.16,1721229231613
23.43,22.57,16.70,-0.41,1.48,-1.26,1721229231623
4.73,35.30,2.71,0.12,0.26,-0.69,1721229231633
2.33,1.20,-27.33,0.23,-1.07,-0.32,1721229231643
-8.59,-42.93,-16.64,-4.25,1.69,-0.50,1721229231653
4.87,-21.33,78.45,-1.00,1.16,0.16,1721229231663
25.38,41.36,57.18,1.96,-1.18,1.20,1721229231673
-8.19,-36.23,-32.28,4.37,-0.68,0.09,1721229231683
9.85,7.48,-54.28,1.58,0.50,0.04,1721229231693
10.40,-20.78,-51.85,-1.59,0.26,0.16,1721229231703
-2.47,-35.98,11.73,-4.37,0.03,-0.39,1721229231713
7.69,3.26,60.04,-0.82,3.34,-0.91,1721229231723
-29.38,-15.06,-21.73,-3.71,-0.33,-0.71,1721229231733
28.63,42.12,1.64,2.34,-2.58,-2.35,1721229231743
-33.18,24.57,-17.21,-0.13,0.77,1.62,1721229231753
24.57,-62.09,12.85,0.05,0.05,-0.20,1721229231763
-1.26,-44.06,7.95,-1.51,1.39,-0.88,1721229231773
14.15,78.45,11.12,0.32,-0.48,0.18,1721229231783
-10.84,-20.47,55.17,-1.83,0.95,-0.96,1721229231793
31.65,44.59,5.60,1.49,-0.49,0.01,1721229231803
-2.52,-11.65,20.65,2.13,-0.66,0.56,1721229231813
1.44,0.90,1.96,-0.17,1.34,-0.05,1721229231823
5.10,-6.36,8.78,0.75,0.31,0.46,1721229231833
-3.07,-11.86,-3.00,1.41,-0.60,-0.36,1721229231843
1.54,2.00,-2.29,-1.11,-0.48,-0.78,1721229231853
-2.02,10.08,17.48,-0.43,0.38,-0.61,1721229231863
1.60,-8.44,-5.51,2.40,-0.08,-0.53,1721229231873
-8.85,-12.64,-6.49,-1.01,0.45,-0.36,1721229231883
12.68,-29.05,49.95,-0.37,0.67,0.33,1721229231893
-8.18,6.14,6.98,-1.38,0.45,0.37,1721229231903
31.95,50.86,2.15,2.18,-1.09,-0.91,1721229231913
-3.20,33.89,-25.80,1.08,-0.36,0.24,1721229231923
17.06,-62.95,-35.37,0.05,-1.89,-1.40,1721229231933
-5.26,-17.59,16.88,-1.63,1.03,-0.72,1721229231943
78.45,78.45,56.16,0.04,-1.36,-2.39,1721229231953
-74.97,-24.97,-27.21,-0.13,-2.61,0.41,1721229231963
31.07,-16.29,-53.51,4.24,3.50,-0.15,1721229231973
-20.73,8.93,-50.62,-1.32,0.68,1.13,1721229231983
7.85,-28.29,-5.42,-0.18,-1.14,0.30,1721229231993
-0.12,-30.08,54.78,-3.43,1.82,0.99,1721229232003
78.45,78.45,-9.00,0.44,3.42,-2.24,1721229232013
1.36,-1.35,15.86,1.03,-2.50,-0.44,1721229232023
4.37,-14.26,-8.95,4.37,-1.17,-0.88,1721229232033
-18.02,-24.62,-22.02,-0.82,0.18,0.14,1721229232043
-16.50,-19.87,1.01,-3.05,0.70,0.60,1721229232053
-11.15,15.24,1.67,-0.04,0.12,1.67,1721229232063
-2.33,-3.41,-27.44,-1.55,1.29,0.83,1721229232073
1.83,2.54,4.82,0.46,0.00,1.26,1721229232083
19.31,24.76,-7.00,0.82,-0.44,0.23,1721229232093
9.38,-28.45,-17.43,-1.52,0.29,-0.79,1721229232103
-9.62,-61.83,74.94,-3.16,0.61,-2.07,1721229232113
32.88,78.45,9.59,-2.08,-0.63,-4.26,1721229232123
0.92,-0.85,-2.57,1.54,1.01,1.34,1721229232660
10.58,2.77,-19.01,3.34,0.29,0.72,1721229232664
9.99,-11.56,-14.80,1.37,-1.29,-0.14,1721229232674
-6.58,8.63,-12.66,-3.76,0.83,-0.95,1721229232684
78.45,78.45,78.45,1.86,1.75,-1.52,1721229232694
-21.15,23.03,36.38,0.65,-1.18,1.07,1721229232704
0.28,-40.98,-18.58,4.37,-1.18,-1.14,1721229232714
-7.31,-14.36,-65.23,0.76,1.38,-0.40,1721229232724
21.74,31.50,-26.29,-1.52,-1.66,0.36,1721229232734
-17.72,13.66,-16.93,-2.99,2.10,-0.05,1721229232744
1.81,-12.62,48.18,-2.99,1.04,-0.07,1721229232754
13.71,-4.88,48.37,-1.43,3.72,-1.26,1721229232764
-8.73,31.55,30.91,1.21,-2.44,-0.17,1721229232774
-19.15,-78.45,12.76,1.69,0.58,0.96,1721229232784
-20.25,20.85,-1.08,1.56,0.89,2.24,1721229232794
2.58,-7.25,-7.24,-0.68,-1.92,1.49,1721229232804
10.67,-10.32,25.28,-1.33,1.99,0.25,1721229232814
3.50,78.45,40.91,-1.19,1.07,-0.68,1721229232824
9.11,-12.01,10.26,1.73,-3.16,-1.28,1721229232834
4.89,-39.84,-9.76,-0.74,4.37,-0.65,1721229232844
15.28,78.45,-67.77,0.34,-2.37,-0.47,1721229232854
0.52,-18.16,-10.85,2.36,-1.97,0.01,1721229232864
-11.59,-15.28,70.58,-4.37,1.23,1.14,1721229232874
-39.50,77.49,59.12,-0.47,0.95,1.96,1721229232884
-1.05,23.05,33.21,0.74,-1.54,0.82,1721229232894
23.67,-52.56,0.89,4.37,-2.61,-0.89,1721229232904
0.40,-5.50,-20.72,-1.76,0.62,-0.60,1721229232914
-1.82,4.52,9.63,-1.56,-0.56,0.13,1721229232924
-3.31,5.13,-22.84,-0.05,-0.36,0.24,1721229232934
3.68,-45.38,3.32,-0.03,0.41,0.05,1721229232944
0.83,6.81,34.74,-1.27,0.30,0.10,1721229232954
-0.49,78.45,26.48,0.57,0.39,-0.07,1721229232964
1.10,-11.27,-14.49,1.95,-1.52,-0.26,1721229232974
7.63,-62.40,-40.43,-0.05,3.90,-0.93,1721229232984
-8.70,-4.98,-38.64,-2.22,-0.57,0.37,1721229232994
1.07,-5.01,12.85,-2.25,-2.25,0.03,1721229233004
-5.96,-2.34,64.87,-0.13,2.98,0.29,1721229233014
-7.96,49.10,10.10,2.13,-3.10,1.61,1721229233024
16.37,-24.68,-13.60,4.37,-1.56,0.59,1721229233034
-3.07,30.91,-8.17,-3.11,-0.64,0.25,1721229233044
26.48,32.03,52.38,-1.10,-0.29,0.22,1721229233054
-12.38,-78.45,16.12,-3.81,3.85,-2.53,1721229233064
4.64,2.30,8.92,2.43,-4.37,-0.79,1721229233074
-7.50,15.69,40.16,-1.09,2.35,-0.78,1721229233084
-3.06,-3.70,25.49,0.32,1.40,-0.12,1721229233094
-7.28,8.26,-13.24,1.39,-1.65,1.27,1721229233104
2.28,-2.14,-0.05,1.38,-1.23,1.27,1721229233114
8.13,-29.58,50.49,-3.20,1.62,0.47,1721229233124
2.21,6.90,1.34,-0.01,0.38,0.29,1721229233134
8.02,-22.21,-0.22,2.28,-2.09,0.69,1721229233144
0.28,-3.37,-31.25,-1.00,0.94,-1.31,1721229233154
5.41,43.36,22.83,-1.17,-0.85,-0.97,1721229233164
-40.57,37.44,48.53,-0.47,1.91,-0.19,1721229233174
9.65,-69.45,16.25,0.04,-1.20,-0.24,1721229233184
3.15,15.29,12.15,3.99,0.24,-0.20,1721229233194
-6.90,36.26,-10.92,-3.07,-2.15,0.02,1721229233204
4.39,-4.08,61.84,0.47,0.89,-0.43,1721229233214
-5.58,1.72,-6.03,-1.18,0.39,1.09,1721229233224
12.82,2.11,41.97,2.10,-0.27,0.68,1721229233234
-1.29,16.63,14.58,-1.43,0.04,-0.11,1721229233244
3.69,-7.15,-4.94,1.94,-1.60,-0.84,1721229233254
15.41,5.26,33.70,3.41,2.21,0.61,1721229233264
3.48,-15.06,-41.07,0.36,-0.99,-0.27,1721229233274
5.76,-0.11,-5.84,-2.42,1.22,-0.42,1721229233284
-10.97,-15.86,17.47,-3.34,0.47,-1.01,1721229233294
-21.18,24.51,69.30,-3.47,4.37,-0.63,1721229233304
22.05,44.80,42.03,3.15,-4.17,0.10,1721229233314
-6.13,-9.04,-32.31,1.95,1.78,-0.24,1721229233324
4.31,-8.03,-0.77,1.23,0.18,0.98,1721229233334
4.58,6.77,2.31,-2.23,1.02,-0.25,1721229233344
5.91,4.77,35.83,-1.62,0.30,-0.26,1721229233354
17.81,-29.31,-3.09,-1.11,0.59,-1.28,1721229233364
1.37,7.20,28.02,0.02,-1.23,-0.66,1721229233374
-13.23,13.99,-8.19,-0.30,0.76,0.54,1721229233384
-35.54,-72.11,20.49,1.13,-1.06,1.19,1721229233394
21.52,47.95,-10.11,-0.21,0.40,-0.20,1721229233404
6.78,17.58,-5.58,0.25,-0.39,0.45,1721229233414
9.84,-46.98,17.68,-1.49,1.49,-0.58,1721229233424
1.35,2.05,24.71,-0.22,0.03,-0.94,1721229233434
-0.18,19.82,9.81,-0.71,-1.18,-0.96,1721229233444
-1.21,-2.07,21.44,-0.00,0.04,-0.50,1721229233454
-11.61,23.58,6.12,0.26,1.22,0.54,1721229233464
0.09,0.88,-0.59,0.59,-1.01,0.58,1721229233474
1.36,-18.59,-4.78,-0.59,1.71,0.26,1721229233484
-3.19,6.34,7.63,-0.06,0.36,0.73,1721229233494
2.85,-39.08,-18.37,-0.55,-0.93,-0.78,1721229233504
7.94,-13.59,40.94,-0.40,1.09,-0.45,1721229233514
47.38,78.45,-0.89,-0.30,-1.08,-1.43,1721229233524
0.34,-2.41,18.20,0.87,-1.20,-0.61,1721229233534
1.17,-5.20,12.51,-0.56,1.16,-0.21,1721229233544
-2.43,6.50,3.04,-0.30,-0.04,0.05,1721229233554
-22.12,-44.99,8.65,1.17,-0.98,0.34,1721229233564
-6.52,-6.84,-0.15,-0.41,0.60,0.11,1721229233574
2.66,50.35,-9.56,-0.03,-0.06,-0.46,1721229233584
-13.52,-5.94,39.42,-1.03,-0.21,0.40,1721229233594
-3.93,-31.27,22.27,-0.18,-0.09,-0.29,1721229233604
3.01,-6.64,3.41,0.38,-0.79,0.04,1721229233614
-1.56,-15.91,7.64,-0.38,0.17,-0.60,1721229233624
26.83,75.57,-2.57,0.75,0.44,-0.11,1721229233634
-1.77,-7.48,-0.76,-1.31,-0.21,-0.05,1721229233644
9.56,4.39,26.17,-0.73,2.30,-0.15,1721229233654
2.30,18.51,-3.90,-0.20,-0.76,-0.17,1721229233664
-11.96,-78.45,12.67,2.04,-2.69,-0.57,1721229233674
-28.78,33.49,25.24,-1.14,1.84,0.85,1721229233684
-0.62,16.56,-7.74,0.74,-1.50,0.23,1721229233694
-2.52,-8.69,15.87,0.16,-1.07,0.04,1721229233704
-15.28,46.43,27.70,0.03,0.34,0.81,1721229233714
0.92,9.84,43.83,-0.42,-0.51,0.58,1721229233724
12.10,-47.42,1.40,1.28,-1.43,-0.87,1721229233734
4.88,-0.37,-20.90,1.28,1.05,0.43,1721229233744
-7.52,-14.87,-19.44,0.42,-0.95,0.27,1721229233754
3.19,0.83,-0.32,-2.61,0.69,-0.29,1721229233764
3.44,46.80,17.09,-0.86,0.36,-0.09,1721229233774
-6.42,-15.40,44.56,-2.58,-0.96,0.04,1721229233784
2.65,2.43,2.13,3.08,-1.86,-0.74,1721229233794
-0.88,-22.99,-38.94,0.88,1.80,-0.40,1721229233804
0.02,-33.04,-19.82,-3.02,1.17,-0.33,1721229233814
7.87,58.38,-0.34,0.68,0.05,0.07,1721229233824
-6.91,2.83,35.15,-0.67,0.85,2.03,1721229233834
3.70,-59.64,-1.68,0.66,-1.64,0.60,1721229233844
7.55,-4.45,37.73,-0.64,2.07,-0.82,1721229233854
-12.80,12.31,6.92,-0.97,-0.41,-1.11,1721229233864
-23.34,-32.57,12.28,2.04,-1.88,-0.30,1721229233874
4.98,31.97,-30.45,1.54,0.51,0.47,1721229233884
-6.69,3.35,0.01,0.07,-0.70,1.06,1721229233894
7.67,-7.41,54.58,-0.69,3.68,1.11,1721229233904
-2.50,-12.16,50.86,-1.80,-0.02,0.30,1721229233914
4.63,-5.08,9.07,2.51,-2.94,0.07,1721229233924
9.92,25.90,-22.62,1.90,0.43,-0.06,1721229233934
1.32,-8.29,-13.69,1.67,-0.31,-0.02,1721229233944
-2.20,37.74,-28.18,0.41,0.41,-0.03,1721229233954
-0.17,-12.13,-1.96,-4.37,0.78,0.61,1721229233964
-2.15,-73.19,78.45,-0.62,4.37,-3.52,1721229233974
-36.48,26.74,70.69,1.91,-4.37,1.25,1721229233984
21.73,-16.87,5.39,4.37,4.01,1.35,1721229233994
-69.44,-78.45,-65.79,1.22,2.98,2.07,1721229234004
6.80,74.23,-33.76,-1.13,-4.37,0.21,1721229234014
8.96,-2.25,29.57,-4.37,-1.00,0.31,1721229234024
-16.54,40.46,78.45,-3.61,4.37,-1.19,1721229234034
-24.66,-13.07,32.62,2.82,-4.37,3.64,1721229234044
26.37,10.64,-7.73,4.37,-1.22,-0.96,1721229234054
-6.64,-16.03,-34.60,0.48,1.99,0.06,1721229234064
5.07,-42.20,-32.18,-0.28,-0.34,-0.00,1721229234074
-8.97,-16.63,-16.97,-3.68,-3.11,0.52,1721229234084
30.61,-6.32,78.45,2.12,1.60,1.13,1721229234094
-36.26,30.49,-16.54,0.90,-3.62,2.29,1721229234104
17.87,3.03,-11.30,4.37,-0.01,-0.69,1721229234114
0.35,-18.09,-43.03,2.02,-1.06,-0.31,1721229234124
23.79,-37.28,3.11,-0.97,-0.26,-0.68,1721229234134
-60.45,57.09,24.59,-4.37,-1.32,1.78,1721229234144
10.33,31.80,78.45,-1.23,4.37,-0.86,1721229234154
3.30,14.59,-4.82,3.18,-3.82,1.08,1721229234164
14.15,43.91,-18.45,2.38,2.18,0.81,1721229234174
6.15,-15.04,-18.70,-2.33,-1.39,0.30,1721229234184
-1.01,-78.45,23.67,-3.81,4.37,-1.79,1721229234194
-42.98,78.45,44.88,0.56,-1.45,-0.45,1721229234204
-15.80,24.79,26.12,0.67,-1.95,0.74,1721229234214
3.15,-27.16,15.11,4.37,-0.93,-0.51,1721229234224
-9.22,-6.10,-3.62,-2.37,1.07,0.14,1721229234234
-10.87,13.98,12.12,-0.01,-0.88,0.98,1721229234244
-0.26,2.16,37.57,0.26,0.46,1.39,1721229234254
0.30,9.96,23.15,-0.61,-0.21,1.56,1721229234264
7.44,-12.02,9.96,1.49,-1.28,0.03,1721229234274
9.59,-0.07,17.42,-0.66,0.46,-0.31,1721229234284
3.75,7.83,22.28,0.36,-0.04,-0.65,1721229234294
-0.15,9.70,37.91,-0.42,-0.54,0.31,1721229234304
-4.21,-9.76,17.37,-0.03,0.17,-0.23,1721229234314
1.76,-26.06,-5.08,0.51,0.53,-0.11,1721229234324
3.70,20.55,-11.97,1.91,-0.36,0.37,1721229234334
-0.96,-16.75,15.62,-1.63,0.94,-0.20,1721229234344
-0.97,9.30,40.58,-0.10,0.82,-0.45,1721229234354
-4.45,5.92,19.84,0.14,-0.50,0.65,1721229234364
-14.13,-34.71,8.90,0.46,-1.33,0.40,1721229234374
-1.24,-5.22,4.17,0.41,0.48,0.45,1721229234384
2.88,-2.19,12.24,-0.98,-0.10,0.11,1721229234394
-0.06,10.25,14.78,-0.36,1.13,-0.37,1721229234404
6.59,16.72,7.33,0.99,-0.19,-0.11,1721229234414
-1.29,-19.47,-11.90,2.47,-0.70,0.11,1721229234424
-7.86,-20.59,-13.52,-1.67,0.50,0.49,1721229234434
0.77,-22.84,35.55,-1.72,0.39,-0.79,1721229234444
2.10,6.17,12.23,-0.61,1.99,-0.66,1721229234454
-10.48,9.11,12.10,0.78,-1.44,0.45,1721229234464
-1.37,3.28,-9.03,1.39,-0.59,0.12,1721229234474
-6.33,-13.63,-0.67,-0.89,0.59,0.51,1721229234484
-0.07,2.60,0.09,0.21,0.69,0.11,1721229234494
8.84,-45.23,10.60,-0.06,-0.86,-1.17,1721229234504
0.38,-0.77,23.20,-0.76,0.60,-0.46,1721229234514
-6.38,47.66,13.73,0.16,-0.18,-0.67,1721229234524
-0.10,-8.42,8.60,1.04,-0.17,-0.36,1721229234534
-3.21,-18.30,14.26,-0.04,1.01,-0.12,1721229234544
20.69,53.79,-5.07,1.00,0.26,-0.14,1721229234554
7.16,-5.62,18.95,0.71,0.01,-0.15,1721229234564
1.63,-10.45,14.06,0.85,-0.22,0.03,1721229234574
4.71,5.70,-10.08,-0.75,-0.23,-0.37,1721229234584
2.30,-12.06,20.00,-0.13,0.13,-1.02,1721229234594
-3.92,12.20,20.08,0.58,-0.53,-0.06,1721229234604
-2.70,5.21,-11.60,0.97,-0.68,0.17,1721229234614
-6.32,-58.89,12.25,-0.49,0.61,-0.02,1721229234624
-5.26,6.17,12.40,-1.21,0.69,0.22,1721229234634
6.68,44.87,-3.79,0.11,-0.57,0.11,1721229234644
10.70,-41.47,10.62,0.38,-0.74,-1.23,1721229234654
-2.72,12.30,12.77,-0.35,0.13,0.77,1721229234669
3.43,-9.79,19.32,-0.29,-0.39,-0.22,1721229234674
1.00,12.34,8.85,-0.49,0.10,-0.55,1721229234684
4.56,33.19,4.94,0.76,0.26,-0.35,1721229234694
-0.96,1.02,-6.28,0.22,-0.66,0.66,1721229234704
-3.43,-45.31,8.84,-0.03,0.32,0.02,1721229234714
-2.36,6.76,16.64,-0.70,0.68,0.46,1721229234724
2.22,4.16,13.50,0.14,-0.82,0.17,1721229234734
1.95,-7.69,7.51,0.20,-0.67,-0.74,1721229234744
-2.22,-5.32,-2.52,0.84,-0.14,-0.01,1721229234754
-2.23,-4.45,-6.54,-0.26,-0.29,-0.12,1721229234764
1.66,-0.36,2.78,-0.94,1.22,0.21,1721229234774
4.99,20.93,32.40,-1.05,0.63,0.39,1721229234784
4.23,-10.99,18.66,0.51,-0.72,-0.78,1721229234794
-2.24,-3.25,-0.27,1.73,-1.36,-0.10,1721229234804
2.72,20.49,-19.12,0.88,0.55,0.16,1721229234814
-2.57,-11.74,-8.13,-1.02,-0.61,0.51,1721229234824
-0.26,-26.21,78.45,-1.70,4.03,0.77,1721229234834
9.47,-9.78,20.77,0.13,1.01,-0.14,1721229234844
-0.93,7.72,21.05,1.25,-2.20,-0.78,1721229234854
0.93,18.41,-26.23,2.84,-0.53,-0.34,1721229234864
-0.22,-12.44,-15.03,0.70,-0.30,0.16,1721229234874
6.49,-26.26,-11.55,-4.37,0.04,-0.30,1721229234884
1.63,4.38,9.16,-0.57,1.97,0.07,1721229234894
-15.50,30.53,16.58,-0.56,-0.88,-0.46,1721229234904
6.62,17.02,23.79,0.99,-0.69,-0.86,1721229234914
-0.94,-8.93,-4.53,0.72,0.01,-0.50,1721229234924
-5.92,-21.66,-1.50,0.50,-0.80,0.32,1721229234934
-1.53,5.87,4.01,-0.73,0.19,0.54,1721229234944
7.88,-6.02,25.80,-0.99,0.65,0.29,1721229234954
-1.87,18.08,24.24,-0.70,-0.01,-0.13,1721229234964
1.54,1.42,5.05,2.16,-1.42,-0.28,1721229234974
-4.70,-12.84,-18.67,0.06,2.32,-0.43,1721229234984
-6.68,3.47,-10.60,-1.31,0.23,-0.58,1721229234994
0.19,-0.44,21.64,-0.05,-0.67,-0.12,1721229235004
-0.41,-3.12,12.50,-0.89,1.26,-0.08,1721229235014
-9.42,30.33,14.28,0.81,-1.86,0.37,1721229235024
8.98,-16.03,3.54,1.94,-0.96,-0.63,1721229235034
1.42,-13.38,4.98,-0.56,0.24,-0.11,1721229235044
0.52,4.97,10.46,-0.80,0.37,0.17,1721229235054
4.34,-2.48,24.35,-0.46,0.49,-0.27,1721229235064
-3.60,27.85,27.45,0.15,-0.16,0.20,1721229235074
-0.34,2.41,6.41,1.91,-0.58,-0.03,1721229235084
3.20,-37.71,5.22,1.73,-0.55,0.18,1721229235094
-20.61,25.46,6.51,-1.94,0.07,0.87,1721229235104
6.03,35.16,19.80,-1.12,0.26,0.49,1721229235114
-7.05,1.75,30.93,-0.44,0.38,0.10,1721229235124
4.12,11.03,6.42,0.99,-1.13,-0.53,1721229235134
1.31,-58.77,-12.90,1.64,-1.70,-1.69,1721229235144
-2.98,-2.28,-9.62,-0.04,0.50,-0.05,1721229235154
-7.51,7.68,1.40,-0.95,-0.43,0.81,1721229235164
0.87,-0.15,11.02,-0.89,0.34,0.70,1721229235174
-7.04,-11.99,34.05,-1.59,0.51,-0.13,1721229235184
2.50,21.05,6.99,0.80,-0.94,-0.16,1721229235194
-2.71,-34.17,-7.40,2.93,-0.78,-0.94,1721229235204
-9.28,-21.83,-2.83,-1.23,1.01,-0.07,1721229235214
8.83,23.11,-15.30,-0.16,-0.59,-0.46,1721229235224
5.26,-2.11,42.38,0.41,-0.16,0.19,1721229235234
-34.37,19.79,41.76,-1.96,0.23,-0.08,1721229235244
-0.14,-0.56,27.80,0.52,-2.03,-0.23,1721229235254
-9.88,-29.88,14.42,-0.18,-0.15,-0.28,1721229235264
0.85,2.38,-1.65,0.55,0.40,-0.53,1721229235274
10.01,13.97,-8.37,0.07,-0.50,0.22,1721229235284
-4.04,-6.03,10.39,-1.66,0.93,0.26,1721229235294
-17.86,38.00,41.74,-0.10,1.83,0.66,1721229235304
-2.40,-9.46,16.22,-0.66,-0.69,-0.01,1721229235314
4.79,-47.17,11.23,3.36,-2.11,-0.80,1721229235324
14.65,57.99,-0.56,-0.35,0.39,-0.68,1721229235334
24.91,37.03,-2.74,0.99,-0.69,-1.02,1721229235344
-15.61,-25.15,44.36,-0.78,1.28,0.15,1721229235354
-1.89,-23.16,38.84,0.24,0.02,-0.40,1721229235364
-2.17,5.85,0.03,0.38,-0.64,0.90,1721229235374
19.13,10.02,0.11,1.65,-0.57,0.10,1721229235384
1.82,9.98,18.23,-0.10,1.18,-0.12,1721229235394
29.79,34.06,-7.13,1.31,-0.15,-0.30,1721229235404
2.67,-12.75,0.92,0.41,-0.54,-0.12,1721229235414
1.24,-61.82,15.98,-0.52,0.86,-1.23,1721229235424
-11.54,7.73,38.29,-0.65,-0.07,-0.44,1721229235434
-20.88,19.69,13.08,1.32,-1.52,0.84,1721229235444
-3.80,-11.05,-14.62,1.85,0.18,0.55,1721229235454
2.96,-12.76,-20.32,0.05,0.12,-0.24,1721229235464
5.13,4.97,-4.43,-3.30,-0.21,-0.14,1721229235474
1.44,0.15,9.49,-1.30,2.24,-0.48,1721229235484
-3.39,-0.96,11.59,-0.98,-0.81,-0.01,1721229235494
6.72,10.63,31.51,1.13,-1.09,-0.13,1721229235504
-15.74,16.90,-13.21,-1.21,0.09,0.55,1721229235514
2.44,-9.28,-4.70,1.60,-0.79,0.43,1721229235524
-8.98,-25.97,-20.63,-2.95,1.54,-0.34,1721229235534
1.79,-5.89,48.50,-1.54,-0.42,-0.67,1721229235544
-40.56,37.38,20.79,-1.43,0.20,-0.87,1721229235554
-0.53,4.20,9.24,1.26,-0.74,-0.55,1721229235564
-10.69,-23.25,-0.64,-0.60,0.82,0.55,1721229235574
-0.75,0.72,3.87,-0.30,-0.13,0.71,1721229235584
8.36,15.95,-8.41,-0.75,0.11,-0.29,1721229235594
2.28,-13.50,22.04,-0.14,0.06,0.21,1721229235604
-9.33,47.10,28.55,0.09,0.13,0.50,1721229235614
2.08,5.89,6.49,1.85,-0.95,0.12,1721229235624
-13.65,-65.46,3.05,2.54,-1.27,0.22,1721229235634
-10.73,77.69,-10.54,1.15,1.17,-0.47,1721229235644
1.68,18.93,-3.12,0.10,-0.56,-0.48,1721229235654
-0.85,-3.33,-0.67,-0.28,-0.39,-0.51,1721229235664
0.20,-15.62,55.00,-0.25,1.32,0.18,1721229235674
-0.30,-9.21,35.42,-0.40,-1.10,0.64,1721229235684
2.38,-1.92,12.72,0.55,-0.36,0.08,1721229235694
-0.52,4.42,2.38,0.53,0.41,0.43,1721229235704
3.89,13.14,-3.23,0.77,-0.77,-0.04,1721229235714
2.05,-5.99,-1.55,-0.62,-0.45,-0.28,1721229235724
4.08,2.97,30.44,-0.31,0.97,-0.17,1721229235734
-2.79,-21.13,38.77,-1.15,-0.20,-0.25,1721229235744
2.73,8.11,8.43,0.02,0.88,-0.66,1721229235754
-2.71,26.73,-11.62,1.27,-1.13,-0.27,1721229235764
-0.04,-2.22,-3.12,1.12,-0.21,0.16,1721229235774
-9.95,-25.40,9.01,-2.27,0.64,-0.00,1721229235784
1.10,3.74,33.01,-1.16,0.48,0.02,1721229235794
-20.60,1.30,41.39,-1.79,0.41,-0.38,1721229235804
0.63,6.21,13.57,1.69,-1.53,-0.26,1721229235814
-0.36,39.95,-31.92,1.61,-0.43,-0.02,1721229235824
-1.47,0.70,-8.67,0.08,0.06,0.25,1721229235834
5.27,-68.87,48.81,-3.76,0.17,-0.94,1721229235844
-0.13,9.65,53.29,-0.78,2.23,-0.17,1721229235854
-24.44,17.35,8.84,-0.78,-1.64,0.01,1721229235864
2.26,-16.37,-2.41,3.53,-2.17,-0.49,1721229235874
7.95,18.66,-19.59,1.04,0.60,0.21,1721229235884
1.13,0.69,-3.60,-0.45,-1.18,0.29,1721229235894
0.56,-9.38,-0.25,-2.09,2.10,0.06,1721229235904
-0.15,-7.04,22.47,-0.86,0.61,-0.35,1721229235914
0.73,7.59,21.71,0.44,-1.40,-0.75,1721229235924
-6.18,35.83,1.88,1.68,0.33,-0.85,1721229235934
0.13,-9.37,7.67,0.79,-0.65,-0.62,1721229235944
-2.52,-18.66,16.62,-0.10,0.82,0.30,1721229235954
4.70,-0.63,29.10,0.56,1.71,0.47,1721229235964
-5.87,-42.06,25.72,1.27,-2.50,0.26,1721229235974
2.38,-4.02,0.96,-0.46,1.83,0.20,1721229235984
2.00,34.54,-29.38,1.06,-1.51,-0.16,1721229235994
15.96,27.36,4.90,-0.97,0.22,0.01,1721229236004
4.08,9.77,38.02,-1.05,1.11,-0.39,1721229236014
2.69,-68.11,15.09,-0.77,-0.31,-1.55,1721229236024
-0.43,-1.54,1.77,2.48,-2.17,-0.47,1721229236034
-10.03,17.89,-14.61,-0.67,-0.43,0.62,1721229236044
2.91,20.74,6.35,0.04,0.59,0.78,1721229236054
2.89,22.39,13.76,-0.08,1.29,0.94,1721229236064
19.74,-74.35,10.99,-0.76,-0.04,-0.65,1721229236074
3.91,-9.25,5.70,2.41,-1.67,-0.86,1721229236084
26.26,40.11,10.58,1.24,-0.08,-1.25,1721229236094
-10.04,-13.89,27.44,1.27,0.59,-0.17,1721229236104
9.75,34.43,-13.13,0.21,0.03,-0.34,1721229236114
3.59,-4.25,28.91,-1.00,1.50,0.50,1721229236124
-12.16,-41.33,38.58,-0.65,0.14,0.51,1721229236134
3.82,8.81,38.71,0.07,0.19,-0.01,1721229236144
1.06,20.85,10.77,0.95,-0.66,0.53,1721229236154
0.85,-3.49,4.03,3.11,-1.12,0.12,1721229236164
-0.27,6.31,-19.18,0.11,0.83,-0.10,1721229236174
-2.21,-18.92,-10.42,-2.40,-0.18,-0.30,1721229236184
9.61,-34.88,29.33,1.47,1.18,-0.38,1721229236194
-0.29,-5.25,-0.34,-0.05,0.57,-0.53,1721229236204
1.27,4.87,18.03,2.64,-2.68,0.29,1721229236214
-9.93,30.09,-40.10,1.53,0.42,1.05,1721229236224
-8.87,-2.26,-9.58,-0.52,-0.23,1.22,1721229236234
33.98,-78.45,-23.17,-4.37,2.00,-0.77,1721229236244
-5.17,7.30,22.06,-0.64,0.98,-0.95,1721229236254
43.39,75.41,-3.57,0.05,-3.22,-0.64,1721229236264
8.83,-4.02,-6.67,4.37,-0.88,0.25,1721229236274
-4.00,31.57,-28.01,-0.58,0.63,0.52,1721229236284
2.06,-1.05,5.31,-2.13,-1.65,0.62,1721229236294
0.83,-44.60,41.12,-1.80,2.86,-0.58,1721229236304
-6.97,13.42,6.78,-1.77,-1.35,0.03,1721229236314
1.43,21.29,-5.76,3.04,-2.98,-0.06,1721229236324
-10.14,12.85,-13.59,1.44,1.04,0.11,1721229236334
-2.30,-1.91,-2.44,-0.72,-0.06,0.50,1721229236344
7.54,-15.09,53.19,-0.78,1.61,0.44,1721229236354
-0.28,-4.76,40.23,-0.08,-0.44,0.17,1721229236364
0.52,-5.44,-15.46,1.32,-1.77,-0.78,1721229236374
12.92,37.25,0.06,2.44,-0.72,0.15,1721229236384
-3.71,4.95,-14.24,-0.11,0.84,0.10,1721229236394
-0.39,-3.85,-3.57,-3.18,-0.81,0.02,1721229236404
16.22,-52.54,45.34,-0.47,1.74,0.14,1721229236414
-14.98,10.77,23.98,-1.00,0.20,-0.02,1721229236424
1.33,-0.65,11.15,2.81,-3.17,-0.06,1721229236434
-3.76,15.73,-7.57,1.83,1.44,0.39,1721229236444
-4.81,-6.09,-5.36,-0.35,-0.22,0.39,1721229236454
3.85,6.92,10.52,-2.58,0.76,0.24,1721229236464
-12.46,-45.10,47.91,-1.48,1.10,-0.64,1721229236474
-1.78,11.05,12.71,0.45,-1.17,0.73,1721229236484
2.32,20.79,2.15,1.48,-1.08,0.16,1721229236494
1.99,2.99,-4.34,0.69,0.47,0.17,1721229236504
-5.02,-30.50,18.90,-0.73,-0.87,-0.51,1721229236514
4.89,11.30,26.02,-1.09,0.96,0.63,1721229236524
-8.63,-8.85,23.16,-1.97,2.00,-0.20,1721229236534
0.13,10.58,20.39,1.80,-2.66,0.28,1721229236544
-1.30,23.01,-22.26,1.90,-0.14,-0.34,1721229236554
0.56,-1.79,-0.43,0.08,-0.18,0.24,1721229236564
-6.36,-34.55,33.83,-1.67,0.79,0.43,1721229236574
1.93,-17.71,32.71,-1.08,2.34,-0.17,1721229236584
-8.65,8.37,18.42,-0.40,-1.43,-0.10,1721229236594
-4.29,14.44,5.51,2.69,-0.89,-0.64,1721229236604
-1.41,5.46,-7.35,0.67,0.24,0.39,1721229236614
-1.48,-11.30,-6.62,-0.17,-0.66,0.53,1721229236624
0.75,-11.17,13.34,0.52,0.23,0.93,1721229236634
2.20,-1.87,-33.83,-0.10,1.72,-0.20,1721229236644
13.24,-50.18,59.28,1.04,-2.44,1.00,1721229236654
54.77,78.45,13.13,1.15,1.13,-1.48,1721229236664
4.36,-6.18,-13.87,2.09,-1.70,0.22,1721229236679
8.84,-15.66,-27.20,-1.29,1.89,0.14,1721229236683
-39.70,-50.08,65.53,-2.03,1.39,-0.50,1721229236693
30.81,51.46,13.09,0.81,0.72,-0.39,1721229236703
-13.41,-46.88,19.90,-1.14,-0.27,-0.30,1721229236713
27.13,78.45,30.61,1.07,0.36,-1.22,1721229236723
-4.84,-2.09,-13.25,1.28,-0.28,0.57,1721229236733
16.94,-58.86,14.56,-1.34,0.57,0.48,1721229236743
3.63,5.34,11.64,-1.22,2.07,0.10,1721229236753
1.04,-2.52,8.34,-0.67,-0.98,-0.24,1721229236763
1.75,-0.27,19.70,0.16,0.43,-0.23,1721229236773
-1.62,33.63,4.04,0.96,-0.70,-0.06,1721229236783
9.74,6.83,0.10,2.18,-1.53,-0.02,1721229236793
0.64,-28.89,4.99,-2.32,2.28,0.38,1721229236803
-3.42,6.51,11.42,-0.71,0.01,0.47,1721229236813
-12.39,3.01,-25.21,-2.38,-1.44,-0.66,1721229236823
1.93,-26.37,43.52,0.03,-1.70,0.27,1721229236833
-27.27,28.43,17.19,0.46,0.89,0.75,1721229236843
-4.69,2.04,-5.12,-0.29,-1.29,0.40,1721229236853
1.49,-5.66,23.09,-1.11,1.19,0.04,1721229236863
-24.10,32.44,10.18,-1.18,1.19,0.62,1721229236873
0.86,-35.05,8.45,0.46,-0.62,0.14,1721229236883
9.49,6.37,30.83,-0.30,0.80,-0.49,1721229236893
-4.87,29.40,-20.87,0.47,-0.71,-0.16,1721229236903
1.97,-5.92,-0.62,0.87,-1.37,-0.31,1721229236913
-10.03,-38.55,22.02,1.46,2.12,-0.40,1721229236923
-27.96,17.95,-10.82,-0.75,-0.08,0.06,1721229236933
-7.83,1.50,33.45,-0.23,0.49,-0.01,1721229236943
0.70,1.78,6.31,1.31,-0.54,-0.55,1721229236953
3.53,-30.69,-8.01,0.77,-1.09,0.87,1721229236963
7.14,0.86,1.39,-1.30,1.30,-0.02,1721229236973
-18.24,26.39,16.62,-1.45,0.39,0.36,1721229236983
4.54,1.61,14.07,-1.01,-0.37,0.46,1721229236993
2.39,-40.97,32.35,0.16,-0.56,0.18,1721229237003
-1.28,5.75,5.41,-0.84,0.09,0.55,1721229237013
5.97,13.38,1.35,-0.47,-0.72,-0.09,1721229237023
11.27,-16.82,20.28,-0.76,0.90,-0.05,1721229237033
-7.03,16.18,1.92,-0.13,-0.16,-0.04,1721229237043
1.39,-2.53,9.59,0.25,-1.05,-0.26,1721229237053
-0.59,-5.71,23.80,-0.58,0.99,-0.21,1721229237063
-12.53,19.00,-1.45,-1.04,-0.62,0.21,1721229237073
-4.30,-20.12,25.43,0.92,-1.08,0.30,1721229237083
-1.59,-2.96,2.16,0.36,0.55,0.15,1721229237093
-12.12,13.55,-3.79,-1.02,-0.21,0.30,1721229237103
5.86,5.59,32.87,0.22,0.28,-0.90,1721229237113
-4.35,17.35,8.06,1.42,-1.07,-0.51,1721229237123
-6.43,-14.44,-14.90,1.49,-1.72,0.09,1721229237133
-8.26,-47.44,8.96,-0.26,0.45,0.25,1721229237143
-3.48,1.77,-1.95,-1.45,1.06,1.36,1721229237153
19.49,-6.57,57.48,0.47,-1.23,0.61,1721229237163
15.88,5.95,22.41,0.38,0.27,-0.33,1721229237173
9.27,17.16,6.47,1.10,-0.65,-1.01,1721229237183
11.46,13.03,-0.42,0.99,-0.74,-1.11,1721229237193
10.58,-36.50,16.78,-1.74,0.81,-0.50,1721229237203
-2.08,-4.15,9.36,1.43,1.45,0.13,1721229237213
-9.13,-2.49,-9.91,-0.06,-1.34,-0.92,1721229237223
-2.72,-35.25,38.34,-0.10,1.05,-0.16,1721229237233
6.90,13.86,7.50,1.41,0.10,-0.58,1721229237243
1.31,-6.13,8.17,0.49,-0.49,0.40,1721229237253
3.29,-31.73,20.91,0.86,1.26,-0.00,1721229237263
0.82,-2.80,-27.00,0.06,-0.25,-0.35,1721229237273
-0.46,-2.96,-7.76,-2.45,0.30,-0.69,1721229237283
1.33,1.65,22.85,0.70,1.51,-0.79,1721229237293
-1.71,1.92,6.15,-1.03,-0.44,-0.69,1721229237303
-3.87,-68.73,47.34,0.10,-2.37,-0.21,1721229237313
-24.67,24.02,9.15,-1.40,1.84,0.32,1721229237323
25.10,61.72,-25.39,-0.17,-1.24,-0.25,1721229237333
1.88,-0.37,19.00,0.97,-1.17,0.63,1721229237343
2.42,-23.38,55.45,-0.62,2.84,0.01,1721229237353
2.25,33.32,-18.05,0.98,-1.36,-0.02,1721229237363
3.01,-6.17,-0.97,0.99,-3.16,-0.36,1721229237373
7.88,-7.90,47.86,-0.04,2.31,-0.19,1721229237383
17.91,74.98,-31.33,-0.60,0.96,-1.73,1721229237393
-9.17,-28.46,39.88,1.21,-1.02,-0.06,1721229237403
-7.84,-59.44,64.10,0.36,1.95,-0.08,1721229237413
-16.98,13.07,-15.52,0.84,-0.13,-0.18,1721229237423
1.04,-0.84,13.14,0.30,-0.96,0.12,1721229237433
0.26,2.69,8.63,0.84,1.20,0.08,1721229237443
-4.68,-2.26,-39.91,0.59,-0.68,0.47,1721229237453
24.53,-39.01,6.30,0.66,-2.52,-0.87,1721229237463
4.78,1.92,26.82,-0.78,2.29,-0.70,1721229237473
23.31,32.53,15.21,0.01,0.49,-1.53,1721229237483
1.62,4.98,20.86,2.98,-1.71,-0.44,1721229237493
-9.92,-8.71,-25.19,1.58,0.39,-0.39,1721229237503
-12.63,-29.05,-8.25,0.04,0.67,0.73,1721229237513
-3.93,-16.66,-1.71,-0.86,-0.09,0.67,1721229237523
2.35,-0.77,15.95,-0.64,0.29,0.81,1721229237533
6.89,8.75,51.02,-0.85,0.93,0.28,1721229237543
4.29,0.68,12.94,0.97,-0.75,-0.04,1721229237553
12.27,23.01,1.30,1.38,-0.71,-1.34,1721229237563
2.08,-8.66,0.58,0.10,-0.22,-0.94,1721229237573
0.88,-55.64,20.52,-1.52,1.08,0.12,1721229237583
-3.33,10.66,14.90,-0.55,0.58,-0.27,1721229237593
-1.60,1.55,3.42,-0.67,-1.21,-0.35,1721229237603
-27.81,38.74,30.93,0.84,0.26,-0.25,1721229237613
0.36,0.82,12.79,0.95,-0.06,-0.16,1721229237623
-3.27,-56.31,1.68,0.85,-1.36,0.16,1721229237633
1.90,0.94,-3.79,-0.90,0.50,0.22,1721229237643
8.48,22.83,-6.37,-1.06,0.05,-0.14,1721229237653
4.87,5.81,14.79,-0.57,-0.26,0.02,1721229237663
21.23,-18.72,47.54,0.18,2.37,-0.09,1721229237673
-20.61,-33.53,18.77,-1.90,1.29,-1.96,1721229237683
14.38,28.36,10.17,0.86,-3.45,-1.36,1721229237693
-12.03,4.54,14.44,0.78,1.07,-0.40,1721229237703
-3.25,23.07,-3.68,0.71,1.20,0.79,1721229237713
-1.73,23.53,-7.58,-0.67,0.12,1.12,1721229237723
10.48,-26.53,40.34,-2.19,2.06,1.40,1721229237733
-6.51,-27.23,40.35,1.20,0.29,-0.30,1721229237743
9.43,3.81,-21.50,2.27,-1.97,-0.19,1721229237753
11.51,13.41,-4.90,-0.19,-1.18,-0.04,1721229237763
1.86,3.92,-0.49,-0.01,0.88,0.09,1721229237773
-1.33,8.53,-5.55,-0.35,0.10,0.30,1721229237783
2.27,-1.61,-5.16,-1.60,-0.70,0.13,1721229237793
-6.54,-18.96,78.45,-0.07,3.69,-0.79,1721229237803
-5.90,18.99,-26.90,1.02,-2.31,-0.26,1721229237813
2.97,9.66,2.55,1.44,-2.73,-0.24,1721229237823
0.47,-10.83,-13.30,-1.78,1.57,-0.12,1721229237833
-1.02,5.55,20.49,-0.35,2.18,0.09,1721229237843
0.00,0.33,-4.91,-0.71,2.01,0.58,1721229237853
-1.86,-22.85,28.03,1.24,-3.21,0.56,1721229237863
1.62,-3.87,8.49,1.12,-0.25,-0.47,1721229237873
9.12,32.05,-2.01,1.68,0.66,-0.44,1721229237883
1.96,-2.63,-3.19,-0.49,0.21,0.24,1721229237893
1.19,-8.14,21.82,-1.45,0.53,-0.33,1721229237903
4.51,-5.20,22.65,-0.69,3.48,-0.80,1721229237913
-10.36,-10.80,-0.74,0.39,-1.73,0.03,1721229237923
-6.06,14.07,0.49,1.80,-2.59,0.09,1721229237933
-2.04,18.05,-8.00,1.65,-0.15,-0.06,1721229237943
-0.33,-3.17,1.40,-1.08,0.66,0.31,1721229237953
3.13,-34.59,50.39,0.43,0.41,1.30,1721229237963
-3.43,3.11,-11.46,-1.16,2.79,-0.36,1721229237973
-2.11,-5.17,-1.09,0.37,-3.51,0.11,1721229237983
2.95,-1.17,9.73,0.76,0.85,-1.08,1721229237993
3.36,16.63,3.05,2.28,0.95,-0.27,1721229238003
5.35,-8.22,-2.12,0.84,-1.07,0.03,1721229238013
-2.39,-15.06,42.72,-2.01,2.05,1.20,1721229238023
10.41,20.17,25.42,-0.68,3.37,-0.13,1721229238033
-18.57,-16.82,-8.00,-1.64,-0.81,0.33,1721229238043
1.37,-6.11,22.86,2.20,-2.38,-0.61,1721229238053
14.86,18.21,-11.57,0.17,-0.10,-1.68,1721229238063
-1.69,12.47,1.62,0.47,-1.51,-0.39,1721229238073
0.04,-5.00,-1.01,-3.57,0.57,0.06,1721229238083
-12.58,-78.45,78.45,1.25,2.17,1.94,1721229238093
19.85,61.98,6.69,0.41,2.48,-0.30,1721229238103
-1.90,11.58,0.01,1.63,-3.30,0.12,1721229238113
-4.53,2.14,-4.89,0.66,-2.43,-0.17,1721229238123
1.11,-2.08,-2.55,-2.54,1.04,-0.06,1721229238133
10.99,-38.38,44.63,0.05,2.43,-0.36,1721229238143
-7.10,10.88,-4.24,-1.08,0.19,-0.08,1721229238153
-2.81,-7.98,-4.42,0.16,-2.19,-0.01,1721229238163
-6.58,10.28,23.74,0.82,-1.25,-0.06,1721229238173
-2.19,8.35,0.23,-1.13,2.13,0.24,1721229238183
-10.50,-26.96,18.64,-0.66,1.10,0.35,1721229238193
1.46,6.15,8.77,0.87,-1.34,0.15,1721229238203
3.24,-4.46,9.50,0.83,-0.42,0.10,1721229238213
-5.05,13.46,6.48,0.86,0.27,-0.43,1721229238223
-2.83,13.79,-2.06,0.91,-0.60,-0.27,1721229238233
0.42,-9.87,41.76,-2.45,0.14,-0.07,1721229238243
1.99,-8.96,48.60,-0.07,2.14,-0.35,1721229238253
4.36,15.20,-4.18,1.52,0.45,-0.23,1721229238263
-0.12,-0.47,3.25,1.38,-1.19,-0.01,1721229238273
-7.73,4.50,2.29,-0.08,0.05,0.26,1721229238283
0.12,4.57,-1.82,0.02,0.42,0.34,1721229238293
-1.95,-4.59,3.44,-0.44,0.22,0.47,1721229238303
5.34,-53.45,50.70,0.86,0.60,-0.13,1721229238313
6.07,19.67,2.30,1.17,-0.43,0.26,1721229238323
4.26,9.99,1.53,-0.88,-0.58,0.03,1721229238333
-0.52,11.88,-2.16,-0.08,-0.35,-0.43,1721229238343
0.51,-1.56,-6.75,-0.51,-1.26,-0.52,1721229238353
4.90,-15.11,30.76,-1.34,2.51,0.19,1721229238363
-2.47,-1.71,1.69,1.03,2.11,-0.13,1721229238373
-8.49,0.75,-14.02,1.40,0.59,0.66,1721229238383
-3.15,4.30,-9.75,1.17,-1.11,0.19,1721229238393
-1.54,2.30,-4.28,-1.86,-0.98,-0.19,1721229238403
-5.34,-25.45,38.63,-1.71,0.35,-0.13,1721229238413
-2.48,-9.10,17.83,0.32,-0.78,-0.22,1721229238423
0.20,-20.53,32.33,-0.97,0.07,-0.31,1721229238433
0.93,15.40,22.34,-0.94,0.89,-0.26,1721229238443
-3.30,4.22,-6.62,-0.15,0.16,-0.02,1721229238453
-1.87,1.14,-3.60,1.76,-1.00,-0.01,1721229238463
2.14,-1.15,6.20,-1.76,-0.08,-0.43,1721229238473
-3.13,-9.69,22.84,-0.98,1.42,0.16,1721229238483
2.44,3.43,0.87,1.12,-0.13,0.88,1721229238493
10.34,15.61,5.81,2.68,-1.31,0.32,1721229238503
-0.11,-2.13,2.73,-2.14,0.44,-0.47,1721229238513
2.79,1.47,38.13,-2.65,3.08,-0.71,1721229238523
-8.31,16.69,46.17,-0.64,-0.07,-0.14,1721229238533
-2.75,0.96,15.21,2.25,-1.39,-0.49,1721229238543
-4.38,0.93,8.05,0.52,0.52,-0.50,1721229238553
0.64,-2.90,-9.20,1.11,0.48,-0.54,1721229238563
-2.60,-4.53,-13.31,1.40,0.36,0.43,1721229238573
5.51,3.62,-2.59,-0.33,-0.16,0.48,1721229238583
7.45,-4.04,18.35,-3.84,-0.48,1.30,1721229238593
2.95,21.69,32.65,0.79,-0.24,-0.16,1721229238603
-2.81,-3.58,3.65,1.04,0.87,-0.83,1721229238613
-5.76,-13.02,2.80,0.04,1.85,-1.42,1721229238623
3.05,2.29,-6.32,0.17,-0.15,0.21,1721229238633
1.40,2.69,-4.86,-1.43,-1.97,-0.47,1721229238643
6.64,-4.69,67.08,0.33,-1.10,-0.40,1721229238653
1.89,0.75,15.29,3.56,0.71,-0.43,1721229238663
1.72,1.43,3.11,3.92,-0.09,0.36,1721229238673
0.34,0.57,-11.02,-2.41,1.15,-0.15,1721229238688
-5.98,1.50,0.00,-0.63,1.38,-0.18,1721229238693
1.11,-0.40,7.54,0.50,0.13,-0.07,1721229238703
-1.00,-4.10,-1.25,-4.37,0.15,0.20,1721229238713
2.78,31.28,62.04,-0.06,0.17,0.19,1721229238723
-1.51,-4.87,3.03,2.25,-0.20,-0.09,1721229238733
0.03,0.40,-0.50,0.93,0.47,-0.49,1721229238743
1.05,0.66,7.51,-0.04,1.69,-0.26,1721229238753
-2.86,-7.42,-3.85,-1.49,-0.02,0.45,1721229238763
1.00,1.13,2.49,-0.84,-0.97,0.04,1721229238773
1.60,6.94,10.05,0.16,-0.98,0.33,1721229238783
0.35,-2.40,17.74,-0.99,-0.32,-0.10,1721229238793
1.94,8.85,25.01,0.40,0.54,-0.16,1721229238803
-2.26,4.54,10.20,0.19,0.97,-0.11,1721229238813
-3.71,-7.24,17.81,-1.17,0.97,-0.29,1721229238823
-5.35,9.59,14.31,1.09,-0.04,0.13,1721229238833
-5.09,-5.53,-18.60,2.68,0.04,0.11,1721229238843
-7.26,-6.19,-5.09,-1.66,-0.40,0.03,1721229238853
-0.92,5.98,1.45,-1.75,-0.27,0.29,1721229238863
7.31,17.71,16.77,0.28,-1.20,0.61,1721229238873
1.93,-2.57,8.23,-0.36,-0.27,0.25,1721229238883
0.66,-1.50,4.74,0.13,-0.22,-0.16,1721229238893
-5.21,-5.05,-0.49,0.45,1.24,-0.21,1721229238903
-1.30,-2.67,17.61,-2.43,2.53,-0.74,1721229238913
-17.03,16.60,19.92,0.36,-1.39,1.68,1721229238923
1.79,8.05,7.00,0.08,-1.76,1.29,1721229238933
5.36,-3.15,16.58,-0.00,-0.84,0.31,1721229238943
0.87,-2.24,0.99,0.30,1.01,-0.29,1721229238953
1.81,-2.12,7.99,-0.20,1.87,0.35,1721229238963
-0.14,4.52,6.60,0.24,0.75,0.36,1721229238973
2.41,1.65,11.75,-0.86,-0.22,0.51,1721229238983
2.09,-7.52,24.12,-0.14,-0.52,-1.05,1721229238993
0.43,0.83,6.39,1.02,-0.59,-0.94,1721229239003
-0.77,0.19,7.92,-0.19,0.76,-0.97,1721229239013
-2.26,-5.97,11.87,-0.00,0.79,-0.18,1721229239023
0.29,2.66,1.16,0.73,-0.22,0.10,1721229239033
0.31,-0.89,10.16,-1.33,0.06,0.31,1721229239043
-9.30,-21.77,69.54,-0.65,0.53,-0.99,1721229239053
-1.60,0.11,17.01,1.69,0.21,-0.26,1721229239063
-0.68,-6.12,-15.28,3.21,0.88,-0.47,1721229239073
-3.37,18.91,-11.01,2.30,0.12,-0.37,1721229239083
0.86,-4.54,-3.29,-0.93,-3.41,0.64,1721229239093
2.10,1.37,4.85,-3.69,-0.42,0.63,1721229239103
3.17,-4.07,17.17,-0.68,0.95,0.43,1721229239113
-6.27,-23.54,35.11,-1.28,2.76,0.18,1721229239123
-1.88,8.89,15.55,0.68,0.81,0.60,1721229239133
-4.32,-2.44,-4.48,3.73,-0.68,0.79,1721229239143
-7.96,11.17,3.20,0.88,-2.40,0.04,1721229239153
0.77,-0.32,5.71,-3.46,-0.14,-0.01,1721229239163
-0.41,-25.77,44.30,-1.18,0.86,-0.40,1721229239173
4.97,10.46,14.38,0.14,2.52,-0.29,1721229239183
-7.35,-2.40,11.07,2.99,2.09,-0.08,1721229239193
-7.09,5.21,-17.74,1.02,-1.06,0.32,1721229239203
0.37,0.88,0.44,-1.33,-3.15,-0.38,1721229239213
0.66,-1.73,3.74,-4.37,-0.37,-0.22,1721229239223
15.27,22.83,78.45,0.75,1.06,0.78,1721229239233
-1.21,-5.04,-5.35,1.31,2.00,-0.07,1721229239243
0.75,3.03,1.53,3.47,0.07,0.13,1721229239253
-6.63,-2.73,-6.72,0.55,-1.65,0.14,1721229239263
-0.17,0.58,3.43,-2.23,-0.41,-0.47,1721229239273
-7.31,-9.10,11.85,-2.11,0.05,-0.69,1721229239283
-4.93,9.38,40.71,0.47,-0.32,0.77,1721229239293
1.42,1.57,3.49,1.96,-0.48,0.60,1721229239303
0.34,2.34,4.32,1.84,-0.31,0.58,1721229239313
33.12,22.47,5.52,1.06,-0.90,0.27,1721229239323
0.28,0.80,6.26,-2.10,0.87,-0.28,1721229239333
2.68,-8.20,24.69,-3.50,2.36,-0.81,1721229239343
-2.63,9.44,14.58,0.33,0.23,0.32,1721229239353
-0.18,-1.36,-4.07,2.50,-0.52,0.41,1721229239363
1.06,-0.48,5.12,-1.11,-0.93,-0.31,1721229239373
-0.48,-3.21,14.23,-2.81,0.28,-0.11,1721229239383
8.56,0.93,46.80,1.08,-0.42,0.40,1721229239393
0.38,1.40,9.53,0.14,0.53,0.60,1721229239403
1.66,-0.43,0.33,1.87,-0.38,0.01,1721229239413
-0.93,3.08,0.84,1.86,-0.24,-0.11,1721229239423
-4.74,-2.23,-3.48,-1.31,1.26,-0.48,1721229239433
-1.20,-2.37,-2.02,-0.68,-0.02,-0.06,1721229239443
-1.71,-1.07,22.11,-1.63,0.01,-0.17,1721229239453
0.05,1.85,11.47,0.71,-1.16,0.86,1721229239463
-11.16,8.93,4.71,2.86,-1.31,0.14,1721229239473
3.49,2.74,4.83,0.13,1.09,-0.09,1721229239483
-1.36,-14.20,25.57,-2.78,1.88,-0.27,1721229239493
3.33,-0.33,36.38,0.62,0.04,0.58,1721229239503
-4.40,2.61,2.40,1.05,-1.15,1.13,1721229239513
-1.68,0.41,-2.25,2.37,-1.49,0.61,1721229239523
6.17,-1.03,0.74,2.20,-1.77,-0.50,1721229239533
8.61,-12.09,5.16,-2.80,0.45,-0.36,1721229239543
8.99,5.41,35.47,-0.82,0.79,-0.36,1721229239553
-5.28,14.76,56.70,-0.48,1.51,-0.01,1721229239563
-0.04,-2.34,8.67,2.00,-0.26,-0.63,1721229239573
-4.96,-8.62,-2.95,4.11,-0.68,-0.13,1721229239583
-11.13,-5.37,-48.15,0.06,-0.55,-0.78,1721229239593
4.26,-0.68,-0.28,-2.27,-1.10,0.33,1721229239603
9.55,-17.00,25.90,-2.49,-0.51,0.50,1721229239613
4.07,3.11,34.38,0.52,2.03,0.28,1721229239623
-0.38,-2.10,-3.42,1.11,-0.20,0.58,1721229239633
2.14,4.41,2.17,3.08,-1.33,0.08,1721229239643
1.64,-0.11,-4.64,2.65,-0.58,-0.32,1721229239653
1.19,0.62,7.05,-3.65,0.60,-0.26,1721229239663
-5.72,-17.69,43.45,-2.89,1.63,-0.66,1721229239673
-4.63,14.54,25.07,0.25,-1.58,-0.25,1721229239683
-10.54,0.18,-2.80,3.36,-0.23,-0.50,1721229239693
6.64,52.45,-4.86,1.47,0.59,-0.14,1721229239703
1.97,8.37,-7.09,1.03,-2.11,0.42,1721229239713
4.81,0.58,-8.81,-3.09,-1.12,1.19,1721229239723
0.74,-5.26,26.74,-1.00,0.40,0.73,1721229239733
2.79,-24.40,27.80,0.34,2.60,-0.26,1721229239743
-6.61,-15.17,14.47,0.48,0.99,-0.38,1721229239753
-3.48,15.42,13.62,-0.46,-1.46,0.46,1721229239763
-1.70,-2.35,14.25,0.85,-2.09,0.28,1721229239773
1.75,-2.19,15.61,-0.86,0.76,-0.39,1721229239783
-5.27,-25.24,25.76,-0.57,1.61,-0.55,1721229239793
1.08,0.51,6.08,2.21,0.39,0.48,1721229239803
14.77,38.73,0.40,2.85,0.07,-0.21,1721229239813
7.05,21.20,-2.44,-2.45,-2.53,-0.78,1721229239823
2.98,4.96,21.59,-3.80,0.00,-1.22,1721229239833
-14.98,11.15,52.93,-1.05,0.45,0.12,1721229239843
-0.50,-0.29,13.28,2.48,-1.01,0.96,1721229239853
-1.81,-4.20,12.46,4.37,-0.46,0.36,1721229239863
7.17,-3.95,-33.04,4.37,-1.78,0.37,1721229239873
2.54,-8.61,-16.02,-2.86,0.20,0.23,1721229239883
-0.26,-0.60,29.71,-3.92,1.42,-0.13,1721229239893
25.96,52.31,78.45,-0.49,1.87,-0.20,1721229239903
-0.31,13.70,11.34,0.62,2.94,0.12,1721229239913
-7.35,0.61,-10.36,4.37,-0.97,-0.27,1721229239923
-4.82,-7.02,-28.11,3.50,-2.76,-1.33,1721229239933
-3.10,-16.97,-59.15,-2.87,-0.48,-0.65,1721229239943
-5.71,-3.71,32.16,-4.29,-0.68,-1.17,1721229239953
40.97,-25.49,78.45,-0.61,3.22,1.34,1721229239963
-18.14,22.69,5.16,-1.02,2.18,1.81,1721229239973
13.44,5.21,-4.35,2.43,-1.68,0.66,1721229239983
-4.30,3.71,33.36,1.80,-3.14,-0.23,1721229239993
-4.70,-12.30,-19.44,-0.21,2.90,-0.98,1721229240003
-1.35,6.94,-13.49,0.39,-0.69,-1.23,1721229240013
-0.10,1.85,-8.83,-1.35,-2.82,-0.44,1721229240023
2.97,-8.06,-6.73,-4.37,0.33,0.08,1721229240033
-3.57,5.69,15.78,2.05,-0.19,0.02,1721229240043
-4.84,1.02,-9.38,2.19,-1.17,0.19,1721229240053
-2.79,-0.59,-15.46,2.56,1.13,-0.18,1721229240063
1.64,10.33,-24.33,3.72,-1.68,-0.07,1721229240073
7.73,-19.78,33.33,-4.37,0.49,-0.13,1721229240083
42.54,-61.98,78.45,-3.29,4.37,-1.37,1721229240093
-5.18,8.78,32.63,1.27,0.14,0.43,1721229240103
-3.36,1.28,-2.55,3.26,0.01,0.66,1721229240113
-1.26,-1.72,-19.13,2.97,-0.13,0.25,1721229240123
-0.59,-0.95,-12.64,0.16,-3.19,0.59,1721229240133
2.90,-5.27,5.51,-4.37,-2.66,0.85,1721229240143
4.78,2.32,15.47,-4.37,-1.41,0.06,1721229240153
14.55,-2.00,73.73,0.37,4.37,-0.35,1721229240163
2.02,-2.42,-2.46,1.22,4.37,0.59,1721229240173
-28.82,-37.11,-13.71,2.80,-4.19,-0.17,1721229240183
1.04,4.20,10.60,2.23,-4.37,-1.31,1721229240193
-10.32,-0.96,-1.03,-0.91,-0.68,-1.56,1721229240203
-2.79,-3.70,10.55,-0.63,1.38,-1.21,1721229240213
1.45,-0.47,3.57,-1.80,0.87,0.03,1721229240223
2.27,3.79,20.94,-0.59,0.09,0.74,1721229240233
1.33,-12.16,17.75,0.34,-0.94,0.22,1721229240243
4.18,3.05,23.65,0.02,-0.24,-0.05,1721229240253
3.06,5.91,20.26,0.08,0.24,-0.20,1721229240263
0.97,-1.69,9.70,0.17,0.35,-0.56,1721229240273
0.21,-0.71,2.22,0.70,0.42,-0.35,1721229240283
-3.15,-0.39,3.73,0.44,0.76,-0.43,1721229240293
-0.89,-9.93,12.53,-1.24,2.09,-0.18,1721229240303
-7.44,6.61,-4.97,1.83,1.08,0.83,1721229240313
-3.35,3.53,-2.07,0.90,-0.82,0.38,1721229240323
1.87,0.36,-0.09,0.70,-1.51,0.11,1721229240333
-0.41,-5.10,1.37,-2.66,-1.37,-0.16,1721229240343
-0.63,-17.28,33.44,-0.51,-0.83,-0.11,1721229240353
0.66,7.21,18.79,0.79,-1.52,0.14,1721229240363
0.93,1.48,3.76,0.20,-0.02,0.12,1721229240373
0.97,2.00,1.06,-0.22,0.39,0.24,1721229240383
1.13,0.58,7.32,0.25,0.39,0.24,1721229240393
0.86,-4.03,8.19,-0.31,0.34,0.32,1721229240403
0.19,-4.01,16.42,-0.22,0.18,0.01,1721229240413
0.54,8.03,21.06,-0.22,-0.15,-0.19,1721229240423
0.80,1.72,7.12,0.90,-0.57,-0.11,1721229240433
1.30,6.30,10.90,0.03,0.17,-0.26,1721229240443
-1.51,-4.47,16.25,-3.28,0.50,-0.40,1721229240453
1.29,17.23,40.40,0.61,-0.70,0.56,1721229240463
0.27,-1.87,1.11,2.85,-0.50,0.08,1721229240473
0.67,0.05,-8.07,2.73,1.19,-0.19,1721229240483
-6.95,2.25,-6.40,3.53,1.05,-0.53,1721229240493
-0.49,-7.89,-3.46,-0.77,-1.55,0.52,1721229240503
2.12,-3.77,7.28,-2.44,-1.00,0.27,1721229240513
2.21,-0.79,4.65,-3.44,-0.24,0.43,1721229240523
7.94,-16.32,-10.01,0.18,2.27,-0.20,1721229240533
-3.61,-1.88,13.96,1.32,0.40,-0.52,1721229240543
-1.26,2.68,3.79,0.32,1.23,-0.59,1721229240553
-2.83,-1.82,7.30,0.91,0.98,-0.44,1721229240563
-10.12,12.16,-9.92,-0.55,0.26,-0.18,1721229240573
-4.13,-10.76,17.80,-0.94,-0.77,-0.17,1721229240583
0.52,-0.47,8.20,1.49,-0.84,0.16,1721229240593
-1.20,1.65,0.23,1.09,0.03,-0.14,1721229240603
-1.69,-4.31,-3.73,-1.15,0.72,-0.06,1721229240613
1.84,4.68,7.19,-1.14,-0.79,0.04,1721229240623
-3.44,-18.07,30.52,-0.65,-0.31,-0.40,1721229240633
0.32,-6.75,21.77,0.71,-1.90,0.03,1721229240643
2.68,-1.49,10.53,-0.10,0.24,-0.11,1721229240653
0.86,2.56,10.52,0.59,1.06,-0.13,1721229240663
-0.16,1.45,7.25,1.25,1.36,-0.13,1721229240673
1.47,21.82,33.31,-1.12,2.48,0.16,1721229240683
0.52,-1.59,8.00,-0.64,-0.20,-0.40,1721229240698
-4.20,-9.93,-2.01,0.71,-0.69,0.22,1721229240703
1.84,1.26,2.51,1.76,-1.10,-0.07,1721229240713
-1.27,-1.83,1.47,0.47,0.77,-0.17,1721229240723
-4.28,1.28,16.12,-0.96,0.97,-0.20,1721229240733
1.47,2.39,12.77,-1.45,-0.65,0.83,1721229240743
1.78,-3.12,28.74,-0.26,-2.18,-0.83,1721229240753
-4.35,-4.36,6.32,0.03,-0.86,-0.60,1721229240763
-5.67,-5.34,-1.26,0.36,0.44,-0.57,1721229240773
-1.63,-1.72,-0.58,0.49,0.88,-0.32,1721229240783
2.25,2.83,3.10,0.54,0.93,-0.38,1721229240793
1.34,-0.09,11.58,-1.12,1.42,0.69,1721229240803
2.46,-0.40,11.77,-0.05,-1.40,-0.02,1721229240813
0.71,-4.73,15.32,0.63,-1.48,-0.25,1721229240823
-0.42,-5.11,13.64,1.92,0.09,0.25,1721229240833
1.97,5.98,3.62,1.68,1.57,-0.10,1721229240843
3.87,2.64,25.52,-2.06,3.19,0.21,1721229240853
0.38,-1.04,14.94,-2.45,-0.52,0.93,1721229240863
4.56,-5.26,11.90,0.04,-2.12,0.17,1721229240873
10.82,-36.46,28.61,-0.92,1.40,-0.57,1721229240883
-2.41,-2.33,1.92,1.90,0.40,0.43,1721229240893
-11.35,8.03,-3.51,4.37,0.89,-0.63,1721229240903
4.22,3.42,-5.81,2.02,1.00,-0.77,1721229240913
2.84,-3.58,3.03,-2.38,-1.97,-0.23,1721229240923
3.75,1.18,-5.78,-4.37,-1.28,-0.54,1721229240933
4.09,-2.56,52.65,0.48,-0.92,0.33,1721229240943
0.64,3.58,7.65,1.22,1.45,0.25,1721229240953
0.29,-0.58,1.84,1.48,0.84,0.32,1721229240963
-1.17,4.26,-2.56,1.70,0.29,0.81,1721229240973
0.51,-2.05,15.07,-3.17,-0.22,-0.72,1721229240983
-8.58,-20.62,59.18,-3.73,2.15,-1.61,1721229240993
-15.91,16.99,27.83,1.79,-0.61,0.04,1721229241003
0.54,-0.48,0.71,1.52,-0.86,0.48,1721229241013
1.18,2.95,4.51,2.04,-0.80,0.35,1721229241023
2.46,-0.07,2.04,-0.96,0.43,0.63,1721229241033
1.75,-1.94,-2.76,-1.70,0.37,0.27,1721229241043
-13.84,-4.50,-5.98,-0.56,1.44,0.26,1721229241053
1.90,-11.20,19.17,-1.39,1.44,-0.45,1721229241063
2.91,0.54,3.79,2.21,-1.53,1.07,1721229241073
4.45,1.92,-1.62,1.62,-2.45,0.06,1721229241083
3.01,0.09,-11.43,-0.29,-1.64,-0.28,1721229241093
0.95,0.68,3.12,-1.00,0.60,-1.27,1721229241103
-6.58,-10.99,14.56,-0.05,1.90,-1.32,1721229241113
-3.98,-8.47,18.63,-4.37,3.01,-1.10,1721229241123
-1.50,14.71,40.83,-0.07,-2.03,0.19,1721229241133
-0.12,-12.06,11.34,1.83,-3.22,-0.42,1721229241143
-0.31,-3.96,-5.79,1.18,-1.01,-0.67,1721229241153
1.13,-0.79,3.49,0.08,0.94,-0.59,1721229241163
-0.24,-2.28,0.05,0.46,1.16,0.16,1721229241173
0.19,-0.10,-0.51,0.69,0.77,0.23,1721229241183
1.41,1.90,1.65,0.20,1.01,0.32,1721229241193
-0.23,-16.08,40.08,-2.00,1.13,-0.06,1721229241203
-4.73,14.42,43.72,1.46,-2.37,-0.54,1721229241213
-2.39,1.91,1.43,1.24,-1.05,0.23,1721229241223
-3.25,-9.54,12.29,0.90,0.85,-0.05,1721229241233
1.29,2.20,-0.22,0.83,0.93,-0.01,1721229241243
2.66,3.60,5.81,-0.06,1.15,0.03,1721229241253
-0.02,-4.54,-7.38,-3.27,1.40,0.18,1721229241263
-2.86,6.57,43.15,0.01,-1.88,0.06,1721229241273
2.55,10.04,28.42,0.67,-1.56,-0.02,1721229241283
0.53,0.02,3.93,0.82,-0.59,-0.13,1721229241293
1.05,0.82,3.54,0.25,-0.31,-0.26,1721229241303
1.44,-3.37,9.13,-0.73,1.12,-0.02,1721229241313
0.54,-9.83,23.23,-1.44,1.45,0.31,1721229241323
0.65,1.13,17.22,0.39,0.31,0.40,1721229241333
0.42,-2.32,-0.28,1.58,-0.69,0.47,1721229241343
-0.63,2.33,1.96,2.20,-1.12,0.26,1721229241353
2.28,2.07,10.29,-3.23,1.94,0.34,1721229241363
-3.93,-9.15,-5.17,-0.91,0.74,0.29,1721229241373
-2.38,-0.58,20.76,-2.50,-0.66,0.26,1721229241383
-5.34,8.86,36.50,0.33,0.10,-0.23,1721229241393
-1.92,-6.56,0.42,2.96,-1.02,-0.17,1721229241403
-4.56,5.25,-0.69,2.39,-0.55,-0.70,1721229241413
2.48,0.81,-2.02,-3.88,1.09,-0.57,1721229241423
-1.52,-7.68,3.70,-2.15,-0.34,0.79,1721229241433
3.80,-0.43,38.01,-2.79,1.49,0.92,1721229241443
-0.97,3.44,18.44,0.35,0.54,0.94,1721229241453
-2.32,0.88,-4.09,1.42,-0.42,0.59,1721229241463
1.02,1.96,11.12,-0.27,-0.67,0.14,1721229241473
-9.61,-17.99,16.58,-1.03,1.83,0.23,1721229241483
-3.50,8.72,22.99,0.15,-0.87,1.12,1721229241493
-0.05,3.60,4.40,1.37,-1.09,0.71,1721229241503
1.44,0.74,2.13,0.86,0.06,0.12,1721229241513
1.11,1.14,0.33,0.36,0.30,-0.13,1721229241523
0.95,1.70,-0.61,-2.04,1.27,-0.31,1721229241533
-2.50,-1.66,29.05,-0.77,0.27,0.34,1721229241543
0.59,6.74,11.97,0.76,-1.06,0.29,1721229241553
-0.64,3.69,7.62,1.03,0.01,-0.60,1721229241563
0.14,1.55,1.50,0.84,0.56,-0.60,1721229241573
-1.81,1.76,0.38,-3.14,2.31,-0.65,1721229241583
-10.25,-14.69,28.75,-0.24,-0.27,0.59,1721229241593
1.00,3.12,2.77,1.39,-1.43,0.63,1721229241603
2.22,2.07,7.48,-1.00,0.38,0.11,1721229241613
-1.76,-0.82,26.38,-0.55,0.26,0.42,1721229241623
0.80,0.25,5.85,1.08,0.11,0.03,1721229241633
1.95,1.50,-1.60,-0.25,1.52,-0.42,1721229241643
-1.66,-5.30,-0.71,-1.38,0.91,-0.20,1721229241653
0.94,-11.71,11.19,0.01,-0.38,-0.13,1721229241663
-0.18,-0.54,23.99,0.38,-1.40,0.15,1721229241673
1.60,1.54,15.90,-0.12,-0.90,0.33,1721229241683
-0.06,5.49,10.23,-0.51,0.01,0.02,1721229241693
-0.57,-11.48,19.43,-0.95,1.26,-0.47,1721229241703
1.91,3.08,6.95,1.01,0.36,0.16,1721229241713
-2.77,4.36,-6.10,0.13,-0.34,0.16,1721229241723
-5.53,-1.50,26.48,-0.75,0.06,-0.57,1721229241733
-5.18,-5.79,25.90,-0.62,0.02,-0.51,1721229241743
-1.33,-5.59,14.09,0.58,-0.70,0.20,1721229241753
1.14,0.52,2.36,0.92,-0.05,0.46,1721229241763
1.06,2.94,2.33,0.73,0.18,0.36,1721229241773
-1.14,13.45,9.21,-0.91,0.03,0.01,1721229241783
-0.23,-0.74,7.93,0.67,0.36,-0.30,1721229241793
1.85,0.13,-1.55,2.17,-0.84,-0.32,1721229241803
-2.30,-5.26,-5.02,-0.62,0.99,-0.69,1721229241813
0.30,0.22,2.99,-0.25,1.72,-0.79,1721229241823
-1.64,-3.86,15.51,-0.99,1.13,0.04,1721229241833
-7.78,11.06,31.56,0.41,-1.07,-0.67,1721229241843
-3.30,0.69,3.32,2.59,-2.03,-0.16,1721229241853
-2.70,-3.28,0.63,1.73,-0.71,0.03,1721229241863
2.03,-2.97,5.64,-0.81,1.35,0.70,1721229241873
1.10,0.39,1.12,-0.48,0.30,0.69,1721229241883
1.95,-1.18,22.04,0.39,0.43,0.33,1721229241893
-1.19,10.71,53.81,-2.79,-2.19,0.33,1721229241903
-5.13,-24.85,52.05,-3.11,0.37,0.04,1721229241913
7.86,11.87,36.45,3.77,-1.67,-0.39,1721229241923
-25.84,27.04,33.30,3.26,2.11,-1.95,1721229241933
1.35,-1.72,-17.89,3.97,2.61,-1.55,1721229241943
-7.44,-4.52,4.81,-1.76,-1.09,0.98,1721229241953
1.97,0.61,-4.37,-0.94,-2.27,0.32,1721229241963
-0.39,-2.74,3.62,-1.07,-0.35,0.53,1721229241973
1.71,3.02,2.22,-1.05,-0.41,0.35,1721229241983
2.25,-6.26,0.73,-4.37,2.21,0.15,1721229241993
2.84,-6.15,38.47,1.61,-1.52,-0.24,1721229242003
0.21,-4.29,-8.66,-0.35,0.23,-0.63,1721229242013
0.58,-0.88,3.57,0.19,0.57,-0.55,1721229242023
-2.10,0.45,-2.08,0.16,1.14,-0.29,1721229242033
-2.19,-3.12,34.55,-2.58,1.53,0.27,1721229242043
-3.43,5.78,14.53,0.21,0.63,0.47,1721229242053
-1.60,1.18,-1.13,1.91,-0.40,0.43,1721229242063
-1.05,-0.74,-8.16,-3.17,-0.79,-0.14,1721229242073
-5.20,-16.54,6.98,-2.69,1.15,-0.74,1721229242083
5.11,3.70,16.47,1.57,-1.42,0.90,1721229242093
-4.98,4.52,1.27,2.06,-0.75,0.85,1721229242103
5.57,12.11,4.93,-0.13,-1.30,1.25,1721229242113
6.89,5.74,6.25,-1.69,-2.48,0.38,1721229242123
6.90,-6.00,67.88,0.22,-0.46,-0.65,1721229242133
1.94,5.74,18.82,0.02,-0.10,-1.12,1721229242143
6.97,1.18,39.08,0.00,2.24,-0.50,1721229242153
0.78,9.74,10.04,1.34,1.18,0.12,1721229242163
-3.62,9.39,12.06,-0.02,0.95,-0.04,1721229242173
-3.54,-6.26,4.89,-0.62,0.72,-0.46,1721229242183
-4.25,-8.64,-1.94,0.91,2.92,-0.57,1721229242193
-0.05,18.14,-25.97,-2.42,-1.31,0.35,1721229242203
-1.90,3.43,28.74,-0.25,-3.18,0.24,1721229242213
0.16,-4.04,23.25,0.46,-3.18,-0.28,1721229242223
3.68,7.56,14.30,-0.03,-2.69,-0.46,1721229242233
1.72,0.72,10.81,0.20,-1.21,-0.53,1721229242243
1.91,-4.82,13.97,-0.12,0.06,-0.28,1721229242253
1.80,-5.16,17.46,0.42,2.18,0.01,1721229242263
0.80,0.27,3.00,1.60,2.70,0.13,1721229242273
-2.17,9.97,11.00,-0.18,1.99,0.65,1721229242283
-1.73,0.78,13.53,-2.54,1.73,0.37,1721229242293
-10.28,1.15,-10.54,2.34,0.94,0.42,1721229242303
6.49,1.36,20.79,3.08,0.25,-0.27,1721229242313
-10.48,-15.55,3.04,-0.73,-0.70,0.47,1721229242323
-0.30,1.05,-7.25,-0.86,-1.20,0.16,1721229242333
4.50,4.94,-2.28,-0.90,-1.98,0.02,1721229242343
3.53,-11.58,30.35,-2.17,-2.42,-1.22,1721229242353
-1.42,-10.24,40.90,1.38,-1.03,-0.53,1721229242363
-2.29,0.39,1.33,1.90,1.54,-1.23,1721229242373
0.96,-0.45,-3.80,1.56,2.03,-0.99,1721229242383
4.06,-1.68,-10.92,0.80,1.56,-0.72,1721229242393
4.70,3.52,-3.38,-4.03,-2.19,0.07,1721229242403
-1.06,-8.14,31.51,-0.73,-0.18,-0.44,1721229242413
2.43,3.27,-0.95,2.42,-2.70,-0.79,1721229242423
-7.52,-15.55,16.00,-0.12,0.74,-0.15,1721229242433
-0.31,0.58,-2.18,0.07,0.29,0.42,1721229242443
0.08,1.02,-1.79,-0.10,0.71,0.58,1721229242453
4.18,-5.34,35.83,-1.62,2.61,0.20,1721229242463
-18.56,14.17,54.85,1.26,1.38,0.37,1721229242473
2.57,1.24,0.53,1.99,-0.52,0.54,1721229242483
0.31,-2.07,-6.39,1.28,0.07,0.63,1721229242493
1.01,-4.42,-1.08,2.73,-1.38,0.15,1721229242503
-9.66,4.66,-10.94,-1.09,-1.59,-0.08,1721229242513
-4.45,-4.48,49.21,-0.97,1.95,-0.68,1721229242523
-7.70,10.98,52.42,0.33,1.35,0.15,1721229242533
1.49,-0.32,10.34,2.38,0.40,0.06,1721229242543
3.81,-6.14,12.01,2.88,-0.21,0.12,1721229242553
1.78,2.31,0.73,2.03,0.68,-0.14,1721229242563
-9.26,6.19,-2.14,-0.40,0.63,-0.18,1721229242573
1.30,5.72,2.28,-1.23,0.41,-0.18,1721229242583
-0.92,1.46,1.84,-2.23,-0.30,-0.08,1721229242593
-2.18,-4.87,-2.10,-2.94,0.19,-0.36,1721229242603
-3.12,-3.69,42.62,0.96,-2.40,0.12,1721229242613
1.77,3.71,13.30,0.86,-1.21,-0.28,1721229242623
1.00,0.09,1.38,1.40,0.02,-0.37,1721229242633
-0.02,1.20,-6.02,1.48,-0.87,-0.51,1721229242643
