AccX,AccY,AccZ,GyrX,GyrY,GyrZ,Time
0.31,0.73,10.30,0.01,0.01,-0.05,1721228085146
0.26,0.76,10.44,0.00,0.01,-0.05,1721228085152
0.24,0.68,10.29,0.01,0.01,-0.05,1721228085162
0.26,0.76,10.36,0.01,0.02,-0.04,1721228085172
0.28,0.66,10.33,0.01,0.01,-0.04,1721228085182
0.41,0.72,10.19,0.01,0.02,-0.04,1721228085192
0.32,0.76,10.39,0.01,0.02,-0.05,1721228085202
0.25,0.63,10.26,0.01,0.03,-0.05,1721228085212
0.17,0.76,10.28,0.01,0.03,-0.04,1721228085222
0.31,0.84,10.27,0.01,0.04,-0.04,1721228085232
0.20,0.82,10.30,0.01,0.04,-0.06,1721228085242
-0.00,0.76,10.21,0.01,0.03,-0.06,1721228085252
-0.26,0.81,10.31,0.01,0.03,-0.06,1721228085262
-0.51,0.85,10.26,0.01,0.02,-0.05,1721228085272
-0.54,0.83,10.18,0.01,0.02,-0.04,1721228085282
-0.43,0.78,10.25,0.01,0.02,-0.04,1721228085292
-0.35,0.76,10.27,0.01,0.01,-0.03,1721228085302
-0.35,0.76,10.13,0.00,0.01,-0.02,1721228085312
-0.17,0.75,10.21,0.01,0.01,-0.01,1721228085322
0.07,0.77,10.30,0.00,0.01,-0.01,1721228085332
0.24,0.79,10.27,0.00,0.01,-0.03,1721228085342
0.18,0.79,10.33,0.00,0.00,-0.03,1721228085352
0.12,0.77,10.31,0.00,0.00,-0.03,1721228085362
0.04,0.73,10.23,0.00,0.01,-0.03,1721228085372
-0.12,0.75,10.26,-0.00,0.00,-0.04,1721228085382
-0.30,0.77,10.26,-0.00,-0.05,-0.03,1721228085392
-0.49,0.75,10.08,-0.00,-0.01,-0.02,1721228085402
-0.29,0.77,10.23,-0.00,-0.00,-0.01,1721228085412
0.06,0.85,10.33,-0.01,-0.04,-0.01,1721228085422
0.10,0.80,10.25,-0.01,-0.03,-0.03,1721228085432
0.64,1.99,9.47,-0.01,-0.07,-0.05,1721228085442
0.57,2.12,9.83,-0.04,-0.02,-0.03,1721228085452
1.12,1.07,10.03,-0.02,0.06,0.02,1721228085462
1.72,1.14,10.75,-0.03,0.06,0.01,1721228085472
0.78,1.06,9.74,-0.01,-0.07,-0.02,1721228085482
0.34,0.84,9.95,-0.01,0.01,-0.05,1721228085492
0.29,0.95,10.69,0.01,0.05,-0.05,1721228085502
0.20,0.18,10.59,-0.01,0.04,-0.03,1721228085512
0.50,0.45,10.54,0.01,-0.03,-0.03,1721228085522
0.93,1.11,9.79,0.02,0.00,-0.06,1721228085532
0.14,0.81,10.17,0.02,0.01,-0.06,1721228085542
0.07,1.04,10.00,0.01,-0.00,-0.05,1721228085552
-0.07,0.59,10.19,0.01,0.04,-0.04,1721228085562
0.55,0.58,10.25,0.00,0.04,-0.05,1721228085572
0.87,1.16,10.92,0.01,0.06,-0.07,1721228085582
0.29,0.71,10.10,0.01,-0.03,-0.06,1721228085592
-0.45,0.32,10.41,0.01,-0.01,-0.04,1721228085602
-0.58,0.22,9.99,0.00,0.03,-0.03,1721228085612
-1.46,-0.38,10.26,0.01,0.00,-0.05,1721228085622
-1.13,-1.60,10.22,0.01,0.16,-0.04,1721228085632
-1.75,-1.07,9.76,0.07,-0.06,-0.07,1721228085642
1.15,1.19,10.76,-0.01,0.08,-0.11,1721228085652
-0.24,1.74,11.28,-0.07,0.04,-0.11,1721228085662
-0.23,0.55,10.48,-0.01,0.04,-0.06,1721228085672
0.22,0.63,10.35,0.00,0.07,-0.03,1721228085682
-0.07,-0.56,11.31,0.03,-0.09,-0.01,1721228085692
-0.88,-2.53,9.98,0.00,0.02,-0.00,1721228085702
0.48,0.09,9.83,0.05,-0.02,-0.03,1721228085712
-0.19,0.06,9.98,0.01,0.02,-0.02,1721228085722
0.17,0.74,10.54,0.03,0.02,-0.02,1721228085732
0.20,1.61,9.60,0.02,-0.01,-0.03,1721228085742
0.29,1.32,10.56,0.01,0.02,-0.07,1721228085752
0.15,0.31,10.33,-0.01,-0.01,-0.08,1721228085762
-0.50,0.32,10.40,0.02,-0.02,-0.05,1721228085772
-0.02,0.90,9.93,0.01,0.04,-0.01,1721228085782
0.38,0.95,10.54,-0.00,0.05,-0.04,1721228085792
0.77,-0.39,10.65,0.00,0.07,-0.04,1721228085802
-0.56,1.31,10.46,0.00,-0.05,-0.02,1721228085812
0.16,2.03,9.27,-0.05,0.13,-0.02,1721228085822
-0.10,-0.15,10.20,-0.00,-0.03,-0.02,1721228085832
0.36,1.11,9.78,0.01,0.06,-0.04,1721228085842
0.53,1.47,9.88,-0.00,0.04,-0.05,1721228085852
-0.10,0.21,9.86,-0.02,0.02,-0.05,1721228085862
0.86,0.33,10.44,0.00,0.04,-0.06,1721228085872
-2.75,-1.96,9.41,0.07,-0.39,0.15,1721228085882
-15.05,-18.84,23.06,0.39,-0.03,0.51,1721228085892
9.89,-8.45,14.01,0.50,1.24,0.17,1721228085902
7.29,-6.05,11.89,0.17,-0.62,-0.24,1721228085912
-0.26,-2.64,11.38,0.14,0.21,-0.55,1721228085922
-3.66,-2.03,10.35,-0.02,0.11,-0.18,1721228085932
-4.77,0.49,9.14,0.05,-0.03,0.21,1721228085942
-0.25,1.91,10.64,-0.01,0.12,0.21,1721228085952
3.95,0.41,9.19,-0.01,-0.20,-0.06,1721228085962
1.06,1.42,9.22,0.02,0.02,-0.27,1721228085972
-3.87,-4.06,14.76,0.02,0.24,-0.10,1721228085982
16.12,-1.97,18.76,-0.48,0.42,-0.15,1721228085992
-6.95,-2.22,36.10,0.13,0.52,-0.12,1721228086002
1.38,-1.81,6.62,-0.04,-0.13,0.09,1721228086012
-0.49,1.50,11.22,0.08,-0.01,-0.09,1721228086022
2.86,-0.51,10.25,-0.02,0.08,-0.14,1721228086032
-1.87,0.55,10.00,-0.09,-0.07,-0.12,1721228086042
0.06,0.88,10.84,0.10,0.12,-0.01,1721228086052
0.43,0.99,9.12,-0.12,-0.04,0.07,1721228086062
0.02,1.40,9.85,0.04,-0.01,0.01,1721228086072
1.62,1.10,10.81,-0.04,0.17,-0.10,1721228086082
-0.56,2.07,10.84,0.04,-0.13,-0.09,1721228086092
-1.02,0.79,8.71,-0.04,0.08,-0.05,1721228086102
-0.32,0.57,12.10,0.02,0.02,0.05,1721228086112
0.48,1.00,9.17,0.02,-0.03,0.06,1721228086122
1.09,1.47,10.69,-0.01,0.06,-0.06,1721228086132
0.53,0.59,9.98,0.01,-0.05,-0.12,1721228086142
-0.62,0.29,10.59,0.00,0.01,-0.08,1721228086152
-0.23,0.87,10.06,0.03,0.02,0.03,1721228086162
0.51,0.93,10.35,-0.03,0.02,0.05,1721228086172
0.97,0.54,10.56,0.02,0.00,-0.05,1721228086182
0.55,0.81,10.30,0.01,0.02,-0.12,1721228086192
-0.27,0.91,10.16,0.01,-0.02,-0.06,1721228086202
-0.22,0.36,10.07,-0.02,0.04,-0.01,1721228086212
0.42,0.56,10.96,0.02,0.02,0.00,1721228086222
0.71,0.79,9.51,0.01,-0.01,-0.05,1721228086232
0.59,0.97,10.51,-0.00,0.03,-0.08,1721228086242
0.18,0.14,10.23,-0.00,0.01,-0.07,1721228086252
-0.17,0.76,10.51,0.02,0.02,-0.04,1721228086262
0.42,0.75,10.01,-0.00,0.03,0.00,1721228086272
0.74,0.63,10.41,-0.00,0.02,-0.01,1721228086282
0.82,0.63,10.43,0.02,0.03,-0.09,1721228086292
0.21,0.80,10.11,0.01,0.01,-0.11,1721228086302
-0.40,0.74,10.16,0.00,0.02,-0.08,1721228086312
-0.22,0.20,10.53,0.00,0.03,-0.04,1721228086322
-0.14,0.65,10.20,0.02,0.00,-0.03,1721228086332
0.20,0.71,10.33,0.01,0.04,-0.03,1721228086342
0.24,0.54,10.34,0.02,0.01,-0.03,1721228086352
0.07,0.62,10.06,0.00,0.02,-0.05,1721228086362
0.08,0.52,10.11,0.01,0.01,-0.04,1721228086372
0.55,0.11,11.29,0.02,0.04,0.00,1721228086382
1.39,0.20,10.27,0.07,0.03,0.05,1721228086392
1.92,1.69,9.20,-0.01,0.06,-0.08,1721228086402
0.71,0.27,10.19,-0.02,0.00,-0.20,1721228086412
-0.41,-0.61,11.18,-0.00,0.04,-0.12,1721228086422
-0.27,0.67,10.53,0.04,0.03,0.02,1721228086432
0.73,0.78,9.25,-0.03,0.06,0.01,1721228086442
0.72,0.17,10.97,0.01,0.04,-0.08,1721228086452
0.40,0.05,10.47,0.03,0.06,-0.08,1721228086462
0.15,1.10,10.09,0.02,0.04,-0.02,1721228086472
0.73,0.38,10.11,-0.02,0.09,-0.00,1721228086482
1.22,-0.10,11.00,0.02,0.06,-0.03,1721228086492
1.29,0.80,10.05,0.03,0.07,-0.07,1721228086502
1.14,0.80,10.05,-0.00,0.11,-0.11,1721228086512
0.54,0.06,10.61,0.01,0.07,-0.12,1721228086522
0.24,0.05,10.61,0.03,0.11,-0.08,1721228086532
0.51,0.81,10.08,0.02,0.10,-0.03,1721228086542
0.71,0.49,10.47,-0.01,0.12,-0.07,1721228086552
0.38,-0.09,10.61,0.03,0.09,-0.13,1721228086562
-0.11,0.38,10.10,0.04,0.10,-0.09,1721228086572
0.09,0.48,9.84,0.01,0.13,-0.01,1721228086582
0.69,0.06,10.51,0.01,0.13,-0.03,1721228086592
0.71,-0.00,10.63,0.05,0.11,-0.10,1721228086602
0.14,0.36,9.05,0.03,0.09,-0.11,1721228086612
0.24,1.07,10.01,-0.06,0.22,-0.02,1721228086622
-0.02,-1.74,9.72,0.09,-0.02,-0.02,1721228086632
0.26,1.67,14.07,0.05,0.33,-0.08,1721228086642
0.18,1.94,10.59,0.11,-0.02,-0.04,1721228086652
-0.72,0.06,7.80,-0.11,0.11,-0.10,1721228086662
-0.38,0.12,10.78,0.03,0.15,-0.09,1721228086672
0.23,0.25,9.02,-0.05,0.12,0.01,1721228086682
-0.04,0.53,10.10,0.01,0.12,-0.00,1721228086692
0.97,-0.29,10.36,-0.02,0.19,-0.08,1721228086702
0.53,0.63,12.14,0.03,0.10,-0.02,1721228086712
1.41,0.58,10.50,0.03,0.20,0.01,1721228086722
1.99,0.96,11.16,0.03,0.18,-0.11,1721228086732
1.03,0.40,9.27,0.05,0.12,-0.17,1721228086742
-0.03,0.06,9.62,0.02,0.19,-0.12,1721228086752
0.05,0.20,10.02,0.03,0.18,-0.02,1721228086762
0.78,0.54,10.61,0.03,0.21,-0.01,1721228086772
1.37,0.92,11.24,0.06,0.21,-0.07,1721228086782
1.05,0.89,10.21,0.03,0.22,-0.10,1721228086792
0.60,0.56,10.45,0.01,0.25,-0.09,1721228086802
0.71,0.03,10.48,0.02,0.25,-0.05,1721228086812
0.97,0.16,10.10,0.05,0.23,-0.01,1721228086822
2.16,0.97,9.46,0.03,0.32,0.02,1721228086832
2.81,1.45,9.93,0.02,0.31,-0.06,1721228086842
2.39,1.32,10.93,0.02,0.35,-0.20,1721228086852
1.02,0.84,11.23,0.04,0.32,-0.24,1721228086862
-0.24,0.51,10.26,0.06,0.32,-0.16,1721228086872
-0.08,0.93,9.27,0.06,0.37,-0.06,1721228086882
0.74,1.46,9.59,0.04,0.37,-0.02,1721228086892
1.40,1.34,9.85,0.00,0.41,-0.06,1721228086902
1.03,0.50,11.46,0.00,0.44,-0.10,1721228086912
-0.21,0.44,10.66,0.07,0.38,-0.15,1721228086922
-1.01,1.02,10.28,0.03,0.42,-0.09,1721228086932
-0.18,0.92,9.64,0.03,0.42,0.07,1721228086942
1.57,0.70,10.16,0.03,0.47,0.09,1721228086952
2.68,0.84,9.92,0.05,0.46,-0.05,1721228086962
1.29,1.07,9.64,0.02,0.49,-0.21,1721228086972
-0.31,0.35,10.58,0.03,0.50,-0.15,1721228086982
0.11,0.47,10.72,0.04,0.53,-0.02,1721228086992
1.16,1.33,10.46,0.05,0.54,-0.05,1721228087002
1.18,1.16,9.70,0.04,0.53,-0.22,1721228087012
-0.65,0.50,10.01,0.04,0.52,-0.29,1721228087022
-2.21,0.24,9.68,0.05,0.52,-0.23,1721228087032
-2.88,0.51,9.73,0.04,0.53,-0.11,1721228087042
-2.28,0.54,9.89,0.03,0.53,-0.05,1721228087052
-1.73,0.66,10.19,0.03,0.52,-0.08,1721228087062
-2.10,0.80,9.92,0.04,0.49,-0.14,1721228087072
-2.92,0.72,9.80,0.03,0.49,-0.15,1721228087082
-3.20,0.23,10.01,0.02,0.47,-0.06,1721228087092
-2.48,0.18,9.96,0.03,0.46,0.01,1721228087102
-1.50,0.70,9.72,0.04,0.45,-0.03,1721228087112
-1.27,0.62,9.62,0.02,0.44,-0.11,1721228087122
-1.75,0.08,10.24,0.02,0.43,-0.11,1721228087132
-1.81,-0.11,10.30,0.04,0.45,-0.07,1721228087142
-1.48,0.19,9.65,0.03,0.44,-0.09,1721228087157
-1.42,0.14,9.74,0.03,0.43,-0.11,1721228087161
-2.03,-0.45,11.47,0.06,0.35,-0.24,1721228087171
-1.97,-0.71,6.02,-0.04,0.57,-0.12,1721228087181
-4.04,-1.43,10.51,-0.08,0.40,-0.01,1721228087191
-3.72,-4.79,11.82,0.12,0.43,-0.27,1721228087201
-5.21,3.57,9.15,0.19,-0.19,-0.12,1721228087211
-1.73,-1.69,8.80,-0.26,0.72,0.29,1721228087221
1.72,-5.91,13.22,0.15,0.34,0.28,1721228087231
-0.12,1.37,-0.27,0.16,0.53,-0.39,1721228087241
-4.87,7.36,7.87,0.10,0.31,-0.59,1721228087251
-9.46,-3.82,10.98,-0.10,0.04,-0.11,1721228087261
-0.57,-1.88,16.80,-0.04,0.58,0.30,1721228087271
2.38,3.89,8.32,0.26,0.12,-0.07,1721228087281
-2.75,1.76,11.25,-0.14,0.33,-0.51,1721228087291
-7.79,-3.21,13.80,0.06,0.19,-0.23,1721228087301
-4.36,-0.49,5.22,0.12,0.54,0.42,1721228087311
2.94,2.94,5.93,-0.11,0.41,0.29,1721228087321
3.74,-1.33,13.15,-0.19,0.51,-0.35,1721228087331
-1.13,-1.06,18.62,0.21,0.25,-0.37,1721228087341
-3.31,1.82,6.92,0.21,0.35,-0.06,1721228087351
-1.59,1.47,4.13,-0.13,0.51,-0.16,1721228087361
-3.33,-0.82,11.62,-0.06,0.34,-0.30,1721228087371
-3.42,-1.78,12.42,0.05,0.46,-0.12,1721228087381
-4.27,-3.30,13.14,0.08,0.34,-0.13,1721228087391
-7.16,-1.95,7.43,0.17,0.20,-0.36,1721228087401
-8.53,2.46,7.57,0.02,0.21,-0.15,1721228087411
-6.96,-1.00,9.17,-0.13,0.20,0.42,1721228087421
-2.67,-2.75,12.42,0.01,0.37,0.42,1721228087431
-1.71,-0.47,9.28,0.12,0.12,-0.03,1721228087441
-3.34,0.28,7.40,0.01,0.18,-0.11,1721228087451
-3.41,-1.85,10.16,-0.03,0.27,0.24,1721228087461
-1.03,-1.97,11.10,0.05,0.29,0.41,1721228087471
1.36,0.89,9.47,0.08,0.22,0.22,1721228087481
2.65,-0.96,9.68,-0.02,0.30,-0.01,1721228087491
1.21,-2.80,11.57,0.03,0.28,-0.10,1721228087501
-1.60,-1.81,11.02,0.11,0.26,-0.22,1721228087511
-3.70,-0.97,9.59,0.11,0.26,-0.18,1721228087521
-4.47,0.14,9.51,0.07,0.27,-0.00,1721228087531
-3.05,1.21,8.12,-0.02,0.32,0.09,1721228087541
-3.13,0.45,9.47,-0.13,0.26,-0.09,1721228087551
-6.12,-1.42,10.02,-0.08,0.22,-0.37,1721228087561
-9.37,-2.57,8.64,-0.04,0.06,-0.28,1721228087571
-11.16,-1.80,6.00,-0.09,0.05,0.08,1721228087581
-8.32,-2.49,6.89,-0.14,0.10,0.37,1721228087591
-5.26,-5.30,11.81,-0.22,0.07,0.33,1721228087601
-5.38,-1.62,23.41,0.15,0.09,0.07,1721228087611
-6.67,-1.67,11.75,0.27,-0.25,-0.03,1721228087621
-8.60,-0.43,9.21,0.09,-0.02,0.26,1721228087631
-3.14,-0.57,4.36,-0.04,0.06,0.65,1721228087641
1.30,-2.06,9.66,-0.12,-0.03,0.55,1721228087651
4.30,-2.43,10.36,0.13,-0.10,0.02,1721228087661
-0.11,-1.68,9.31,0.10,-0.11,-0.50,1721228087671
-6.70,-1.47,9.75,0.18,-0.25,-0.42,1721228087681
-7.57,0.47,9.66,0.00,-0.03,0.17,1721228087691
-3.87,8.95,9.53,0.02,-0.00,0.61,1721228087701
0.91,3.37,3.99,-0.45,0.08,0.32,1721228087711
-0.20,-11.04,24.69,-0.44,-0.01,-0.37,1721228087721
-8.46,-9.83,15.76,0.44,-0.59,-0.50,1721228087731
-12.25,2.66,9.34,0.09,0.08,0.10,1721228087741
-7.80,-2.04,4.14,0.02,-0.44,1.07,1721228087751
2.68,-3.00,4.26,-0.03,0.18,1.07,1721228087761
9.77,4.35,7.35,0.06,-0.05,0.51,1721228087771
8.42,-4.05,5.45,-0.25,0.03,-0.27,1721228087781
-2.18,-6.75,17.79,0.07,-0.10,-0.79,1721228087791
-8.24,-4.78,9.00,0.24,-0.17,-0.35,1721228087801
-7.75,0.92,10.21,-0.02,-0.04,0.58,1721228087811
1.51,2.45,7.16,0.01,0.07,0.82,1721228087821
5.53,4.09,4.33,-0.27,0.10,0.01,1721228087831
-0.49,-2.64,4.73,-0.33,-0.21,-0.83,1721228087841
-10.06,-13.68,7.29,-0.20,-0.24,-0.71,1721228087851
-15.19,-9.89,30.50,0.02,-0.02,0.37,1721228087861
-11.58,-2.52,17.58,0.54,-0.46,1.06,1721228087871
-3.04,10.26,11.29,0.38,0.18,0.60,1721228087881
0.14,5.20,-8.39,0.00,-0.84,0.49,1721228087891
0.81,1.92,4.34,-0.54,0.09,0.67,1721228087901
7.79,-3.68,15.11,-0.09,0.10,0.89,1721228087911
11.05,1.30,12.47,0.09,0.14,0.22,1721228087921
7.84,11.27,5.22,0.03,-0.01,-0.72,1721228087931
-2.00,-1.09,8.63,-0.84,-0.18,-0.96,1721228087941
-13.69,-12.83,44.24,0.16,0.26,-0.64,1721228087951
-11.91,-4.84,-2.62,0.97,-0.81,0.42,1721228087961
-7.38,-0.10,-5.07,-0.46,0.35,0.90,1721228087971
-1.90,0.70,13.75,0.17,-0.44,1.03,1721228087981
7.87,-6.05,13.81,-0.04,0.50,0.47,1721228087991
3.31,6.67,10.80,0.00,-0.57,0.08,1721228088001
0.28,-0.24,8.59,-0.30,0.46,-0.48,1721228088011
-6.47,0.86,11.37,0.04,-0.20,-0.40,1721228088021
-8.41,-0.68,-3.86,-0.28,-0.21,0.36,1721228088031
-2.36,-6.17,2.35,-0.42,0.19,0.79,1721228088041
1.75,-21.16,22.50,-0.63,0.01,0.39,1721228088051
-6.27,3.34,49.51,1.18,-0.19,-0.42,1721228088061
-6.54,17.20,-25.92,0.36,-0.83,-0.24,1721228088071
-10.83,-0.44,15.81,-1.91,0.50,1.03,1721228088081
0.33,-7.41,58.79,0.74,0.06,1.98,1721228088091
9.55,4.27,11.04,0.81,0.38,0.81,1721228088101
11.94,13.09,-11.99,-0.12,-0.37,-0.59,1721228088111
-6.05,0.96,-0.39,-0.28,-0.45,-1.25,1721228088121
-7.87,-11.93,18.86,0.12,0.12,0.21,1721228088131
-2.29,-4.43,5.30,0.36,0.12,1.87,1721228088141
13.19,6.88,-7.31,-0.16,0.66,1.05,1721228088151
9.12,5.52,17.57,-0.26,-0.14,-0.72,1721228088161
-3.71,-4.67,11.63,0.07,-0.27,-1.02,1721228088171
-12.74,-0.09,5.82,-0.18,0.16,0.25,1721228088181
-9.22,3.39,-6.59,-0.49,-0.23,1.43,1721228088191
0.74,-29.24,45.65,-1.10,0.44,1.13,1721228088201
-0.13,5.40,22.60,1.56,-0.92,0.88,1721228088211
9.24,2.87,-21.78,-0.51,0.54,-0.02,1721228088221
-13.09,11.41,24.88,-0.45,-0.74,-0.17,1721228088231
-9.31,-28.54,15.45,-0.52,0.02,0.74,1721228088241
-2.00,-1.65,31.00,0.50,-0.28,2.59,1721228088251
14.27,-1.99,-19.65,-0.50,0.56,1.63,1721228088261
6.45,7.35,28.29,-0.27,0.14,-1.03,1721228088271
-0.47,-2.00,11.48,0.77,-1.73,-1.32,1721228088281
-18.99,14.43,-11.07,-0.35,-0.26,1.08,1721228088291
-1.32,4.60,-1.87,-0.93,0.67,3.03,1721228088301
16.86,-24.75,16.36,-1.20,0.05,2.11,1721228088311
14.34,7.57,54.96,0.52,0.89,-0.49,1721228088321
9.62,31.60,-25.52,1.44,-3.24,-0.99,1721228088331
-18.04,-7.25,-8.48,-1.04,0.73,-1.13,1721228088341
-24.67,-0.45,33.14,0.64,-0.88,1.25,1721228088351
-7.48,-4.44,-14.67,-0.23,0.12,2.81,1721228088361
16.35,-5.97,36.33,-0.94,0.68,2.45,1721228088371
13.35,1.76,10.29,0.49,-0.28,0.41,1721228088381
4.06,-1.90,15.55,-0.36,-0.50,-1.86,1721228088391
-19.91,0.73,27.75,0.82,-1.11,-1.71,1721228088401
-18.54,-0.43,-20.97,0.27,-0.81,1.28,1721228088411
3.25,9.33,2.09,-0.53,1.05,3.35,1721228088421
24.47,6.27,0.51,-0.37,0.30,2.25,1721228088431
24.68,4.51,13.28,-0.65,0.22,-0.52,1721228088441
4.07,-16.92,23.99,-0.78,-1.10,-1.62,1721228088451
-5.60,1.86,72.12,1.10,0.07,-1.47,1721228088461
-17.49,11.38,-14.44,0.30,-0.71,0.23,1721228088471
-9.79,13.18,8.12,-0.61,0.02,1.63,1721228088481
5.73,-4.50,7.75,-0.17,-0.68,2.72,1721228088491
19.14,-3.23,1.54,-0.52,0.35,1.69,1721228088501
19.69,-0.83,0.91,-0.54,-0.13,-0.07,1721228088511
10.81,-13.37,51.23,-0.14,-0.07,-1.41,1721228088521
10.73,31.91,-11.97,0.53,-1.64,-1.17,1721228088531
-3.79,9.61,-16.87,-0.90,0.86,0.00,1721228088541
-7.84,5.62,9.75,-0.13,-0.36,0.30,1721228088551
0.24,-9.86,0.25,0.12,0.08,0.31,1721228088561
3.83,4.87,9.08,0.27,-0.06,0.63,1721228088571
8.17,7.37,-1.83,0.04,0.36,-0.06,1721228088581
-2.73,0.09,5.59,-0.34,-0.42,-0.93,1721228088591
-9.45,-10.01,34.83,0.00,0.33,-0.33,1721228088601
6.91,-3.96,42.35,0.62,-0.40,1.23,1721228088611
-0.12,9.93,-18.87,-0.16,-0.34,0.84,1721228088621
3.25,6.83,14.32,-0.61,0.43,-0.52,1721228088631
-3.14,-10.45,13.68,0.04,-1.03,0.17,1721228088641
-0.24,6.39,4.82,0.08,0.33,1.25,1721228088651
14.63,11.35,-2.06,-0.11,0.39,0.70,1721228088661
11.75,-2.10,-2.49,-0.56,-0.04,-0.64,1721228088671
4.75,-12.35,38.93,-0.34,0.27,-1.16,1721228088681
-4.81,-2.15,24.56,0.89,-0.66,-0.35,1721228088691
-2.52,0.16,-5.30,0.01,0.39,-0.29,1721228088701
-6.38,11.76,34.54,0.16,-0.23,-0.53,1721228088711
-8.93,4.32,-11.74,0.21,-0.87,-0.17,1721228088721
-9.54,-4.17,30.26,-0.67,0.62,-0.03,1721228088731
-8.74,1.24,23.21,1.47,-0.60,0.63,1721228088741
2.44,-2.45,-25.46,-0.07,0.40,0.29,1721228088751
0.39,7.46,4.65,-0.58,-0.22,-0.30,1721228088761
-1.03,-7.44,14.57,-0.12,-0.33,-0.27,1721228088771
-0.46,11.40,13.69,0.29,0.11,0.03,1721228088781
5.62,5.41,3.02,-0.55,-0.09,-0.16,1721228088791
0.81,-6.74,19.17,-0.28,-0.13,-0.78,1721228088801
-1.14,-6.78,10.46,0.07,-0.21,-0.84,1721228088811
-7.52,4.15,13.65,0.31,0.30,-0.66,1721228088821
-8.19,0.86,-10.03,0.09,-0.66,-0.25,1721228088831
-7.36,-1.42,9.17,-0.30,0.07,-0.06,1721228088841
1.18,0.23,11.50,0.07,-0.23,0.32,1721228088851
1.76,2.07,37.83,-0.34,0.11,-0.29,1721228088861
-2.96,11.17,5.02,1.07,-0.78,-0.72,1721228088871
-2.50,-5.17,0.72,-0.38,0.26,-0.90,1721228088881
-9.19,0.67,12.23,0.34,-0.95,0.52,1721228088891
4.10,-3.85,-6.72,-0.50,0.34,0.91,1721228088901
10.75,12.55,16.39,-0.04,-0.01,0.21,1721228088911
11.69,0.80,-8.41,-0.10,-0.39,-0.73,1721228088921
2.48,-6.67,22.92,-0.60,0.14,-1.31,1721228088931
-10.96,-1.33,29.39,0.37,-0.39,-0.98,1721228088941
-7.36,-1.33,-1.40,0.03,0.04,-0.46,1721228088951
-4.89,-5.11,24.22,-0.37,-0.06,0.19,1721228088961
0.40,10.77,6.21,0.66,-0.40,0.43,1721228088971
3.08,1.44,-14.13,-0.21,-0.12,-0.61,1721228088981
-6.96,6.53,13.41,-0.29,-0.42,-1.02,1721228088991
-10.68,5.47,22.55,-0.54,-0.06,-0.25,1721228089001
-6.06,-1.97,19.35,-0.07,-1.15,1.13,1721228089011
12.12,1.65,-1.55,-0.26,0.46,1.27,1721228089021
10.25,-7.32,6.06,-1.12,-0.34,-0.12,1721228089031
6.90,3.38,20.11,-0.52,0.03,-1.26,1721228089041
-0.98,6.06,-1.54,0.22,-1.04,-1.35,1721228089051
-11.10,8.25,-4.67,0.18,0.16,-1.46,1721228089061
-10.62,-2.04,8.65,-0.37,-0.36,-0.08,1721228089071
-12.20,-16.26,19.78,-1.00,-0.03,1.15,1721228089081
2.35,1.01,25.13,-0.19,-0.00,1.32,1721228089091
11.20,3.04,-4.42,0.13,-0.33,0.59,1721228089101
10.70,-10.23,14.39,-0.91,0.14,-0.98,1721228089111
2.02,11.36,32.06,-0.32,-0.75,-1.25,1721228089121
-1.90,5.81,0.59,0.88,-0.89,-0.68,1721228089131
-4.43,-3.01,-13.43,-0.39,0.22,-0.06,1721228089141
-5.09,-7.80,25.19,-0.15,-0.35,0.58,1721228089151
0.60,12.44,11.37,0.76,0.23,0.59,1721228089166
7.67,10.12,1.29,0.67,-0.38,0.71,1721228089170
13.43,-2.72,-0.86,0.13,0.03,0.05,1721228089180
6.59,3.12,13.39,0.50,-0.07,-0.70,1721228089190
3.49,-3.11,9.74,0.65,-0.24,-1.08,1721228089200
-3.05,13.96,26.46,0.32,-0.09,-0.79,1721228089210
-1.05,5.34,22.97,-0.02,0.06,-0.20,1721228089220
2.74,-12.75,-4.39,0.25,-0.11,-0.17,1721228089230
5.30,-11.19,-1.72,-0.15,0.55,-0.96,1721228089240
-3.40,-11.64,14.83,0.30,-0.45,-1.01,1721228089250
-7.86,7.36,30.15,0.62,-0.15,-0.95,1721228089260
-5.57,6.68,6.68,1.01,-0.73,-0.30,1721228089270
-0.39,-6.26,-8.45,0.06,0.49,-0.31,1721228089280
1.51,-5.90,5.58,0.21,0.00,-0.33,1721228089290
1.20,-13.85,22.66,-0.31,0.32,-0.82,1721228089300
-7.69,7.05,33.88,0.99,-0.64,-0.83,1721228089310
-2.06,5.15,-3.14,0.53,-0.07,-0.44,1721228089320
-1.10,-1.81,14.55,-0.46,0.14,-0.02,1721228089330
6.78,1.94,10.20,0.38,0.34,-0.10,1721228089340
10.07,-22.89,2.29,-0.25,0.11,-0.81,1721228089350
-0.86,6.90,24.05,0.46,0.02,-1.27,1721228089360
-2.39,0.69,-3.53,0.42,-0.28,-1.22,1721228089370
-8.70,16.08,23.97,-0.05,0.51,-0.59,1721228089380
-0.50,15.77,22.19,0.42,0.12,0.09,1721228089390
5.66,-6.46,-5.84,-0.16,0.24,-0.37,1721228089400
1.90,-10.52,-2.34,-0.19,0.03,-1.21,1721228089410
-5.55,-3.01,0.80,-0.10,-0.09,-1.02,1721228089420
-3.67,-3.78,0.02,-0.42,0.32,-0.12,1721228089430
3.84,-7.10,1.79,-0.47,0.45,0.09,1721228089440
4.12,-14.97,26.28,-0.37,0.37,-1.05,1721228089450
-6.86,4.47,24.60,0.82,-0.63,-1.04,1721228089460
-7.02,2.88,10.14,-0.14,0.56,-0.43,1721228089470
-5.25,19.77,24.46,0.24,-0.01,0.62,1721228089480
5.21,-20.30,-12.35,-0.69,0.48,-0.12,1721228089490
-3.43,-9.49,29.62,-0.58,0.33,-1.13,1721228089500
-14.99,2.42,16.35,1.27,-0.54,-0.46,1721228089510
1.95,-7.97,-13.63,0.14,0.75,0.49,1721228089520
5.20,8.08,8.64,0.23,0.19,0.35,1721228089530
10.23,20.30,2.07,0.24,0.19,-0.49,1721228089540
5.20,9.44,32.61,-0.94,0.07,-0.88,1721228089550
-1.30,-11.66,17.20,-0.18,-0.01,-0.38,1721228089560
4.66,-18.82,16.35,-0.45,0.79,-0.62,1721228089570
-1.38,8.41,4.23,0.92,-0.18,-0.54,1721228089580
6.29,-11.92,-16.87,-0.10,0.65,-0.68,1721228089590
-5.20,17.85,35.03,-0.20,0.08,-1.07,1721228089600
-1.67,15.23,15.91,0.45,-0.07,-0.73,1721228089610
-2.71,-11.88,11.46,-0.86,0.10,0.04,1721228089620
4.06,4.96,18.74,-0.16,1.13,0.10,1721228089630
11.30,7.25,-7.18,0.18,-0.29,-0.60,1721228089640
1.54,4.45,1.15,-0.04,0.44,-1.59,1721228089650
-6.62,-11.05,15.71,-0.21,0.04,-1.54,1721228089660
-17.05,-4.36,18.88,0.36,0.13,-0.22,1721228089670
-0.86,-0.79,-2.49,0.17,0.70,0.79,1721228089680
5.29,-16.98,0.34,-0.52,0.47,0.13,1721228089690
6.91,-0.79,16.58,-0.05,0.84,-0.77,1721228089700
5.70,3.58,37.79,-0.40,0.41,-1.36,1721228089710
-5.66,13.53,10.66,0.91,-0.26,-0.92,1721228089720
7.82,-3.74,10.40,-0.81,1.22,-0.59,1721228089730
-1.94,8.26,10.38,0.89,-0.65,-0.11,1721228089740
9.24,-5.39,-32.45,0.33,0.84,-0.86,1721228089750
-5.15,-9.81,20.27,-0.66,0.47,-1.72,1721228089760
-10.17,17.86,47.90,0.56,0.41,-1.83,1721228089770
-26.36,16.12,-5.88,1.00,-0.36,-0.86,1721228089780
-15.59,-3.74,-9.67,-0.65,0.99,0.43,1721228089790
-18.23,-28.56,23.50,-0.36,-0.11,1.71,1721228089800
-1.93,-0.19,26.31,0.84,0.60,1.99,1721228089810
15.54,5.04,-4.54,1.25,0.34,1.61,1721228089820
16.43,10.58,14.08,-0.07,0.79,-0.29,1721228089830
-1.48,19.89,16.33,0.59,-0.54,-1.16,1721228089840
-7.05,-0.74,-14.01,0.18,-0.16,-0.68,1721228089850
-13.82,-40.24,4.98,-1.25,0.24,0.42,1721228089860
-10.33,13.52,46.31,-0.07,0.49,1.14,1721228089870
9.67,1.61,-12.18,0.79,-0.11,1.05,1721228089880
6.99,-6.66,4.80,-0.35,0.61,-0.63,1721228089890
-5.79,8.06,16.92,1.13,-0.68,-0.94,1721228089900
-12.79,-9.31,-26.00,-0.27,0.25,-0.03,1721228089910
-9.17,1.46,8.23,-0.34,0.73,1.28,1721228089920
5.33,-15.61,20.21,-0.56,0.27,1.10,1721228089930
4.07,8.53,46.70,0.07,0.07,0.15,1721228089940
5.17,14.42,12.49,0.41,0.24,-0.39,1721228089950
-6.68,-5.19,-22.57,-0.12,-0.46,-0.16,1721228089960
-6.48,-7.16,2.91,-0.68,0.54,0.54,1721228089970
3.61,1.12,45.30,-0.12,0.65,1.35,1721228089980
10.08,7.72,20.55,0.87,0.19,0.81,1721228089990
8.25,-4.38,-9.41,-0.34,0.15,-0.76,1721228090000
-10.89,-2.33,7.93,-0.81,-0.54,-0.95,1721228090010
-15.83,6.27,35.32,-0.45,0.37,0.45,1721228090020
-8.83,6.52,2.46,0.23,-0.48,1.89,1721228090030
6.59,-17.94,-12.11,-0.66,0.87,1.20,1721228090040
6.73,1.04,1.49,0.01,-0.52,0.25,1721228090050
2.10,-21.68,16.09,-1.24,0.24,-0.45,1721228090060
-1.84,12.92,47.61,0.71,-0.36,0.40,1721228090070
4.22,6.95,-2.70,-0.18,-0.19,1.34,1721228090080
2.90,24.04,8.84,-0.47,-0.27,1.01,1721228090090
8.47,-17.72,-12.01,-1.13,-0.26,-0.41,1721228090100
-4.12,-11.19,34.42,-1.20,0.11,-1.11,1721228090110
-26.64,14.57,14.62,1.54,-1.25,0.03,1721228090120
-6.40,-18.66,-38.29,-0.62,0.59,1.29,1721228090130
-5.95,-21.08,73.14,-1.16,0.19,1.69,1721228090140
23.15,33.30,46.37,1.29,-0.27,2.70,1721228090150
17.38,-32.66,-45.88,-0.36,-0.43,1.19,1721228090160
18.64,12.10,50.99,0.04,0.56,-1.12,1721228090170
0.58,-1.62,-19.52,1.42,-2.36,-1.26,1721228090180
-7.93,2.24,-16.00,0.13,0.77,-1.42,1721228090190
-27.18,-18.50,24.39,0.08,-0.77,0.76,1721228090200
-8.05,13.80,60.59,0.05,1.72,1.98,1721228090210
-2.22,-10.12,21.08,1.10,0.74,1.99,1721228090220
11.45,11.94,14.45,-0.87,0.41,0.57,1721228090230
8.39,4.97,1.88,0.78,-1.04,0.12,1721228090240
11.75,-34.57,-5.29,-0.48,0.45,-0.59,1721228090250
-3.23,1.06,40.56,0.24,-0.10,-0.60,1721228090260
-13.91,-1.06,16.01,1.17,-1.04,-0.16,1721228090270
-6.34,9.21,1.83,0.82,0.05,0.65,1721228090280
3.51,14.11,-1.32,0.45,0.21,1.04,1721228090290
6.96,9.81,-7.52,0.43,0.06,0.68,1721228090300
8.58,-46.57,1.06,-1.04,0.21,-0.43,1721228090310
-5.43,3.36,39.00,0.23,-0.20,-0.84,1721228090320
-5.98,23.51,5.82,0.57,-0.76,0.13,1721228090330
-3.25,14.14,-10.10,0.03,0.20,1.42,1721228090340
13.17,-35.46,-5.24,-1.19,0.46,0.95,1721228090350
6.46,25.08,52.18,-0.59,0.09,-1.00,1721228090360
-5.23,13.30,13.65,1.30,-1.76,-1.09,1721228090370
-6.17,10.38,-11.64,0.40,0.76,-0.23,1721228090380
0.16,-8.16,-10.89,-0.59,0.05,0.77,1721228090390
3.44,-13.95,28.97,-0.80,0.48,0.13,1721228090400
2.34,-14.59,30.58,0.96,-0.28,-0.42,1721228090410
-6.04,22.11,16.16,0.41,0.64,-0.88,1721228090420
-7.36,26.66,-2.18,0.49,-0.77,0.17,1721228090430
0.24,-19.86,12.88,-1.61,0.85,0.51,1721228090440
12.61,-14.90,38.35,0.31,0.38,0.25,1721228090450
11.84,-2.71,-5.49,0.26,-0.42,-0.35,1721228090460
-1.80,22.43,0.46,0.50,-0.10,-1.02,1721228090470
0.27,14.08,-5.42,0.11,0.11,-0.82,1721228090480
-9.79,-0.25,-13.15,-0.22,-0.55,-0.16,1721228090490
-1.20,-18.27,-9.87,-0.83,0.62,0.22,1721228090500
4.06,-6.45,58.84,-1.13,0.91,0.06,1721228090510
-5.11,2.29,41.37,0.96,0.22,-0.64,1721228090520
1.49,-2.99,-15.81,-0.28,0.25,-1.28,1721228090530
-10.76,-14.48,-3.69,-1.19,-0.56,-0.61,1721228090540
-7.71,-4.64,36.22,-0.06,0.66,0.35,1721228090550
1.39,-12.31,-5.02,0.18,-0.60,0.80,1721228090560
6.87,22.66,11.65,0.68,0.59,-0.32,1721228090570
12.38,8.00,-26.16,0.28,-0.58,-1.24,1721228090580
-6.79,-24.40,-9.50,-1.20,0.15,-1.38,1721228090590
-16.46,16.37,72.88,0.00,0.11,-0.72,1721228090600
-18.39,-3.93,16.54,0.25,1.63,-0.03,1721228090610
-1.30,-29.92,-4.30,-0.90,-0.48,0.83,1721228090620
0.24,5.11,39.98,-0.62,1.12,0.57,1721228090630
9.44,-18.17,6.28,0.20,-0.73,0.06,1721228090640
2.15,0.61,17.12,-0.05,0.54,-0.83,1721228090650
-0.57,13.13,13.65,0.75,-0.14,-0.97,1721228090660
-10.21,-5.24,5.00,-0.44,-0.17,-0.52,1721228090670
-7.59,33.85,32.36,0.52,0.29,0.28,1721228090680
-5.55,4.62,-19.07,0.57,-0.32,0.45,1721228090690
-3.63,-14.42,-11.62,-0.55,0.51,0.50,1721228090700
3.07,-0.22,6.41,0.36,-0.24,0.83,1721228090710
11.08,-10.82,33.69,-0.64,0.71,-0.12,1721228090720
-8.07,14.32,7.53,0.98,-1.90,-0.34,1721228090730
-2.03,14.62,-0.89,0.62,0.89,-0.66,1721228090740
-8.73,39.22,9.75,0.56,-0.21,0.41,1721228090750
-4.69,14.83,6.25,-0.84,0.23,0.52,1721228090760
3.24,-54.93,22.51,-0.95,-0.09,0.08,1721228090770
-1.35,9.46,16.59,0.76,-0.62,-0.37,1721228090780
-1.32,0.90,12.98,-0.70,0.29,-0.98,1721228090790
-15.05,-15.40,24.10,0.54,-1.25,0.73,1721228090800
2.46,2.03,-11.68,0.65,0.52,1.46,1721228090810
18.09,15.09,-7.95,0.28,-0.28,0.98,1721228090820
12.31,16.82,4.15,0.27,0.13,-0.84,1721228090830
-4.94,16.37,18.80,-0.18,-0.63,-1.51,1721228090840
-18.22,-24.45,12.94,-0.66,-0.10,-0.68,1721228090850
-15.35,1.25,21.42,-0.19,0.17,0.53,1721228090860
-4.66,11.22,-8.10,0.48,-0.76,2.03,1721228090870
12.35,-21.16,-9.06,-1.25,0.79,1.76,1721228090880
18.18,-2.07,39.55,-0.73,0.42,0.02,1721228090890
18.23,-0.32,20.13,0.87,-0.82,-0.66,1721228090900
1.01,9.22,5.04,0.14,-0.29,-0.84,1721228090910
-10.71,-2.14,-9.39,0.06,-0.36,-0.25,1721228090920
-11.43,-2.28,5.05,-0.17,0.41,0.27,1721228090930
-3.18,11.72,42.70,-0.01,0.20,0.68,1721228090940
19.00,-25.21,18.80,-0.01,-0.42,0.59,1721228090950
1.25,-0.51,7.73,-0.23,0.10,-0.38,1721228090960
3.60,-6.37,-18.99,-0.24,-0.34,-0.21,1721228090970
-0.55,2.80,35.84,-0.93,0.49,0.21,1721228090980
5.65,-8.79,33.54,0.38,-0.47,0.60,1721228090990
4.01,-3.62,-7.99,0.03,0.04,-0.33,1721228091000
-1.26,1.28,-4.49,-0.42,0.18,-0.42,1721228091010
-3.20,-10.16,26.74,-0.36,0.05,-0.23,1721228091020
5.84,9.26,27.42,0.84,-0.08,-0.20,1721228091030
-4.43,16.19,3.83,0.96,-0.88,0.69,1721228091040
8.41,6.50,11.71,-1.25,1.03,0.81,1721228091050
6.81,-14.36,27.86,-0.71,-0.31,0.16,1721228091060
3.27,36.53,5.15,1.05,-0.42,-0.20,1721228091070
10.64,-15.90,-30.21,0.31,-0.36,-0.12,1721228091080
-1.17,-1.56,-3.40,-0.25,0.04,-0.66,1721228091090
-3.11,1.15,9.94,0.56,-0.67,-0.74,1721228091100
-19.67,2.91,46.06,-0.38,0.17,-0.60,1721228091110
-10.21,27.66,40.05,1.00,0.58,0.05,1721228091120
0.41,-56.81,-24.23,-1.12,-0.53,0.86,1721228091130
-10.56,28.16,64.37,-1.33,1.93,-0.02,1721228091140
0.34,32.30,30.82,1.77,0.17,0.25,1721228091150
14.12,8.37,-39.30,0.37,-0.05,-0.48,1721228091160
0.28,-24.21,-1.09,-0.72,-0.17,-1.04,1721228091175
1.69,-36.94,4.72,-1.06,0.48,-0.89,1721228091179
-5.06,23.99,61.76,0.64,0.70,0.16,1721228091189
-4.22,22.04,-4.62,1.18,-0.67,0.60,1721228091199
2.15,-1.47,-5.69,-1.10,0.88,0.52,1721228091209
12.04,-12.70,34.17,-0.79,0.18,0.32,1721228091219
11.91,-9.79,28.98,0.34,0.47,-0.77,1721228091229
0.17,25.67,-16.53,1.54,-0.80,-1.02,1721228091239
-9.06,-32.84,-22.31,-1.10,0.21,-1.37,1721228091249
-22.56,16.00,53.31,0.38,-0.29,0.31,1721228091259
-5.48,-42.13,-25.70,0.45,-0.41,1.64,1721228091269
8.61,30.93,12.64,-0.18,0.93,0.80,1721228091279
16.28,22.02,-18.06,0.61,-0.54,-0.42,1721228091289
-0.95,-66.91,16.41,-2.01,0.51,-1.93,1721228091299
-5.00,-16.49,78.45,0.71,-0.61,-1.48,1721228091309
-11.71,15.72,-39.41,1.45,-1.29,0.30,1721228091319
-3.82,-19.01,-19.03,-1.61,2.05,0.97,1721228091329
-1.85,13.81,48.14,0.47,-0.68,1.68,1721228091339
16.01,25.64,-2.30,0.80,-0.01,0.93,1721228091349
12.92,4.90,-7.66,-0.91,0.55,-0.97,1721228091359
3.70,-54.88,-8.99,-0.72,-0.48,-1.21,1721228091369
-9.90,7.88,59.18,-0.24,0.78,-1.22,1721228091379
-28.95,-36.45,-0.82,1.20,-1.90,0.08,1721228091389
-24.65,8.15,-9.24,0.89,-0.50,1.12,1721228091399
5.15,12.58,-5.34,-0.04,0.78,1.16,1721228091409
8.88,14.62,52.28,-0.78,0.36,0.50,1721228091419
28.74,-8.54,58.86,0.96,-0.82,0.07,1721228091429
4.42,1.63,-41.84,0.31,-0.28,-0.98,1721228091439
-0.86,-14.17,0.53,-1.08,0.98,-1.67,1721228091449
-5.94,-12.71,53.85,0.91,-0.47,0.03,1721228091459
-6.91,3.55,-5.90,0.84,0.90,1.35,1721228091469
4.86,20.16,-16.85,0.61,-0.02,1.35,1721228091479
12.58,20.69,6.45,0.25,0.16,0.21,1721228091489
6.70,3.86,-6.11,-0.29,-0.31,-0.83,1721228091499
-8.93,-57.27,9.75,-0.99,-0.22,-1.08,1721228091509
-4.80,0.29,54.40,0.81,-0.41,0.70,1721228091519
0.63,11.18,-29.33,0.75,-0.46,2.03,1721228091529
9.18,-24.81,1.78,-1.67,0.96,1.07,1721228091539
6.20,-3.67,63.32,-0.29,0.06,-0.75,1721228091549
-6.41,22.13,6.98,1.38,-1.72,-1.49,1721228091559
-8.10,10.04,-35.50,0.13,-0.21,-0.42,1721228091569
-16.36,-24.82,-13.24,-0.77,0.20,1.22,1721228091579
0.74,-56.18,18.07,-1.52,0.57,0.97,1721228091589
2.06,-5.56,69.35,-0.03,-0.33,0.56,1721228091599
0.52,4.75,-6.69,1.03,-0.94,0.30,1721228091609
20.70,22.25,25.59,-1.43,1.97,-0.08,1721228091619
1.71,-13.04,15.64,0.16,-2.48,0.94,1721228091629
16.22,13.89,1.80,-0.13,1.38,-0.13,1721228091639
3.92,0.30,9.27,-0.19,-0.84,0.01,1721228091649
1.50,-9.89,17.43,-0.01,0.89,-0.08,1721228091659
3.41,4.12,17.24,0.06,-0.55,-0.37,1721228091669
-5.08,10.96,-14.15,0.66,-0.26,0.26,1721228091679
3.50,-22.90,18.32,-0.94,0.74,0.17,1721228091689
2.00,21.70,37.58,0.62,-0.32,0.15,1721228091699
12.77,27.03,-4.09,0.76,0.09,-0.08,1721228091709
0.91,2.16,-9.89,0.41,-0.28,-0.52,1721228091719
-2.80,-20.37,-10.57,0.03,-0.05,-1.11,1721228091729
-10.34,-10.58,21.68,-0.54,0.16,-0.44,1721228091739
-1.15,-10.36,28.51,0.62,-0.66,0.60,1721228091749
4.26,30.62,-6.30,1.15,-0.07,0.60,1721228091759
8.81,10.90,-23.83,-0.18,0.37,0.05,1721228091769
4.99,-12.55,10.15,-2.03,0.36,-0.74,1721228091779
-3.17,-8.99,52.14,-0.31,0.21,-1.21,1721228091789
-15.52,3.32,-7.11,1.59,-0.61,-0.39,1721228091799
5.95,-12.73,-34.64,-0.65,0.60,0.30,1721228091809
-2.71,-10.29,68.84,-1.19,0.52,-0.89,1721228091819
-20.63,21.33,28.11,1.72,-2.13,0.13,1721228091829
7.77,46.03,-63.14,1.04,0.08,0.88,1721228091839
25.33,20.09,-37.99,-1.45,0.80,-0.51,1721228091849
-4.29,-46.26,21.33,-1.96,-0.58,-2.19,1721228091859
-9.13,-12.44,59.01,0.40,0.53,-1.91,1721228091869
-27.16,-2.04,-25.48,1.21,-0.59,-0.35,1721228091879
-11.68,-16.59,-31.25,-1.03,0.98,0.89,1721228091889
2.44,-22.32,65.68,-1.38,0.96,1.21,1721228091899
14.85,30.70,67.59,1.76,-0.05,1.00,1721228091909
22.08,17.44,-39.45,0.63,-0.50,-0.52,1721228091919
6.17,-9.90,-12.81,-1.65,1.15,-2.45,1721228091929
-14.14,-1.05,25.93,0.78,-1.29,-2.08,1721228091939
-14.09,-38.18,-12.13,-0.50,1.63,-1.91,1721228091949
-20.17,4.53,45.82,0.06,-0.91,0.29,1721228091959
-9.42,-1.19,16.72,0.66,0.09,2.33,1721228091969
15.34,35.76,23.46,0.05,0.93,2.49,1721228091979
17.96,14.87,-10.70,0.86,-0.23,0.91,1721228091989
20.20,-58.86,-1.10,-1.40,0.29,-1.93,1721228091999
-13.43,5.37,45.20,0.13,-0.98,-2.50,1721228092009
-12.74,9.89,-21.50,0.86,-0.03,-1.20,1721228092019
-19.54,-3.60,4.36,-0.06,0.11,-0.03,1721228092029
-9.02,7.54,27.50,0.76,0.02,1.21,1721228092039
13.42,46.24,6.31,1.24,0.23,1.70,1721228092049
9.39,9.84,-22.74,-0.03,0.37,0.00,1721228092059
7.31,-28.68,-8.66,-0.51,0.02,-1.14,1721228092069
-7.86,-5.23,10.95,-0.22,-0.21,-0.85,1721228092079
-15.66,-15.28,54.29,-0.19,0.45,-0.24,1721228092089
-17.65,-9.96,41.55,1.46,-0.54,0.63,1721228092099
4.19,1.86,1.57,0.31,0.39,1.00,1721228092109
8.49,23.40,6.07,0.15,-0.03,0.78,1721228092119
11.57,14.98,-12.22,0.22,-0.19,-0.29,1721228092129
3.97,0.72,-19.08,-0.46,-0.23,-1.12,1721228092139
-8.69,-38.67,30.46,-1.03,0.38,-1.01,1721228092149
-12.92,3.10,52.09,1.28,-0.64,0.04,1721228092159
-9.71,27.83,-36.48,1.12,-0.99,1.18,1721228092169
9.40,-6.17,-7.37,-1.89,1.16,1.73,1721228092179
14.03,-19.17,57.21,-0.66,0.30,1.12,1721228092189
15.50,-17.08,16.29,0.58,-0.73,-0.69,1721228092199
-15.50,30.41,5.21,0.66,1.84,-1.95,1721228092209
-9.92,-7.48,2.55,-0.20,-1.10,-0.54,1721228092219
-21.72,8.94,20.99,0.15,0.13,0.93,1721228092229
5.54,18.73,-5.58,0.68,0.15,1.23,1721228092239
5.04,-7.41,10.72,-1.13,-0.07,0.25,1721228092249
8.63,-10.52,40.81,-0.06,-0.05,-0.34,1721228092259
2.72,3.35,-9.36,0.27,-0.47,-0.89,1721228092269
-7.16,-11.38,-23.66,-0.43,-0.36,-0.40,1721228092279
-8.88,-6.73,33.46,-0.64,1.10,0.08,1721228092289
-4.95,14.04,38.80,0.95,-0.09,0.33,1721228092299
1.29,8.81,-4.07,0.41,0.10,0.18,1721228092309
7.05,-0.31,12.10,-0.63,0.18,0.28,1721228092319
2.92,3.39,32.65,-0.58,0.23,-0.44,1721228092329
2.23,-4.65,-22.90,0.83,-0.99,-0.54,1721228092339
-1.01,-30.49,-33.34,-0.86,0.24,-0.40,1721228092349
-9.32,13.69,52.59,-0.27,0.34,-0.39,1721228092359
-5.48,-8.11,26.05,0.68,-0.76,0.17,1721228092369
-3.49,33.78,11.04,0.98,-0.11,0.83,1721228092379
14.45,17.60,-6.72,-0.03,0.06,0.69,1721228092389
3.55,1.85,-16.98,-0.02,-0.45,-0.43,1721228092399
-0.05,-32.50,-3.36,-0.86,0.28,-1.23,1721228092409
-14.95,-3.87,43.51,-0.50,-0.66,-0.89,1721228092419
-10.41,20.66,-2.87,1.62,-0.86,0.74,1721228092429
7.37,2.12,-13.86,-0.66,0.62,0.78,1721228092439
2.66,40.42,48.59,0.11,0.49,-0.16,1721228092449
10.40,7.36,5.13,0.24,0.22,-0.99,1721228092459
-5.37,-13.90,-6.11,-0.72,-0.82,-0.48,1721228092469
-6.28,-21.86,17.54,-0.61,0.73,-0.24,1721228092479
-1.32,-1.52,8.58,0.89,-0.92,0.49,1721228092489
1.16,-7.53,5.96,-0.13,0.28,0.69,1721228092499
8.84,37.22,38.14,0.65,0.42,0.79,1721228092509
11.12,6.21,-5.12,0.25,-0.50,0.22,1721228092519
4.58,-7.82,-3.78,-0.11,0.29,-1.12,1721228092529
-4.52,-13.19,10.48,0.01,-0.46,-1.28,1721228092539
-13.24,12.92,16.63,0.75,0.27,-0.07,1721228092549
-1.29,-10.72,-5.40,-0.33,0.20,0.71,1721228092559
-5.01,12.21,56.74,-0.61,0.27,0.11,1721228092569
0.63,-4.22,17.14,1.34,-1.31,0.79,1721228092579
11.37,17.92,-12.01,0.22,0.98,0.35,1721228092589
10.13,38.17,-16.41,1.11,-0.30,-0.12,1721228092599
6.04,-9.05,-33.67,-1.14,0.16,-0.89,1721228092609
-17.15,-45.17,53.61,-2.01,0.22,-1.23,1721228092619
-8.30,10.23,59.00,2.04,0.05,-0.50,1721228092629
-1.03,-11.31,-32.96,-0.28,-0.75,1.15,1721228092639
11.41,39.55,44.60,-0.90,2.40,0.30,1721228092649
11.65,2.88,-4.41,1.12,-1.78,0.21,1721228092659
12.14,1.44,-18.94,-0.62,0.95,-0.61,1721228092669
0.96,2.13,31.03,-0.74,-0.38,-0.62,1721228092679
-3.28,-7.23,28.58,-0.42,0.14,-0.71,1721228092689
-10.28,13.53,15.85,0.40,-0.59,-0.13,1721228092699
4.35,-37.02,1.69,-0.53,0.35,-0.13,1721228092709
-5.44,-7.16,29.68,0.22,-0.26,-0.48,1721228092719
2.02,14.74,-23.14,0.77,-0.36,-0.28,1721228092729
-3.56,-20.49,-15.47,-0.54,0.34,0.03,1721228092739
-10.83,1.92,46.46,0.49,0.02,-0.21,1721228092749
-8.81,32.83,8.18,1.62,-0.36,0.39,1721228092759
13.03,29.52,-43.97,-1.12,-0.12,0.14,1721228092769
6.50,-62.04,18.00,-2.37,0.48,-0.80,1721228092779
-5.88,7.33,66.67,-0.04,0.37,-1.21,1721228092789
-9.98,6.15,-2.98,1.26,0.95,-0.09,1721228092799
-1.57,-24.22,-3.20,-0.06,-0.42,0.08,1721228092809
-0.62,9.39,31.56,0.26,0.25,-0.07,1721228092819
4.75,32.29,-5.76,0.28,-0.25,-0.06,1721228092829
-6.02,-5.32,6.09,-1.27,-0.18,-0.30,1721228092839
-14.17,-7.06,43.39,0.01,-0.08,0.17,1721228092849
13.33,6.96,-19.88,0.70,-0.14,1.04,1721228092859
4.37,-19.59,-12.06,-1.40,0.93,0.04,1721228092869
2.95,51.01,63.68,0.29,0.36,-1.49,1721228092879
-1.47,4.64,-5.69,2.03,0.56,-1.22,1721228092889
-18.29,-11.04,-24.18,-0.71,-0.23,0.15,1721228092899
-6.19,-35.23,36.98,-1.35,0.63,0.15,1721228092909
-7.96,-2.67,44.46,0.73,-0.40,0.70,1721228092919
-1.37,-4.06,-8.30,0.52,-0.33,0.51,1721228092929
3.34,15.00,11.40,0.77,1.67,-0.35,1721228092939
5.09,9.51,22.75,-0.02,-0.68,-0.87,1721228092949
-6.70,23.72,1.86,0.68,0.65,-0.69,1721228092959
-0.58,-1.04,-21.13,-0.17,-0.28,0.06,1721228092969
-5.33,-15.01,-18.56,-0.33,0.09,-0.18,1721228092979
-4.67,-6.42,-17.99,0.34,0.27,-0.15,1721228092989
-2.81,-27.11,27.29,-1.96,0.44,-0.38,1721228092999
-7.43,40.67,78.45,0.69,-0.40,-0.68,1721228093009
7.67,9.45,9.56,0.98,0.86,0.32,1721228093019
-8.89,-9.88,8.12,-1.19,-0.75,1.12,1721228093029
11.14,8.80,13.89,-0.09,1.32,0.81,1721228093039
16.19,-21.26,-36.59,0.24,-0.68,0.07,1721228093049
9.92,-5.76,-19.97,-0.66,0.80,-1.40,1721228093059
-3.35,11.65,54.20,-0.63,0.32,-1.80,1721228093069
-12.12,10.35,6.86,-0.29,-1.05,-0.40,1721228093079
-15.36,-0.58,13.36,-0.40,0.29,0.86,1721228093089
-0.14,21.77,16.13,0.02,-0.02,0.96,1721228093099
2.60,19.79,-4.52,0.41,0.12,0.49,1721228093109
12.43,-14.12,-12.61,-0.26,0.01,-0.13,1721228093119
-0.56,-16.52,31.77,-0.66,0.32,-0.72,1721228093129
-6.51,-7.45,25.78,0.45,0.64,-0.76,1721228093139
-5.87,2.84,-8.39,0.17,-0.24,-0.31,1721228093149
-4.50,-3.93,2.06,-0.00,0.19,0.59,1721228093159
2.35,12.09,27.89,0.41,0.33,0.67,1721228093169
5.00,9.36,-7.67,0.77,-0.55,-0.01,1721228093184
5.83,5.93,-16.12,0.27,-0.06,-0.31,1721228093188
-3.06,-52.10,0.38,-1.25,-0.09,-0.71,1721228093198
-8.63,-2.25,47.44,-0.20,0.57,-0.08,1721228093208
-1.25,13.13,-3.00,1.31,-1.00,0.38,1721228093218
0.88,-17.41,-22.86,-0.35,0.72,0.13,1721228093228
1.49,29.59,43.46,0.24,0.35,0.30,1721228093238
4.27,11.49,9.12,0.51,0.49,-0.20,1721228093248
-0.60,-28.40,2.06,-0.91,-0.12,-0.60,1721228093258
-7.56,-2.50,32.11,-0.19,0.41,-0.52,1721228093268
-4.57,-0.98,5.53,0.61,-0.72,0.75,1721228093278
1.24,-3.69,-3.98,-0.00,0.68,0.69,1721228093288
7.91,-17.93,1.60,-0.51,-0.04,-0.04,1721228093298
0.35,22.77,37.80,0.10,0.42,-0.92,1721228093308
-3.44,23.03,2.36,1.05,-0.92,-0.53,1721228093318
-7.01,-10.20,-30.82,-0.30,0.33,-0.03,1721228093328
2.17,-15.61,11.86,-0.68,0.67,0.65,1721228093338
-2.19,-6.72,39.68,-0.32,-0.12,0.36,1721228093348
0.83,15.05,20.63,0.35,-0.07,-0.40,1721228093359
-1.34,-9.34,-6.60,-0.27,-0.10,0.07,1721228093368
-2.89,4.20,20.81,-0.04,0.36,0.75,1721228093378
6.67,36.40,8.63,0.94,0.06,0.30,1721228093388
4.94,9.52,-32.62,0.09,-0.40,-0.47,1721228093398
-5.31,-48.43,-3.85,-2.10,0.02,-0.50,1721228093408
-8.01,-12.02,78.45,-0.60,0.55,-0.47,1721228093418
-7.40,37.50,-13.92,2.41,-1.89,0.24,1721228093428
2.08,-17.72,-46.76,-0.75,0.28,0.66,1721228093438
-2.20,22.60,64.01,-0.29,0.87,1.00,1721228093448
10.94,-10.16,2.08,1.05,-1.43,0.84,1721228093458
12.69,-8.53,-4.04,-0.61,1.61,-1.02,1721228093468
-2.60,4.43,1.73,0.01,-1.35,-0.97,1721228093478
-11.58,-6.56,-8.41,-0.58,0.53,-0.18,1721228093488
-6.16,-33.86,59.47,-1.29,0.34,0.93,1721228093498
-2.09,18.03,78.45,0.99,1.12,0.92,1721228093508
6.40,34.09,-27.03,1.26,-1.09,0.14,1721228093518
3.71,29.51,-8.68,-0.87,1.27,-0.30,1721228093528
-3.66,1.53,8.25,-0.20,-0.63,-0.06,1721228093538
-4.99,-42.05,-8.09,-0.34,0.46,-0.34,1721228093548
-4.03,-14.43,23.28,0.28,0.07,0.08,1721228093558
-3.22,17.22,0.45,0.89,-0.81,1.20,1721228093568
7.68,-9.81,20.59,-0.67,0.44,1.16,1721228093578
5.77,20.56,32.41,0.99,0.00,0.58,1721228093588
10.55,52.71,-0.11,1.22,0.17,-0.15,1721228093598
1.62,-3.25,-29.29,-0.54,-0.17,-0.80,1721228093608
-7.14,-38.22,35.89,-1.92,-0.10,-1.01,1721228093618
-13.04,-19.26,34.92,1.22,-0.98,-0.15,1721228093628
-8.05,-6.98,-34.04,0.92,-0.61,0.46,1721228093638
-5.70,13.32,18.93,-0.68,1.56,1.16,1721228093648
3.53,20.59,42.96,0.12,-0.24,1.71,1721228093658
20.49,9.98,5.30,-0.36,1.58,-0.23,1721228093668
6.06,-15.86,-19.60,-0.10,-1.64,-1.29,1721228093678
-6.52,-15.42,-13.82,-0.40,0.77,-1.35,1721228093688
-11.50,7.64,54.26,-0.16,0.32,0.05,1721228093698
-6.98,5.63,11.55,1.09,0.53,1.03,1721228093708
10.28,-7.92,-18.64,-0.79,0.08,0.82,1721228093718
3.41,-0.52,51.70,-1.34,0.33,-0.60,1721228093728
6.37,-16.24,39.53,0.91,0.08,-0.42,1721228093738
0.33,-6.00,4.56,-0.28,-0.15,-0.45,1721228093748
-14.94,15.53,6.45,0.55,-0.41,-0.02,1721228093758
-1.30,19.88,0.72,-0.39,0.82,0.35,1721228093768
-2.27,-11.30,-3.49,-0.47,-0.63,0.96,1721228093778
9.11,0.55,36.57,-0.66,1.13,0.10,1721228093788
5.40,18.74,25.26,0.87,-0.51,0.46,1721228093798
12.52,20.52,-13.21,0.27,0.10,-0.27,1721228093808
4.00,1.14,-14.78,-0.43,-0.32,-0.98,1721228093818
-0.81,-46.84,-3.54,-2.06,0.30,-1.69,1721228093828
-12.62,-14.71,73.82,-0.59,0.40,-1.41,1721228093838
-23.85,13.87,27.65,2.56,-0.05,-0.08,1721228093848
0.10,-5.13,-22.85,-0.78,0.21,1.09,1721228093858
-0.27,24.65,45.35,0.33,0.25,1.27,1721228093868
18.87,-19.51,-21.85,0.09,-0.07,0.19,1721228093878
0.67,8.43,41.22,-0.86,0.36,-1.04,1721228093888
13.10,15.08,40.16,1.32,-0.50,-0.58,1721228093898
1.96,2.11,-35.05,0.68,-0.41,-0.22,1721228093908
6.24,-23.62,-30.85,-0.66,0.53,-0.29,1721228093918
-10.35,-25.39,27.03,-0.20,-0.10,-0.78,1721228093928
-12.86,6.29,46.56,0.94,-0.29,-0.59,1721228093938
10.18,28.47,24.01,0.85,0.75,0.27,1721228093948
1.37,-10.87,-17.20,-0.66,-0.46,1.08,1721228093958
3.92,-19.58,22.41,-1.31,0.77,0.28,1721228093968
6.01,23.87,23.52,1.21,-0.27,-0.35,1721228093978
10.29,3.94,-50.38,0.23,-0.48,-0.13,1721228093988
9.05,2.32,18.29,-1.45,0.55,-0.67,1721228093998
-11.96,12.45,29.95,0.62,-1.72,-0.48,1721228094008
-5.14,-12.93,-20.30,0.46,-0.28,-0.34,1721228094018
2.94,-24.07,-2.26,-1.08,0.39,0.75,1721228094028
-7.24,12.23,57.13,0.22,0.41,0.76,1721228094038
10.52,21.40,14.13,1.99,0.42,0.26,1721228094048
4.86,3.11,-1.18,-0.56,-0.41,0.38,1721228094058
9.45,-26.20,29.60,-0.95,0.53,0.15,1721228094068
2.62,0.15,5.90,0.67,0.32,-0.79,1721228094078
1.14,1.00,-38.14,-0.20,-0.31,-0.31,1721228094088
-3.26,-1.87,43.87,-1.18,1.07,-0.10,1721228094098
1.13,3.63,43.00,1.84,-0.88,0.15,1721228094108
-0.67,-0.34,-40.81,0.05,-0.58,0.23,1721228094118
-7.10,4.17,-3.29,-1.19,1.50,0.37,1721228094128
5.06,-6.80,49.13,-0.27,-0.26,0.01,1721228094138
-0.73,-4.83,23.37,1.53,-0.66,0.13,1721228094148
8.60,-5.28,-33.78,0.44,-0.05,0.04,1721228094158
-3.41,24.09,-24.00,-0.38,-0.00,-0.30,1721228094168
2.08,-19.36,-7.13,-2.09,0.43,-0.47,1721228094178
-12.50,-31.37,78.45,-1.35,0.78,-1.20,1721228094188
-6.80,62.67,44.87,3.53,-0.93,-0.00,1721228094198
-3.19,-11.41,-69.85,0.70,-0.31,0.05,1721228094208
-7.09,16.37,47.14,-2.71,2.01,-0.70,1721228094218
-2.18,-12.07,8.92,0.09,-0.69,0.11,1721228094228
5.95,-20.10,0.45,-0.43,1.27,-0.62,1721228094238
-6.25,9.30,12.81,0.75,-1.07,-0.63,1721228094248
-4.93,15.36,-15.89,0.43,0.32,-0.43,1721228094258
0.46,4.17,1.59,0.13,0.05,0.35,1721228094268
-0.88,8.31,20.93,-0.11,0.13,0.16,1721228094278
2.06,13.04,29.35,0.19,0.01,-0.43,1721228094288
-0.93,-29.91,7.89,-0.95,-0.39,-0.73,1721228094298
3.60,17.88,8.33,-0.17,0.72,0.19,1721228094308
3.70,9.03,0.94,0.44,-0.23,0.09,1721228094318
5.90,-10.30,8.26,0.01,0.18,-0.94,1721228094328
-9.10,18.15,24.51,0.81,-0.51,-1.44,1721228094338
-14.52,43.56,10.72,0.65,0.05,-0.53,1721228094348
-11.02,-16.38,-11.77,-0.78,0.13,0.75,1721228094359
4.07,-35.84,-9.47,-0.74,0.84,1.47,1721228094368
11.74,-7.50,12.23,-0.35,0.31,0.21,1721228094378
13.44,-5.76,26.20,0.07,0.23,-1.00,1721228094388
-3.25,-14.97,5.82,0.35,-0.65,-0.96,1721228094398
-7.02,15.79,24.66,-0.15,0.94,-0.65,1721228094408
-7.24,-3.55,6.21,0.47,-0.66,0.02,1721228094418
-2.91,1.32,-7.92,0.67,0.67,0.48,1721228094428
1.90,27.08,-2.14,0.54,0.44,0.54,1721228094438
1.26,-7.06,44.11,-1.67,0.52,-0.28,1721228094448
0.06,-24.45,42.82,0.22,0.32,0.08,1721228094458
4.33,10.33,-13.89,0.91,-0.21,0.11,1721228094468
2.05,6.48,4.37,-0.42,0.61,-0.62,1721228094478
-3.11,13.54,6.29,1.17,-0.65,-0.18,1721228094488
-1.61,-19.50,-12.61,-0.49,0.56,0.27,1721228094498
-4.30,3.16,42.50,-0.86,1.04,0.51,1721228094508
4.85,-9.32,5.43,0.36,0.14,0.09,1721228094518
-0.84,-9.28,20.25,-0.85,0.09,-0.40,1721228094528
0.47,-3.87,20.56,0.57,-0.42,0.77,1721228094538
11.66,9.85,8.67,0.30,0.77,0.66,1721228094548
3.24,40.62,1.57,1.08,-0.27,-0.21,1721228094558
4.10,-15.31,-39.30,-0.30,-0.27,-1.30,1721228094568
-13.07,-62.22,18.58,-1.96,-0.02,-1.30,1721228094578
-11.29,40.76,74.36,0.45,-1.53,0.26,1721228094588
-3.87,59.75,13.03,1.87,-0.47,0.90,1721228094598
11.68,-17.55,-31.17,-1.58,0.66,0.31,1721228094608
2.46,12.00,34.82,0.63,-0.03,-0.01,1721228094618
8.77,-19.59,-40.62,1.35,-0.43,-0.65,1721228094628
-12.94,-21.44,-9.31,-0.89,0.46,-0.43,1721228094638
-13.12,31.76,55.44,1.28,0.12,-0.12,1721228094648
-0.09,1.59,-15.38,0.73,-0.49,0.34,1721228094658
-4.20,-2.02,-13.25,-0.35,0.21,0.29,1721228094668
6.04,-20.15,-7.37,-0.91,0.19,0.07,1721228094678
2.64,-26.18,52.09,-0.85,0.25,-0.15,1721228094688
3.38,26.32,40.19,2.47,-0.26,0.41,1721228094698
10.40,7.16,-24.06,0.19,0.23,-0.12,1721228094708
-5.64,16.21,43.54,-1.01,0.23,-1.10,1721228094718
-3.90,7.48,5.13,0.97,0.32,-0.57,1721228094728
-6.22,-30.68,-34.54,-1.16,-0.67,0.10,1721228094738
-12.91,1.41,48.52,-1.47,1.54,0.02,1721228094748
-8.16,62.19,6.32,1.21,-2.38,0.59,1721228094758
-2.24,-5.87,-58.22,-0.79,-0.15,-0.10,1721228094768
14.60,-13.92,-0.65,-2.06,1.01,-0.04,1721228094778
-3.02,-13.47,65.08,-0.31,0.16,0.54,1721228094788
8.43,-13.73,28.92,1.11,-0.57,0.66,1721228094798
-13.80,16.29,-19.34,1.51,0.49,0.51,1721228094808
15.54,13.99,-0.78,-1.11,0.28,-0.04,1721228094818
-3.19,18.08,56.97,-0.78,0.42,-0.76,1721228094828
-4.28,-2.45,22.95,0.17,0.51,-0.94,1721228094838
-10.65,-15.97,-14.03,-0.46,-0.39,-0.01,1721228094848
-6.42,-10.93,6.48,-0.34,0.22,1.20,1721228094858
4.53,20.20,9.62,0.61,0.38,1.09,1721228094868
7.01,5.18,12.45,-0.12,-0.14,-0.09,1721228094878
0.41,3.55,32.89,-0.07,-0.10,-0.50,1721228094888
-0.14,-7.10,8.07,-0.23,-0.25,-0.91,1721228094898
-7.87,35.22,-4.75,0.78,-0.13,0.21,1721228094908
1.84,-19.80,-29.63,-0.01,0.06,0.77,1721228094918
3.20,-31.38,8.54,-0.71,0.26,0.71,1721228094928
8.47,-1.84,50.81,-0.04,0.69,-0.17,1721228094938
-4.11,-7.42,57.50,0.09,0.02,-1.41,1721228094948
-8.64,49.05,31.12,0.81,-0.45,-0.43,1721228094958
-4.36,0.96,-10.83,-0.01,-0.15,1.09,1721228094968
3.37,-2.77,3.73,0.61,0.56,0.92,1721228094978
8.74,1.02,-30.78,1.29,-0.57,0.69,1721228094988
11.39,-1.29,-27.37,0.22,0.91,-0.08,1721228094998
2.60,-46.50,42.79,-1.36,-0.03,-1.38,1721228095008
16.18,27.84,67.45,1.34,-1.11,-0.42,1721228095018
-3.42,-2.71,-30.24,1.34,-1.24,0.65,1721228095028
-10.86,5.38,-1.12,-1.51,2.16,0.81,1721228095038
0.84,-12.29,25.63,-0.42,-0.71,0.17,1721228095048
-3.40,18.53,9.62,0.43,-0.03,-0.99,1721228095058
-4.87,-4.96,-24.78,0.15,-1.10,-0.29,1721228095068
-3.52,-1.96,-24.05,-0.98,0.85,0.38,1721228095078
3.51,-27.98,16.79,-1.14,-0.29,0.91,1721228095088
-6.99,-0.88,73.42,0.35,-0.03,0.65,1721228095098
31.54,-4.79,6.10,1.32,-0.14,0.56,1721228095108
11.07,-4.89,-10.90,-1.31,0.38,-0.91,1721228095118
-10.45,8.77,36.65,-0.41,-0.52,-1.79,1721228095128
10.07,10.35,29.22,-0.14,0.41,-1.18,1721228095662
-11.38,-9.77,43.69,-0.37,0.53,-1.00,1721228095668
-10.84,51.41,35.13,0.68,-0.59,-0.23,1721228095678
-10.07,-19.28,-33.81,-0.50,-0.44,0.05,1721228095688
7.17,-33.78,15.87,-1.92,1.44,0.10,1721228095697
5.86,6.22,61.38,0.56,-0.91,0.55,1721228095707
7.52,3.58,-39.33,1.44,-0.14,0.12,1721228095717
5.84,-4.08,-5.28,-1.34,0.71,-0.90,1721228095727
-1.48,40.07,52.85,0.66,-0.26,-0.19,1721228095737
-6.75,39.09,6.79,1.35,0.99,0.03,1721228095747
0.01,-19.83,-14.55,-0.71,-0.36,0.01,1721228095756
0.68,-30.31,17.60,-1.12,0.95,-1.26,1721228095766
-9.87,5.37,18.88,1.09,-0.16,-1.14,1721228095775
-10.26,-15.63,0.26,0.34,0.34,0.58,1721228095785
-8.00,3.55,23.89,0.25,0.52,1.48,1721228095794
11.53,18.50,20.01,1.05,0.15,1.78,1721228095804
15.75,28.48,-6.58,0.92,0.41,0.54,1721228095814
13.49,-0.41,-22.44,0.03,-0.20,-1.31,1721228095824
0.35,-40.93,-12.91,-0.49,-0.30,-1.70,1721228095834
-12.17,-8.56,48.64,0.19,0.23,-1.45,1721228095844
-14.66,-13.75,35.52,0.70,-0.05,0.32,1721228095853
-1.08,24.35,38.29,0.75,0.90,2.39,1721228095863
9.77,38.85,-15.33,0.94,0.12,1.75,1721228095873
18.88,-8.56,-28.94,-0.80,0.25,-0.95,1721228095883
6.97,-42.17,0.05,-0.86,-1.08,-1.72,1721228095893
-10.93,-0.40,27.90,0.18,0.62,-0.72,1721228095903
-8.65,5.60,23.98,0.43,0.91,0.47,1721228095913
-4.82,12.23,28.47,-0.08,0.01,0.36,1721228095923
-1.79,19.65,13.74,0.43,-0.38,0.88,1721228095933
11.74,5.34,-5.83,-0.40,0.32,0.64,1721228095943
7.72,-25.14,-18.27,-0.24,-0.35,-0.30,1721228095953
4.71,-5.00,-0.74,-0.26,0.68,-0.75,1721228095963
-0.74,2.43,28.59,-0.43,0.29,-0.61,1721228095972
-4.87,-9.46,33.15,0.22,0.43,-0.45,1721228095982
-10.88,-2.32,20.03,0.40,-0.72,0.42,1721228095992
-5.55,22.94,11.04,0.00,0.65,0.62,1721228096002
4.39,10.33,-19.30,0.18,-0.71,1.14,1721228096012
10.18,-32.30,-15.81,-0.93,1.02,0.37,1721228096022
3.05,4.20,55.76,-0.12,0.25,-0.62,1721228096032
-9.36,17.64,29.29,1.81,1.13,-0.50,1721228096042
-6.40,6.78,-12.70,-0.43,-0.62,0.04,1721228096052
-9.31,-6.09,36.50,-1.35,0.61,0.56,1721228096062
15.49,-24.50,14.15,0.14,-0.14,0.55,1721228096072
1.19,-8.76,-8.33,-0.04,-0.12,-0.31,1721228096082
0.90,13.84,30.64,-0.25,0.98,-0.52,1721228096092
-7.92,18.14,14.50,0.89,-0.71,0.01,1721228096102
-4.29,0.99,-4.72,-0.25,0.40,0.41,1721228096112
1.30,9.19,30.96,-0.57,0.53,0.37,1721228096122
0.79,-17.73,7.81,0.19,-0.71,0.32,1721228096132
2.63,9.28,0.12,0.66,0.54,-0.13,1721228096142
1.39,-1.22,-22.96,0.58,-0.59,0.06,1721228096152
-2.00,-13.87,7.56,-0.60,0.70,0.21,1721228096162
2.67,17.23,56.58,-0.10,0.29,0.39,1721228096172
-0.74,12.68,15.52,0.53,-0.79,0.00,1721228096182
0.06,-1.47,-7.23,-0.38,0.17,-0.09,1721228096192
-2.58,-22.17,6.04,-0.71,0.00,0.01,1721228096202
-3.87,-5.09,14.68,0.24,0.17,0.10,1721228096212
-1.43,1.81,-19.41,0.94,-0.64,0.45,1721228096222
0.79,-5.66,-11.15,-0.30,0.60,0.74,1721228096232
9.02,19.42,57.05,-0.75,0.78,0.59,1721228096242
0.75,14.50,18.64,0.55,0.14,-0.49,1721228096252
2.07,-1.12,6.35,-0.62,-0.02,-1.00,1721228096262
-11.65,-19.91,-4.31,-0.26,-0.89,0.38,1721228096272
4.47,-5.02,3.65,-0.09,0.76,0.65,1721228096282
4.00,-1.81,12.40,-0.50,-0.42,0.09,1721228096292
-2.59,5.06,33.71,-0.17,0.22,-0.57,1721228096302
-1.39,23.34,36.11,-0.27,-0.07,-0.31,1721228096312
-7.52,-22.66,-0.85,-0.40,-0.78,0.32,1721228096322
0.50,15.61,11.03,-0.24,0.99,0.50,1721228096332
1.68,-8.11,-29.41,0.77,-1.02,0.69,1721228096342
6.85,-37.68,-2.83,-0.88,1.59,-0.04,1721228096352
0.05,36.47,66.01,0.36,-0.41,0.15,1721228096362
-4.41,17.63,6.81,1.06,-0.84,-0.45,1721228096372
1.13,-6.90,-0.90,-0.63,0.11,0.09,1721228096382
0.74,-3.48,30.71,-0.42,0.24,0.30,1721228096392
2.60,-14.73,-3.27,0.84,-0.95,-0.49,1721228096402
-6.04,-18.38,-14.87,0.22,0.34,-1.01,1721228096412
-10.65,-9.07,29.37,0.06,-0.11,-0.38,1721228096422
-14.07,25.14,43.85,0.88,0.33,0.73,1721228096432
4.04,21.75,-5.91,0.79,-0.35,1.49,1721228096442
15.71,2.25,-19.99,-0.55,0.95,0.83,1721228096452
13.14,-28.42,9.84,-0.79,0.00,-0.41,1721228096462
-0.02,-18.98,24.12,0.55,-0.17,-1.53,1721228096472
-10.76,-2.58,12.94,0.75,-1.15,-1.23,1721228096482
-15.15,16.51,27.85,0.53,0.06,0.28,1721228096492
-1.97,34.25,11.75,0.70,-0.08,1.45,1721228096502
11.33,-0.01,-37.89,-0.41,0.20,0.73,1721228096512
8.97,-50.88,-3.53,-2.05,0.52,-0.44,1721228096522
-11.79,-16.24,78.45,-0.99,0.29,-1.67,1721228096532
-19.38,44.06,18.52,3.16,-1.47,-0.73,1721228096542
-5.92,-8.98,-46.62,0.26,0.34,0.63,1721228096552
2.37,25.23,33.61,-0.71,0.75,1.74,1721228096562
15.80,-6.85,-13.72,0.50,-0.47,0.55,1721228096572
15.81,9.49,-14.80,0.08,0.64,-1.01,1721228096582
-10.92,-8.99,4.09,-0.09,-0.60,-0.78,1721228096592
-6.64,-27.45,28.31,-0.70,0.48,-0.94,1721228096602
-21.99,4.17,51.44,0.68,-0.75,-0.57,1721228096612
-13.00,2.28,2.48,0.84,-0.30,1.38,1721228096622
3.10,22.38,6.55,0.65,0.46,2.30,1721228096632
18.59,14.99,-27.62,-0.08,-0.01,0.63,1721228096642
16.37,-27.50,-15.11,-0.92,0.32,-1.21,1721228096652
-3.63,21.48,8.54,0.10,-0.50,-1.46,1721228096662
-7.09,-12.89,17.64,-0.77,0.57,-0.45,1721228096672
-10.84,-0.23,77.33,0.21,-0.72,0.26,1721228096682
-4.04,-17.13,3.66,0.77,-1.08,2.10,1721228096692
18.45,16.78,-16.94,-0.45,1.99,1.78,1721228096702
17.23,-3.56,6.83,-0.08,-0.69,0.78,1721228096712
14.16,-19.69,6.96,-0.23,0.67,-1.32,1721228096722
-2.55,18.66,7.30,1.45,-0.96,-1.69,1721228096732
-12.72,3.16,-29.84,0.40,-0.12,-0.39,1721228096742
-19.77,7.69,36.25,-0.99,0.56,1.04,1721228096752
-1.98,-9.15,39.54,-0.11,-0.46,1.40,1721228096762
9.02,-5.42,-7.45,0.85,0.98,0.55,1721228096772
17.02,-22.55,4.62,-1.16,-0.28,-0.01,1721228096782
-1.96,43.95,48.34,0.21,-0.31,-0.46,1721228096792
11.89,6.95,-25.31,0.45,-0.74,-0.56,1721228096802
-4.41,-40.74,-21.87,-1.34,0.67,-1.25,1721228096812
-11.58,-3.23,32.89,0.20,-0.79,-0.41,1721228096822
-0.86,-1.26,-14.87,0.96,-0.27,0.68,1721228096832
-4.15,-1.80,-25.59,0.39,-0.01,0.42,1721228096842
5.67,24.71,30.27,-0.62,1.05,0.08,1721228096852
1.07,19.67,62.60,-0.63,0.16,-0.12,1721228096862
-1.02,-7.16,-17.62,0.43,-0.71,0.15,1721228096872
11.64,-15.47,-49.21,-0.38,0.30,0.28,1721228096882
1.78,-17.54,-12.48,-1.38,0.55,0.14,1721228096892
-14.36,-54.78,78.45,-2.08,0.17,-0.85,1721228096902
0.25,78.45,74.49,2.04,0.77,-0.49,1721228096912
-6.76,59.82,-58.22,2.29,-1.54,-0.40,1721228096922
-12.17,-1.11,-20.38,-2.02,0.80,-0.00,1721228096932
4.26,-28.09,-6.87,-0.80,0.19,0.95,1721228096942
5.59,-57.97,-15.53,-0.09,-0.34,0.87,1721228096952
2.19,29.89,20.24,0.89,1.47,-0.46,1721228096962
7.46,-11.40,23.30,-1.05,-0.35,-1.15,1721228096972
-5.79,75.16,76.77,-0.16,0.16,-1.36,1721228096982
-10.35,15.39,-31.61,1.20,-2.68,-0.89,1721228096992
-18.00,-78.45,-33.22,-1.77,1.51,-0.81,1721228097002
-4.36,9.75,47.37,-0.67,1.61,1.43,1721228097012
12.90,-6.30,-14.11,1.25,-0.73,1.81,1721228097022
22.06,29.62,14.12,-0.68,1.11,0.28,1721228097032
-16.29,52.01,22.17,-0.40,-2.97,-0.00,1721228097042
8.27,-14.57,-27.02,0.16,1.61,-1.35,1721228097052
8.23,14.04,-4.38,-0.99,-0.60,-0.87,1721228097062
-18.10,2.35,37.16,0.09,-0.20,-0.62,1721228097072
-8.63,4.06,25.70,0.92,-0.30,0.24,1721228097082
-11.20,24.75,19.66,0.17,0.21,0.86,1721228097092
3.95,-3.06,-7.49,-0.26,-0.98,0.93,1721228097102
11.32,-3.18,5.99,-0.18,0.86,0.15,1721228097112
2.30,-9.32,13.63,0.51,-0.86,-0.34,1721228097122
-3.34,3.96,17.41,0.75,0.34,-0.71,1721228097132
-7.30,29.93,1.83,1.32,-0.30,-0.11,1721228097142
-5.60,-7.79,-14.53,-0.19,-0.00,0.43,1721228097152
-1.72,6.18,35.98,-0.45,0.68,0.44,1721228097162
3.88,6.24,19.46,1.01,-0.23,0.33,1721228097172
4.59,-2.32,-12.06,0.16,-0.14,-0.55,1721228097182
-5.82,-5.87,8.12,-0.52,-0.13,-0.96,1721228097192
-6.55,-11.67,19.99,-0.32,0.19,-0.43,1721228097202
-11.76,-5.41,21.73,0.11,-0.39,0.25,1721228097212
-3.21,0.69,17.18,0.57,-0.15,0.84,1721228097222
9.65,37.92,-5.99,1.59,-0.18,1.31,1721228097232
18.17,-21.20,-41.25,-1.38,-0.27,-0.20,1721228097242
12.46,-13.01,63.05,-2.10,0.83,-1.63,1721228097252
-27.41,-2.05,65.53,1.91,1.53,-1.00,1721228097262
-3.69,-6.21,-35.23,1.21,-0.77,-0.35,1721228097272
-15.30,23.37,-4.47,-0.83,0.35,0.42,1721228097282
2.97,5.93,-7.69,0.24,-0.47,0.79,1721228097292
7.80,-15.95,-6.41,-0.99,0.57,0.38,1721228097302
3.67,16.08,32.88,-0.32,0.29,-0.12,1721228097312
7.38,-22.67,24.43,-0.90,0.10,-0.46,1721228097322
0.25,7.26,24.97,0.63,-0.68,-0.20,1721228097332
-6.12,6.42,-20.97,0.50,-0.52,-0.47,1721228097342
-6.82,23.65,-19.39,0.29,0.02,0.08,1721228097352
-1.64,-30.18,-6.87,-1.37,0.14,0.36,1721228097362
-4.03,-1.72,68.54,-0.26,0.62,0.09,1721228097372
0.02,9.36,-9.66,1.67,-0.34,-0.23,1721228097382
3.01,-26.78,-31.56,-1.46,0.20,-0.19,1721228097392
-3.86,13.83,78.45,-1.59,1.39,-0.71,1721228097402
-9.12,15.71,60.55,0.98,0.60,-1.01,1721228097412
-12.88,-26.24,-16.28,1.02,-1.32,-0.34,1721228097422
-12.10,29.59,-15.10,-0.98,0.73,0.89,1721228097432
0.55,5.29,5.05,-1.39,0.21,1.51,1721228097442
3.80,-26.51,10.00,-0.54,-0.00,0.09,1721228097452
6.22,2.00,-2.57,0.68,-0.14,-0.71,1721228097462
-2.15,-7.10,-6.29,-0.48,-0.26,-0.17,1721228097472
-0.64,4.03,56.45,-0.71,0.39,0.55,1721228097482
7.44,20.25,26.35,0.70,0.39,0.45,1721228097492
9.87,12.19,-12.00,-0.20,0.23,-0.42,1721228097502
3.87,-12.94,5.83,-0.97,-0.14,-1.06,1721228097512
-5.54,-20.89,7.81,-0.45,0.02,-1.58,1721228097522
-18.71,-6.17,27.01,-0.22,-0.35,-0.74,1721228097532
-11.38,-9.69,28.04,0.18,-0.21,1.28,1721228097542
5.25,30.47,-6.60,1.00,0.19,1.84,1721228097552
12.98,-8.51,-21.95,1.34,0.01,1.12,1721228097562
16.77,12.61,25.80,-0.25,0.79,-0.84,1721228097572
2.83,23.70,36.38,0.96,-0.86,-1.40,1721228097582
0.19,-7.25,4.36,-0.14,-0.17,-1.40,1721228097592
-14.21,-16.43,12.22,-0.52,-0.27,-0.47,1721228097602
-5.52,-7.24,4.46,0.27,0.15,0.54,1721228097612
3.07,-17.35,-14.61,0.09,0.07,1.07,1721228097622
9.69,9.55,36.49,-0.14,1.05,-0.23,1721228097632
-2.03,23.02,31.06,1.56,-1.27,-0.28,1721228097642
3.25,8.83,-20.56,0.75,0.32,-0.76,1721228097652
-12.25,10.19,50.92,-0.43,0.56,-0.28,1721228097667
-12.02,2.78,34.68,-0.08,-0.28,0.40,1721228097671
1.82,-3.79,-12.34,0.96,-0.37,0.67,1721228097681
6.21,-11.37,-31.11,0.36,0.05,0.11,1721228097691
1.57,11.57,27.24,-0.15,0.38,-0.61,1721228097701
-5.03,37.44,25.07,1.09,-0.50,-0.38,1721228097711
0.23,9.26,-30.75,0.04,-0.25,0.18,1721228097721
2.53,-54.58,27.60,-1.72,0.32,-0.20,1721228097731
6.59,-25.46,78.45,0.81,-0.09,-0.58,1721228097741
-3.05,32.87,-27.77,2.66,-1.27,0.49,1721228097751
8.08,-7.63,-69.49,-1.39,1.18,1.08,1721228097761
-1.20,-12.47,27.77,-1.43,0.65,0.08,1721228097771
1.13,-20.14,26.90,0.34,-0.46,-0.89,1721228097781
-8.14,17.78,29.75,0.85,-0.02,-0.50,1721228097791
-1.49,21.27,-28.13,0.37,-0.34,0.78,1721228097801
6.30,-34.90,-10.37,-1.89,0.98,0.84,1721228097811
-7.90,-5.56,78.45,-1.17,0.54,-1.20,1721228097821
5.53,37.48,22.68,3.31,-2.22,-1.10,1721228097831
20.83,25.71,-65.92,1.42,-1.71,1.03,1721228097841
9.01,23.08,-28.14,-1.11,0.75,1.40,1721228097851
4.46,-72.15,13.24,-1.64,0.17,-0.83,1721228097861
-13.44,5.83,49.97,1.05,-0.25,-1.93,1721228097871
-6.98,7.19,-17.92,1.00,-1.29,0.20,1721228097881
-6.79,13.05,20.11,-1.36,1.47,0.47,1721228097891
-1.81,23.08,32.18,0.02,-0.97,0.36,1721228097901
4.17,-6.54,-22.71,-0.04,-0.34,0.02,1721228097911
6.96,-38.31,-10.01,-1.66,0.81,-1.02,1721228097921
-14.15,14.70,69.25,-0.06,-0.56,-1.41,1721228097931
-15.78,9.36,-6.53,1.76,-1.12,-0.39,1721228097941
-6.24,10.33,-5.65,-0.10,0.52,1.21,1721228097951
6.35,-8.76,18.98,-0.86,0.49,1.07,1721228097961
15.27,14.34,45.36,-0.18,0.28,0.06,1721228097971
9.01,10.01,8.19,0.56,-0.74,-0.47,1721228097981
4.29,10.54,-24.40,0.37,0.64,-1.12,1721228097991
-5.14,-20.37,-24.35,-0.10,-0.53,-0.74,1721228098001
-12.95,-8.68,29.11,-0.81,0.50,-0.77,1721228098011
-2.01,-4.98,48.24,0.64,-1.10,0.10,1721228098021
-6.76,5.26,-13.43,0.10,-0.24,0.48,1721228098031
9.68,8.44,-0.71,-0.87,1.19,0.46,1721228098041
7.78,-3.89,19.87,-0.38,-0.44,0.06,1721228098051
1.85,-18.00,6.99,0.17,-0.38,-0.81,1721228098061
-4.28,8.22,30.80,-0.26,0.16,-1.39,1721228098071
-11.65,8.46,11.15,0.93,-0.86,-0.13,1721228098081
-3.61,2.69,-17.47,0.25,0.81,0.87,1721228098091
9.10,1.12,16.55,-0.61,0.55,0.56,1721228098101
9.94,-2.37,31.05,-0.07,-0.23,-0.41,1721228098111
2.85,-6.63,13.06,-0.16,-0.46,-1.36,1721228098121
-7.47,13.03,12.86,-0.36,0.16,-1.11,1721228098131
-5.66,8.65,7.83,0.09,0.14,0.25,1721228098141
-0.98,-9.02,-13.44,0.38,0.23,0.61,1721228098151
3.18,-24.78,-7.47,-0.24,0.32,0.08,1721228098161
3.12,17.39,40.97,-0.06,0.47,-0.62,1721228098171
2.54,19.15,16.68,1.05,-0.70,-0.41,1721228098181
-5.37,-18.67,-14.58,-0.46,0.26,-0.73,1721228098191
-10.22,-1.09,50.15,-0.60,0.62,-0.44,1721228098201
-8.19,4.06,12.33,0.93,-0.63,0.28,1721228098211
-1.39,-6.17,-23.57,0.74,0.07,0.56,1721228098221
5.44,-4.20,12.06,-0.27,0.65,0.21,1721228098231
-1.74,40.33,39.43,0.39,0.11,-0.05,1721228098241
5.46,26.67,-4.64,0.22,-0.16,-0.67,1721228098251
-2.89,-57.10,-6.59,-1.28,0.10,-1.13,1721228098261
-12.46,-9.67,32.88,-0.21,0.41,-0.23,1721228098271
-3.90,11.25,-20.81,1.28,-0.41,0.76,1721228098281
5.97,-36.47,-24.88,-0.83,0.66,0.63,1721228098291
-12.81,10.61,77.13,-0.05,1.38,0.01,1721228098301
24.80,23.18,31.87,1.65,-1.01,0.01,1721228098311
-0.40,4.24,-15.19,-1.37,0.02,-0.82,1721228098321
-4.06,-24.42,35.57,-1.13,0.23,-0.92,1721228098331
-9.01,-10.86,1.46,0.90,-0.05,0.43,1721228098341
2.86,-9.01,-21.14,0.37,0.50,0.89,1721228098351
2.49,18.03,56.33,-0.40,0.60,0.25,1721228098361
0.05,32.55,31.85,1.02,-0.33,0.06,1721228098371
5.98,-9.65,-11.24,-1.15,0.21,-1.02,1721228098381
-11.00,-18.44,18.82,-0.64,-0.36,-0.86,1721228098391
-10.05,-2.55,-4.26,0.71,-0.23,-0.21,1721228098401
-6.07,1.84,-14.96,0.23,0.08,0.65,1721228098411
2.77,14.86,27.78,0.08,0.40,0.89,1721228098421
11.48,8.08,16.95,0.42,-0.21,1.33,1721228098431
15.58,-42.45,14.44,-1.25,0.20,-0.21,1721228098441
3.71,28.87,40.61,0.77,-0.07,-1.32,1721228098451
-3.15,6.21,-23.69,0.95,-0.65,-1.96,1721228098461
-23.88,-0.71,17.57,-0.25,-0.10,-0.73,1721228098471
-11.85,-5.18,19.16,0.49,-0.45,1.73,1721228098481
2.44,14.05,-0.24,0.13,0.46,1.73,1721228098491
15.56,7.22,-14.28,0.25,-0.14,0.70,1721228098501
8.77,-12.19,10.23,-1.12,0.24,-0.66,1721228098511
-4.14,-7.54,45.39,0.24,0.26,-1.16,1721228098521
-4.32,-7.02,-14.16,0.68,-0.73,-0.63,1721228098531
-14.16,2.36,-5.56,-0.55,0.40,0.03,1721228098541
-1.97,15.28,23.41,0.16,0.51,1.12,1721228098551
7.16,0.53,-9.82,0.34,-0.42,1.20,1721228098561
15.96,-11.65,32.73,-0.99,1.05,-0.22,1721228098571
-9.12,19.46,65.42,0.59,-0.59,-1.31,1721228098581
-11.37,1.15,-23.01,0.79,-0.89,-1.62,1721228098591
-14.20,-17.36,-35.65,-0.93,0.28,0.17,1721228098601
-16.98,-20.56,31.45,-0.62,0.42,1.89,1721228098611
-4.08,-0.94,30.17,0.82,-0.26,1.98,1721228098621
33.30,8.94,-10.64,0.67,0.09,0.51,1721228098631
14.81,2.54,16.00,-1.26,-0.09,-0.95,1721228098641
-1.94,-11.25,33.33,-0.08,-0.69,-1.19,1721228098651
-2.75,2.50,-4.69,0.51,0.08,-1.32,1721228098661
-14.15,-4.93,-36.80,0.60,-0.51,0.08,1721228098671
-7.65,-15.87,-10.91,-0.49,0.92,1.34,1721228098681
4.21,-2.10,47.86,-0.59,0.77,1.48,1721228098691
12.02,-18.90,50.32,-0.01,0.82,0.21,1721228098701
8.04,19.33,33.06,0.72,-0.56,-0.33,1721228098711
0.46,17.44,-2.48,0.48,-0.24,-1.56,1721228098721
-8.68,11.35,-4.69,0.10,-0.53,-0.77,1721228098731
-13.65,-9.60,4.81,-1.22,0.99,-0.03,1721228098741
-12.29,-6.89,24.74,0.12,-0.34,1.14,1721228098751
2.80,-2.23,-25.54,0.85,-0.30,1.41,1721228098761
14.86,-14.32,1.93,-0.96,0.91,0.96,1721228098771
5.59,21.06,52.26,0.40,0.12,0.13,1721228098781
-5.19,8.49,15.67,0.78,-1.14,-1.09,1721228098791
-2.54,14.10,14.58,-0.34,0.01,-1.25,1721228098801
-4.96,-11.76,7.75,-0.30,-0.35,0.04,1721228098811
-0.56,-24.64,-13.88,-0.09,0.13,0.33,1721228098821
-2.21,-15.94,13.97,-0.44,0.34,-0.18,1721228098831
-6.29,7.77,30.20,0.68,-0.50,-0.30,1721228098841
-3.54,17.52,1.13,1.20,-0.26,0.14,1721228098851
2.13,11.32,11.73,-0.06,-0.02,0.43,1721228098861
-0.39,-3.42,19.21,0.16,-0.04,0.56,1721228098871
6.85,-6.76,6.15,-0.14,0.22,-0.01,1721228098881
3.09,-6.00,-10.72,0.46,-0.54,-0.12,1721228098891
3.98,6.00,6.70,-0.05,0.37,-0.37,1721228098901
-2.35,19.60,19.71,0.33,-0.44,-0.07,1721228098911
1.86,-13.05,-11.50,-0.30,-0.02,-0.16,1721228098921
-2.16,-20.87,-0.66,-1.12,0.19,-0.22,1721228098931
-5.17,13.47,53.74,-0.41,0.52,-0.33,1721228098941
-3.63,3.39,-0.10,0.88,-0.78,0.11,1721228098951
-1.78,-21.80,-21.20,-0.51,0.44,0.47,1721228098961
0.61,-19.11,35.43,-0.53,0.13,0.38,1721228098971
-3.55,19.64,23.96,1.29,-0.80,0.15,1721228098981
9.62,-0.97,-20.39,-0.24,0.14,0.21,1721228098991
7.27,5.55,34.05,-1.24,0.38,-0.01,1721228099001
9.72,2.49,24.44,0.79,-0.11,-0.07,1721228099011
-2.68,-16.19,-7.18,-0.89,-0.13,-0.68,1721228099021
-10.70,-10.92,48.27,-0.96,0.06,-0.66,1721228099031
-8.08,13.95,15.16,1.66,-0.71,0.64,1721228099041
13.95,-3.13,-43.24,0.57,0.03,1.07,1721228099051
9.05,-4.07,19.70,-1.12,1.10,-0.17,1721228099061
-2.31,64.13,63.57,0.94,0.08,-0.92,1721228099071
-12.29,25.06,-3.28,0.93,-0.31,-0.88,1721228099081
-6.78,-75.77,-36.43,-0.56,-0.78,0.40,1721228099091
-6.16,2.57,6.93,-1.60,1.72,0.75,1721228099101
11.16,-14.05,57.48,-0.34,-0.07,0.33,1721228099111
6.71,66.61,23.53,0.49,-0.44,-1.79,1721228099121
-2.18,-8.62,-29.23,1.22,-1.73,0.49,1721228099131
3.71,20.34,2.23,-1.30,1.81,0.49,1721228099141
4.30,9.65,32.78,0.89,-0.86,0.62,1721228099151
0.98,-22.58,3.27,0.53,2.12,-0.57,1721228099161
-1.81,16.59,14.62,0.96,-1.06,-0.72,1721228099171
-4.44,14.67,-11.86,0.36,0.26,-0.33,1721228099181
-3.28,14.19,2.64,-0.59,0.18,0.21,1721228099191
-2.53,-54.21,0.69,-1.40,-0.04,-0.35,1721228099201
-10.93,-10.82,42.87,-0.22,0.85,-0.61,1721228099211
-1.17,24.08,-14.51,1.85,-0.73,0.09,1721228099221
1.68,-7.98,-42.45,-0.50,0.31,0.06,1721228099231
6.02,10.35,66.90,-1.24,1.10,-0.47,1721228099241
-4.67,43.46,65.68,1.56,-0.85,0.23,1721228099251
1.13,42.17,-53.58,1.19,-0.46,0.93,1721228099261
-7.45,-78.45,-68.84,-1.99,0.01,-0.02,1721228099271
7.12,25.19,20.42,-0.99,1.11,-0.69,1721228099281
23.93,-23.52,21.54,-1.31,-0.48,-1.26,1721228099291
-16.17,12.27,78.45,1.25,0.73,-1.43,1721228099301
-24.01,11.64,-3.43,1.95,-1.68,-0.54,1721228099311
-7.42,52.69,30.12,-0.28,0.20,2.16,1721228099321
22.64,0.80,3.65,-1.93,0.17,1.94,1721228099331
22.63,-75.67,70.97,-1.78,-0.10,-0.52,1721228099341
3.89,11.25,11.06,1.73,-0.07,-1.77,1721228099351
33.01,22.99,-75.51,-0.64,-0.44,-2.18,1721228099361
-13.49,-35.72,0.64,-0.98,0.18,-0.78,1721228099371
-16.43,3.68,59.53,0.21,0.86,0.76,1721228099381
0.44,22.31,21.86,1.74,-0.32,1.69,1721228099391
14.14,32.43,-14.17,0.33,0.83,1.09,1721228099401
6.58,-0.11,37.17,-2.04,0.64,-0.30,1721228099411
10.45,-17.98,56.39,0.38,0.32,-0.71,1721228099421
-5.02,27.19,-26.31,1.44,-1.07,-0.28,1721228099431
1.12,13.80,-42.68,1.21,0.90,-0.25,1721228099441
4.70,-26.52,4.66,-0.81,0.08,-0.37,1721228099451
1.05,-17.05,69.07,-0.86,0.16,-0.12,1721228099461
7.42,29.91,61.76,1.00,0.42,-0.22,1721228099471
-11.40,-3.41,-29.36,0.25,-0.40,-1.03,1721228099481
-12.47,20.49,17.11,-0.68,1.37,-0.68,1721228099491
0.69,27.60,-3.59,1.89,-0.30,0.49,1721228099501
-3.71,-14.50,-43.55,-0.03,0.48,0.07,1721228099511
2.85,-56.07,27.50,-1.70,0.86,-0.17,1721228099521
-12.69,39.04,39.43,0.27,-0.55,-0.76,1721228099531
-7.42,39.87,-11.08,1.27,-0.57,-0.68,1721228099541
-1.67,-28.55,-19.70,-0.72,0.27,0.31,1721228099551
2.70,-3.70,17.32,0.30,0.45,0.98,1721228099561
11.63,15.16,-5.17,0.83,-0.34,-0.36,1721228099571
3.36,15.42,-17.09,0.82,-0.16,-1.19,1721228099581
-5.30,-16.75,-22.70,0.04,0.15,-1.28,1721228099591
-12.43,4.86,43.30,-0.93,0.78,-0.28,1721228099601
-17.64,21.76,35.86,0.59,0.48,0.27,1721228099611
-3.58,-41.33,-0.66,-0.90,-0.06,0.55,1721228099621
4.10,-18.06,31.51,-0.15,0.36,1.85,1721228099631
21.27,27.73,-12.64,1.26,0.33,1.28,1721228099641
16.52,-10.98,-35.32,-0.38,-0.02,-0.72,1721228099651
5.26,-14.21,51.14,-1.22,0.34,-2.09,1721228099661
-14.57,25.41,18.68,1.71,-0.74,-0.37,1721228099676
-7.45,30.41,-10.51,1.66,-0.83,0.34,1721228099680
-3.34,7.35,-25.74,-1.64,0.98,0.10,1721228099690
-6.53,1.68,42.90,-1.19,0.06,-0.04,1721228099700
2.86,-28.96,-13.29,-0.03,-0.01,0.15,1721228099710
-10.15,-9.14,-6.70,-0.68,-0.08,0.27,1721228099720
-6.12,12.47,39.00,-0.55,0.77,0.56,1721228099730
11.34,-5.43,19.35,0.63,-0.61,1.58,1721228099740
14.55,36.17,6.85,0.67,1.26,0.81,1721228099750
8.57,0.34,6.42,-0.46,-0.75,-0.55,1721228099760
-0.80,-8.66,25.12,-0.40,0.02,-1.83,1721228099770
-6.99,17.49,7.95,1.10,-0.72,-0.57,1721228099780
-9.49,3.35,-10.07,0.17,0.73,0.56,1721228099790
-4.39,2.49,16.53,0.32,0.24,0.76,1721228099800
-0.49,-5.66,7.52,-0.11,0.02,0.07,1721228099810
-5.43,18.47,7.40,0.34,-0.18,-0.04,1721228099820
-1.02,-17.70,3.82,-0.83,0.16,0.20,1721228099830
-7.56,-31.74,21.90,-0.10,-0.35,0.70,1721228099840
5.11,15.55,11.87,1.14,0.37,0.71,1721228099850
8.78,6.17,-29.46,0.58,-0.58,0.71,1721228099860
-1.08,-4.50,29.00,-1.26,1.19,-0.56,1721228099870
5.15,5.64,50.89,-0.16,-0.23,-0.63,1721228099880
-5.66,-10.42,-13.20,0.55,-0.84,-0.68,1721228099890
-9.82,-0.42,-8.41,-0.50,0.66,0.06,1721228099900
-9.00,-14.03,27.41,-0.46,-0.11,0.77,1721228099910
-2.31,44.98,26.71,0.91,0.11,0.60,1721228099920
4.00,5.29,5.59,-0.40,-0.39,0.48,1721228099930
0.26,-6.96,26.17,-0.99,0.13,0.24,1721228099940
5.30,-23.97,-2.23,-0.47,-0.39,-0.01,1721228099950
-0.60,1.82,-23.43,0.58,0.16,0.31,1721228099960
5.65,-10.48,-28.79,1.16,-0.16,0.49,1721228099970
-5.22,-35.13,5.74,-0.76,0.56,-0.74,1721228099980
-8.21,31.45,78.45,-0.06,-1.26,-0.25,1721228099990
-2.09,27.71,43.22,0.63,-1.27,1.19,1721228100000
3.27,-5.53,6.26,-0.92,0.79,0.28,1721228100010
-0.06,49.17,5.24,0.44,0.02,-0.45,1721228100020
1.29,-42.49,-39.27,1.78,-1.13,-0.57,1721228100030
-2.11,-0.78,-41.76,0.27,1.29,-0.54,1721228100040
-3.56,-10.94,35.50,-0.38,0.07,-0.45,1721228100050
-13.30,8.50,78.45,-0.27,-0.81,0.80,1721228100060
13.84,30.22,24.90,1.10,1.09,0.98,1721228100070
7.53,4.78,-42.86,0.30,-1.35,0.53,1721228100080
10.20,-14.50,-0.22,-1.40,2.01,-0.93,1721228100090
-7.95,-21.62,36.31,1.00,-1.18,-1.53,1721228100100
-4.20,-10.51,-3.24,1.50,0.19,-0.44,1721228100110
-7.75,1.07,-18.86,-0.24,-0.39,1.37,1721228100120
2.28,14.76,54.45,-0.65,0.51,1.65,1721228100130
21.14,23.61,19.23,0.92,0.17,0.58,1721228100140
15.06,-5.20,-29.36,0.23,-0.24,-0.92,1721228100150
3.50,14.89,-23.43,-0.48,-0.08,-1.08,1721228100160
-7.53,-17.84,-9.14,-0.93,-0.47,-0.91,1721228100170
-5.61,-13.48,48.74,-0.30,0.03,-0.35,1721228100180
0.07,4.17,23.70,1.27,-0.58,1.45,1721228100190
6.49,21.93,24.20,-0.08,2.93,0.99,1721228100200
0.48,4.68,19.95,0.83,-1.40,-0.71,1721228100210
-2.32,4.24,-19.18,0.68,0.13,-1.52,1721228100220
-10.18,10.93,-14.26,-0.15,-0.39,0.49,1721228100230
-2.66,-4.97,-19.52,-0.47,0.40,1.26,1721228100240
7.94,-41.59,30.19,-1.60,0.16,0.96,1721228100250
-2.55,16.32,67.04,0.44,0.86,-0.11,1721228100260
12.60,-9.20,-1.43,0.20,-0.88,0.15,1721228100270
-0.62,-5.11,18.58,-0.25,0.32,-0.64,1721228100280
0.31,0.78,-21.05,1.09,-1.07,-0.65,1721228100290
-0.03,17.06,-5.77,-0.27,1.10,-0.40,1721228100300
-11.30,22.10,33.03,0.35,-0.43,0.28,1721228100310
-8.90,-19.17,36.78,-0.86,0.47,0.69,1721228100320
9.15,-9.09,5.75,0.50,-0.09,1.54,1721228100330
16.19,7.45,-13.99,-0.44,0.90,-0.10,1721228100340
7.19,6.05,34.04,-0.21,-0.31,-1.34,1721228100350
-9.05,0.88,0.27,1.30,-0.78,-1.35,1721228100360
-12.31,25.71,-21.62,1.19,0.26,-0.04,1721228100370
-2.91,-1.32,-15.09,-0.60,0.06,1.30,1721228100380
5.35,-12.51,35.40,-1.34,0.68,0.93,1721228100390
22.24,21.16,43.23,0.13,0.30,-0.27,1721228100400
4.08,-10.02,-5.57,0.36,-1.07,-0.81,1721228100410
-6.96,31.90,21.33,-0.99,1.26,-0.66,1721228100420
-2.48,-4.63,4.19,0.40,-0.40,0.57,1721228100430
7.78,3.68,-18.79,0.01,0.62,0.13,1721228100440
0.42,0.65,-1.32,-0.79,-0.08,-0.92,1721228100450
-11.15,-15.01,49.54,-1.12,0.32,-1.71,1721228100460
-17.51,18.45,22.14,1.44,-1.08,-0.34,1721228100470
-5.77,-8.59,-22.61,-0.93,0.58,0.79,1721228100480
-2.19,2.91,39.57,-1.04,0.12,1.23,1721228100490
10.73,0.34,-12.66,1.01,-0.04,0.80,1721228100500
19.00,-14.44,-47.04,0.40,0.16,-0.58,1721228100510
9.99,-28.77,16.50,-1.23,0.53,-1.53,1721228100520
-24.32,47.51,78.45,0.45,-0.03,-1.98,1721228100530
-27.16,38.78,27.46,1.13,-1.10,-1.26,1721228100540
-13.63,-50.41,-10.68,-2.09,-0.23,1.24,1721228100550
3.21,-15.88,15.96,-1.40,1.52,2.56,1721228100560
14.75,5.13,-3.66,1.74,-0.21,1.68,1721228100570
21.92,-19.68,-52.03,0.01,0.02,-0.91,1721228100580
6.76,8.95,46.29,-1.64,0.53,-2.93,1721228100590
-22.13,49.05,57.50,0.64,-1.58,-2.82,1721228100600
-24.42,41.47,-2.26,-0.04,0.64,-0.56,1721228100610
-16.68,-19.65,3.41,-0.98,-0.13,2.02,1721228100620
4.82,-28.95,5.66,-0.66,0.73,2.21,1721228100630
16.80,6.99,15.79,0.16,0.55,0.81,1721228100640
13.60,-1.47,-0.93,0.90,-0.82,-0.65,1721228100650
8.20,4.58,16.27,-0.13,0.35,-2.14,1721228100660
-3.91,51.80,37.99,0.36,-0.92,-2.30,1721228100670
-18.69,-2.05,10.50,0.34,-0.01,-1.14,1721228100680
-19.00,-44.47,-10.26,-0.51,-0.05,0.56,1721228100690
-6.80,2.00,20.07,0.25,0.60,1.73,1721228100700
9.96,19.29,15.56,0.97,0.02,1.75,1721228100710
15.33,-0.61,-14.27,0.76,-0.10,0.34,1721228100720
14.94,-15.11,-3.46,-0.12,0.38,-0.84,1721228100730
2.76,19.38,37.28,0.22,0.22,-1.67,1721228100740
-11.60,-4.79,15.39,0.42,-0.30,-1.51,1721228100750
-19.86,2.14,32.18,-0.34,0.32,-0.53,1721228100760
-12.53,-25.61,12.65,0.19,-0.50,1.55,1721228100770
5.84,0.52,-10.01,0.47,0.79,1.77,1721228100780
13.16,0.39,-30.62,0.37,-0.40,0.52,1721228100790
11.75,-20.58,-12.80,-0.39,0.34,-0.73,1721228100800
3.19,-1.24,46.44,0.32,-0.07,-1.11,1721228100810
-11.48,36.31,47.21,1.04,-0.17,-0.73,1721228100820
-7.75,27.49,24.60,-0.31,0.24,0.20,1721228100830
-6.01,-7.93,17.32,-0.83,-0.17,0.89,1721228100840
8.20,-37.74,-27.70,0.12,0.01,0.99,1721228100850
16.84,15.57,-19.10,-0.06,0.99,-0.21,1721228100860
8.52,-10.82,27.55,-0.83,0.03,-1.22,1721228100870
-3.36,7.55,45.28,1.03,-0.90,-1.23,1721228100880
-8.40,2.71,-14.59,0.06,-0.22,0.25,1721228100890
-12.08,13.01,28.55,-1.61,1.01,0.52,1721228100900
7.73,0.51,8.35,0.01,-0.85,0.91,1721228100910
3.71,-39.04,-16.07,-1.04,0.28,-0.01,1721228100920
-0.80,15.56,44.21,-0.35,1.02,-0.71,1721228100930
-6.37,18.06,5.90,2.02,-1.33,0.16,1721228100940
-0.04,-9.93,-20.11,0.09,0.53,0.34,1721228100950
3.00,49.14,45.04,0.21,0.36,0.77,1721228100960
11.23,21.07,15.53,0.43,0.11,0.33,1721228100970
2.75,-72.97,-16.81,-1.58,-0.60,-0.99,1721228100980
-9.26,33.66,44.69,-0.33,0.60,-1.24,1721228100990
-9.18,20.58,-7.91,1.30,-1.37,0.37,1721228101000
-3.62,0.62,-25.37,0.20,0.88,1.16,1721228101010
12.79,-7.15,-8.95,0.47,0.19,1.11,1721228101020
17.24,6.10,-32.35,0.27,0.06,0.00,1721228101030
7.79,-41.83,-3.34,-1.80,0.11,-0.94,1721228101040
-13.22,-11.77,78.45,-0.41,-0.07,-1.67,1721228101050
52.27,11.26,17.54,2.88,-1.66,-0.41,1721228101060
-16.41,7.90,-78.45,0.12,-0.24,0.44,1721228101070
3.05,-24.03,-51.05,-3.86,1.00,1.20,1721228101080
-9.49,-31.63,40.73,-1.12,1.48,1.34,1721228101090
16.95,-14.25,-19.88,1.68,-0.85,-0.02,1721228101100
0.08,-21.91,-3.16,-0.84,0.01,-0.52,1721228101110
-5.66,22.92,78.45,-0.92,0.64,0.06,1721228101120
3.56,6.44,75.92,1.01,-1.63,0.17,1721228101130
12.95,78.45,-31.97,1.17,-0.31,0.92,1721228101140
2.68,-18.22,-64.18,0.20,-0.11,0.94,1721228101150
16.45,-54.68,-42.08,-2.04,0.52,-0.29,1721228101160
0.09,-39.16,5.64,-0.37,0.42,-2.02,1721228101170
-7.80,-9.02,75.48,-0.56,-0.40,-1.47,1721228101180
2.30,28.20,78.45,0.28,-0.38,-0.56,1721228101190
-9.69,-11.87,-0.26,2.01,-1.54,1.30,1721228101200
13.96,15.74,-45.09,-0.64,0.84,2.78,1721228101210
14.88,27.34,24.25,0.85,1.86,1.36,1721228101220
1.25,-30.78,-21.15,1.13,-2.65,-0.23,1721228101230
18.16,-10.20,63.37,-0.54,3.53,-1.29,1721228101240
-3.55,12.82,7.84,0.60,-3.59,-0.41,1721228101250
1.21,-22.14,-32.02,-0.13,1.49,-1.67,1721228101260
-11.95,10.29,45.95,-1.08,-0.07,-0.96,1721228101270
-37.12,78.44,78.45,0.85,1.33,0.24,1721228101280
-21.40,-59.92,-25.25,0.19,-1.87,1.81,1721228101290
-9.34,0.43,21.72,-0.62,3.56,0.11,1721228101300
-4.62,8.28,15.75,2.05,-0.34,0.83,1721228101310
1.97,-46.17,-37.45,1.27,-0.84,-0.69,1721228101320
5.86,26.24,1.05,0.23,1.40,-1.01,1721228101330
2.56,-11.24,18.02,0.07,-0.49,-0.90,1721228101340
-16.46,4.95,60.10,-0.51,-0.51,-1.07,1721228101350
-8.33,43.36,17.41,1.54,-0.26,0.35,1721228101360
9.42,-40.94,-52.82,-1.18,-0.51,1.60,1721228101370
3.96,-27.04,49.10,-1.67,0.57,0.24,1721228101380
-8.30,46.59,51.31,3.01,-0.95,0.19,1721228101390
17.01,21.27,-51.00,1.37,-0.94,-0.18,1721228101400
-2.35,-60.65,-2.12,-1.57,0.93,-0.06,1721228101410
-8.89,-7.31,78.45,0.45,-0.78,-1.90,1721228101420
-7.24,1.18,-1.57,1.49,-2.01,-0.35,1721228101430
-21.67,-41.40,-4.93,-1.99,0.70,0.81,1721228101440
-25.37,28.58,55.39,0.78,-0.89,2.31,1721228101450
15.46,18.76,-17.64,1.94,0.35,2.25,1721228101460
21.63,4.15,-41.98,-0.66,1.07,0.72,1721228101470
14.03,-13.48,15.16,-0.52,0.54,-2.00,1721228101480
0.49,-42.60,43.23,-1.47,-1.07,-3.19,1721228101490
-34.70,41.72,69.26,1.11,-2.84,-1.60,1721228101500
-16.46,-30.91,3.05,2.60,0.13,1.12,1721228101510
5.80,15.56,-42.40,-0.11,0.88,2.51,1721228101520
15.89,35.98,5.62,0.64,0.79,1.61,1721228101530
21.82,26.52,-18.23,0.50,-0.23,-0.26,1721228101540
-1.10,-77.56,26.50,-2.11,-0.57,-2.80,1721228101550
-19.73,23.17,65.66,2.37,0.39,-2.05,1721228101560
-16.52,9.19,-64.76,1.14,-0.49,0.44,1721228101570
-4.73,-19.02,-26.09,-1.40,1.25,0.03,1721228101580
-0.87,-36.56,51.09,-1.06,-0.13,0.35,1721228101590
4.97,29.70,62.53,1.68,-0.13,0.70,1721228101600
9.33,27.58,-13.83,1.51,-0.46,1.20,1721228101610
-11.82,8.90,20.65,-1.89,1.62,-0.61,1721228101620
-5.54,-22.90,50.47,-0.01,0.22,-1.51,1721228101630
2.62,-43.94,-25.93,1.16,0.27,-0.11,1721228101640
-8.60,-16.56,-41.60,-0.15,0.47,-0.33,1721228101650
-0.55,-13.32,28.52,-1.06,1.03,-1.17,1721228101660
-3.65,48.07,35.51,1.27,-0.63,-0.46,1721228101670
-0.02,-38.08,-18.36,-2.07,0.66,0.88,1721228101685
1.52,-12.24,27.54,-1.75,1.67,0.57,1721228101689
11.98,-9.97,67.03,0.79,0.70,1.38,1721228101699
31.95,-40.07,-60.34,-0.93,-1.45,-0.03,1721228101709
5.24,-6.96,12.85,-1.17,0.92,-1.94,1721228101719
-8.60,15.62,12.25,0.72,-0.73,-1.37,1721228101729
-8.97,4.04,-27.75,0.38,0.61,-0.02,1721228101739
-5.97,14.37,14.78,-0.00,0.44,0.60,1721228101749
1.24,-11.59,18.32,-0.53,-0.02,0.73,1721228101759
-0.45,-22.10,22.59,-0.48,0.23,-0.07,1721228101769
1.24,5.47,16.78,-0.22,-0.27,-0.34,1721228101779
-2.62,-4.15,25.91,-0.90,0.03,-0.20,1721228101789
2.94,9.28,-2.19,0.56,-0.47,0.45,1721228101799
6.06,-10.78,-27.02,-0.04,0.23,0.33,1721228101809
4.32,14.02,6.81,0.24,0.76,-0.22,1721228101819
2.41,3.84,8.48,-0.78,0.40,-0.49,1721228101829
-11.59,-11.22,75.60,-1.48,0.27,-1.08,1721228101839
-28.61,11.64,60.85,0.70,0.31,-0.93,1721228101849
-3.00,-15.46,-31.50,-0.71,-0.17,1.11,1721228101859
0.10,12.13,28.78,-0.51,1.33,1.29,1721228101869
5.00,-12.95,-10.16,1.15,-1.13,-0.07,1721228101879
7.29,32.40,10.72,0.32,0.99,-1.22,1721228101889
-6.75,-17.69,23.82,-0.44,-1.28,-0.74,1721228101899
-10.72,-8.76,-1.57,0.21,0.66,0.27,1721228101909
1.65,-9.91,8.50,-0.57,0.25,1.56,1721228101919
5.08,45.56,42.74,0.21,0.71,0.50,1721228101929
6.45,10.56,2.31,1.65,-1.14,-0.03,1721228101939
10.37,-17.58,-36.06,0.10,0.44,-0.47,1721228101949
-1.39,8.09,-2.55,0.02,0.18,-0.88,1721228101959
3.65,-33.71,22.37,-1.28,0.83,-0.75,1721228101969
-8.58,18.24,41.62,0.61,-0.06,-1.19,1721228101979
-11.02,16.97,-35.61,2.05,-0.86,0.20,1721228101989
-10.47,-37.41,-21.42,-2.21,1.34,1.58,1721228101999
15.36,33.21,78.45,-0.37,1.43,1.59,1721228102009
22.16,1.52,-16.88,1.61,-1.73,0.36,1721228102019
9.50,-32.79,-58.25,-0.52,0.46,-1.20,1721228102029
-18.61,-5.09,38.52,-0.96,0.46,-1.50,1721228102039
-18.40,27.33,22.36,1.51,-0.96,-0.80,1721228102049
-9.38,23.79,-21.48,0.23,0.74,0.01,1721228102059
-6.71,-14.54,31.15,-1.30,1.05,0.57,1721228102069
-2.26,-14.79,27.16,-0.21,-0.30,1.13,1721228102079
10.99,59.57,4.98,0.66,0.90,0.70,1721228102089
9.11,-0.68,-35.72,0.12,-0.86,-0.45,1721228102099
-1.67,-39.23,-24.06,-0.29,0.47,-1.22,1721228102109
-8.75,-41.12,65.97,-1.47,-0.44,-0.90,1721228102119
-19.57,51.83,45.78,1.69,2.02,0.88,1721228102129
-0.84,-15.98,-37.97,0.93,-0.90,1.18,1721228102139
10.36,8.06,-4.54,-2.52,2.36,-0.25,1721228102149
-6.97,0.50,25.26,-0.01,-0.82,-1.39,1721228102159
-7.98,25.68,-2.86,0.97,0.31,-0.26,1721228102169
-10.54,-23.25,-1.63,-0.56,0.07,1.66,1721228102179
3.16,-28.42,58.67,-0.96,1.01,1.55,1721228102189
11.36,69.90,18.83,1.66,-0.10,1.17,1721228102199
15.62,12.98,-32.31,1.07,-0.39,0.27,1721228102209
10.47,36.35,10.03,0.15,0.94,-1.06,1721228102219
-4.99,-70.15,-17.88,-1.74,-1.43,-1.58,1721228102229
-17.84,-78.17,52.58,-2.79,1.43,-1.53,1721228102239
-14.94,78.45,52.35,1.54,-1.59,1.14,1721228102249
-9.90,-60.83,-66.46,0.88,0.40,1.11,1721228102259
-6.68,13.39,-3.17,-2.12,1.22,1.02,1721228102269
18.53,16.98,44.09,1.99,-0.18,0.40,1721228102279
10.85,-17.99,-18.46,0.85,-0.27,-0.51,1721228102289
-2.43,30.36,65.00,-0.97,0.07,-0.55,1721228102299
-8.69,17.08,40.55,0.98,-0.57,0.43,1721228102309
2.06,-71.95,-14.90,-2.21,0.48,-0.42,1721228102319
-2.74,-10.96,43.59,-0.80,0.19,-1.23,1721228102329
-13.70,30.39,-3.17,1.72,-1.82,-0.13,1721228102339
6.92,-32.52,-44.00,0.89,0.82,0.58,1721228102349
-3.10,-14.98,5.66,-1.74,0.07,0.52,1721228102359
-2.13,69.53,75.01,0.47,0.62,0.23,1721228102369
-9.75,33.78,-14.64,0.68,-1.92,0.11,1721228102379
-4.32,4.47,4.13,-0.95,0.29,-0.68,1721228102389
-0.72,-41.35,26.11,-1.26,-0.07,-0.53,1721228102399
1.41,-11.94,9.74,0.46,-0.55,0.11,1721228102409
-0.16,5.15,-28.44,1.21,0.00,0.22,1721228102419
-1.98,-17.70,-16.63,-0.38,0.82,-0.39,1721228102429
-3.95,12.90,48.69,0.01,-0.24,-0.49,1721228102439
4.30,5.44,63.90,0.22,1.06,-0.16,1721228102449
-5.87,11.19,22.10,0.26,-1.13,0.02,1721228102459
-0.92,1.61,-7.25,-0.32,0.47,-0.04,1721228102469
-3.44,1.61,-3.05,1.05,-0.38,0.95,1721228102479
8.71,-19.17,-28.02,0.97,0.15,0.36,1721228102489
-1.59,15.44,-12.64,0.81,0.26,-0.78,1721228102499
1.14,-9.67,-3.91,-0.35,-0.43,-0.58,1721228102509
-6.56,-8.16,58.38,-1.04,0.46,-0.44,1721228102519
-8.81,15.43,18.27,1.54,-0.91,0.10,1721228102529
-0.13,-26.49,-16.49,-0.39,0.42,-0.10,1721228102539
-3.15,14.08,46.92,0.25,-0.26,0.28,1721228102549
1.50,47.12,5.01,1.84,-0.51,0.65,1721228102559
9.06,10.14,-46.47,-0.62,0.41,0.42,1721228102569
-8.77,-49.20,-6.81,-2.70,0.59,-0.35,1721228102579
4.64,-2.77,78.45,-0.72,0.94,-0.61,1721228102589
-35.19,6.39,-30.78,1.68,-2.99,-0.14,1721228102599
1.63,-6.64,-43.14,-0.66,-0.14,-0.15,1721228102609
-5.77,-1.31,33.39,-1.35,1.19,0.27,1721228102619
-5.58,29.42,65.87,0.71,-0.43,-0.04,1721228102629
-6.90,-22.03,-3.84,0.95,-0.91,0.71,1721228102639
7.09,-7.05,-4.69,-0.42,0.08,0.48,1721228102649
7.47,34.48,8.35,1.15,-0.00,0.05,1721228102659
7.75,1.48,-4.94,-0.33,0.16,-0.77,1721228102669
-13.84,4.34,32.89,0.03,-0.58,-0.20,1721228102679
4.56,-12.62,-10.75,0.57,-0.32,-0.02,1721228102689
-1.01,-7.12,-8.06,-1.05,0.38,0.12,1721228102699
-5.15,15.90,47.52,-0.15,0.44,-0.71,1721228102709
-6.53,7.65,-3.58,0.95,-1.01,0.15,1721228102719
5.47,-4.19,-15.49,0.03,1.33,0.79,1721228102729
7.20,-17.60,9.25,-0.60,-0.11,-0.09,1721228102739
-2.60,15.29,29.10,0.03,-0.41,-1.00,1721228102749
-5.60,32.93,-9.11,0.82,-0.56,0.02,1721228102759
1.80,-36.14,-30.75,-0.92,0.59,0.57,1721228102769
-2.39,-28.79,17.16,-0.63,0.29,0.11,1721228102779
-6.40,-5.00,25.57,0.14,-0.44,-0.30,1721228102789
-10.05,-8.18,61.79,-0.59,-0.29,-1.07,1721228102799
-6.39,67.59,33.83,2.08,-1.11,0.35,1721228102809
2.57,-26.82,-57.13,-0.89,0.21,1.22,1721228102819
-3.77,-34.49,40.35,-1.94,0.95,-0.03,1721228102829
2.07,46.87,32.83,1.77,-0.83,-0.05,1721228102839
2.44,-9.83,-41.17,-0.16,-0.31,-1.39,1721228102849
-9.84,-13.88,37.45,-1.04,-0.52,-2.20,1721228102859
-24.38,19.45,6.91,1.35,-0.54,-0.73,1721228102869
-15.85,8.09,-32.85,0.10,-0.03,1.27,1721228102879
4.63,-22.58,12.90,-1.25,0.92,1.52,1721228102889
12.78,12.00,74.95,-0.12,0.77,0.28,1721228102899
34.51,26.34,8.72,1.47,-1.20,-0.48,1721228102909
3.08,-11.18,-31.27,-0.83,-0.31,-0.99,1721228102919
-6.86,-27.03,17.82,-1.49,-0.38,-1.10,1721228102929
-6.56,2.32,55.05,-0.48,-0.63,-0.03,1721228102939
-5.13,53.61,18.30,0.98,-0.09,-0.11,1721228102949
0.02,38.49,-17.09,0.68,-0.07,-0.41,1721228102959
-8.33,-37.33,-18.07,-0.54,0.23,0.42,1721228102969
7.65,-38.77,-4.82,-0.49,0.85,1.08,1721228102979
6.94,15.44,35.82,0.29,0.58,-0.00,1721228102989
3.66,-3.47,6.66,1.19,-1.06,-0.76,1721228102999
-5.61,22.46,1.16,0.50,0.51,-0.62,1721228103009
-2.11,-2.10,24.06,-0.33,0.13,0.12,1721228103019
-2.26,-4.75,12.40,0.28,0.10,0.49,1721228103029
7.05,5.37,-16.20,0.76,0.11,0.05,1721228103039
-2.36,-23.03,-19.61,-0.31,0.14,-1.02,1721228103049
-8.03,-3.33,55.66,-0.55,0.26,-0.76,1721228103059
-2.97,22.02,66.68,0.12,-0.33,0.50,1721228103069
-6.04,3.37,-3.93,0.07,0.42,0.49,1721228103079
6.98,7.21,-15.63,-0.93,0.47,-0.42,1721228103089
-4.92,3.72,-4.31,1.01,-0.55,0.31,1721228103099
9.69,-16.00,-0.22,0.16,0.56,0.22,1721228103109
3.21,11.19,18.09,0.31,0.00,-0.45,1721228103119
2.49,-1.46,-5.89,0.25,-0.33,-0.44,1721228103129
-4.86,0.16,23.69,-1.21,0.51,-0.04,1721228103139
-3.84,32.35,53.05,-0.02,-0.64,0.37,1721228103149
-1.11,12.49,-12.37,0.81,-0.39,-0.00,1721228103159
6.15,-48.82,-37.06,-0.96,-0.16,-0.18,1721228103169
-2.32,-2.41,42.69,-1.17,0.94,-0.19,1721228103179
-0.86,0.27,48.55,0.95,0.40,-0.05,1721228103189
-7.00,16.68,2.03,-0.23,-0.11,-0.44,1721228103199
-7.12,-1.41,16.68,0.23,-0.49,0.99,1721228103209
8.56,-1.19,3.88,0.57,0.74,1.24,1721228103219
9.41,-1.71,3.34,-0.14,0.05,0.17,1721228103229
5.67,25.03,27.45,0.39,0.29,-1.20,1721228103239
-5.40,-9.35,-5.04,0.54,-0.84,-1.28,1721228103249
-15.81,-11.54,-16.77,0.09,0.45,-0.13,1721228103259
-8.05,-0.36,4.10,-0.32,0.25,1.27,1721228103269
1.77,8.04,27.50,-0.33,0.34,1.41,1721228103279
10.73,-10.19,10.18,0.16,-0.17,0.49,1721228103289
11.82,-18.46,9.55,-0.23,0.47,-0.71,1721228103299
0.05,7.27,33.86,0.37,-0.01,-1.42,1721228103309
-10.10,7.86,-1.37,0.98,-0.34,-0.75,1721228103319
-10.38,19.54,-10.24,0.51,0.36,0.45,1721228103329
-6.56,21.52,-17.72,0.11,-0.37,1.41,1721228103339
5.96,-77.58,13.81,-2.64,0.56,0.64,1721228103349
3.99,19.25,78.45,0.28,0.32,0.14,1721228103359
7.19,15.56,-11.61,1.43,-1.26,-0.61,1721228103369
-3.89,-12.44,-7.00,-1.29,1.02,-1.29,1721228103379
-13.44,18.23,38.85,0.34,-0.22,-0.01,1721228103389
-7.31,5.44,2.23,0.30,-0.21,0.99,1721228103399
3.14,-6.06,3.87,-0.36,0.32,0.80,1721228103409
8.89,12.77,13.78,0.02,0.28,0.13,1721228103419
2.17,-4.33,-3.66,0.19,-0.58,-0.53,1721228103429
-2.02,-3.39,-2.18,-0.04,0.55,-0.68,1721228103439
-7.12,-13.55,14.62,-0.42,-0.19,0.02,1721228103449
-5.73,5.57,30.39,0.37,0.13,0.82,1721228103459
5.83,32.71,19.05,0.51,0.22,0.82,1721228103469
7.40,17.35,11.92,-0.38,0.01,0.33,1721228103479
5.12,-29.29,13.07,-0.62,0.02,-0.67,1721228103489
-6.12,-6.68,-5.73,0.33,-0.39,-0.83,1721228103499
-9.15,2.22,1.87,-0.32,0.41,-0.17,1721228103509
-11.56,-1.66,26.81,0.27,-0.30,1.22,1721228103519
2.21,13.28,-8.88,1.17,-0.01,1.28,1721228103529
17.25,-9.35,-22.94,-0.04,0.19,0.87,1721228103539
9.99,-4.66,38.26,-1.35,0.83,-0.54,1721228103549
-1.61,5.81,49.50,0.57,-0.07,-1.17,1721228103559
-5.83,-27.06,-30.91,1.08,-1.21,-1.31,1721228103569
-13.53,4.61,-8.77,-1.01,0.80,-0.15,1721228103579
-9.90,-7.64,41.31,-0.08,-0.27,1.71,1721228103589
17.88,24.39,60.34,0.27,0.77,1.18,1721228103599
2.08,40.82,2.62,1.21,-1.13,0.44,1721228103609
14.01,-23.85,-36.04,-1.26,0.51,-0.78,1721228103619
-8.56,-38.96,3.91,-1.70,0.89,-1.00,1721228103629
-13.10,-11.41,54.93,-0.08,-0.46,-0.61,1721228103639
-16.91,10.76,6.85,1.64,-0.66,0.73,1721228103649
8.95,0.18,-16.57,-0.13,0.10,1.23,1721228103659
3.82,29.73,43.86,0.00,1.01,1.14,1721228103669
13.75,32.55,23.55,1.00,-0.34,0.33,1721228103679
7.23,-21.53,-27.75,-0.48,-0.04,-1.75,1721228103694
-0.24,-44.00,-16.66,-1.05,-0.03,-1.47,1721228103698
-16.18,-10.51,49.75,-1.21,0.36,-1.47,1721228103708
-21.17,33.56,62.28,0.58,-1.41,0.22,1721228103718
-8.60,5.11,-16.42,0.75,0.20,1.41,1721228103728
12.25,-14.83,-28.99,-0.51,0.33,1.83,1721228103738
13.86,-3.62,-1.20,0.27,0.97,0.65,1721228103748
12.50,1.38,21.81,0.33,0.37,-1.13,1721228103758
-4.34,27.51,43.38,0.72,-0.77,-2.17,1721228103768
-9.92,34.53,8.82,1.14,-0.91,-0.33,1721228103778
-7.01,-20.66,-2.16,-1.35,0.24,1.63,1721228103788
6.28,-6.65,42.81,-0.23,0.57,0.91,1721228103798
6.26,11.70,-42.29,1.94,-1.52,0.27,1721228103808
7.98,-31.78,-60.59,-0.19,0.65,-0.66,1721228103818
-24.43,-38.12,42.90,-1.72,0.52,-1.70,1721228103828
-14.62,49.13,75.58,1.74,-0.96,-0.84,1721228103838
-39.02,-24.79,20.20,1.16,-0.94,0.48,1721228103848
-1.28,11.44,-17.79,-0.57,-0.66,2.14,1721228103858
18.74,-27.40,-8.47,-1.13,1.42,0.93,1721228103868
1.36,7.11,3.09,0.71,-0.10,-0.83,1721228103878
1.95,-26.92,-16.77,-0.35,-0.26,-1.16,1721228103888
-11.09,11.03,56.74,-0.28,0.29,-0.33,1721228103898
2.27,26.68,-6.28,1.81,-0.72,0.98,1721228103908
7.37,4.56,-45.58,-0.59,0.21,1.25,1721228103918
10.69,-24.50,38.07,-2.08,0.59,-0.30,1721228103928
-13.28,18.53,38.00,1.40,-1.50,-0.71,1721228103938
0.06,11.98,-58.52,0.35,-0.26,-0.45,1721228103948
16.39,-67.87,-0.23,-4.37,1.62,-0.85,1721228103958
-20.45,60.21,78.45,1.92,-1.13,0.63,1721228103968
13.40,-5.37,-45.94,3.49,-1.38,2.08,1721228103978
11.28,48.62,-78.45,-2.93,1.85,0.28,1721228103988
-10.84,78.45,78.27,0.28,0.29,-1.83,1721228103998
2.64,-44.84,-8.71,1.18,-1.95,-1.13,1721228104008
-15.61,-12.86,-3.69,-0.80,1.92,0.22,1721228104018
-17.99,-8.99,34.09,-0.34,-0.56,1.82,1721228104028
4.83,-13.12,21.85,0.57,-0.10,2.01,1721228104038
20.40,18.76,-1.61,0.58,0.35,0.94,1721228104048
14.78,30.76,26.30,0.18,1.33,-0.78,1721228104058
7.38,27.62,27.61,0.32,-0.22,-1.08,1721228104068
-3.56,-34.72,-10.69,-0.67,-0.30,-0.84,1721228104078
-5.79,4.57,-12.23,-0.62,0.78,-0.03,1721228104088
-1.31,-17.29,20.73,-0.60,0.25,0.74,1721228104098
-2.71,-14.42,40.81,0.65,0.17,0.04,1721228104108
-1.12,33.23,7.95,1.43,-0.37,0.45,1721228104118
5.95,1.18,-23.83,-0.86,0.16,0.50,1721228104128
6.00,-27.00,26.46,-1.65,0.65,0.08,1721228104138
0.60,-10.96,39.62,0.85,-0.34,-0.58,1721228104148
1.01,-3.45,-9.25,0.53,-0.04,-0.62,1721228104158
-5.35,17.67,22.28,-0.39,0.39,-0.12,1721228104168
-2.89,-1.35,26.75,0.32,-0.34,0.20,1721228104178
2.42,22.62,-0.97,0.55,0.34,0.27,1721228104188
8.84,18.91,-18.07,0.15,0.12,-0.07,1721228104198
-0.39,-29.38,-34.73,-0.53,-0.06,-0.71,1721228104208
-7.60,-50.27,4.87,-1.76,0.72,-1.40,1721228104218
-23.36,-22.40,78.45,-1.39,-1.10,-0.44,1721228104228
-2.93,76.26,73.36,2.07,-0.24,1.27,1721228104238
-7.34,34.38,-60.52,1.54,-0.17,0.95,1721228104248
18.74,4.07,-16.96,-2.02,1.58,-0.09,1721228104258
-1.02,-57.79,-14.94,-1.12,-0.39,-0.91,1721228104268
1.74,-5.47,-4.57,0.57,-0.59,-0.57,1721228104278
-8.66,-2.56,36.11,0.54,0.25,-1.31,1721228104288
-11.31,-2.75,20.55,0.60,-0.95,-0.19,1721228104298
-9.38,-4.47,8.22,-0.51,0.69,1.63,1721228104308
10.36,27.05,51.10,-0.33,0.60,1.58,1721228104318
19.51,58.54,7.98,1.16,-0.28,0.47,1721228104328
31.09,-12.39,-11.04,0.11,-0.14,-0.43,1721228104338
3.51,-78.18,-25.27,-1.53,0.52,-1.07,1721228104348
-2.24,78.45,31.70,0.35,0.33,-1.43,1721228104359
-4.76,-14.95,-6.05,2.73,-1.27,-0.64,1721228104368
-12.51,-20.01,-41.09,0.37,0.49,0.32,1721228104378
-7.12,-3.39,26.24,-0.10,0.90,1.89,1721228104388
5.51,36.05,48.70,0.17,0.73,1.81,1721228104398
10.57,32.19,16.36,0.34,0.12,0.40,1721228104408
6.42,-62.55,-34.00,-0.57,-0.96,-1.29,1721228104418
-7.90,17.09,-17.49,0.05,0.26,-1.13,1721228104428
-10.26,-47.73,13.97,-1.48,-0.45,-0.82,1721228104438
-2.99,28.06,78.45,0.58,0.27,0.43,1721228104448
-22.78,-24.80,-14.12,1.69,-0.57,1.38,1721228104458
0.18,56.83,16.43,-0.68,0.54,0.59,1721228104468
7.22,33.17,4.37,-0.57,-0.19,-0.68,1721228104478
-6.97,-67.78,-26.14,-1.15,-0.85,-0.49,1721228104488
-2.98,-37.08,31.89,-0.20,1.00,0.26,1721228104498
-8.84,22.21,48.94,1.37,-0.90,0.95,1721228104508
1.86,19.93,-24.18,0.26,-0.01,0.30,1721228104518
5.84,-4.58,-10.41,-1.16,0.89,0.29,1721228104528
1.98,-37.23,-2.56,-0.69,-0.37,-0.01,1721228104538
-4.72,-2.77,47.59,-0.37,1.00,-0.48,1721228104548
-3.38,17.85,30.31,1.51,-0.78,0.14,1721228104558
-0.62,-7.73,-17.26,-0.25,-0.29,0.64,1721228104568
2.93,17.20,37.52,-1.11,0.75,0.67,1721228104578
3.70,7.05,19.17,0.33,-0.94,0.53,1721228104588
4.35,-7.41,-26.56,0.11,-0.18,-0.29,1721228104598
-6.87,-1.62,0.17,-0.75,0.48,-0.51,1721228104608
-10.86,5.21,42.74,-0.56,-0.15,-0.10,1721228104618
-9.33,2.18,0.82,0.55,-0.42,0.44,1721228104628
-1.96,6.75,-22.47,0.28,0.03,0.95,1721228104638
3.71,-18.36,-0.96,-1.50,0.32,0.90,1721228104648
5.60,-17.34,78.45,-1.58,0.57,0.49,1721228104658
9.71,44.58,55.67,2.09,-0.41,1.19,1721228104668
9.89,-35.64,-49.90,0.78,-1.04,-1.10,1721228104678
-9.47,28.02,41.80,-1.52,1.96,-2.09,1721228104688
-11.61,-22.50,0.16,-0.37,-2.68,0.24,1721228104698
-2.73,-40.01,4.17,-0.69,2.24,0.77,1721228104708
-6.05,39.65,20.38,1.33,-0.96,0.85,1721228104718
8.26,-10.07,-23.73,0.24,-0.17,0.94,1721228104728
2.91,2.06,51.69,-1.43,1.03,0.14,1721228104738
3.05,16.91,43.70,1.32,-0.57,0.55,1721228104748
4.55,2.50,-44.67,1.15,-0.67,-0.90,1721228104758
-3.28,-17.65,-5.58,-0.34,0.80,-0.88,1721228104768
-7.86,14.73,9.18,0.75,-0.67,0.21,1721228104778
-0.81,25.01,-26.54,-0.17,0.23,1.14,1721228104788
6.90,-73.58,0.76,-2.87,0.32,1.05,1721228104798
5.52,-12.68,78.45,0.21,0.87,0.36,1721228104808
-2.79,39.21,-55.90,3.68,-3.10,0.30,1721228104818
11.57,28.05,-74.90,-0.42,-0.16,-1.98,1721228104828
-25.53,-30.43,-7.80,-0.74,0.37,0.07,1721228104838
-14.44,6.68,26.23,0.46,0.77,2.22,1721228104848
10.13,10.99,8.18,-0.31,-0.13,1.69,1721228104858
14.59,2.21,30.68,-0.12,-0.23,0.41,1721228104868
13.34,-0.29,-19.46,0.14,-1.25,-0.31,1721228104878
5.49,-34.35,-14.80,-1.12,0.44,-0.89,1721228104888
-9.70,-6.76,72.48,-0.58,-0.24,-1.70,1721228104898
-5.75,38.95,35.39,1.57,-1.07,-1.04,1721228104908
-10.21,-4.63,-70.39,0.44,-0.87,0.24,1721228104918
-3.16,-58.74,13.97,-2.85,0.96,1.24,1721228104928
3.54,27.07,78.45,-0.08,0.32,1.45,1721228104938
10.47,25.61,-32.86,1.51,-0.55,1.29,1721228104948
15.58,-10.82,-7.28,-1.26,1.19,-0.66,1721228104958
-11.77,-8.46,62.75,-0.28,-0.71,-1.99,1721228104968
1.56,11.47,5.92,1.34,-1.27,-1.10,1721228104978
-6.74,-20.42,-39.18,1.11,-0.41,0.08,1721228104988
-1.59,24.03,9.50,-0.38,0.44,0.47,1721228104998
5.55,59.05,41.26,0.42,-0.43,0.97,1721228105008
9.64,-64.58,22.40,-1.50,-0.21,-0.32,1721228105018
-2.19,14.68,58.90,-0.31,0.24,-1.49,1721228105028
-1.09,22.34,-18.74,1.32,-1.82,-1.25,1721228105038
-8.64,12.36,-13.66,0.88,1.41,-0.09,1721228105048
-2.97,-24.12,-17.78,0.48,-0.67,0.26,1721228105058
-1.45,-0.31,6.25,0.34,1.06,0.00,1721228105068
3.73,-1.95,43.79,0.29,-0.43,0.09,1721228105078
-2.14,-6.03,28.36,1.38,-0.49,0.11,1721228105088
6.86,29.36,-5.68,0.86,-0.01,0.11,1721228105098
7.17,11.92,-7.84,-0.78,0.50,-0.49,1721228105108
-7.44,-20.71,32.38,-0.85,-0.27,-1.12,1721228105118
-8.80,-27.58,1.69,0.74,-0.53,-0.87,1721228105128
-6.24,4.01,-32.71,0.68,-0.10,0.41,1721228105138
-3.05,-31.26,-1.67,-1.38,0.66,0.75,1721228105148
-13.73,31.74,68.93,0.20,0.13,-0.33,1721228105158
4.41,33.32,8.66,2.43,-1.49,0.04,1721228105168
14.18,-7.67,-74.06,-1.06,0.61,-0.24,1721228105178
-1.80,-38.75,50.14,-2.08,0.50,-1.20,1721228105188
-9.78,-4.80,25.63,2.35,-1.76,-0.80,1721228105198
5.66,24.33,-49.70,1.23,-0.56,0.73,1721228105208
9.85,28.77,-32.69,-0.86,0.69,1.62,1721228105218
19.65,-16.25,5.09,-2.01,0.37,0.63,1721228105228
13.99,-59.10,64.08,-2.29,0.77,-2.64,1721228105238
-12.05,51.96,74.67,2.18,-2.54,-2.36,1721228105248
-10.80,25.57,-46.91,2.39,-0.03,-0.19,1721228105258
-6.30,-28.11,-25.11,-1.95,0.08,1.92,1721228105268
-12.17,21.80,72.83,-0.72,1.10,0.41,1721228105278
5.90,8.70,-0.31,2.22,-2.20,0.57,1721228105288
19.52,-3.22,-35.28,0.20,1.12,0.26,1721228105298
4.41,11.70,-3.94,-0.24,0.70,-0.67,1721228105308
5.60,-23.28,5.86,-1.22,-0.39,-1.17,1721228105318
-5.11,4.49,58.58,-0.16,0.73,-1.69,1721228105328
-19.69,-7.76,-11.94,1.05,-1.61,-0.05,1721228105338
-3.77,-4.99,11.49,-1.85,1.90,0.94,1721228105348
0.12,21.40,68.05,0.59,-0.43,1.12,1721228105359
11.79,16.23,-20.77,1.64,-0.03,0.91,1721228105368
22.13,-4.63,-50.20,-0.71,1.01,0.10,1721228105378
2.50,-10.68,49.63,-1.21,0.71,-2.28,1721228105388
-5.22,-12.94,21.17,1.05,-1.58,-2.21,1721228105398
-28.60,16.82,-12.00,0.22,0.78,-0.75,1721228105408
-13.05,-1.35,3.15,-0.37,0.34,1.30,1721228105418
2.42,-12.11,26.82,-0.36,0.44,1.94,1721228105428
18.25,11.68,15.36,0.66,0.24,1.08,1721228105438
17.99,-15.63,-4.92,-0.50,0.08,-1.17,1721228105448
-0.74,-6.68,33.55,0.18,-0.14,-2.58,1721228105458
-9.75,24.68,12.22,1.17,-0.27,-1.81,1721228105468
-20.67,41.55,-15.32,0.46,0.13,0.10,1721228105478
-11.43,4.89,10.99,-1.61,0.88,1.16,1721228105488
3.44,-78.45,25.92,-1.55,-0.03,1.23,1721228105498
24.60,78.05,30.47,1.93,1.22,1.42,1721228105508
14.31,-26.21,-60.06,0.01,-1.70,-0.32,1721228105518
15.29,-34.65,38.08,-2.06,2.44,-2.61,1721228105528
-23.93,4.29,12.52,1.69,-3.85,-1.64,1721228105538
-12.35,-13.16,-29.68,0.19,1.66,-0.62,1721228105548
-16.85,11.19,37.12,-0.84,0.44,0.77,1721228105558
-3.07,42.09,33.91,1.37,0.09,1.53,1721228105568
10.17,-1.12,-38.42,0.33,-0.65,0.77,1721228105578
11.94,-60.97,-9.56,-2.11,0.75,-0.17,1721228105588
-2.15,4.02,56.52,-0.65,0.08,-0.98,1721228105598
2.39,25.55,-13.66,1.94,-1.29,-0.42,1721228105608
1.47,-4.04,-8.77,-1.29,1.32,-0.70,1721228105618
-5.30,29.64,70.88,-0.46,-0.16,-0.38,1721228105628
-3.66,11.63,5.97,0.57,0.06,0.18,1721228105638
-15.23,22.78,-11.99,0.33,0.31,0.24,1721228106172
-11.20,29.32,-7.19,0.32,-0.40,1.07,1721228106177
0.69,16.77,-6.01,-0.09,0.40,1.26,1721228106187
8.69,-12.77,5.18,-1.37,-0.01,0.80,1721228106197
8.72,-35.56,44.00,-0.88,0.45,-0.22,1721228106207
2.84,17.81,7.80,1.29,-0.58,-1.00,1721228106217
-4.19,0.70,-48.42,0.32,-0.85,-0.54,1721228106227
-10.87,-24.58,-5.65,-0.94,0.92,0.28,1721228106237
-8.69,-14.58,78.45,-1.14,-0.05,0.49,1721228106247
-4.08,44.81,53.28,1.26,0.19,0.80,1721228106257
4.90,13.46,-21.01,1.09,-0.11,0.76,1721228106267
17.03,34.08,-38.30,-1.59,0.61,-0.60,1721228106277
-4.96,7.30,11.37,1.13,-0.84,-0.73,1721228106287
-4.67,-53.21,-22.21,1.53,-0.68,-0.09,1721228106297
-11.28,-24.51,-2.45,-0.91,1.21,0.14,1721228106307
-4.23,39.99,75.73,-0.41,-0.44,1.22,1721228106317
8.89,38.89,30.33,1.53,0.19,1.11,1721228106327
10.29,-11.43,-40.61,0.87,-1.11,0.28,1721228106337
13.85,-14.34,-14.80,-0.76,1.81,-0.59,1721228106347
4.42,-19.22,20.90,-0.60,-0.70,-1.17,1721228106357
-5.38,-12.06,58.67,0.15,0.18,-2.02,1721228106367
-20.68,29.91,26.86,1.40,-1.42,-0.80,1721228106377
-13.18,6.38,-10.37,-0.47,0.01,0.81,1721228106387
0.29,29.61,28.37,-0.04,0.40,2.43,1721228106397
13.77,-9.04,-31.66,0.74,-0.27,1.27,1721228106407
20.21,-26.97,-32.80,-0.37,0.57,-0.38,1721228106417
9.70,-15.55,29.33,-0.73,0.18,-1.89,1721228106427
-12.78,-20.82,64.42,-0.28,-0.68,-2.24,1721228106437
-23.35,21.66,34.49,1.30,-0.61,-1.41,1721228106447
-14.83,3.77,-20.55,0.26,-0.28,0.77,1721228106457
-9.21,34.69,11.44,0.24,0.87,2.27,1721228106467
10.06,-4.84,-21.85,0.62,-0.06,1.05,1721228106477
15.11,-48.68,-23.03,-0.28,0.23,-0.66,1721228106487
1.33,12.47,24.71,-0.42,0.10,-1.26,1721228106497
-1.13,3.28,36.14,-0.12,-0.05,-0.75,1721228106507
-12.56,22.19,34.74,0.86,-0.37,-0.63,1721228106517
-7.29,21.88,-6.07,0.47,-0.29,0.01,1721228106527
1.12,-47.40,-3.56,-1.52,-0.04,0.83,1721228106537
0.65,17.83,38.09,0.06,0.51,0.78,1721228106547
8.44,6.17,-15.16,0.80,-0.78,0.12,1721228106557
7.93,-14.30,14.28,-0.93,1.05,-0.56,1721228106567
-2.84,-0.74,26.59,0.62,-0.68,-0.72,1721228106577
0.46,0.17,-26.48,0.21,-0.03,-0.42,1721228106587
-9.30,-11.97,21.14,-0.92,0.23,-0.16,1721228106597
-7.16,22.28,45.47,0.92,-0.45,0.85,1721228106607
7.32,17.52,-17.93,0.42,0.06,1.04,1721228106617
11.27,-20.93,-24.45,-0.92,0.45,0.41,1721228106627
5.46,-33.70,19.39,-2.19,0.19,-1.50,1721228106637
-11.20,-18.56,78.45,-0.07,-0.66,-1.42,1721228106647
-2.97,51.05,13.70,3.11,-0.65,0.46,1721228106657
13.04,-20.64,-70.20,0.44,-0.33,0.34,1721228106667
-1.02,-14.86,53.35,-1.49,1.10,-0.52,1721228106677
-6.70,15.71,26.17,0.88,-0.54,0.53,1721228106687
9.90,15.28,-39.35,0.33,0.59,0.19,1721228106697
-4.99,-17.16,-12.80,-0.90,0.11,-0.67,1721228106707
-9.92,-10.28,63.67,-0.25,0.12,-0.74,1721228106717
-4.85,15.45,20.31,1.32,-0.50,0.77,1721228106727
14.19,4.34,-0.62,-0.89,0.62,0.70,1721228106737
6.23,25.00,13.47,0.09,0.28,-0.51,1721228106747
8.74,-15.28,4.02,0.03,-0.16,-1.25,1721228106757
-9.47,-30.82,7.02,-0.27,-0.18,-1.04,1721228106767
-8.38,1.22,22.12,0.16,0.29,-0.50,1721228106777
-10.88,3.21,0.20,-0.16,-0.22,0.19,1721228106787
-4.57,6.29,21.86,0.07,0.30,0.87,1721228106797
7.62,-0.84,14.00,0.14,-0.32,1.17,1721228106807
16.63,-2.08,5.12,-0.07,0.50,0.13,1721228106817
12.85,3.29,-2.81,0.25,-0.32,-1.09,1721228106827
0.88,-5.59,-13.62,0.47,-0.32,-2.00,1721228106837
-15.04,48.37,7.58,0.91,0.12,-1.42,1721228106847
-13.68,-10.01,19.81,-2.60,0.22,0.37,1721228106857
-12.71,-48.45,78.45,-1.28,1.00,-0.12,1721228106867
3.33,6.34,-3.18,2.02,-1.23,1.64,1721228106877
28.47,15.38,-74.12,-0.39,0.42,1.59,1721228106887
19.16,-38.28,-11.68,-0.63,0.19,-1.07,1721228106897
-2.18,-5.28,55.60,0.10,-0.64,-2.83,1721228106907
-19.24,41.07,28.84,1.46,-0.16,-2.00,1721228106917
-18.89,33.49,-8.46,-0.23,0.45,0.03,1721228106927
-14.62,-8.60,4.98,-1.06,0.35,1.82,1721228106937
10.97,-29.21,26.21,-0.96,0.75,1.22,1721228106947
14.92,-21.08,23.52,0.42,0.32,0.76,1721228106957
14.21,20.86,-17.81,0.21,0.55,-0.78,1721228106967
-0.75,-13.57,-1.96,-0.25,-0.92,-2.49,1721228106977
-11.13,32.22,38.55,0.06,0.31,-2.51,1721228106987
-21.26,35.04,24.55,0.80,-0.45,-0.50,1721228106997
-16.14,-38.50,-2.86,-0.60,0.72,1.60,1721228107007
8.66,-21.47,5.94,0.01,0.32,2.21,1721228107017
7.73,9.20,2.20,1.10,1.02,1.58,1721228107027
20.66,-4.21,-6.34,-0.33,-0.22,-0.51,1721228107037
6.97,43.62,35.84,0.65,1.01,-2.04,1721228107047
1.39,16.07,1.37,1.00,-1.98,-1.49,1721228107057
-7.10,-26.17,-20.26,-0.96,0.98,-0.96,1721228107067
-14.48,0.51,2.01,-0.05,-0.25,0.31,1721228107077
-6.35,-36.36,-2.18,-0.93,0.54,0.86,1721228107087
-1.43,-21.98,78.45,-1.24,0.39,0.48,1721228107097
3.38,66.51,78.45,2.05,0.98,0.85,1721228107107
12.51,5.12,-59.56,1.35,-0.91,-0.83,1721228107117
7.79,-3.99,3.23,-1.19,1.69,-0.92,1721228107127
-0.74,-25.21,-20.17,-0.16,-2.01,-0.91,1721228107137
-4.05,-25.78,-17.34,-0.18,1.34,-0.75,1721228107147
-14.57,24.48,31.49,0.57,-0.15,0.25,1721228107157
-1.43,-18.05,8.71,-0.61,0.09,0.12,1721228107167
-4.13,12.95,44.40,0.04,0.49,0.02,1721228107177
3.92,-2.44,6.51,0.33,-0.54,-0.20,1721228107187
-7.77,20.58,-21.23,0.08,0.39,-0.08,1721228107197
4.49,-17.38,-16.93,0.10,-0.61,-0.00,1721228107207
-2.85,1.07,35.63,-0.57,1.32,-0.41,1721228107217
-2.52,39.10,31.10,1.18,-1.17,-0.12,1721228107227
-11.43,-38.14,-23.19,-1.36,0.25,-0.90,1721228107237
-9.54,-2.52,46.49,-1.77,0.27,-0.23,1721228107247
0.76,30.44,27.99,1.26,-0.14,1.39,1721228107257
2.62,5.93,-36.33,0.80,-0.33,1.02,1721228107267
12.65,-4.50,-16.46,-0.13,0.52,-0.05,1721228107277
3.03,8.47,-1.08,0.45,-0.39,-0.51,1721228107287
1.00,-29.99,31.86,-1.79,0.26,-1.16,1721228107297
-23.70,11.44,65.56,0.44,-0.94,0.78,1721228107307
3.21,-8.84,-3.92,0.41,-0.36,0.42,1721228107317
-0.18,35.18,1.21,-0.51,0.93,-0.80,1721228107327
-10.79,11.63,6.07,0.48,-0.69,-1.31,1721228107337
-17.74,4.91,-12.87,0.79,0.22,0.15,1721228107347
-8.01,-27.78,-20.89,-0.19,0.03,1.26,1721228107357
7.54,-17.26,34.65,-1.20,0.91,1.11,1721228107367
3.17,38.10,69.83,0.68,-0.56,1.14,1721228107377
11.90,11.97,-31.01,1.05,-0.91,0.12,1721228107387
12.47,-45.98,-33.88,-1.51,0.48,-1.08,1721228107397
-10.57,14.68,55.96,-1.05,0.27,-1.58,1721228107407
-17.00,7.78,-2.48,2.24,-2.09,-0.44,1721228107417
-16.90,20.05,-19.67,0.21,0.25,0.74,1721228107427
1.21,46.51,24.50,-0.42,0.83,1.54,1721228107437
6.47,-14.12,15.86,-1.13,-0.31,1.14,1721228107447
9.71,-31.99,14.88,-0.46,0.43,-0.75,1721228107457
-3.11,7.64,-20.74,0.98,-1.25,-0.79,1721228107467
-2.25,-27.39,-34.58,-0.91,0.49,0.16,1721228107477
-4.54,-9.61,42.34,-0.75,0.81,0.68,1721228107487
-3.88,30.92,48.51,1.00,-1.12,0.88,1721228107497
8.27,33.12,-18.81,0.38,-0.01,1.02,1721228107507
21.68,-26.63,34.59,-2.22,1.20,-0.22,1721228107517
-8.81,23.42,46.80,1.45,-1.37,-1.20,1721228107527
6.47,-56.72,-49.90,1.20,-0.94,-1.73,1721228107537
-24.21,-21.11,-9.25,-3.16,1.38,-1.26,1721228107547
-21.63,27.65,62.50,0.53,-1.44,1.01,1721228107557
-3.00,35.05,-14.00,1.61,1.17,2.20,1721228107567
19.82,6.45,-16.58,0.00,-0.28,2.52,1721228107577
25.01,-33.66,27.39,-1.66,1.50,-0.01,1721228107587
7.00,16.93,20.59,0.09,-1.25,-1.90,1721228107597
3.10,8.61,-23.88,1.19,-1.28,-2.63,1721228107607
-17.95,-3.94,-7.30,-0.70,1.33,-1.36,1721228107617
-19.93,5.54,45.53,-0.27,-0.95,0.75,1721228107627
-7.39,-3.17,19.96,0.65,0.47,1.44,1721228107637
12.02,7.12,-12.01,0.37,-0.32,1.62,1721228107647
18.83,-7.73,-22.64,0.08,0.81,0.35,1721228107657
10.12,-36.91,10.78,-0.67,-0.17,-1.46,1721228107667
-7.63,10.14,47.73,1.05,-0.43,-2.43,1721228107677
-13.24,16.45,-10.72,1.74,-0.69,-1.73,1721228107687
-22.16,2.48,21.69,-1.73,0.42,0.34,1721228107697
-1.72,24.11,69.92,-0.69,0.07,2.18,1721228107707
10.05,4.16,-11.55,0.58,-0.27,2.00,1721228107717
23.83,-41.64,-52.60,-0.03,0.15,0.45,1721228107727
14.65,3.05,-9.70,-0.19,0.82,-1.64,1721228107737
-2.18,-17.47,-14.47,-0.26,-1.35,-2.09,1721228107747
-15.52,-34.69,68.05,-1.23,1.16,-1.66,1721228107757
-30.87,23.84,78.45,1.97,-0.94,1.15,1721228107767
2.24,29.97,-21.95,1.65,1.11,2.20,1721228107777
16.71,-25.08,-38.12,-1.87,0.71,0.61,1721228107787
-2.43,18.10,45.45,-0.05,1.04,-1.55,1721228107797
2.71,-15.94,-34.99,1.29,-1.65,-0.99,1721228107807
-2.74,-31.06,-19.51,-1.21,1.79,0.06,1721228107817
-12.32,14.45,66.91,-0.10,-0.45,0.64,1721228107827
6.87,11.67,18.05,1.13,-0.47,0.77,1721228107837
7.91,39.38,-20.44,0.04,-0.03,0.73,1721228107847
13.01,-19.13,1.14,-1.20,1.01,-0.63,1721228107857
-1.76,-32.50,51.15,-0.82,-0.05,-2.79,1721228107867
-10.77,7.04,5.74,2.14,-0.39,-1.69,1721228107877
-17.64,-11.33,-39.51,-0.66,-0.27,0.62,1721228107887
-7.62,37.14,50.75,-0.65,0.75,1.33,1721228107897
16.51,13.98,19.51,1.69,-0.13,2.44,1721228107907
27.83,-36.62,-35.93,-0.51,0.58,0.56,1721228107917
14.43,8.00,7.27,-0.70,1.15,-2.12,1721228107927
-1.95,9.62,14.84,0.44,-0.99,-2.49,1721228107937
-18.52,-0.82,20.59,0.47,0.73,-1.39,1721228107947
-19.37,-3.45,13.88,0.08,-0.29,1.14,1721228107957
-2.26,-9.49,21.33,-0.56,0.91,1.60,1721228107967
10.24,-10.75,28.30,-0.10,-0.08,1.28,1721228107977
16.20,46.31,24.16,1.23,0.74,0.32,1721228107987
12.31,19.69,-31.21,0.87,-0.62,-1.08,1721228107997
1.74,-36.08,-26.05,-0.59,0.49,-2.20,1721228108007
-12.84,-1.09,4.36,-0.39,0.04,-1.73,1721228108017
-20.19,-12.32,23.76,-0.21,0.43,0.13,1721228108027
-13.91,-0.66,46.34,0.63,0.23,1.25,1721228108037
7.08,35.48,14.19,1.95,0.35,1.62,1721228108047
14.38,-3.33,-33.44,-1.59,0.40,0.65,1721228108057
10.04,-23.70,47.69,-2.73,0.66,-1.40,1721228108067
1.69,-0.94,46.56,1.71,-0.83,-1.13,1721228108077
1.61,-3.23,-56.58,0.82,-0.31,-0.40,1721228108087
-5.35,-31.60,-16.71,-1.77,1.60,-0.85,1721228108097
-25.43,25.39,78.45,0.16,-0.39,-1.22,1721228108107
-10.07,17.06,8.27,1.34,-0.65,-0.10,1721228108117
-9.41,0.21,-25.78,-0.96,0.97,1.04,1721228108127
5.62,-21.33,4.47,-1.24,0.31,1.07,1721228108137
11.28,-15.42,33.11,-0.58,0.63,0.45,1721228108147
15.64,2.15,29.61,0.43,0.05,-0.31,1721228108157
3.84,9.21,9.15,-0.13,0.07,-1.73,1721228108167
-11.56,17.99,17.79,-0.19,-0.26,-0.63,1721228108182
-11.73,25.80,11.85,-0.18,0.37,0.02,1721228108186
-8.26,-33.68,-13.72,-1.05,0.00,0.98,1721228108196
1.07,2.14,37.67,-0.80,1.42,0.19,1721228108206
0.61,21.39,14.54,1.18,-1.08,0.01,1721228108216
0.64,10.31,-22.35,0.36,0.32,-0.46,1721228108226
-6.21,-14.23,27.99,-1.29,0.41,-0.65,1721228108236
-6.19,20.65,50.73,0.52,0.32,0.04,1721228108246
-5.65,-4.76,-26.93,0.82,-0.37,0.42,1721228108256
5.24,-3.23,-10.56,-0.02,0.59,0.62,1721228108266
3.40,-17.84,-5.98,0.19,-0.07,0.54,1721228108276
11.09,8.02,35.76,-0.03,1.03,-0.17,1721228108286
3.39,8.95,34.23,0.98,-0.80,-0.68,1721228108296
-9.48,8.05,-7.38,0.33,0.52,-1.18,1721228108306
-16.73,-30.30,10.89,-1.30,-0.17,0.29,1721228108316
-7.82,-8.35,46.12,0.10,0.55,1.92,1721228108326
14.87,37.72,4.52,1.66,-0.19,2.39,1721228108336
18.61,8.58,-36.69,0.50,-0.06,0.77,1721228108346
18.01,-31.06,-14.90,-1.36,0.66,-0.95,1721228108356
4.48,1.33,52.34,-0.71,0.77,-2.07,1721228108366
-15.90,2.72,37.30,0.92,-0.84,-2.49,1721228108376
-26.62,-6.62,14.30,-0.49,0.00,-0.47,1721228108386
-12.64,34.32,34.37,0.10,0.23,2.36,1721228108396
3.58,7.94,-10.31,0.21,0.34,1.53,1721228108406
9.54,-25.46,-25.73,-0.18,-0.27,0.53,1721228108416
11.91,-22.45,-8.11,-0.72,0.43,0.14,1721228108426
2.68,19.45,53.43,-0.22,0.31,-0.92,1721228108436
-2.04,18.43,18.00,1.33,-0.77,-0.62,1721228108446
-5.42,-10.08,-15.65,-0.79,0.27,-0.04,1721228108456
-7.62,24.14,29.31,-0.29,0.20,0.48,1721228108466
0.95,-9.30,1.38,0.61,-0.39,0.54,1721228108476
2.73,-28.50,-19.41,0.15,0.32,0.47,1721228108486
8.30,3.74,-10.62,0.52,0.32,0.43,1721228108496
5.65,-9.28,17.55,-0.76,0.45,-0.20,1721228108506
-4.93,25.45,56.14,0.32,-0.07,-0.97,1721228108516
-8.93,9.60,1.14,0.44,-0.97,-0.52,1721228108526
-8.66,-19.49,15.44,-1.74,0.61,0.70,1721228108536
-0.28,4.15,44.21,0.31,0.30,1.53,1721228108546
6.88,-0.67,-35.01,1.43,-0.78,0.49,1721228108556
9.88,-5.25,-36.02,-0.33,0.65,-0.48,1721228108566
-1.98,9.66,29.99,-0.04,-0.16,-0.18,1721228108576
7.11,-1.76,34.97,0.21,0.44,-0.28,1721228108586
-8.67,21.47,18.16,0.56,-0.10,-0.58,1721228108596
-9.06,2.82,-10.81,-0.44,-0.35,-0.13,1721228108606
-4.76,-2.84,28.80,-1.14,0.84,0.63,1721228108616
3.21,-30.40,28.69,0.23,-0.47,0.79,1721228108626
5.97,36.15,-8.54,1.67,0.23,0.26,1721228108636
5.17,0.73,-23.80,-0.74,-0.42,-0.53,1721228108646
-9.70,-10.94,43.17,-1.23,0.69,-0.91,1721228108656
-0.12,-8.54,38.29,0.23,-0.23,-0.15,1721228108666
-12.46,-5.96,-3.88,0.35,-0.70,0.22,1721228108676
-0.29,44.70,22.86,0.18,0.86,0.52,1721228108686
2.68,13.97,-11.10,1.00,-1.02,1.39,1721228108696
14.84,-45.22,-29.74,-0.46,0.55,0.60,1721228108706
7.79,9.06,0.59,0.04,0.84,-0.60,1721228108716
0.25,-27.15,21.06,-0.34,-0.63,-1.09,1721228108726
-7.73,31.85,59.01,1.01,0.32,-0.13,1721228108736
-0.65,-6.56,-4.18,0.88,-0.92,0.77,1721228108746
3.76,13.56,3.09,-0.87,1.53,0.18,1721228108756
-2.22,5.52,24.62,0.07,-0.48,-0.67,1721228108766
-13.93,-4.46,-13.77,1.15,-0.57,-0.44,1721228108776
-8.33,-5.55,-40.33,0.43,-0.13,0.92,1721228108786
0.80,-8.83,-25.50,-0.78,0.59,2.15,1721228108796
9.36,-33.83,78.45,-2.66,1.11,0.60,1721228108806
-22.10,53.07,20.42,1.70,-0.58,-0.03,1721228108816
4.50,-38.13,-65.59,2.12,-2.89,-0.89,1721228108826
2.90,78.45,-78.45,-3.30,2.89,-1.32,1721228108836
-13.74,22.68,68.45,0.97,-1.37,-0.18,1721228108846
-16.88,-75.98,19.49,1.10,0.23,-0.01,1721228108856
-11.97,-9.21,38.18,-0.21,0.25,-0.07,1721228108866
-6.58,21.06,7.52,0.39,-0.87,0.75,1721228108876
-6.08,20.79,7.95,-1.15,0.18,1.44,1721228108886
29.20,-5.85,35.73,-0.74,1.13,0.83,1721228108896
9.30,-2.80,-6.67,0.45,-0.97,-0.93,1721228108906
-7.26,6.91,-16.94,0.84,-0.19,-1.06,1721228108916
-4.61,-0.61,-8.10,0.38,-0.17,0.08,1721228108926
-4.47,6.96,27.62,-0.60,0.18,0.44,1721228108936
3.54,30.99,55.44,0.21,-0.42,1.16,1721228108946
11.30,-9.66,-18.58,0.11,-0.61,0.90,1721228108956
15.52,-35.38,-2.62,-1.30,0.68,-0.62,1721228108966
-2.64,19.19,56.52,-0.16,-0.42,-1.60,1721228108976
-9.53,20.76,-0.62,1.68,-0.98,-1.66,1721228108986
-17.08,-16.24,-26.03,-0.61,0.13,-0.57,1721228108996
-17.78,-2.12,2.69,-0.10,0.10,1.38,1721228109006
5.05,-31.51,4.03,-1.05,0.35,1.73,1721228109016
8.29,33.38,65.67,0.02,0.37,0.65,1721228109026
13.90,0.83,-3.40,0.47,-1.66,0.23,1721228109036
11.69,-21.83,3.11,-0.86,1.15,-0.93,1721228109046
-6.57,-1.34,33.60,0.13,-0.93,-1.49,1721228109056
-6.72,2.68,-2.99,1.01,-0.26,-0.83,1721228109066
-10.44,-13.25,-29.81,0.29,-0.26,0.55,1721228109076
-2.95,32.95,1.47,0.54,0.56,0.97,1721228109086
5.60,-7.86,31.08,-1.38,-0.02,0.53,1721228109096
-3.28,-1.80,78.45,-0.67,0.04,0.27,1721228109106
9.13,-26.97,-7.98,0.75,-1.76,-0.28,1721228109116
3.44,24.67,4.99,-0.40,1.60,-0.46,1721228109126
2.65,21.45,5.80,0.28,-0.79,-0.15,1721228109136
-0.96,-16.29,-29.68,0.39,-0.10,-0.42,1721228109146
1.30,-2.47,-28.04,0.09,0.58,-0.80,1721228109156
-3.23,1.30,7.54,-0.40,0.15,-0.25,1721228109166
-11.33,-51.89,69.32,-2.56,0.01,-0.61,1721228109176
-24.33,78.45,78.45,2.35,-1.91,-0.62,1721228109186
-7.53,-60.23,-26.60,2.76,-1.08,0.66,1721228109196
8.23,67.11,-59.85,-3.16,0.61,1.57,1721228109206
22.20,54.80,-8.22,1.18,0.61,0.22,1721228109216
6.20,-77.83,-6.81,0.33,-0.12,-0.51,1721228109226
4.65,20.50,56.09,0.54,0.78,-1.12,1721228109236
-3.88,22.88,-13.02,1.33,-1.38,-0.56,1721228109246
-1.96,17.39,-8.26,-0.61,0.89,-0.21,1721228109256
-6.11,0.09,24.86,-0.37,0.14,0.89,1721228109266
9.00,-13.57,32.87,-0.05,0.39,0.86,1721228109276
25.39,-19.27,-5.57,0.95,-0.42,0.27,1721228109286
14.33,12.51,-9.74,0.57,0.60,-0.39,1721228109296
4.32,-23.53,0.69,-0.68,-0.08,-0.85,1721228109306
-7.34,8.59,40.36,0.54,0.40,-1.05,1721228109316
-9.00,13.36,-3.85,1.29,-0.48,0.17,1721228109326
-2.65,5.27,-26.20,-0.29,0.24,0.64,1721228109336
-5.07,-60.29,14.09,-1.83,-0.05,-0.09,1721228109346
14.77,38.87,78.45,0.34,-0.25,0.26,1721228109356
7.39,-16.21,-11.31,0.81,-1.10,0.59,1721228109366
6.03,52.67,33.16,0.09,1.15,-0.15,1721228109376
7.31,32.29,1.34,0.29,-1.19,-0.93,1721228109386
-1.88,-35.93,-17.91,-1.07,0.81,-1.48,1721228109396
-8.58,1.50,1.46,-0.18,-0.35,-0.41,1721228109406
-6.99,-16.41,-11.19,0.01,0.20,0.14,1721228109416
-2.93,-5.94,33.06,0.15,0.17,0.28,1721228109426
1.88,22.96,23.89,0.89,-0.36,0.45,1721228109436
3.81,-3.20,-6.52,-1.38,0.18,-0.38,1721228109446
-0.85,7.30,51.58,-1.00,0.55,-0.74,1721228109456
-3.17,-3.85,-3.22,1.18,-1.01,-0.08,1721228109466
6.74,2.33,-41.34,-0.10,0.77,0.15,1721228109476
5.19,-0.60,-6.34,-0.43,0.19,-0.26,1721228109486
1.18,-13.98,30.51,-0.44,0.06,-0.50,1721228109496
-2.64,8.95,31.38,0.06,-0.26,-0.29,1721228109506
-0.02,-38.88,7.36,-1.15,0.59,-0.02,1721228109516
-4.29,-11.82,49.81,-0.66,0.45,0.59,1721228109526
8.92,17.25,4.58,1.30,-0.37,0.85,1721228109536
12.47,3.17,-36.19,0.22,0.07,-0.20,1721228109546
4.20,56.97,22.45,0.40,1.00,-1.12,1721228109556
-2.97,-8.21,13.48,-0.88,-0.97,-1.17,1721228109566
-15.12,-66.42,33.06,-2.01,0.34,-0.73,1721228109576
-23.65,28.19,32.98,1.07,-0.08,1.10,1721228109586
-0.58,-6.89,-52.49,-0.55,-0.41,0.82,1721228109596
11.79,-30.45,44.40,-1.37,1.84,-0.53,1721228109606
-11.82,8.45,55.30,1.81,-1.00,-0.34,1721228109616
-3.67,5.19,12.30,1.11,1.06,-0.59,1721228109626
-7.63,-19.80,20.27,-0.67,-0.59,0.41,1721228109636
6.64,41.87,37.67,0.70,0.68,0.65,1721228109646
2.89,17.71,-13.22,1.26,-0.73,0.40,1721228109656
11.11,-18.06,-33.07,-0.74,0.32,-0.19,1721228109666
-4.98,-30.74,31.18,-1.45,0.05,-0.98,1721228109676
11.98,20.82,63.02,0.28,0.07,-0.07,1721228109686
-5.88,-2.40,-26.70,0.28,-0.36,-0.47,1721228109696
-1.42,-5.49,15.75,-1.01,1.11,-0.27,1721228109706
-10.05,-16.87,23.39,0.55,-0.77,0.14,1721228109716
-0.79,20.68,8.25,0.79,0.71,0.10,1721228109726
0.17,8.21,-6.83,0.25,-0.39,0.45,1721228109736
3.51,4.85,26.57,-0.32,1.00,-0.20,1721228109746
0.23,-20.42,11.44,0.38,-1.07,0.10,1721228109756
6.51,10.50,4.46,0.25,1.18,-0.06,1721228109766
0.13,-11.07,-16.01,-0.01,-1.03,-0.17,1721228109776
-3.03,8.20,37.06,-0.49,1.79,-0.75,1721228109786
-5.21,17.79,24.59,1.29,-1.14,-0.25,1721228109796
-1.13,-15.96,-2.83,-0.35,0.93,-0.38,1721228109806
-5.48,-20.13,34.26,-0.45,-0.13,0.72,1721228109816
7.13,11.01,2.48,1.15,0.35,0.67,1721228109826
5.89,-8.25,-36.62,0.65,-0.53,-0.15,1721228109836
5.42,23.15,7.47,0.15,1.39,-1.09,1721228109846
-3.38,11.18,7.08,0.24,-0.85,-0.76,1721228109856
-12.71,-0.17,54.08,-1.35,1.60,-1.35,1721228109866
-24.87,15.69,21.16,1.12,-1.49,-0.54,1721228109876
-12.51,-26.20,-42.46,-0.52,-0.17,1.39,1721228109886
2.39,-6.56,17.29,-2.00,0.46,2.35,1721228109896
11.70,-0.08,55.05,0.27,0.96,1.38,1721228109906
15.57,-6.14,-7.50,1.44,-0.53,-0.78,1721228109916
10.11,5.86,-3.83,-0.37,0.18,-2.24,1721228109926
-8.55,-2.91,29.93,0.11,-0.71,-1.67,1721228109936
-12.18,-3.71,-1.31,0.95,0.14,0.57,1721228109946
-0.88,39.09,36.58,-0.14,0.94,0.57,1721228109956
-2.39,68.40,22.47,0.78,-0.61,0.06,1721228109966
-5.27,-57.86,-32.97,-1.44,-0.44,-1.33,1721228109976
-14.99,-4.36,20.06,-0.80,0.96,-0.45,1721228109986
-11.27,-1.08,10.88,1.03,-0.76,0.78,1721228109996
-6.49,-27.21,-12.17,-0.06,0.52,1.54,1721228110006
9.73,13.02,14.80,0.97,0.20,1.74,1721228110016
18.96,27.16,3.06,0.53,-0.01,1.42,1721228110026
17.43,13.62,11.41,-0.44,0.47,0.14,1721228110036
14.78,-22.81,27.99,-0.82,-0.30,-1.35,1721228110046
-5.77,10.29,17.02,1.04,-0.71,-2.04,1721228110056
-7.55,10.63,-14.72,0.73,-0.28,-1.14,1721228110066
-18.16,25.54,-5.84,-0.47,0.41,0.96,1721228110076
-1.31,-19.03,4.43,-1.76,0.36,1.63,1721228110086
6.64,-33.74,29.88,-0.78,0.62,-0.12,1721228110096
-2.13,-6.62,47.31,0.97,-0.47,-0.64,1721228110106
-8.17,-12.90,2.05,0.45,-0.37,-0.39,1721228110116
-12.33,10.10,16.18,-0.00,0.73,-0.07,1721228110126
-12.01,39.93,13.29,0.90,-0.94,1.55,1721228110136
7.31,-22.82,-13.84,-1.06,0.64,1.57,1721228110146
9.31,3.35,21.35,-0.26,0.37,0.64,1721228110156
15.37,14.78,-20.06,0.83,-1.24,0.09,1721228110166
12.99,1.11,-25.07,-0.18,0.89,-0.35,1721228110176
2.28,-14.58,70.27,-0.84,0.44,-1.63,1721228110191
4.91,-2.63,78.45,-1.02,-0.06,-1.83,1721228110195
-18.67,36.38,23.63,1.68,-1.14,-1.51,1721228110205
-17.97,-9.32,-51.63,-0.50,-0.17,0.90,1721228110215
-6.03,-8.08,36.70,-1.56,1.13,2.23,1721228110225
0.11,-16.34,29.88,0.79,0.07,1.90,1721228110235
15.82,16.86,-5.96,0.98,-0.25,0.60,1721228110245
16.25,21.62,-14.45,0.27,0.10,-0.37,1721228110255
7.87,19.04,-5.72,0.14,-0.05,-0.71,1721228110265
3.28,-27.49,-6.73,-1.77,-0.19,-0.99,1721228110275
10.21,-27.99,78.45,-1.69,0.46,-1.64,1721228110285
-14.77,44.88,74.97,2.01,-1.71,-0.53,1721228110295
-14.07,6.55,-71.73,3.44,-0.52,-1.20,1721228110305
-17.98,-28.00,-48.62,-2.11,-0.36,0.80,1721228110315
-14.38,30.14,52.05,-0.36,1.12,1.84,1721228110325
10.16,40.92,33.23,1.35,0.45,1.66,1721228110335
15.38,-4.51,-17.48,-0.47,-0.94,1.04,1721228110345
17.54,-15.65,2.29,-0.60,0.74,-0.65,1721228110355
6.13,-12.79,-22.55,0.51,-0.72,-1.43,1721228110365
0.99,17.69,27.92,0.35,0.48,-1.46,1721228110375
-13.04,2.92,17.46,0.94,-0.77,-0.42,1721228110385
-3.75,-39.09,30.42,-0.97,0.19,-0.05,1721228110395
-17.04,7.49,44.41,0.14,-0.03,-0.12,1721228110405
-2.71,17.90,0.83,-0.04,-0.75,-0.09,1721228110415
-6.83,29.76,-34.63,0.82,0.27,0.70,1721228110425
7.38,-0.35,-26.79,0.06,0.56,0.60,1721228110435
-7.92,-12.01,34.63,-1.06,0.50,-0.48,1721228110445
2.43,-12.59,76.30,-0.23,-0.67,-0.14,1721228110455
3.55,13.56,-6.30,1.97,-0.99,0.60,1721228110465
12.21,-26.40,-49.60,0.29,-0.42,0.62,1721228110475
3.76,-4.91,10.66,-0.67,1.46,-0.79,1721228110485
-2.07,22.96,25.21,0.55,-0.61,-1.04,1721228110495
-3.00,24.80,11.11,-0.23,0.22,-0.46,1721228110505
-8.42,11.28,32.99,0.04,-0.54,1.34,1721228110515
8.60,-20.39,-11.94,-0.11,0.70,0.69,1721228110525
6.03,3.23,-20.98,0.26,-0.25,0.04,1721228110535
5.44,-28.21,-17.98,-0.51,0.31,-0.57,1721228110545
-6.15,-3.27,31.05,-0.01,0.15,-1.00,1721228110555
-5.51,30.61,11.55,1.57,-0.41,0.14,1721228110565
0.25,29.09,19.91,-0.52,0.44,0.85,1721228110575
2.31,21.40,56.86,-0.55,-0.07,1.11,1721228110585
11.68,-20.55,-3.69,0.22,-0.16,-0.20,1721228110595
-0.97,-53.17,-29.81,-0.44,0.23,-0.95,1721228110605
-11.50,35.30,44.37,-0.26,0.54,-1.04,1721228110615
-15.09,4.50,8.43,1.78,-1.07,-0.72,1721228110625
-8.40,30.02,-14.50,0.75,0.51,1.20,1721228110635
7.24,33.48,-5.23,-0.07,0.11,2.11,1721228110645
15.30,-37.62,-12.56,-2.03,0.57,0.38,1721228110655
10.93,-3.18,56.57,-0.94,0.86,-1.94,1721228110665
-6.43,3.17,13.81,2.25,-1.71,-1.02,1721228110675
0.35,-19.88,-42.84,-0.44,0.45,0.09,1721228110685
-5.76,-5.10,31.12,-1.15,1.11,0.07,1721228110695
-27.67,-22.36,45.21,1.58,-0.65,-0.28,1721228110705
15.28,26.91,-3.88,1.52,0.85,0.32,1721228110715
0.21,53.09,-21.76,-0.19,-0.31,0.90,1721228110725
4.46,-2.32,5.23,-3.14,0.74,0.42,1721228110735
11.26,-62.84,66.35,-1.79,0.45,-0.90,1721228110745
-5.06,-3.74,33.76,1.92,-0.89,-0.25,1721228110755
6.26,3.56,-35.59,0.33,0.16,-0.04,1721228110765
-3.54,-6.85,7.54,-0.45,0.18,-0.90,1721228110775
-9.66,4.37,11.08,0.81,-1.15,-0.33,1721228110785
-6.10,27.21,0.50,0.15,0.38,0.23,1721228110795
-5.92,-16.68,-5.46,-1.56,-0.40,0.42,1721228110805
-9.24,-11.99,69.06,-1.58,1.04,-0.70,1721228110815
-2.53,-0.96,30.08,0.93,-1.00,0.08,1721228110825
2.83,10.16,-23.91,-0.00,0.28,0.68,1721228110835
7.73,19.60,13.29,-0.77,0.55,0.40,1721228110845
4.34,15.43,9.48,0.37,-1.03,-0.04,1721228110855
5.39,-41.28,-6.81,-1.83,0.20,-0.79,1721228110865
-7.19,7.16,39.36,-1.29,0.36,-1.53,1721228110875
-6.32,17.25,-0.05,1.51,-1.17,-0.40,1721228110885
-7.79,-18.16,-17.59,-0.29,0.63,-0.01,1721228110895
-5.12,0.62,43.21,0.50,-0.41,1.03,1721228110905
10.18,31.87,32.68,1.58,0.81,1.46,1721228110915
9.44,20.00,-12.66,0.78,-0.11,0.96,1721228110925
13.88,-25.02,-23.75,-0.47,-0.16,-0.12,1721228110935
2.42,-26.56,-6.46,-0.34,0.59,-0.87,1721228110945
-6.51,-23.02,33.42,0.09,-0.30,-0.71,1721228110955
-11.85,-2.47,57.79,-0.59,0.24,-0.41,1721228110965
-3.97,48.14,56.77,0.93,-0.32,0.51,1721228110975
-2.77,11.49,-29.13,0.71,-0.14,0.64,1721228110985
