AccX,AccY,AccZ,GyrX,GyrY,GyrZ,Time
2.02,11.68,-11.49,-0.11,-0.37,-1.30,1721228257131
-5.80,2.50,-5.58,-0.56,-0.13,-1.14,1721228257136
-7.98,-22.56,15.91,-0.67,0.50,-0.39,1721228257146
-9.98,-14.36,37.18,0.56,0.44,0.21,1721228257156
-5.21,0.79,-1.02,0.75,-0.16,-0.09,1721228257166
-0.73,-1.21,-12.78,-0.41,0.18,-0.28,1721228257176
-6.55,-11.10,33.32,-0.05,-0.27,-0.05,1721228257186
-0.21,-4.62,17.13,0.73,0.24,0.37,1721228257196
5.63,-0.85,-13.52,-0.03,0.01,0.05,1721228257206
-1.18,1.41,-8.01,-0.64,0.33,-0.36,1721228257216
5.60,-13.86,3.92,-0.48,0.46,-0.22,1721228257226
2.50,-32.16,58.05,0.21,0.65,-0.47,1721228257236
-5.87,27.22,22.49,1.50,-0.72,-0.65,1721228257246
-0.64,-6.85,-33.55,-0.01,-0.13,-0.52,1721228257256
-3.64,-5.99,6.48,-1.05,1.89,0.58,1721228257265
3.56,-9.35,32.25,-0.33,0.65,0.91,1721228257275
8.05,1.94,13.40,0.81,0.26,-0.24,1721228257285
0.61,27.40,4.24,0.21,-0.71,-1.25,1721228257295
-5.06,4.65,11.40,-0.50,0.17,-1.17,1721228257305
-19.01,-9.99,22.84,-0.38,-0.10,-0.13,1721228257315
-17.23,-7.25,-9.92,-0.02,0.12,0.79,1721228257325
-1.98,-5.06,-7.86,-0.72,0.71,1.01,1721228257335
-3.22,12.11,44.56,-0.09,0.36,0.42,1721228257345
4.35,2.71,25.73,0.83,-0.55,-0.21,1721228257355
-1.96,24.08,8.54,0.44,-0.22,-0.72,1721228257365
-4.10,13.84,-15.78,-0.57,-0.74,-0.06,1721228257375
2.51,-19.35,-0.89,-0.75,0.90,0.73,1721228257385
11.15,-21.04,40.90,-0.15,0.98,0.78,1721228257395
13.17,25.09,38.82,0.59,-0.04,-0.35,1721228257405
2.60,16.25,-2.71,-0.00,-1.61,-1.74,1721228257415
-16.49,11.26,12.52,-0.14,-0.92,-1.47,1721228257425
-22.69,-7.39,-6.29,-0.11,-0.33,0.11,1721228257435
-14.50,-3.56,-1.54,0.08,0.41,1.15,1721228257445
-1.84,-9.26,0.57,-0.12,0.20,1.14,1721228257455
4.03,-1.85,32.68,-0.06,0.17,0.33,1721228257465
0.65,0.10,21.80,0.38,-0.76,-0.24,1721228257475
-1.29,-5.05,0.42,-0.18,-0.28,-0.02,1721228257485
2.38,0.57,4.22,-0.25,-0.20,0.55,1721228257495
10.63,-14.64,10.25,0.26,0.86,0.50,1721228257505
15.37,5.11,19.60,0.47,-0.37,-0.25,1721228257515
3.46,-2.53,9.57,-0.06,-0.77,-1.39,1721228257525
-3.92,18.74,20.11,0.90,-0.56,-1.59,1721228257535
-17.07,-7.98,-23.00,-0.41,-1.07,0.27,1721228257545
-7.03,-5.68,14.23,-0.81,2.05,1.06,1721228257555
14.09,-1.67,54.59,0.23,0.66,0.68,1721228257565
1.93,3.02,0.68,0.88,-0.89,-0.10,1721228257575
-0.71,22.50,-10.97,0.06,-0.16,-0.38,1721228257585
-8.04,9.77,0.08,-0.59,-0.16,0.22,1721228257595
0.54,-13.33,3.56,-0.51,0.11,0.82,1721228257605
4.66,-19.64,27.51,-0.05,0.05,0.82,1721228257615
14.92,6.73,26.38,0.26,0.06,0.22,1721228257625
14.96,4.45,1.52,0.16,-0.26,-1.01,1721228257635
2.93,-2.80,17.17,0.17,-0.41,-1.35,1721228257645
-7.34,-7.13,9.60,-0.18,-0.10,-0.61,1721228257655
-9.79,10.06,17.59,0.28,0.26,-0.01,1721228257665
-0.29,-6.40,5.07,-0.15,0.10,0.04,1721228257675
-2.10,6.41,21.52,0.02,0.04,-0.54,1721228257685
-7.68,5.13,-0.37,0.17,-0.97,-0.56,1721228257695
-8.68,-7.47,-16.25,-0.69,-0.04,-0.11,1721228257705
-7.28,-3.98,33.16,-0.25,0.03,0.37,1721228257715
-5.41,-1.77,23.33,0.24,-0.30,0.34,1721228257725
4.87,6.30,7.27,-0.16,-0.37,-0.31,1721228257735
-2.95,32.86,9.33,0.04,-1.06,-0.27,1721228257745
9.07,-2.72,0.28,-0.70,0.23,0.49,1721228257755
9.03,-8.08,10.67,-1.39,0.43,-0.18,1721228257765
8.52,15.06,11.31,-0.59,-0.38,-1.36,1721228257775
-7.28,1.99,1.92,-0.34,-0.85,-1.84,1721228257785
-20.83,13.84,12.63,-0.09,-0.34,-1.09,1721228257795
-23.47,-3.90,-1.53,-0.02,-0.14,0.13,1721228257805
-15.16,-11.31,16.85,-0.75,0.13,1.09,1721228257815
-0.37,14.04,30.86,0.11,0.23,1.99,1721228257825
14.32,-4.04,-1.60,0.34,-0.36,1.88,1721228257835
28.77,-6.96,6.20,-0.39,1.11,0.58,1721228257845
13.89,23.39,27.18,0.27,-0.80,-0.94,1721228257855
11.39,-7.37,-4.95,0.44,-1.47,-1.52,1721228257865
-5.50,-1.00,13.69,-0.16,0.29,-2.00,1721228257875
-22.26,14.62,25.91,0.74,-0.65,-1.32,1721228257885
-18.69,-4.72,-8.90,0.48,0.09,0.11,1721228257895
-9.03,-4.76,14.30,-0.23,0.56,1.31,1721228257905
-3.18,6.14,19.25,0.32,0.12,1.52,1721228257915
8.51,-7.39,-8.38,0.31,-0.58,1.04,1721228257925
13.06,-8.40,-1.02,-0.12,0.55,0.19,1721228257935
9.61,-16.03,4.37,-0.07,-0.03,-0.30,1721228257945
-1.26,-6.52,35.72,0.21,-0.32,-0.99,1721228257955
-7.90,12.30,18.55,0.44,-0.56,-0.16,1721228257965
-4.38,-6.92,-6.99,-0.39,0.59,0.37,1721228257975
-2.39,-6.59,11.34,-0.23,-0.15,0.53,1721228257985
3.52,-24.84,5.72,-0.54,-0.08,0.00,1721228257995
-4.93,0.25,19.22,0.37,-0.33,-0.18,1721228258005
-7.69,-3.05,-1.98,0.33,-0.50,0.11,1721228258015
-1.27,-3.11,11.40,-0.00,0.50,-0.01,1721228258025
-9.73,33.31,26.98,0.04,0.01,0.57,1721228258035
2.47,-4.20,-14.70,-0.18,0.35,0.73,1721228258045
11.73,-15.90,10.68,-0.50,0.83,0.79,1721228258055
13.48,21.99,26.63,0.43,-0.58,0.25,1721228258065
8.22,-2.86,1.76,-0.14,-0.41,-0.23,1721228258075
1.24,-5.98,20.04,-0.49,0.25,-0.61,1721228258085
-5.76,1.73,21.34,0.05,-0.35,-0.00,1721228258095
-4.82,-11.36,-4.73,0.17,0.20,0.25,1721228258105
-3.82,-0.18,15.68,-0.08,0.34,0.64,1721228258115
-0.44,15.12,20.22,0.57,0.03,0.91,1721228258125
10.92,13.18,-12.64,0.37,-0.41,1.12,1721228258135
10.44,-4.45,-11.57,-0.98,0.44,0.42,1721228258145
0.95,-27.23,33.68,-0.73,-0.16,-0.43,1721228258155
0.82,12.70,30.20,0.62,-0.35,-0.38,1721228258165
-3.72,-20.72,-16.41,-0.09,-0.07,-0.11,1721228258175
-15.97,18.10,42.62,-0.12,-0.13,-0.07,1721228258185
-9.30,5.94,22.14,0.25,-0.54,1.17,1721228258195
6.69,-19.15,-8.75,-0.14,0.29,1.03,1721228258205
1.89,-3.31,14.34,0.35,-0.01,0.80,1721228258215
14.25,1.43,-1.39,0.35,-1.20,0.01,1721228258225
5.83,11.26,-10.64,-0.19,0.65,-0.62,1721228258235
-8.54,-1.37,-6.24,-0.89,-0.27,-0.20,1721228258245
-12.11,-18.79,49.67,-0.46,0.31,-0.51,1721228258255
-11.96,7.47,29.36,0.16,-0.59,0.27,1721228258265
-2.67,12.10,-12.28,-0.04,-0.06,0.23,1721228258275
-3.37,-10.49,-3.61,-0.78,0.50,0.68,1721228258285
0.12,3.18,24.61,0.24,-0.10,0.53,1721228258295
5.89,11.18,-0.96,0.43,-0.95,0.56,1721228258305
14.36,-9.30,1.55,-0.66,0.58,0.28,1721228258315
-2.07,2.84,31.99,-0.69,0.09,-0.49,1721228258325
8.02,15.51,24.06,0.87,-0.23,-1.12,1721228258335
-1.03,-6.43,-11.25,-0.31,-0.58,-1.26,1721228258345
-9.84,-4.55,21.93,-0.40,1.75,-1.48,1721228258355
-27.08,16.92,17.86,0.82,-0.90,-0.15,1721228258365
-11.17,-11.51,-17.71,0.41,0.25,1.02,1721228258375
2.29,-17.37,18.02,0.01,1.04,0.94,1721228258385
8.06,24.60,34.67,0.84,-0.72,0.43,1721228258395
6.36,11.09,0.14,0.97,-1.16,-0.52,1721228258405
1.07,1.38,14.89,-0.11,0.87,-1.11,1721228258415
-6.80,0.08,17.55,0.43,-1.08,-0.67,1721228258425
-6.43,-14.14,-11.87,0.29,0.08,0.02,1721228258435
-5.72,2.91,3.09,-0.14,0.59,0.74,1721228258445
9.58,-11.97,21.06,-0.58,0.32,0.37,1721228258455
4.58,-2.35,34.20,0.22,-0.33,0.00,1721228258465
7.54,-3.27,10.35,0.57,-0.20,-0.35,1721228258475
0.24,14.31,15.66,0.34,0.21,-0.80,1721228258485
-8.32,6.40,1.82,0.32,-0.76,-0.39,1721228258495
-4.36,-5.48,4.65,0.27,0.43,0.11,1721228258505
-2.65,-0.91,7.95,-0.04,-0.01,0.43,1721228258515
5.63,-1.34,-3.52,0.06,0.40,0.07,1721228258525
5.37,2.17,15.48,-0.32,0.35,-0.31,1721228258535
-0.29,10.79,24.85,0.28,-0.14,-0.59,1721228258545
-3.36,-15.93,-0.17,-0.01,-0.43,-0.52,1721228258555
-5.11,19.54,12.62,0.00,0.44,-0.40,1721228258565
-5.79,12.40,-5.28,-0.29,-0.88,-0.24,1721228258575
-3.37,-29.88,7.36,-1.40,0.70,-0.23,1721228258585
-8.33,5.46,43.53,0.37,-0.94,-0.01,1721228258595
1.71,-9.93,-6.47,0.99,-0.64,0.08,1721228258605
3.57,3.83,-12.90,-0.51,0.10,0.20,1721228258615
2.24,9.81,27.02,0.01,0.19,-0.12,1721228258625
4.26,-10.48,13.12,0.23,-0.40,-0.44,1721228258635
1.13,17.34,10.43,0.55,0.31,-1.02,1721228258645
-8.98,20.47,-2.17,-0.09,-0.76,-0.40,1721228258655
-7.59,-8.89,2.07,-1.19,0.47,0.28,1721228258665
-6.24,-11.03,38.34,-0.55,-0.05,0.20,1721228258675
-1.93,-11.54,-1.32,0.03,-0.44,0.18,1721228258685
6.43,1.02,-6.76,-0.08,0.28,0.07,1721228258695
1.83,9.17,2.65,0.16,-1.02,0.00,1721228258705
0.48,2.29,1.44,0.11,-0.03,-0.35,1721228258715
2.83,-1.43,1.39,-0.39,-0.03,-0.33,1721228258725
-6.34,-15.70,31.70,-0.63,0.22,-0.69,1721228258735
-4.53,4.61,36.40,0.10,-0.63,-0.08,1721228258745
-1.73,10.40,-5.57,-0.26,-0.58,0.27,1721228258755
6.77,1.12,14.01,-0.51,1.25,-0.34,1721228258765
2.66,-15.98,18.29,-0.09,-0.99,-0.24,1721228258775
-0.26,-7.11,3.72,-0.04,0.40,-0.64,1721228258785
-6.94,16.85,13.33,0.44,-0.04,-0.38,1721228258795
0.22,-2.99,4.29,0.15,0.27,-0.05,1721228258805
1.92,25.86,30.88,0.48,0.24,0.35,1721228258815
9.51,-20.36,-9.86,0.12,-0.22,-0.22,1721228258825
3.96,11.34,17.78,0.28,0.35,-1.12,1721228258835
-8.10,13.62,15.62,-0.57,0.20,-0.73,1721228258845
-4.22,-10.02,-0.60,-0.07,0.32,-0.52,1721228258855
-1.42,-9.03,14.78,-0.08,0.03,-0.33,1721228258865
-1.35,-14.32,26.97,0.20,0.21,-0.50,1721228258875
-5.50,38.51,32.45,0.82,-0.04,0.01,1721228258885
5.09,-24.21,-10.51,0.07,0.47,-0.20,1721228258895
1.36,12.84,21.82,0.30,0.39,-0.29,1721228258905
-5.11,3.31,-9.87,0.51,-0.51,-0.54,1721228258915
1.91,6.71,-13.13,0.03,0.57,-0.83,1721228258925
-8.51,4.98,-7.12,0.19,-0.49,-0.14,1721228258935
5.64,-38.16,2.15,-0.92,0.89,0.42,1721228258945
-5.60,-0.02,62.43,0.23,-0.08,-0.39,1721228258955
-0.94,17.62,21.66,0.45,-0.56,0.25,1721228258965
8.75,0.08,2.89,-0.02,0.54,-0.12,1721228258975
11.48,1.65,8.23,-0.15,-0.32,-0.85,1721228258985
-0.77,-3.21,-8.31,0.38,-0.08,-1.52,1721228258995
-8.36,-3.22,-12.43,0.09,0.18,-0.93,1721228259005
-9.74,-15.23,11.53,-0.21,0.78,-0.24,1721228259015
-8.63,20.02,35.62,0.79,0.61,0.33,1721228259025
0.49,34.87,4.56,0.81,-0.09,0.65,1721228259035
12.82,-3.11,-21.70,-1.87,0.53,0.79,1721228259045
19.54,-42.64,45.19,-1.04,1.33,-0.61,1721228259055
7.76,26.24,36.10,1.06,-0.85,-1.25,1721228259065
6.39,-18.73,-25.54,1.11,-0.55,-2.02,1721228259075
-11.22,-4.78,-20.57,-0.76,1.01,-2.00,1721228259085
-31.38,-10.89,24.39,-0.56,-0.60,-0.86,1721228259095
-16.01,-9.88,31.61,0.10,0.80,0.69,1721228259105
1.54,-22.11,-2.19,-0.09,0.51,1.47,1721228259115
17.56,2.51,30.42,-0.08,1.51,0.43,1721228259125
13.24,-9.14,4.56,0.23,-1.17,-0.53,1721228259140
17.23,-13.12,-8.43,0.52,-1.22,-0.96,1721228259144
3.98,-15.21,-14.24,-0.28,0.46,-1.85,1721228259154
-6.02,-3.52,21.78,0.07,0.06,-1.91,1721228259164
-19.71,22.89,19.38,0.32,-0.20,-0.49,1721228259174
-10.78,-16.60,-17.76,-0.57,0.50,0.22,1721228259184
-4.70,-19.24,27.13,-0.47,1.03,0.58,1721228259194
-17.96,26.73,4.37,0.16,0.22,0.85,1721228259204
12.14,-9.27,4.93,-0.21,0.43,-0.37,1721228259214
-4.07,2.79,38.03,0.14,-0.28,-0.97,1721228259224
-8.82,1.21,-4.29,0.76,-0.75,-0.12,1721228259234
-3.16,-30.20,-20.51,-0.51,0.68,0.18,1721228259244
-14.25,36.63,59.73,0.09,0.57,0.17,1721228259254
1.76,-8.15,8.65,0.46,-1.18,0.53,1721228259264
4.30,-1.58,-29.14,0.27,0.03,0.12,1721228259274
-3.95,12.73,-13.26,-0.17,0.45,0.08,1721228259284
-2.40,-11.65,-15.95,-1.76,-0.20,0.21,1721228259294
-10.73,-30.73,72.04,-0.78,1.39,-0.42,1721228259304
-8.76,52.42,78.45,0.82,-0.58,0.31,1721228259314
-8.81,23.97,-42.54,2.20,-1.60,-0.11,1721228259324
5.59,-39.39,-29.45,-1.23,0.26,-0.36,1721228259334
-15.39,41.16,31.08,-0.73,-0.14,0.29,1721228259344
0.19,5.99,-11.83,-0.27,-0.23,0.30,1721228259354
3.17,-23.23,-7.63,-0.80,-0.09,0.05,1721228259364
-5.99,11.38,52.95,-0.11,1.21,-0.35,1721228259373
-0.91,28.55,6.65,0.63,-0.75,0.02,1721228259383
-3.82,-26.66,-12.35,-1.42,-0.30,-0.24,1721228259393
-11.33,15.00,51.13,-0.32,0.37,-0.08,1721228259403
-2.54,-23.11,-6.19,0.38,-1.19,0.14,1721228259413
-2.02,14.83,-17.35,-0.29,0.26,0.34,1721228259423
-10.06,-17.72,12.30,0.08,-0.07,-0.15,1721228259433
-2.43,33.24,29.82,0.71,-0.46,0.61,1721228259443
5.97,-23.47,-9.80,0.31,-0.33,0.17,1721228259453
1.47,1.31,3.79,-0.18,0.14,0.29,1721228259463
7.80,-37.68,14.14,-0.45,0.25,0.05,1721228259473
-8.44,2.72,25.02,0.15,-0.23,0.18,1721228259483
6.06,-4.87,-1.96,0.80,0.21,0.10,1721228259493
0.99,22.34,3.86,0.49,-0.64,0.60,1721228259503
2.15,-5.48,-1.15,-0.15,0.28,0.42,1721228259513
5.38,3.12,14.33,-0.09,0.27,-0.26,1721228259523
-6.56,-22.39,33.38,-1.04,-0.19,-0.66,1721228259533
-15.08,15.66,47.13,0.43,-0.45,-0.31,1721228259543
-3.42,-21.83,-13.29,0.45,-0.44,1.06,1721228259553
12.23,19.47,-1.17,0.39,1.31,1.34,1721228259563
15.17,22.46,12.07,0.51,-0.37,0.58,1721228259573
15.06,-0.35,24.95,0.21,1.45,-1.10,1721228259583
5.46,30.24,23.31,0.30,-0.86,-0.81,1721228259593
-3.44,-33.84,-22.85,-0.82,0.84,-1.05,1721228259603
-11.19,-7.06,28.96,-0.39,0.12,-0.73,1721228259613
0.75,2.84,15.41,0.27,-0.12,0.14,1721228259623
-9.65,3.67,-14.80,1.03,-0.04,0.77,1721228259633
13.31,2.01,12.72,0.40,1.72,0.60,1721228259643
11.74,51.76,41.29,-0.24,0.04,0.44,1721228259653
16.68,-0.35,0.59,-0.60,0.20,-0.84,1721228259663
4.42,-20.28,-1.07,-0.55,-0.42,-1.34,1721228259673
-5.49,-19.08,10.64,0.25,0.15,-1.06,1721228259683
-14.97,-4.62,3.75,0.05,-0.33,-0.33,1721228259693
-9.58,6.40,14.27,0.97,0.48,0.15,1721228259703
-4.59,0.55,-10.33,0.23,0.46,1.24,1721228259713
15.21,10.54,22.16,-0.64,1.65,0.48,1721228259723
17.28,-5.85,31.47,-0.50,0.07,-0.33,1721228259733
10.02,-11.60,-6.81,0.20,-0.45,-1.18,1721228259743
-4.53,6.10,-20.77,-0.26,0.06,-1.48,1721228259753
-17.71,8.27,11.13,-0.71,0.67,-0.64,1721228259763
-21.39,-27.83,39.68,-0.56,-0.01,0.18,1721228259773
-14.63,-8.81,10.36,0.07,0.33,0.64,1721228259783
4.49,-30.04,13.05,-0.05,0.75,0.99,1721228259793
14.71,-17.90,19.10,-0.64,1.14,1.19,1721228259803
22.44,26.18,-1.94,0.68,0.23,0.00,1721228259813
14.61,-12.03,-24.09,-0.70,-1.02,-1.30,1721228259823
-4.93,-28.58,46.09,-1.33,0.73,-2.01,1721228259833
-31.20,19.70,49.25,-0.14,-0.02,-0.94,1721228259843
-17.96,-32.08,-26.72,0.23,-0.60,-0.19,1721228259853
-8.37,20.54,18.99,-0.74,1.95,1.12,1721228259863
-2.52,14.21,20.98,0.36,-0.26,1.84,1721228259873
12.77,-14.04,-13.05,-1.11,-0.02,0.92,1721228259883
18.17,29.25,44.11,-0.17,1.81,-0.93,1721228259893
14.74,-0.37,29.82,0.49,-2.82,-1.32,1721228259903
-5.40,9.82,-19.01,0.44,0.67,-1.04,1721228259913
-17.82,-12.81,7.01,0.56,-0.04,0.49,1721228259923
-12.92,24.56,17.88,0.61,0.12,1.63,1721228259933
9.13,-7.30,-13.50,0.35,-0.13,1.52,1721228259943
14.73,13.89,29.24,-0.02,2.06,0.22,1721228259953
14.59,12.46,17.19,0.23,-0.74,-0.70,1721228259963
-5.52,-11.67,-3.35,-0.55,0.53,-1.44,1721228259973
-19.98,-3.29,18.61,-0.47,-0.54,-0.56,1721228259983
-14.73,-21.96,44.21,0.44,0.49,0.81,1721228259993
-3.18,3.54,24.90,0.18,0.18,1.77,1721228260003
14.26,46.76,3.23,1.26,0.93,1.08,1721228260013
17.26,23.20,-21.12,-0.30,-0.68,0.14,1721228260023
10.18,-13.99,-17.64,-1.58,0.30,-1.20,1721228260033
-4.36,-57.79,23.60,-0.45,-0.43,-1.87,1721228260043
-35.56,-5.34,29.73,1.89,-1.87,-0.81,1721228260053
-15.46,3.33,-42.37,1.20,-0.51,1.00,1721228260063
-0.72,-34.37,-15.05,-1.37,1.45,2.08,1721228260073
1.41,32.49,67.30,0.28,1.67,1.56,1721228260083
15.37,51.28,35.59,0.66,0.03,1.01,1721228260093
20.79,-29.41,-21.08,-1.49,-0.83,-0.00,1721228260103
-5.85,-21.84,45.99,-1.74,1.23,-1.36,1721228260113
-6.31,7.68,46.44,-0.01,0.06,-1.43,1721228260123
-15.22,-16.32,-30.18,1.06,-0.91,-0.60,1721228260133
-13.78,-22.11,-14.12,0.18,0.53,0.59,1721228260143
-14.83,28.50,29.19,0.74,0.52,1.61,1721228260153
4.21,44.85,11.79,0.77,-0.08,2.00,1721228260163
22.31,-28.34,-17.58,-1.42,0.42,1.40,1721228260173
19.11,-8.06,26.47,-1.23,1.47,-0.78,1721228260183
11.72,6.89,7.72,0.25,-1.50,-1.96,1721228260193
-8.88,-29.40,-14.37,0.24,-0.35,-1.86,1721228260203
-25.49,-5.81,41.70,-0.05,-0.59,-0.15,1721228260213
-8.29,55.47,48.19,0.88,0.01,1.27,1721228260223
1.59,-6.92,-22.67,-0.37,-0.12,1.67,1721228260233
13.51,-3.77,11.43,-1.16,2.03,0.67,1721228260243
12.94,-7.50,0.62,0.62,-1.20,-0.83,1721228260253
2.25,-7.24,-27.40,1.14,-0.96,-1.10,1721228260263
-5.74,-7.57,15.33,0.13,0.92,-0.60,1721228260273
2.92,45.19,51.19,-0.01,0.22,0.51,1721228260283
-0.56,-1.43,-9.23,0.42,-0.26,0.72,1721228260293
9.85,-6.22,-3.25,-0.69,0.74,0.41,1721228260303
-5.03,-2.28,13.01,0.15,-0.34,0.11,1721228260313
1.22,-4.66,-0.08,0.93,-0.35,-0.13,1721228260323
1.04,-12.71,-13.69,-0.02,0.01,-0.19,1721228260333
-16.14,13.36,42.81,0.33,-0.00,0.01,1721228260343
-5.78,15.46,26.69,0.68,-0.42,0.85,1721228260353
3.51,-2.30,-32.26,-0.47,-0.25,1.07,1721228260363
7.68,-15.04,6.28,-0.93,1.60,0.31,1721228260373
12.79,6.73,77.68,-0.30,-0.99,-0.47,1721228260383
-9.65,9.25,-12.36,1.25,-1.37,-0.37,1721228260393
-1.19,-18.46,-27.13,-0.19,0.41,0.05,1721228260403
-16.27,34.81,45.32,-0.10,-0.24,0.77,1721228260413
-6.93,-3.21,29.87,0.10,-1.04,0.78,1721228260423
2.97,-1.75,3.66,-0.70,-0.50,0.62,1721228260433
1.96,-29.24,27.03,-0.55,-0.21,0.02,1721228260443
3.46,28.77,17.45,1.00,-0.29,0.36,1721228260453
6.77,3.50,-33.78,1.07,-0.53,0.49,1721228260463
5.47,-1.81,-9.86,-0.68,0.95,-0.19,1721228260473
9.69,2.09,38.75,-0.65,-0.60,-0.45,1721228260483
-7.97,-13.35,24.84,0.35,-0.64,-0.14,1721228260493
-5.06,6.99,8.98,0.58,-0.10,0.27,1721228260503
-2.98,16.03,-4.08,0.25,-0.20,0.55,1721228260513
2.94,7.47,-7.95,0.22,0.43,0.27,1721228260523
3.05,-22.40,16.64,-0.69,0.34,0.09,1721228260533
-5.02,16.71,53.01,-0.08,-0.06,0.33,1721228260543
4.18,21.01,-3.88,1.10,-0.61,0.33,1721228260553
12.37,-1.11,-42.95,-0.15,-0.36,0.60,1721228260563
10.34,-53.32,-2.54,-1.91,1.36,-0.09,1721228260573
-4.68,15.32,78.45,0.34,-0.72,-1.42,1721228260583
-9.01,-3.39,20.61,0.80,-0.92,-1.20,1721228260593
-21.15,19.71,0.16,0.27,-0.79,0.57,1721228260603
-7.04,3.52,-3.08,0.43,0.27,1.19,1721228260613
9.56,-5.84,-25.39,-1.20,0.13,1.23,1721228260623
16.16,-10.85,7.95,-0.67,1.33,-0.20,1721228260633
8.83,2.55,51.49,-0.32,-0.64,-1.14,1721228260643
-11.72,18.92,44.06,1.05,-0.63,-0.85,1721228260653
-10.49,12.40,22.39,0.41,0.20,0.12,1721228260663
-2.26,9.10,-21.43,-0.24,-0.25,0.75,1721228260673
9.56,-14.09,-16.95,-0.41,0.84,0.33,1721228260683
10.19,28.33,7.07,0.31,0.41,-0.43,1721228260693
14.51,-15.63,-17.10,-1.00,-1.64,-1.05,1721228260703
-7.24,-19.97,22.89,-0.46,-0.01,-1.58,1721228260713
-13.15,-7.42,61.33,-0.17,-0.48,0.48,1721228260723
-5.32,-6.20,14.42,0.35,0.53,0.98,1721228260733
9.23,0.13,9.96,0.71,0.46,-0.05,1721228260743
-0.16,27.72,-14.06,0.31,-0.85,-0.34,1721228260753
6.75,-11.88,-2.73,-1.71,1.12,-0.86,1721228260763
-8.06,4.73,39.69,-0.59,-0.13,-0.69,1721228260773
-2.87,-13.92,-13.35,0.91,-0.88,-0.02,1721228260783
3.56,-35.57,-12.55,-0.43,0.57,-0.29,1721228260793
-10.64,28.36,53.96,0.24,0.40,0.14,1721228260803
14.13,46.55,45.82,0.14,0.02,0.35,1721228260813
2.10,-0.50,-8.41,-1.31,-0.54,-0.34,1721228260823
0.46,-5.49,12.25,-0.63,1.11,-1.01,1721228260833
-4.30,-22.77,-3.37,-0.51,-0.54,-0.21,1721228260843
0.33,10.55,16.11,0.29,1.79,-0.55,1721228260853
-5.00,49.44,-7.33,1.25,-1.29,-0.33,1721228260863
-6.39,10.99,-7.93,-0.29,-0.14,0.47,1721228260873
8.39,-32.09,27.82,-0.79,1.33,0.42,1721228260883
-10.50,-15.19,19.20,-0.13,-0.46,-0.23,1721228260893
5.88,23.25,-19.98,1.37,-0.48,-0.44,1721228260903
0.98,-31.72,-29.83,-0.40,-0.10,-0.47,1721228260913
-12.12,-2.29,62.44,-0.39,1.22,-0.76,1721228260923
-13.01,53.89,44.42,1.21,-0.61,-0.25,1721228260933
-5.15,15.96,-43.34,0.88,-1.07,0.38,1721228260943
-1.25,-25.80,-26.66,-1.06,1.16,0.12,1721228260953
-0.93,-34.42,33.40,-0.77,0.02,-0.51,1721228260963
-10.15,22.63,20.27,1.22,-0.61,-0.53,1721228260973
1.92,-10.63,-7.39,0.31,-0.93,-0.39,1721228260983
-9.07,20.92,26.70,0.11,0.95,-0.02,1721228260993
1.53,28.33,9.80,0.44,-1.03,0.80,1721228261003
15.66,-52.30,-50.67,-0.57,-0.32,0.20,1721228261013
14.15,-70.64,9.78,-1.70,1.17,-0.59,1721228261023
-17.37,17.16,78.45,0.16,-0.16,-1.20,1721228261033
-8.59,7.62,5.89,1.71,-0.80,-0.81,1721228261043
-1.35,13.27,-62.27,0.90,-0.05,0.63,1721228261053
-45.68,52.42,6.43,-0.70,-0.04,1.44,1721228261063
11.79,-62.40,12.63,-0.96,0.06,-0.36,1721228261073
7.93,-78.45,5.59,-0.76,-0.15,-0.99,1721228261083
-13.86,78.45,38.55,1.29,-0.18,-1.13,1721228261093
-6.14,-18.50,15.43,0.07,-1.08,-0.19,1721228261103
-11.98,-4.23,-10.29,-0.28,1.39,0.42,1721228261113
-4.98,2.71,12.03,0.51,-0.19,0.57,1721228261123
0.57,23.25,17.03,0.24,0.14,0.59,1721228261133
5.93,12.66,0.43,0.33,0.58,0.16,1721228261148
0.36,6.00,-11.75,0.45,-0.27,0.11,1721228261152
4.40,-42.67,0.33,-0.68,-0.01,-0.52,1721228261162
-20.64,-7.41,49.44,-0.21,0.66,-0.71,1721228261172
-5.36,11.75,11.31,1.23,-0.38,0.28,1721228261182
3.59,6.29,-9.60,0.65,0.03,0.53,1721228261192
-3.12,30.84,19.60,-0.61,0.20,0.30,1721228261202
5.91,-10.28,-1.21,0.58,-0.40,-0.12,1721228261212
-2.56,-29.19,-12.11,0.10,-0.47,-0.07,1721228261222
-1.52,16.16,38.45,-0.02,1.59,-0.15,1721228261232
13.32,37.52,34.60,1.39,-0.78,0.33,1721228261242
14.44,17.85,-45.90,0.10,-0.43,0.46,1721228261252
14.33,-57.72,-16.79,-2.19,1.47,-0.10,1721228261262
16.87,-16.26,57.31,-0.82,0.67,-1.12,1721228261272
10.13,31.22,58.98,2.01,-0.15,-1.16,1721228261282
-17.77,-20.18,-31.89,1.46,-2.30,-0.38,1721228261292
-1.23,75.29,-4.15,-0.13,3.14,1.10,1721228261302
6.89,25.74,23.11,-0.63,-0.64,1.13,1721228261312
10.56,-72.56,19.03,-1.34,0.56,-0.33,1721228261322
11.74,-10.84,19.52,2.42,-0.45,-0.79,1721228261332
-9.20,52.76,-33.66,-0.65,-0.19,-0.69,1721228261342
-4.04,-13.62,-24.61,0.12,0.33,-0.47,1721228261352
-15.44,-31.02,8.67,-0.99,0.80,-0.10,1721228261362
-4.37,20.39,72.33,-0.19,0.33,0.37,1721228261372
3.91,8.80,24.45,1.22,-0.30,0.52,1721228261382
-0.07,16.76,-16.69,-0.13,-0.36,0.60,1721228261392
13.12,-8.59,-4.44,0.70,0.60,-0.27,1721228261402
-2.07,-3.02,-0.15,0.33,-0.65,-0.74,1721228261412
-2.02,0.11,-15.02,-0.77,-0.34,-0.30,1721228261422
-13.51,-33.43,46.99,-0.89,0.23,-0.33,1721228261432
-16.08,62.94,71.64,1.43,-0.27,0.61,1721228261442
1.82,6.48,-66.74,0.55,-1.08,0.92,1721228261452
15.45,-41.83,-39.60,-3.70,2.78,-0.23,1721228261462
-10.60,1.35,78.45,-0.17,-0.30,-1.33,1721228261472
-25.94,33.15,54.73,2.33,-0.44,-1.17,1721228261482
-10.68,-3.70,-60.60,0.02,-0.85,0.49,1721228261492
2.09,1.99,5.51,-0.70,1.31,1.34,1721228261502
7.22,-0.43,-10.56,-0.24,-0.96,0.77,1721228261512
14.66,8.00,-8.49,-0.03,0.93,-0.03,1721228261522
19.79,-40.99,35.78,-1.71,1.35,-1.06,1721228261532
-7.54,27.20,78.45,0.10,-1.99,-1.54,1721228261542
-17.44,7.83,-18.86,0.62,-1.33,-0.41,1721228261552
-14.48,-13.29,-68.12,-0.45,0.68,0.56,1721228261562
1.63,-35.00,17.60,-0.52,2.07,1.00,1721228261572
-19.21,17.70,47.98,0.31,-0.79,1.30,1721228261582
7.20,7.03,-14.75,1.18,-0.29,0.59,1721228261592
8.66,-14.81,-15.12,-1.15,0.43,-0.47,1721228261602
-6.32,-12.87,40.40,-0.33,-0.43,-1.49,1721228261612
-18.12,35.82,59.36,0.68,0.09,-0.96,1721228261622
-13.51,7.52,-42.93,1.11,-0.95,0.14,1721228261632
0.86,-21.29,-25.95,-1.32,1.25,0.15,1721228261642
-15.22,14.99,41.47,-0.99,-0.52,0.61,1721228261652
10.27,-12.32,64.63,0.34,0.26,-0.14,1721228261662
3.10,22.46,42.18,-0.03,-0.49,0.31,1721228261672
1.47,17.90,-47.83,1.18,-0.33,-0.24,1721228261682
1.30,-14.34,-4.82,0.93,1.17,-0.09,1721228261692
-12.78,8.42,-8.60,0.90,-0.80,-0.12,1721228261702
-2.52,-49.14,-17.77,-1.26,0.08,-0.56,1721228261712
-8.95,-13.34,41.58,-0.05,0.34,-0.49,1721228261722
15.37,69.23,46.15,0.13,0.57,0.48,1721228261732
1.85,2.57,-24.71,0.14,0.21,0.01,1721228261742
3.11,-2.43,19.91,0.26,1.67,-1.15,1721228261752
-4.25,0.84,-2.01,0.63,-1.58,-0.38,1721228261762
-10.74,-58.32,-19.80,-0.37,0.86,0.04,1721228261772
-8.03,26.12,49.89,0.02,0.78,0.62,1721228261782
-6.69,19.71,14.87,1.09,0.31,1.08,1721228261792
14.28,-3.32,-23.43,-1.13,0.30,0.85,1721228261802
13.16,3.23,41.09,-0.42,0.18,-1.19,1721228261812
4.47,-6.58,-1.04,0.70,-2.03,-2.04,1721228261822
-11.08,-25.79,-39.09,-0.63,0.52,-1.24,1721228261832
-16.96,9.18,44.21,0.06,-0.23,0.06,1721228261842
-17.14,-1.65,-5.77,1.39,-0.29,0.92,1721228261852
1.22,-21.34,-33.89,-0.56,-0.54,1.09,1721228261862
-1.45,50.35,51.12,-1.06,-0.07,-0.65,1721228261872
15.24,18.31,78.45,1.04,-1.61,0.05,1721228261882
-10.82,-70.55,-48.45,-0.85,-1.30,-0.25,1721228261892
-1.77,-3.50,2.20,-0.65,0.93,-1.03,1721228261902
-7.67,0.79,6.38,-0.97,-0.95,-0.69,1721228261912
5.99,-5.89,32.11,0.64,-0.42,-1.40,1721228261922
-22.90,29.07,10.58,1.15,-1.32,-0.29,1721228261932
-4.40,-32.28,-31.85,-0.60,0.78,0.52,1721228261942
1.24,-4.29,42.71,-1.84,3.13,0.21,1721228261952
-20.19,-0.55,41.25,0.84,0.29,0.33,1721228261962
2.48,5.96,-21.59,1.78,-1.44,-0.42,1721228261972
3.91,-1.36,-2.19,0.28,1.36,-1.18,1721228261982
-4.75,44.92,13.38,1.02,-0.92,-0.86,1721228261992
-11.53,1.46,-27.91,-0.18,-0.51,-0.32,1721228262002
1.33,-78.45,3.43,-4.02,1.35,0.91,1721228262012
-3.68,23.14,78.45,1.89,-0.74,0.88,1721228262022
1.40,-3.73,24.75,0.06,0.36,1.65,1721228262032
30.73,30.22,-44.73,3.59,-1.99,0.17,1721228262042
-14.98,-21.53,24.01,-1.49,3.58,-0.09,1721228262052
-1.90,13.63,25.88,0.71,-0.92,-1.31,1721228262062
6.43,-1.95,-29.98,1.21,-0.67,-1.51,1721228262072
-1.40,9.98,-2.64,-0.06,0.97,-1.41,1721228262082
-47.29,35.33,53.40,-1.49,-0.66,0.32,1721228262092
-0.47,-28.59,29.84,-0.45,0.55,0.43,1721228262102
4.08,-18.43,7.38,0.55,-0.12,0.57,1721228262112
-2.13,-13.05,-17.77,-0.17,0.29,0.62,1721228262122
12.32,-0.46,19.86,-0.38,1.77,-0.33,1721228262132
1.45,67.97,19.09,0.36,-1.32,-0.92,1721228262142
-2.41,-34.37,-6.10,-0.50,-1.32,-2.00,1721228262152
-14.10,-37.57,23.35,-1.53,0.80,-1.33,1721228262162
-8.44,45.71,-2.96,1.37,-0.25,0.22,1721228262172
-6.03,-1.86,-38.75,1.54,-0.79,0.78,1721228262182
-0.58,-23.48,-14.75,-0.54,0.97,0.66,1721228262192
4.15,14.14,52.31,-0.61,1.02,0.30,1721228262202
2.40,-5.46,65.13,-0.72,-1.08,-0.05,1721228262212
1.60,-6.26,27.23,-0.83,1.14,-1.16,1721228262222
-8.32,24.69,2.78,0.82,-1.01,-0.67,1721228262232
-0.76,7.91,-28.64,0.84,-0.68,0.63,1721228262242
5.13,-32.47,12.84,0.29,1.44,0.65,1721228262252
-23.22,26.66,50.80,-0.83,1.18,1.05,1721228262262
-3.09,-20.03,-27.00,0.65,-0.80,-0.22,1721228262272
5.87,-3.66,-23.41,-0.34,1.09,-0.59,1721228262282
-4.85,17.07,16.66,0.59,-0.66,-0.35,1721228262292
13.94,1.92,15.76,-0.87,-0.38,0.43,1721228262302
1.70,-11.68,68.32,-0.85,2.20,-0.24,1721228262312
-5.16,42.48,43.43,0.74,-1.00,0.72,1721228262322
4.62,-47.62,-26.94,-0.38,-0.01,0.69,1721228262332
-2.92,2.93,21.10,-1.00,2.38,-0.30,1721228262342
7.40,36.78,-8.30,0.51,-1.21,-0.39,1721228262352
9.27,5.99,-6.70,1.04,0.82,0.44,1721228262362
13.82,15.76,24.16,0.81,0.97,1.05,1721228262372
10.73,47.37,17.03,-0.26,0.32,0.80,1721228262382
14.26,-45.31,-6.46,-1.20,-0.34,-0.67,1721228262392
5.04,-25.78,5.64,0.30,0.58,-1.76,1721228262402
-31.11,-1.90,-10.34,0.94,-1.39,-0.69,1721228262412
-18.11,-57.44,-23.44,0.11,-0.03,1.02,1721228262422
-8.20,18.68,46.16,-0.05,1.79,1.22,1721228262432
19.15,78.45,25.54,0.58,-0.88,1.59,1721228262442
27.54,-0.63,-19.57,-0.18,-0.34,0.85,1721228262452
18.40,-20.58,20.14,-1.46,1.68,-0.87,1721228262462
-5.02,-7.08,19.08,0.76,-2.67,-1.56,1721228262472
-12.67,-36.20,-15.65,0.72,-0.41,-1.30,1721228262482
-24.09,-4.38,25.38,0.13,-0.14,0.67,1721228262492
-11.66,31.19,16.10,0.82,1.53,1.95,1721228262502
10.29,31.53,-22.80,0.30,-0.08,2.01,1721228262512
19.35,-53.55,-1.90,-2.85,1.40,0.61,1721228262522
-10.51,-19.40,78.45,-1.67,-1.20,-1.47,1721228262532
-1.62,65.89,50.36,1.74,-0.95,-1.65,1721228262542
-12.93,-24.75,-78.45,2.49,-1.50,-0.93,1721228262552
-22.93,13.85,-44.02,-3.95,4.05,0.44,1721228262562
3.50,-7.47,34.94,0.29,0.85,1.23,1721228262572
6.36,-7.72,3.54,0.55,-1.56,0.57,1721228262582
15.75,-10.76,33.13,-0.56,0.18,0.77,1721228262592
6.35,1.06,0.68,-0.19,-0.58,-0.01,1721228262602
7.23,5.18,25.07,0.20,0.54,-0.63,1721228262612
1.13,50.48,38.78,0.92,-0.62,-0.20,1721228262622
-1.02,25.79,-17.44,0.90,-0.48,-0.05,1721228262632
2.48,-52.60,-33.73,-1.35,-0.41,-0.20,1721228262642
-7.70,-49.32,56.44,-0.31,-0.19,-1.09,1721228262652
-27.61,58.75,58.85,0.36,-1.59,0.16,1721228262662
10.52,-18.68,-30.35,1.58,-0.82,0.50,1721228262672
6.18,-10.53,10.70,-0.97,1.77,0.84,1721228262682
35.77,65.54,78.45,-0.64,-0.55,0.54,1721228262692
-4.37,-23.31,18.81,-0.01,0.78,0.09,1721228262702
13.79,-43.13,-10.35,-0.85,-0.58,-0.52,1721228262712
2.93,46.40,-29.34,0.68,0.41,-1.34,1721228262722
-1.68,-27.97,-13.09,-0.51,-0.37,-1.42,1721228262732
-23.67,20.35,31.14,0.27,-1.08,-1.07,1721228262742
-6.49,-3.58,-5.34,0.23,-0.59,0.28,1721228262752
-2.00,-29.94,22.21,-1.80,1.08,-0.02,1721228262762
9.78,33.27,74.34,0.88,-1.13,0.09,1721228262772
4.64,-19.61,-46.54,0.68,-0.20,0.26,1721228262782
4.52,-4.20,-27.28,-1.40,1.23,-0.34,1721228262792
-22.78,57.39,61.11,0.54,-1.56,-1.08,1721228262802
1.30,16.06,-10.25,0.66,-0.96,0.02,1721228262812
15.01,-42.38,-61.71,-1.56,0.34,-0.05,1721228262822
3.18,-34.51,49.49,-1.90,3.33,-0.89,1721228262832
-78.45,-7.34,78.45,-0.08,-0.48,-0.83,1721228262842
-5.33,-7.93,1.35,0.22,-0.15,0.85,1721228262852
5.24,56.38,-50.75,0.45,0.47,1.38,1721228262862
7.68,-20.28,-21.85,-0.16,1.34,0.68,1721228262872
16.04,-22.30,8.50,-0.92,0.18,-0.70,1721228262882
-19.95,13.25,52.95,0.39,-0.55,-1.88,1721228262892
-7.66,28.23,22.06,0.83,-0.66,-0.60,1721228262902
-10.04,-43.83,-48.25,-0.35,-1.05,0.29,1721228262912
-2.70,-30.48,34.32,-1.97,2.94,0.79,1721228262922
8.43,62.40,26.29,0.49,-0.70,1.31,1721228262932
-0.04,-47.58,-35.65,1.15,-0.54,0.04,1721228262942
15.51,13.84,-0.23,-0.82,1.84,-1.21,1721228262952
24.41,78.45,53.88,-0.49,-1.88,-0.32,1721228262962
-3.45,4.29,18.32,0.21,0.61,-0.08,1721228262972
1.65,-23.42,-3.66,-0.85,-0.17,0.56,1721228262982
2.82,5.27,-10.94,0.11,0.52,0.15,1721228262992
8.34,-20.46,-32.53,0.35,-0.90,-0.43,1721228263002
-2.83,-32.81,23.50,0.02,1.21,-1.59,1721228263012
6.34,48.11,72.76,0.50,-1.47,-0.64,1721228263022
-24.54,11.65,-4.28,0.66,-0.40,-0.29,1721228263032
-9.57,-16.26,-0.40,-1.32,0.89,0.87,1721228263042
-2.24,-2.62,4.16,-0.29,0.69,1.53,1721228263052
16.61,-48.65,-11.97,0.21,-0.46,0.97,1721228263062
13.07,18.98,28.99,-0.71,1.90,-0.81,1721228263072
2.77,27.40,32.19,0.54,-1.98,-0.71,1721228263082
-1.02,-26.88,-12.28,-0.88,-0.47,-1.18,1721228263092
-8.90,19.12,34.70,-1.05,1.57,-1.36,1721228263102
-12.13,7.68,33.49,-0.16,-1.07,-1.14,1721228263112
-17.59,-18.14,-21.72,0.73,-0.07,0.21,1721228263122
-6.87,-12.51,2.74,0.64,1.18,1.52,1721228263132
13.83,0.52,10.52,0.84,1.86,1.50,1721228263142
21.06,10.86,1.53,-0.09,0.67,-0.35,1721228263157
18.87,14.38,24.05,-0.28,0.98,-0.89,1721228263161
0.21,-2.94,26.04,-0.05,-1.28,-1.92,1721228263171
-4.65,-21.91,-13.50,-0.10,0.33,-1.67,1721228263181
-23.24,9.36,24.32,-0.40,0.83,-0.10,1721228263191
-7.66,4.61,22.04,0.71,0.47,0.99,1721228263201
-10.27,-20.32,-22.48,0.29,-0.45,1.15,1721228263211
14.99,-5.70,-21.97,-0.37,1.29,0.45,1721228263221
5.79,6.30,50.93,-0.56,1.01,-0.81,1721228263231
-3.87,32.08,77.85,0.43,-0.28,-1.48,1721228263241
-12.12,-11.37,-32.43,0.07,-1.89,-1.03,1721228263251
-8.83,8.54,-11.87,0.02,2.17,0.34,1721228263261
-11.66,-46.46,1.25,0.04,-0.89,1.41,1721228263271
8.90,11.76,60.17,0.50,2.98,0.36,1721228263281
5.31,21.54,-11.34,1.30,-2.25,-0.29,1721228263291
7.39,-40.91,-38.27,-0.66,0.77,-0.67,1721228263301
-9.90,31.85,55.60,-1.00,1.33,-0.77,1721228263311
-1.34,39.16,19.68,0.23,0.01,0.13,1721228263321
-13.86,-36.56,-56.29,0.45,-1.08,0.52,1721228263331
6.06,-39.77,-43.99,-2.25,1.29,-0.38,1721228263341
-11.39,-11.18,56.77,-0.73,1.17,-0.20,1721228263351
-6.30,32.07,76.94,1.42,-1.16,0.14,1721228263361
-11.38,-24.13,-16.80,0.33,-1.48,-1.21,1721228263371
-12.81,49.58,8.77,-0.07,0.86,0.17,1721228263381
-8.91,-33.85,-1.59,-1.69,-0.68,1.25,1721228263391
-1.62,-9.17,47.54,-0.76,1.92,0.35,1721228263401
8.80,31.98,-1.30,1.35,-1.80,0.37,1721228263411
15.06,-5.03,-54.81,1.32,-0.31,-0.13,1721228263421
5.48,-34.64,20.77,-1.16,1.87,-0.51,1721228263431
49.82,78.45,65.22,0.59,-2.30,-0.67,1721228263441
-6.76,-18.86,2.11,-0.09,0.63,-0.11,1721228263451
-2.37,-48.13,-47.53,-0.31,-1.65,-0.47,1721228263461
-22.21,-17.94,1.84,0.98,3.40,0.61,1721228263471
4.20,-11.93,12.43,0.43,-1.55,2.07,1721228263481
17.13,-26.63,-28.63,0.09,1.49,1.02,1721228263491
-7.96,37.19,54.54,0.65,-0.67,0.57,1721228263501
18.45,-6.38,48.81,-1.65,1.18,0.48,1721228263511
6.40,-25.73,-4.26,-1.59,-0.22,-0.63,1721228263521
-6.63,1.38,13.38,-0.15,0.18,-1.95,1721228263531
-19.88,-11.43,-10.53,0.81,-0.84,-0.42,1721228263541
-4.43,-1.81,-12.33,0.50,0.53,0.82,1721228263551
24.07,66.03,16.96,-0.03,0.46,1.31,1721228263561
5.31,13.86,35.02,-0.45,0.47,1.45,1721228263571
14.45,-24.39,2.45,-1.65,-0.37,-0.28,1721228263581
5.83,-32.09,-23.85,0.81,-1.28,-1.50,1721228263591
-2.99,-22.53,7.11,-0.51,0.91,-0.45,1721228263601
-25.42,-14.83,58.88,0.36,-0.04,0.37,1721228263611
-8.19,20.04,-1.05,0.46,-0.33,1.01,1721228263621
16.85,17.60,17.63,-0.33,1.59,0.68,1721228263631
17.44,41.14,28.09,-0.19,-1.00,-0.16,1721228263641
11.74,-1.67,0.34,0.07,-0.74,-0.30,1721228263651
4.67,-25.68,-3.51,-0.21,0.06,-0.17,1721228263661
-3.32,8.09,8.88,0.38,0.27,-0.76,1721228263671
-4.93,13.82,13.58,0.58,-0.50,-0.59,1721228263681
-3.62,-3.35,9.60,-0.06,-0.13,-0.05,1721228263691
-3.63,0.22,-10.54,0.55,-0.01,-0.02,1721228263701
4.51,-7.27,-20.38,0.63,-0.09,0.43,1721228263711
10.36,-38.77,25.35,-0.49,1.05,-0.35,1721228263721
-3.39,63.49,53.10,1.71,-0.62,-0.74,1721228263731
-8.00,5.13,-35.58,1.53,-1.26,0.02,1721228263741
7.17,16.92,-69.64,-0.59,1.14,0.36,1721228263751
10.00,-38.56,23.51,-3.59,1.42,-0.54,1721228263761
-35.81,-15.67,78.45,-0.39,-2.70,-2.66,1721228263771
-42.32,74.89,42.38,4.31,-4.25,-1.33,1721228263781
-26.49,-65.98,-78.45,2.38,1.79,1.72,1721228263791
26.13,3.25,-71.72,-0.35,0.41,1.50,1721228263801
78.45,17.53,78.45,-0.42,4.37,-3.89,1721228263811
-42.03,46.68,-19.00,0.45,-1.13,0.42,1721228263821
-5.78,-27.85,-67.88,1.29,-0.12,1.43,1721228263831
27.62,-7.08,36.47,-2.45,4.37,-0.38,1721228263841
9.69,42.60,78.45,-1.09,-1.10,0.57,1721228263851
6.83,20.51,27.98,-0.67,0.97,0.54,1721228263861
0.61,-78.45,-36.06,0.62,-0.12,-0.54,1721228263871
8.32,39.76,-8.39,-0.22,2.21,-0.39,1721228263881
-8.55,-24.61,33.75,-0.51,-1.18,-0.21,1721228263891
-17.63,-7.54,14.88,0.98,1.16,-0.36,1721228263901
-1.52,18.45,-24.14,1.34,-0.62,0.47,1721228263911
-0.97,4.85,-17.31,0.15,0.52,0.94,1721228263921
18.91,-19.01,38.89,-1.58,2.24,0.58,1721228263931
17.26,47.32,74.36,0.37,-0.67,0.37,1721228263941
4.70,-18.81,-44.49,0.16,-2.00,-0.58,1721228263951
2.70,-16.93,2.36,-2.18,2.16,-1.48,1721228263961
37.06,10.70,73.01,-0.51,-1.12,-1.30,1721228263971
-11.37,-2.65,27.71,0.50,0.01,0.36,1721228263981
1.05,-7.10,-56.11,1.57,-1.66,-0.02,1721228263991
-4.64,-55.29,9.79,-1.06,2.11,-0.05,1721228264001
8.82,17.03,67.79,1.05,-0.17,0.08,1721228264011
5.87,54.63,-6.34,1.28,0.51,0.24,1721228264021
7.63,-2.48,-41.06,0.38,-0.60,0.43,1721228264031
6.38,-47.24,-8.47,-0.96,1.25,0.69,1721228264041
11.44,-1.44,36.78,0.28,1.02,-0.40,1721228264051
17.89,11.35,42.41,-0.47,-0.74,-0.52,1721228264061
-6.53,-7.12,-11.46,-0.71,-0.78,-0.78,1721228264071
-3.35,21.34,-2.15,0.72,0.76,-0.12,1721228264080
-1.36,-17.66,-10.89,-0.16,-0.34,0.60,1721228264090
-6.40,21.70,45.71,0.06,1.37,-0.08,1721228264100
-3.57,-4.34,5.90,1.84,-1.89,-0.32,1721228264110
-3.34,2.09,-38.72,0.69,0.51,0.10,1721228264120
-2.20,20.07,-14.91,-0.49,0.78,0.71,1721228264130
-7.34,-18.00,49.51,-3.82,1.01,0.44,1721228264140
3.17,0.17,78.45,1.47,-0.65,0.51,1721228264150
-3.97,13.97,-44.52,2.23,-2.47,-0.91,1721228264160
9.59,0.68,-51.88,-1.50,1.97,-0.83,1721228264170
-0.98,0.37,46.89,0.06,-0.01,-0.48,1721228264180
-13.91,78.45,45.29,0.06,-0.15,-0.02,1721228264190
-10.29,-20.93,-62.70,1.47,-1.98,-0.31,1721228264200
-7.79,-21.27,3.38,-0.75,0.94,0.27,1721228264210
-9.51,37.71,74.10,0.09,-0.28,0.51,1721228264220
-22.84,44.08,16.67,0.50,0.19,0.84,1721228264230
6.13,-57.25,-21.14,-1.14,-1.19,-0.55,1721228264240
-3.59,0.73,6.34,0.11,1.12,-1.06,1721228264250
0.82,-35.45,-8.94,-0.85,0.27,-0.34,1721228264260
-1.73,-9.68,37.11,0.08,1.63,0.45,1721228264270
0.78,9.67,-19.52,0.58,-1.16,0.28,1721228264280
8.64,-5.65,-10.51,-0.04,1.32,-0.34,1721228264290
6.19,2.83,14.64,0.75,0.13,-0.90,1721228264300
5.02,46.03,-0.61,0.73,-0.59,0.02,1721228264310
1.62,-49.71,-24.18,-0.40,-0.04,0.15,1721228264320
-7.89,-12.90,47.89,-0.66,0.78,-0.15,1721228264330
1.16,78.45,11.63,0.42,-0.69,-0.17,1721228264340
-2.25,-10.28,-19.66,-0.36,-0.82,0.22,1721228264350
2.16,-10.33,30.00,0.15,0.90,0.22,1721228264360
-4.83,3.65,10.43,0.31,-1.11,0.31,1721228264370
3.84,23.56,11.99,0.56,1.25,-0.29,1721228264380
7.98,21.17,21.71,0.15,-0.70,-0.62,1721228264390
-9.09,-3.77,-17.77,-0.04,0.04,-0.61,1721228264400
-13.39,8.21,-28.82,0.18,-0.29,-0.03,1721228264410
-4.83,-22.40,-36.17,-2.03,0.17,0.86,1721228264420
11.04,-38.57,63.27,-1.61,1.77,0.72,1721228264430
-24.48,37.39,78.45,1.41,-0.76,0.57,1721228264440
-3.07,5.07,-37.65,1.45,-2.35,-0.49,1721228264450
6.47,6.60,-63.52,-0.67,2.42,-0.17,1721228264460
-22.81,-64.91,47.67,-0.10,0.23,-0.42,1721228264470
-11.51,58.00,32.79,1.02,-2.47,-0.01,1721228264480
-12.08,14.03,-18.92,-0.23,-0.80,0.26,1721228264490
-5.83,-57.65,9.90,-1.34,-1.19,0.33,1721228264500
-10.74,-0.74,61.18,0.13,-0.19,0.72,1721228264510
-7.54,11.73,-42.35,1.04,-0.98,1.10,1721228264520
18.81,-46.59,-41.17,-0.31,1.45,1.04,1721228264530
15.54,-3.02,75.40,-1.44,3.47,-1.12,1721228264540
78.45,78.45,24.10,-1.90,-1.68,0.34,1721228264550
-26.32,-16.46,-53.52,-1.10,-0.16,0.83,1721228264560
19.76,-47.96,-72.72,-2.70,-0.08,-1.54,1721228264570
56.93,40.77,-78.45,-1.34,-3.64,0.25,1721228264580
-36.68,78.45,47.41,-1.94,4.37,-0.41,1721228264590
78.45,-20.96,-7.52,-2.47,2.88,-0.69,1721228264600
8.24,1.84,-35.78,-0.32,0.41,0.81,1721228264610
-5.31,-22.32,50.33,-1.12,1.56,-0.15,1721228264620
-6.18,27.46,27.44,1.04,-0.87,0.51,1721228264630
4.53,-9.08,-28.57,2.71,-0.26,0.60,1721228264640
9.85,15.49,8.54,0.82,1.45,0.48,1721228264650
5.31,78.45,8.98,0.73,-0.46,0.62,1721228264660
14.46,-78.45,-45.86,-1.71,-0.67,-0.11,1721228264670
1.50,-78.45,4.16,3.65,1.73,-0.87,1721228264680
-3.85,64.35,78.45,-0.43,-0.36,-0.73,1721228264690
-0.01,11.03,5.24,1.11,0.83,0.18,1721228264700
-1.41,-30.73,-70.26,2.85,-1.06,0.53,1721228264710
-1.66,-23.14,-33.96,-1.49,3.27,0.55,1721228264720
-1.93,22.37,45.10,-1.29,0.97,0.07,1721228264730
-5.96,-49.86,26.65,0.76,-0.70,-0.50,1721228264740
-8.96,-4.85,19.64,1.34,-1.52,0.29,1721228264750
-0.01,23.69,-1.52,0.07,1.00,1.26,1721228264760
15.45,28.68,-4.62,-0.23,0.31,0.83,1721228264770
18.49,-22.79,-7.68,-1.08,0.47,0.09,1721228264780
8.91,-22.16,33.02,-0.17,1.42,-1.92,1721228264790
-17.98,7.20,22.78,0.14,-1.51,-2.46,1721228264800
-26.07,-7.18,2.09,-0.54,0.06,-0.57,1721228264810
-19.71,28.41,21.98,0.56,0.30,2.03,1721228264820
4.11,19.98,-23.58,0.84,0.12,2.40,1721228264830
24.88,-9.16,-44.91,-0.06,-0.12,1.16,1721228264840
20.73,-55.63,29.35,-1.93,1.52,-1.60,1721228264850
-38.44,-18.05,63.02,0.53,-3.33,-2.21,1721228264860
-6.76,0.73,9.23,1.83,-0.72,-1.12,1721228264870
-8.28,25.11,-48.79,1.80,-0.39,0.64,1721228264880
-25.02,5.63,21.66,-1.31,1.28,2.04,1721228264890
20.09,-66.27,52.61,-2.42,1.50,0.89,1721228264900
16.40,-8.87,16.53,1.16,-0.76,-0.03,1721228264910
0.43,28.34,-51.35,0.55,-0.31,-0.57,1721228264920
-1.29,-41.95,-41.86,-1.06,0.18,-1.01,1721228264930
-8.13,-12.01,78.45,0.18,1.81,-0.98,1721228264940
-58.31,78.45,78.45,0.36,1.32,0.57,1721228264950
-15.15,21.40,-44.37,-0.14,-1.35,0.93,1721228264960
6.23,9.18,-44.68,-0.60,2.22,0.83,1721228264970
-2.14,-47.43,46.46,-1.06,1.30,0.61,1721228264980
15.74,7.58,32.11,1.13,-0.19,-0.23,1721228264990
6.52,18.49,-9.32,0.72,-1.71,-1.01,1721228265000
-7.42,-21.33,-7.62,-1.09,0.92,-0.92,1721228265010
-19.19,20.98,35.43,0.61,0.73,0.01,1721228265020
-7.07,7.86,-1.51,0.71,-0.45,0.81,1721228265030
5.35,-14.77,-12.50,0.00,0.14,0.46,1721228265040
8.18,-4.03,21.07,0.02,0.39,0.39,1721228265050
7.11,13.10,-19.20,0.90,-0.93,0.45,1721228265060
7.87,-72.25,-22.02,-1.74,0.89,-0.69,1721228265070
-27.70,23.80,78.45,-0.55,0.73,-1.17,1721228265080
2.44,-5.94,20.65,1.78,-0.77,-0.74,1721228265090
-3.52,10.81,-38.49,0.35,-1.29,0.85,1721228265100
-13.67,17.41,27.63,-0.46,1.84,1.42,1721228265110
12.62,14.28,22.82,0.12,-1.01,1.34,1721228265120
18.21,-43.29,-39.50,0.26,-0.06,-0.33,1721228265130
7.52,-27.82,-38.41,1.55,-0.46,-0.87,1721228265140
-11.34,4.38,-3.98,-0.80,0.77,-0.81,1721228265150
-12.59,5.45,58.64,0.19,0.14,-0.35,1721228265165
-9.91,29.62,58.90,0.76,-0.19,-0.08,1721228265169
-8.27,59.19,2.77,0.29,-0.65,0.49,1721228265179
-2.11,4.63,-23.28,-1.67,-0.52,0.96,1721228265189
4.57,-78.45,36.92,-1.00,0.62,0.69,1721228265199
-17.20,78.45,20.95,1.99,-0.15,-0.25,1721228265209
16.22,2.18,-27.55,1.50,-2.62,-0.16,1721228265219
-1.84,-14.17,-4.75,-0.35,1.47,-1.34,1721228265229
-34.40,17.68,45.10,-0.33,-1.30,-1.35,1721228265239
-18.40,52.75,50.65,0.27,-0.65,-0.47,1721228265249
-21.01,-48.61,-14.70,0.51,-1.40,0.53,1721228265259
5.65,-9.98,-26.73,-0.00,1.04,1.48,1721228265269
9.86,18.70,-1.92,0.39,0.69,0.70,1721228265279
2.16,14.57,1.36,0.11,1.30,0.07,1721228265289
20.42,-1.35,30.52,0.18,0.77,-1.20,1721228265299
-10.70,17.36,12.94,-0.05,-1.55,-0.55,1721228265309
1.79,-54.13,-10.99,-0.38,0.47,-0.87,1721228265319
-16.84,13.00,42.25,-1.13,-0.76,-0.12,1721228265329
-12.83,31.16,19.58,1.62,0.25,0.61,1721228265339
-5.64,-23.12,-24.34,0.88,-0.73,1.10,1721228265349
4.36,11.50,-32.01,-0.02,1.28,0.61,1721228265359
11.35,-51.11,5.60,-2.40,0.27,0.03,1721228265369
-8.87,35.32,78.45,0.55,-1.04,-0.76,1721228265379
-3.96,24.46,-11.40,1.49,-0.52,-0.69,1721228265389
-5.80,-45.81,-65.18,-0.03,0.34,0.46,1721228265399
17.55,21.44,61.12,0.22,4.37,0.95,1721228265409
2.18,11.47,-0.39,0.07,-1.04,1.33,1721228265419
24.30,-59.76,-45.15,-0.91,0.27,-0.35,1721228265429
13.74,-6.18,58.06,0.50,1.82,-1.01,1721228265439
-1.26,40.48,31.62,-0.79,-1.54,0.36,1721228265449
6.41,-1.48,-18.01,-0.55,1.23,0.70,1721228265459
-11.57,29.04,34.40,0.97,0.03,1.33,1721228265469
7.01,23.29,1.39,0.60,0.15,0.88,1721228265479
12.00,-65.41,-26.13,-0.26,-0.45,-0.44,1721228265489
1.75,-49.16,24.95,0.07,0.13,-1.28,1721228265499
-7.98,45.88,43.93,-0.39,-0.26,-0.48,1721228265509
-11.73,4.14,11.44,0.68,0.66,0.72,1721228265519
-3.80,-11.14,-17.61,-0.51,-0.63,1.60,1721228265529
9.69,9.07,30.36,-0.21,1.72,0.32,1721228265539
7.20,8.29,56.39,-0.15,-1.74,-0.20,1721228265549
2.39,-12.42,-29.83,0.89,-1.06,-0.60,1721228265559
-2.80,-22.48,-21.00,-0.82,0.87,-0.81,1721228265569
-16.45,22.83,49.59,-0.22,0.01,0.06,1721228265579
8.51,4.82,22.91,-0.51,0.54,0.63,1721228265589
3.81,-12.62,-0.65,-0.57,0.29,0.71,1721228265599
-5.84,23.72,37.81,0.61,0.84,0.50,1721228265609
9.77,17.37,16.15,0.33,-0.75,0.29,1721228265619
7.92,-24.31,-11.63,-1.26,-0.34,0.15,1721228265629
1.65,-33.27,-4.37,0.74,-0.07,-0.72,1721228265639
-0.37,-1.93,18.74,0.02,-0.39,-0.07,1721228265649
4.26,-21.16,39.53,-0.49,0.31,-0.43,1721228265659
-13.81,35.69,6.39,1.32,-0.37,0.32,1721228265669
1.60,1.38,-6.53,0.82,0.28,1.12,1721228265679
14.81,46.53,22.23,-0.48,1.07,0.67,1721228265689
3.99,-7.46,2.61,-0.13,-1.01,0.01,1721228265699
7.39,-63.11,-20.69,0.02,-0.26,-0.33,1721228265709
1.12,3.40,62.30,-1.23,2.27,0.05,1721228265719
-13.97,65.48,70.10,0.41,-0.29,0.06,1721228265729
-3.69,-1.77,-5.87,0.74,-0.45,0.42,1721228265739
10.63,37.36,-3.09,0.59,0.89,0.91,1721228265749
13.41,-33.66,-28.45,0.04,-0.44,0.35,1721228265759
13.27,-7.41,-10.15,0.28,1.09,-0.85,1721228265769
-12.16,9.39,44.09,0.54,-0.83,-1.51,1721228265779
-3.59,11.90,22.27,1.22,-0.85,-1.11,1721228265789
-11.10,-27.85,-22.68,-0.72,-0.61,0.03,1721228265799
-10.58,4.74,28.47,-1.52,1.01,1.25,1721228265809
-0.94,-2.56,47.95,-0.92,0.94,0.85,1721228265819
8.33,-26.48,21.58,-0.17,-0.30,-1.08,1721228265829
-4.50,35.04,15.99,1.49,-0.78,-1.22,1721228265839
-7.73,1.38,-42.36,0.73,-0.76,-0.22,1721228265849
-4.44,-28.95,-9.91,-0.90,1.17,-0.09,1721228265859
-23.27,20.15,64.48,0.50,1.05,0.21,1721228265869
8.28,38.88,27.95,0.32,0.22,0.60,1721228265879
20.39,-40.93,-46.05,-0.61,-1.03,0.10,1721228265889
-13.60,12.33,66.69,-1.48,1.43,-0.24,1721228265899
-0.78,-4.96,9.14,0.50,-2.03,-0.09,1721228265909
4.58,-49.50,-35.56,0.43,-0.37,-1.05,1721228265919
0.49,2.19,39.68,-0.15,2.18,-1.47,1721228265929
-35.91,-35.97,35.68,-0.61,-1.26,-0.19,1721228265939
-21.84,31.00,27.17,0.26,0.50,-0.30,1721228265949
-10.17,17.49,-18.36,0.57,-0.47,0.94,1721228265959
2.01,-23.83,-33.35,-0.77,0.44,1.37,1721228265969
13.24,6.58,57.81,-1.18,1.95,0.10,1721228265979
12.86,58.38,6.52,-0.21,-1.74,-0.48,1721228265989
9.71,-42.00,-37.40,0.83,-1.59,-1.37,1721228265999
-3.26,-28.01,18.40,-1.04,1.88,-1.12,1721228266009
-11.41,-25.32,13.57,1.25,-0.84,-0.35,1721228266019
-1.87,-6.22,-9.11,0.61,0.47,0.69,1721228266029
5.74,13.34,-4.94,0.31,0.68,0.77,1721228266039
-1.84,-23.29,5.69,-0.80,-0.16,0.54,1721228266049
4.44,-15.96,35.96,-0.84,1.30,-0.49,1721228266059
-0.37,34.39,3.51,1.47,-1.09,-0.97,1721228266069
-11.69,1.78,-47.78,0.14,-0.80,0.00,1721228266079
3.18,-78.45,6.90,-4.36,1.83,0.74,1721228266089
-18.47,43.79,78.45,2.06,-1.41,-0.04,1721228266099
-16.42,53.56,6.98,1.76,-0.23,-0.05,1721228266109
-11.71,78.45,-30.63,3.73,-1.45,1.10,1721228266119
27.09,78.45,-68.36,0.63,-4.37,0.56,1721228266129
78.45,28.13,78.45,-0.97,4.37,-0.75,1721228266139
-17.51,-78.45,36.64,2.56,-4.37,0.68,1721228266149
-27.64,78.45,-19.77,0.68,3.07,-0.49,1721228266159
4.46,-34.87,30.49,-0.63,-1.25,-0.24,1721228266169
-17.64,-8.71,30.70,0.63,2.80,0.05,1721228266179
-3.39,47.78,-22.92,1.60,-1.69,1.35,1721228266189
16.07,16.95,-11.45,-0.89,1.18,1.01,1721228266199
9.05,-46.64,30.16,-1.45,-1.35,0.40,1721228266209
11.01,5.11,32.16,1.27,1.01,-0.69,1721228266219
6.51,-3.30,-15.36,1.30,-1.26,-1.64,1721228266229
-18.95,-7.92,-31.21,0.27,0.15,-0.38,1721228266239
-13.21,33.83,30.25,0.64,1.82,0.40,1721228266249
-8.67,20.73,32.07,-0.22,-1.17,0.88,1721228266259
-1.55,-47.88,10.75,-2.17,0.17,0.80,1721228266269
17.09,-0.54,13.46,1.23,0.85,-0.24,1721228266279
8.58,36.09,-23.12,0.13,-0.20,-0.90,1721228266289
6.15,38.20,-7.20,1.13,0.66,-0.45,1721228266299
-10.84,7.64,-48.10,0.13,-0.52,0.28,1721228266309
0.25,-78.45,24.52,-3.78,3.61,0.42,1721228266319
-29.16,22.58,78.45,1.20,-3.14,-0.63,1721228266329
-0.82,-12.16,20.61,0.91,-0.58,0.08,1721228266339
-5.86,-0.23,-51.26,1.77,-0.97,0.96,1721228266349
-11.80,74.83,7.03,-0.74,3.31,0.20,1721228266359
0.50,-16.64,-9.63,-0.13,-2.21,-0.51,1721228266369
-0.05,-56.10,43.37,-1.21,1.40,-1.26,1721228266379
-9.14,22.51,47.61,1.69,-2.40,-0.88,1721228266389
-12.76,-42.70,-41.21,0.53,-0.42,0.81,1721228266399
6.24,5.26,-1.10,-0.80,1.26,1.46,1721228266409
18.60,78.45,30.76,-0.09,1.11,2.07,1721228266419
24.53,-47.13,-36.05,-0.64,-0.38,0.26,1721228266429
19.50,-53.52,-6.93,-2.29,0.45,-2.10,1721228266439
-35.47,69.34,68.10,-0.34,-3.31,-3.11,1721228266449
-5.68,-4.56,-4.01,1.52,-2.06,-1.14,1721228266459
-10.49,33.60,-35.82,0.40,0.52,0.60,1721228266469
-17.64,-48.77,43.58,-1.52,-0.05,1.34,1721228266479
-13.24,15.92,68.30,-0.97,0.49,1.28,1721228266489
7.86,-20.69,-2.94,0.37,-1.58,-0.10,1721228266499
7.86,15.45,-5.92,-0.01,1.08,0.27,1721228266509
8.77,-15.69,1.35,-0.01,-0.27,-0.17,1721228266519
-0.83,22.26,37.01,0.67,0.28,-1.12,1721228266529
-3.16,12.72,20.60,0.28,-0.63,-0.37,1721228266539
-9.31,18.97,-13.75,0.82,0.09,0.09,1721228266549
-4.73,-78.45,14.07,-0.74,0.19,-0.04,1721228266559
-10.72,37.91,40.96,-0.26,-0.01,0.09,1721228266569
-8.35,29.46,3.80,1.44,-0.66,1.05,1721228266579
13.05,-47.64,-26.49,0.24,-0.36,0.66,1721228266589
13.65,-21.53,29.00,-0.84,1.86,-0.69,1721228266599
-9.14,27.78,70.58,0.66,-1.57,-0.92,1721228266609
-13.98,13.35,-13.28,1.54,-0.49,-0.06,1721228266619
7.65,16.49,-24.42,0.41,0.72,1.04,1721228266629
10.46,-10.41,-34.77,-0.34,0.29,0.88,1721228266639
10.41,-75.06,35.75,-1.52,0.82,-1.09,1721228266649
-56.26,21.41,47.17,2.15,-2.52,-1.05,1721228266659
-0.20,-28.58,-37.72,1.13,-0.31,-0.54,1721228266669
1.60,4.60,-8.25,-1.57,0.43,-0.04,1721228266679
-16.65,15.21,47.07,-0.96,-0.22,0.19,1721228266689
4.23,14.80,78.45,0.15,0.34,0.18,1721228266699
-1.86,31.17,-28.04,0.90,-1.09,0.18,1721228266708
18.74,9.55,-51.92,0.43,0.44,0.20,1721228266718
6.26,-35.57,-25.30,-1.28,0.44,-0.13,1721228266728
-1.33,-52.64,55.53,-1.51,0.68,-1.25,1721228266738
-8.20,78.45,78.45,0.95,-2.39,-0.52,1721228266748
-19.48,8.07,-48.13,1.16,-0.65,-0.10,1721228266758
-15.55,20.84,-61.85,-1.70,0.64,0.75,1721228266768
24.95,-19.75,78.45,-2.28,2.23,0.36,1721228266778
-5.33,71.87,27.82,0.80,0.62,0.59,1721228266788
-12.31,-46.51,-55.32,1.65,-3.18,-0.63,1721228266798
-19.61,-24.86,-49.45,-0.30,0.55,-2.02,1721228266808
-20.53,72.17,70.40,-0.44,-1.35,-0.94,1721228266818
-32.83,-22.93,37.18,-0.55,-0.08,0.57,1721228266828
-3.36,-45.08,-41.33,1.58,-1.48,0.78,1721228266838
15.02,-44.66,7.78,-0.40,3.01,0.65,1721228266848
7.47,-17.78,78.45,-1.19,0.36,0.72,1721228266858
12.52,16.89,19.39,0.81,-0.04,-0.43,1721228266868
7.21,16.04,-14.03,0.65,-0.53,-1.01,1721228266878
-17.22,6.11,-6.95,0.01,0.86,-0.67,1721228266888
6.76,-10.65,26.14,-0.62,0.20,0.01,1721228266898
-6.12,-24.77,75.88,-0.94,0.15,0.87,1721228266908
-0.57,36.57,-5.35,0.21,-0.14,0.85,1721228266918
9.91,-3.48,-30.42,1.20,-0.70,0.06,1721228266928
2.82,-48.01,-15.98,-0.39,0.78,0.07,1721228266938
11.81,29.79,39.39,-0.23,1.71,-1.08,1721228266948
6.36,56.43,47.55,0.83,-0.53,-0.31,1721228266958
-4.47,7.88,0.49,0.02,-0.07,-0.30,1721228266968
-12.03,-40.13,28.56,-1.23,0.18,-0.27,1721228266978
-6.17,-0.75,-14.13,1.70,-0.50,0.25,1721228266988
-0.74,0.59,-55.14,0.65,-0.25,0.81,1721228266998
-0.03,-59.01,-3.04,-2.09,1.42,0.54,1721228267008
-35.79,52.79,78.45,0.62,-0.44,0.72,1721228267018
5.20,-1.52,51.51,0.49,1.63,1.48,1721228267028
15.90,-56.90,-62.38,0.93,-2.87,0.03,1721228267038
36.39,-5.95,65.53,-2.20,3.01,-1.04,1721228267048
-15.93,-12.72,62.26,-0.08,-1.91,0.01,1721228267058
-26.89,6.30,-19.95,1.60,0.24,-0.15,1721228267068
-6.71,14.82,-29.29,0.93,0.26,0.18,1721228267078
-6.41,21.38,13.87,-1.60,1.67,0.89,1721228267088
8.49,-16.86,78.45,-1.01,1.26,-0.90,1721228267098
-12.83,-17.09,24.06,1.07,-2.76,-0.81,1721228267108
-5.12,8.59,9.20,1.70,-1.72,-0.40,1721228267651
9.95,-3.49,-38.18,1.53,-1.45,-1.35,1721228267657
0.21,-18.94,-2.77,-1.10,1.20,-1.53,1721228267666
-48.08,16.04,28.40,0.06,-1.04,-0.43,1721228267676
-11.81,-25.98,22.88,1.00,0.20,0.90,1721228267685
9.48,-4.03,-1.11,-0.19,0.01,0.71,1721228267695
6.43,18.02,-19.67,0.46,0.42,-0.21,1721228267704
8.67,-34.21,-5.84,0.06,-0.21,-1.35,1721228267714
-13.21,18.24,32.24,-0.02,0.46,-1.16,1721228267724
-18.74,29.61,-2.94,0.91,-1.24,-0.52,1721228267734
-9.90,-13.56,-8.44,-0.36,-0.22,0.01,1721228267743
-10.90,-24.12,16.80,-0.83,0.60,1.25,1721228267753
8.56,-10.69,13.16,0.55,-0.75,1.08,1721228267762
11.10,-5.88,-26.48,0.61,-0.27,0.60,1721228267772
21.99,-38.81,-4.34,-0.81,1.20,-0.37,1721228267782
-1.30,14.51,40.49,-0.34,0.23,-1.91,1721228267792
-5.75,31.70,78.45,0.58,0.09,-1.44,1721228267802
-22.36,30.29,-17.18,0.61,-1.40,-0.69,1721228267812
-11.24,-31.70,-27.75,-1.72,-0.28,0.59,1721228267822
-10.49,-15.66,9.39,-0.63,0.59,1.42,1721228267832
4.37,-0.40,-1.45,0.46,0.04,1.61,1721228267842
18.85,-11.68,15.69,0.34,0.05,-0.08,1721228267852
0.09,6.01,23.04,-0.34,0.53,-1.34,1721228267862
-1.03,32.54,-22.63,1.23,-1.18,-0.69,1721228267872
0.25,-29.92,-13.06,0.10,0.64,-0.39,1721228267882
-12.99,44.21,31.03,1.70,-1.84,0.81,1721228267892
6.34,-39.20,19.09,-0.25,0.28,1.50,1721228267902
6.17,-25.91,5.42,-0.20,0.38,0.03,1721228267912
5.02,24.83,7.04,0.87,0.36,0.08,1721228267922
0.96,-38.74,3.34,-0.12,-0.46,0.19,1721228267932
-8.17,20.90,23.29,0.19,1.19,0.63,1721228267942
-4.58,-1.62,-7.90,0.80,-2.37,0.80,1721228267952
6.24,-10.63,7.62,-1.23,1.52,-0.00,1721228267962
-1.11,72.50,50.33,0.36,-0.54,-0.38,1721228267972
-4.11,-0.54,-50.06,1.53,-2.26,-0.28,1721228267982
-6.48,-54.12,-53.70,-3.29,1.08,0.16,1721228267992
-12.12,78.45,78.45,0.24,2.02,-0.51,1721228268002
14.38,78.45,78.45,2.16,-2.53,-0.50,1721228268012
-15.44,1.79,-78.45,4.23,-2.49,0.14,1721228268022
-50.80,-51.52,-17.03,-0.36,-4.37,1.00,1721228268032
53.59,-37.11,35.09,-3.08,4.37,1.26,1721228268042
-40.76,63.90,67.07,-0.65,-2.89,-0.59,1721228268052
-5.74,12.53,2.14,1.54,-1.09,-1.65,1721228268062
-21.83,-28.67,-54.47,-0.92,-4.37,-0.88,1721228268072
-35.88,-29.45,54.86,0.27,4.37,-0.05,1721228268082
-78.45,-32.49,78.45,-2.02,-0.52,2.57,1721228268092
-22.08,5.58,-58.27,-0.01,2.47,0.30,1721228268102
-8.08,-22.89,-43.35,-1.43,1.53,1.58,1721228268112
-11.92,35.36,46.34,-0.12,1.54,1.45,1721228268122
7.14,28.46,19.63,0.32,-1.93,0.59,1721228268132
13.93,-55.66,25.94,-2.62,0.79,0.02,1721228268142
10.83,40.80,31.68,0.62,-0.28,-1.65,1721228268152
7.99,1.21,-16.19,0.04,-1.88,-0.83,1721228268162
-6.42,9.46,8.86,-0.75,1.56,-0.79,1721228268172
9.77,52.90,14.21,0.19,-0.47,0.10,1721228268182
1.88,-78.45,-8.46,-0.52,0.13,-0.79,1721228268192
-11.41,7.51,57.25,-0.67,0.98,-0.99,1721228268202
-23.28,-3.92,16.20,-0.10,0.11,0.79,1721228268212
1.05,-59.36,-41.76,1.34,-0.33,0.89,1721228268222
16.10,18.43,40.46,0.80,3.84,0.23,1721228268232
10.11,49.24,55.20,0.17,-1.08,0.92,1721228268242
11.25,-51.96,-0.34,-0.57,0.17,-0.80,1721228268252
-5.08,-3.06,35.39,-0.22,0.77,-1.08,1721228268262
-5.62,30.23,-24.38,1.47,-1.41,0.15,1721228268272
9.44,-67.02,-57.57,-0.43,0.67,0.33,1721228268282
-15.03,-48.37,66.48,0.51,2.95,-0.92,1721228268292
-13.94,49.42,78.45,0.81,-1.87,-0.43,1721228268302
-10.78,-1.96,-63.32,1.98,-0.16,0.75,1721228268312
-2.49,-54.76,-38.50,-4.37,0.96,1.68,1721228268322
1.33,67.87,78.45,-0.58,-0.35,0.26,1721228268332
-13.08,-50.57,-4.51,-0.70,0.89,-0.50,1721228268342
11.11,0.48,-5.77,-1.19,0.30,-1.55,1721228268352
-29.25,25.69,64.60,-1.41,-0.70,-1.34,1721228268362
3.00,-6.38,43.32,-0.53,-0.04,-0.72,1721228268372
-9.15,41.45,-20.88,0.96,0.16,0.65,1721228268382
2.69,12.08,-1.62,0.99,0.97,0.78,1721228268392
-0.37,4.66,15.15,-0.23,-0.59,0.63,1721228268402
5.60,-25.78,4.31,-0.63,0.41,-0.53,1721228268412
3.37,-8.03,3.32,0.25,0.27,-0.94,1721228268422
-5.31,-24.53,5.24,-0.11,-0.67,-0.56,1721228268432
1.41,2.70,6.67,0.60,-0.18,0.11,1721228268442
-1.36,-44.88,10.20,-0.20,0.13,0.43,1721228268452
-6.88,34.34,36.89,1.19,-0.57,0.91,1721228268462
7.80,27.16,-7.03,1.18,-0.34,0.90,1721228268472
20.19,1.31,-18.37,-1.64,0.90,0.02,1721228268482
13.26,-32.88,28.75,-1.22,0.27,-1.27,1721228268492
-4.52,-16.08,34.31,1.44,-0.49,-0.78,1721228268502
2.75,2.32,-31.23,0.17,-0.90,0.44,1721228268512
-1.11,20.06,3.41,0.38,1.13,0.16,1721228268522
-6.14,6.67,4.04,0.90,-0.22,-0.58,1721228268532
-3.13,37.95,30.28,0.16,-0.44,0.07,1721228268542
4.36,-5.74,-34.89,-0.59,-0.21,0.25,1721228268552
-9.02,-37.94,-23.41,-0.65,1.18,-0.05,1721228268562
-10.64,7.17,51.07,-1.24,1.63,-0.93,1721228268572
-15.62,14.55,61.48,0.89,-1.65,-0.36,1721228268582
-7.67,-0.97,-13.71,0.71,-0.92,-0.00,1721228268592
-3.55,-7.40,3.48,-1.26,1.59,0.39,1721228268602
5.52,15.15,35.20,-0.92,-0.39,0.55,1721228268612
8.20,42.78,7.42,1.71,0.17,-0.27,1721228268622
2.07,-8.46,-40.70,0.37,-1.57,-0.24,1721228268632
0.12,-17.02,-40.64,-1.37,0.95,-0.75,1721228268642
-17.00,-40.16,43.71,0.16,-0.23,-1.21,1721228268652
-19.72,23.86,74.52,0.28,-1.13,0.20,1721228268662
-22.08,-3.45,-50.40,1.02,-1.05,0.58,1721228268672
17.93,19.26,-22.35,-0.68,2.05,0.69,1721228268682
5.20,-23.81,-16.94,-1.44,0.61,1.15,1721228268692
10.39,-21.46,78.45,-0.79,0.64,-1.25,1721228268702
1.11,23.25,38.04,0.95,-1.67,-1.18,1721228268712
-9.39,-34.07,-45.76,-0.04,-0.72,-1.21,1721228268722
-7.73,14.74,13.84,-0.95,1.54,-0.18,1721228268732
14.02,51.72,45.18,-0.73,0.25,1.08,1721228268742
-6.42,18.81,2.32,0.95,-0.37,0.26,1721228268752
12.36,17.80,-18.62,-0.50,-1.16,-0.10,1721228268762
0.46,-69.02,10.75,-1.59,0.42,-0.60,1721228268772
3.02,38.51,32.20,0.46,0.75,-0.23,1721228268782
-6.12,-14.18,-34.01,0.55,-2.44,0.05,1721228268792
-3.88,-42.83,5.93,-1.27,2.28,-0.65,1721228268802
-25.81,47.84,73.13,0.37,-1.59,0.15,1721228268812
-4.00,8.34,31.58,0.52,1.06,0.21,1721228268822
4.76,12.26,-5.65,-0.11,-0.26,0.24,1721228268832
3.25,25.93,5.73,0.78,1.00,0.28,1721228268842
8.79,-34.11,12.03,-0.23,-0.92,-0.02,1721228268852
-5.71,-9.03,16.88,-0.05,0.98,-0.34,1721228268862
-2.13,1.02,-12.50,0.39,-1.18,0.05,1721228268872
7.59,-15.71,15.99,0.22,1.67,-0.56,1721228268882
-19.91,27.96,49.56,0.91,-1.32,0.31,1721228268892
-14.23,10.50,-38.82,2.74,-0.34,0.75,1721228268902
1.55,-49.02,-53.40,-1.92,1.08,0.51,1721228268912
2.62,-6.68,78.45,-1.32,3.60,-0.10,1721228268922
-6.78,63.14,78.45,1.67,-2.19,-0.43,1721228268932
-6.89,9.62,-50.23,2.17,-2.03,-0.36,1721228268942
-9.97,-27.31,-55.80,-2.91,1.05,-0.38,1721228268952
-4.06,25.65,78.45,0.20,0.87,0.78,1721228268962
-11.36,78.45,13.20,0.51,-0.51,1.43,1721228268972
3.76,-59.21,-48.75,1.89,-3.19,-0.14,1721228268982
16.13,-16.72,-22.28,1.52,1.15,-1.21,1721228268992
-12.95,76.60,12.70,0.77,-2.20,0.01,1721228269002
5.44,-32.90,-33.52,-0.11,-1.25,-0.22,1721228269012
-11.46,-78.45,-1.78,-2.92,0.43,-1.12,1721228269022
17.94,53.25,25.60,1.31,-0.51,-2.08,1721228269032
4.96,76.60,36.65,2.64,0.13,0.73,1721228269042
9.16,-2.28,-78.45,4.37,-1.14,2.46,1721228269052
-0.35,-78.45,-30.54,-0.12,1.42,1.02,1721228269062
78.45,-78.45,78.45,0.40,4.37,-2.07,1721228269072
47.46,11.33,8.17,2.29,-4.37,-2.32,1721228269082
14.15,-5.61,-42.95,2.47,-3.62,-2.40,1721228269092
-3.44,-78.45,-78.45,-0.09,-0.12,0.22,1721228269102
-8.11,-72.76,78.45,0.00,4.37,0.97,1721228269112
64.91,78.45,56.39,-0.29,2.62,2.43,1721228269122
16.13,-57.12,-78.45,3.12,-0.11,-0.53,1721228269132
-36.83,-78.45,-78.45,4.37,-3.32,-1.12,1721228269142
-22.39,22.70,-24.23,-0.77,2.05,-1.69,1721228269152
-21.86,78.45,5.53,0.79,-1.14,-1.95,1721228269162
-7.13,33.38,-15.29,3.81,-4.37,0.36,1721228269172
10.07,-44.36,-78.45,-3.84,-0.64,0.60,1721228269182
55.82,-25.68,78.45,-1.81,4.37,-1.22,1721228269192
52.95,49.69,-1.51,4.30,3.59,-1.20,1721228269202
14.35,-73.04,-78.45,3.21,-3.35,-0.38,1721228269212
31.38,19.95,-16.66,-4.29,4.37,0.08,1721228269222
24.54,-78.45,72.83,-4.37,4.37,-0.11,1721228269232
-30.31,22.76,78.45,-0.21,-4.37,-1.21,1721228269242
-23.92,10.93,-52.14,2.76,-0.88,0.75,1721228269252
-47.12,5.13,-78.45,-2.43,-1.80,1.04,1721228269262
51.57,-5.11,66.85,-1.07,4.37,-0.89,1721228269272
-10.34,29.14,78.45,1.23,-4.37,0.70,1721228269282
-22.79,-78.45,-78.45,-0.34,-0.33,0.38,1721228269292
39.37,-35.88,-19.85,-2.06,1.22,-0.21,1721228269302
-5.80,78.45,78.45,-0.71,-1.08,0.17,1721228269312
-5.64,-3.03,26.95,1.06,0.01,1.54,1721228269322
9.30,-9.67,-45.60,0.30,-0.84,1.12,1721228269332
-5.03,12.89,32.85,-2.32,3.07,-0.16,1721228269342
5.72,-39.37,70.79,-0.36,-2.42,-1.67,1721228269352
-30.52,15.75,-0.52,1.17,-0.66,-1.85,1721228269362
-20.43,8.50,-57.97,2.30,-0.85,0.54,1721228269372
-30.70,-49.22,-58.82,0.09,-4.37,1.56,1721228269382
43.99,23.85,30.63,-2.04,4.37,0.59,1721228269392
-32.17,5.80,78.45,-3.27,1.54,0.75,1721228269402
-11.49,11.25,-20.29,1.37,-0.61,0.13,1721228269412
16.35,-65.49,-78.45,4.37,-1.74,-0.07,1721228269422
-42.07,-41.01,-22.46,-1.25,-4.37,0.95,1721228269432
28.10,-21.67,-10.40,-3.97,4.37,-0.61,1721228269442
-22.63,-20.52,50.73,1.72,0.95,-1.30,1721228269452
-42.48,78.45,78.45,-0.43,-2.30,0.00,1721228269462
8.35,78.45,21.06,1.19,1.59,0.88,1721228269472
-2.50,-78.45,-78.45,1.80,-0.99,1.31,1721228269482
-21.16,-51.89,-32.70,-3.07,-4.02,0.83,1721228269492
30.80,-52.85,61.50,-0.74,4.37,-1.01,1721228269502
-2.06,48.12,54.84,-0.41,-3.60,-1.52,1721228269512
-2.72,26.06,27.16,2.27,-4.37,-0.84,1721228269522
-25.65,-12.52,-24.20,-0.81,0.14,-0.22,1721228269532
-1.23,50.85,2.42,0.84,0.58,1.35,1721228269542
12.76,-46.11,-59.41,1.37,-0.46,0.86,1721228269552
10.26,-78.45,-42.06,-1.49,1.06,-1.45,1721228269562
-48.81,41.64,78.45,-1.08,-3.50,-2.59,1721228269572
-8.01,77.51,78.45,-0.08,2.19,-0.13,1721228269582
-39.54,-37.91,-78.45,4.37,-0.38,2.96,1721228269592
9.35,-35.87,-59.03,-0.49,-4.37,3.67,1721228269602
53.42,-55.48,-2.51,-4.37,4.37,-0.27,1721228269612
-0.94,-11.42,15.91,1.00,3.02,-3.79,1721228269622
1.18,78.45,17.87,1.12,0.27,0.64,1721228269632
-26.35,-76.85,-47.66,-0.21,0.51,1.62,1721228269642
-28.35,33.42,-26.31,0.23,-0.09,0.24,1721228269657
-18.52,6.05,-0.51,-0.55,-2.05,1.13,1721228269661
13.76,-75.18,-58.33,-1.05,2.29,0.97,1721228269671
-8.96,-35.02,22.49,2.11,1.93,-0.46,1721228269681
-6.77,20.33,31.71,1.98,-0.93,0.51,1721228269691
-5.46,-72.90,-35.35,-1.98,0.53,0.26,1721228269701
-26.09,58.89,78.45,-1.19,1.03,0.06,1721228269711
-0.71,-26.71,1.41,-0.16,2.20,0.68,1721228269721
14.95,15.01,-52.47,0.28,-1.31,0.19,1721228269731
11.31,37.17,-9.75,0.21,1.62,-0.61,1721228269741
11.34,-34.65,-28.51,-0.64,-1.49,-0.22,1721228269751
-1.42,-35.11,61.13,0.86,1.44,-1.59,1721228269761
18.56,70.65,71.64,2.38,-3.90,0.52,1721228269771
-17.35,35.08,-24.01,-0.08,1.72,0.70,1721228269781
19.86,46.19,-20.51,0.02,-0.12,1.61,1721228269791
3.82,-78.45,-36.81,-1.73,1.18,1.34,1721228269801
21.96,-18.95,8.76,-1.89,2.16,-1.33,1721228269811
-18.34,12.96,78.45,-0.75,-1.54,-2.50,1721228269821
-12.92,30.28,10.99,1.16,-1.06,-1.65,1721228269831
-26.65,-14.05,-67.32,2.76,-0.57,0.26,1721228269841
-17.95,7.97,1.33,-1.68,3.20,1.59,1721228269851
17.81,4.80,29.28,-0.72,2.46,1.59,1721228269861
-1.87,-10.54,1.81,0.15,0.34,0.26,1721228269871
9.70,17.09,-24.91,0.95,-0.21,-0.70,1721228269881
0.48,-60.47,-16.94,-1.98,0.25,-1.16,1721228269891
-14.48,53.17,78.45,-1.22,-0.26,-2.04,1721228269901
-17.01,37.81,42.86,2.29,-1.56,-0.18,1721228269911
-15.16,-77.44,-52.93,0.62,-1.16,1.45,1721228269921
34.56,18.03,-63.48,-1.33,3.47,1.28,1721228269931
8.42,15.84,-4.19,-1.10,-0.05,1.42,1721228269941
26.19,-75.92,47.41,-2.04,0.99,-1.20,1721228269951
-55.70,-3.30,78.45,1.06,-2.98,-3.31,1721228269961
-28.49,-27.13,3.63,-1.13,-1.35,-1.52,1721228269971
-19.77,68.51,-62.62,2.35,1.68,0.57,1721228269981
-8.66,-43.10,-7.91,-0.87,1.13,2.51,1721228269991
33.14,10.27,52.94,0.65,1.81,0.61,1721228270001
-10.22,57.84,-1.64,0.82,-1.25,0.72,1721228270011
30.24,-14.91,2.38,0.37,-0.26,-0.27,1721228270021
8.16,-10.28,26.01,-1.43,2.17,-1.67,1721228270031
-10.37,66.38,-1.40,0.95,-2.87,-2.07,1721228270041
-11.80,-65.08,-58.06,1.89,-0.55,-1.27,1721228270051
-2.45,-62.83,-31.53,-0.32,0.23,1.25,1721228270061
-18.37,54.68,78.45,-1.62,0.32,0.79,1721228270071
9.22,78.45,78.45,2.37,-2.12,1.69,1721228270081
12.87,-65.85,-56.36,3.56,-2.08,1.27,1721228270091
67.37,2.32,22.80,-4.37,4.37,1.30,1721228270101
54.02,-78.45,78.45,-4.16,4.37,-0.69,1721228270111
-70.82,-75.83,6.30,-1.22,-0.42,0.86,1721228270121
3.23,-68.36,-43.50,1.52,-0.61,-2.56,1721228270131
-61.49,-38.75,-78.45,0.86,1.41,-0.24,1721228270141
-25.90,52.67,68.59,-0.20,-1.95,0.93,1721228270151
10.49,4.84,18.15,0.89,-0.50,-0.16,1721228270161
9.29,23.87,-39.03,1.88,-2.22,0.20,1721228270171
-4.52,-31.52,-21.74,-0.24,0.83,0.19,1721228270181
5.84,-20.05,30.74,-0.35,1.16,-0.17,1721228270191
-17.98,78.45,39.76,0.34,-0.17,-0.78,1721228270201
-10.29,-35.74,-15.81,0.12,-1.60,-0.68,1721228270211
6.36,26.18,-14.51,0.28,1.16,0.68,1721228270221
2.51,17.96,-5.11,0.97,-0.63,0.51,1721228270231
8.42,24.19,-5.77,-0.43,-1.14,0.21,1721228270241
1.46,-51.47,-4.83,-1.93,0.36,-0.09,1721228270251
-4.49,-41.05,78.45,0.11,0.61,-0.35,1721228270261
-7.60,78.45,47.53,1.39,0.06,-0.60,1721228270271
-13.10,-24.00,-63.57,1.92,-2.21,-0.83,1721228270281
0.32,-6.70,-74.61,-1.15,-0.57,0.15,1721228270291
-14.88,14.25,42.28,0.23,2.15,1.58,1721228270301
9.00,-15.21,59.52,-1.88,0.29,2.01,1721228270311
11.49,-27.82,32.72,-2.65,2.96,-0.26,1721228270321
-5.50,19.34,-17.70,0.94,-2.28,-1.66,1721228270331
-3.68,-8.32,-55.07,0.96,1.23,-0.80,1721228270341
-5.00,4.96,43.80,-0.28,3.83,0.38,1721228270351
-2.83,-30.51,30.35,-2.51,-2.03,1.08,1721228270361
-26.81,-55.44,63.05,-0.05,1.03,-0.07,1721228270371
1.18,78.45,24.27,0.98,-0.15,1.40,1721228270381
21.87,-14.79,-60.43,2.51,-0.65,2.55,1721228270391
0.85,-78.45,-78.45,3.74,0.24,1.19,1721228270401
-10.08,-10.36,-38.27,-2.41,-1.91,-0.22,1721228270411
-39.29,78.45,78.45,-0.51,-4.37,-4.37,1721228270421
48.60,25.67,40.02,4.00,-4.16,-2.18,1721228270431
-52.21,-57.35,-78.45,4.37,-1.20,1.07,1721228270441
-78.45,-75.80,-78.45,-0.16,-0.95,3.17,1721228270451
78.45,-45.83,-78.45,-4.37,4.37,0.71,1721228270461
33.67,-78.45,78.45,-1.19,4.37,1.27,1721228270471
46.31,78.45,78.45,-0.72,-4.37,-0.73,1721228270481
-26.39,14.86,41.92,2.40,0.58,-1.23,1721228270491
-2.71,28.83,-77.86,4.37,-4.37,1.03,1721228270501
6.33,-46.64,-78.45,-2.03,3.02,0.83,1721228270511
-5.17,-48.05,-50.79,-4.37,1.43,0.64,1721228270521
-78.45,27.80,78.45,-0.15,-2.34,-2.93,1721228270531
-1.01,78.45,78.45,3.05,0.32,-0.47,1721228270541
-18.88,-78.45,-78.45,4.37,-4.02,0.76,1721228270551
9.56,-28.93,-78.45,-0.13,1.68,0.78,1721228270561
-15.59,2.47,-78.45,-4.37,2.83,0.17,1721228270571
-78.45,78.45,78.45,-0.21,-0.08,-1.79,1721228270581
-1.54,27.09,78.45,1.50,-2.12,-0.31,1721228270591
75.88,50.67,-5.37,-3.81,-0.60,-0.32,1721228270601
-0.26,0.09,-78.45,-0.11,-1.38,-1.73,1721228270611
-23.56,-49.95,78.45,-2.00,4.37,-0.66,1721228270621
13.94,64.49,27.56,-0.39,-1.91,-0.57,1721228270631
18.36,-62.20,-57.79,0.67,2.87,-1.26,1721228270641
4.29,-3.08,-2.43,-4.32,2.67,-1.05,1721228270651
11.09,78.45,78.45,0.81,-3.19,0.57,1721228270661
5.02,-75.07,8.16,0.33,0.95,0.81,1721228270671
3.94,16.33,-49.59,0.28,0.70,-0.06,1721228270681
-9.50,24.07,40.82,-1.67,1.24,-0.36,1721228270691
-1.38,8.16,16.87,0.67,-0.91,-0.57,1721228270701
4.45,-33.72,-14.92,-0.36,1.27,-0.19,1721228270711
1.42,-15.62,-10.61,-1.06,0.40,0.37,1721228270721
5.22,5.67,28.34,0.44,0.74,-1.07,1721228270731
-2.22,24.63,43.56,0.45,-0.96,-0.81,1721228270741
-11.88,5.89,-0.74,-0.41,0.36,0.03,1721228270751
-13.72,2.59,34.66,-0.71,1.23,0.79,1721228270761
5.58,-30.52,-29.96,-0.10,-1.35,0.72,1721228270771
8.60,-24.46,-18.84,-2.29,1.69,-0.13,1721228270781
-26.24,54.31,78.45,-0.06,-1.21,-1.46,1721228270791
12.03,3.40,1.21,2.63,-1.48,-1.16,1721228270801
0.45,2.60,-46.71,1.04,-0.78,-0.09,1721228270811
-14.90,19.00,5.52,-1.23,2.64,0.55,1721228270821
16.09,-59.53,78.45,-2.03,1.19,-0.24,1721228270831
-11.25,38.28,27.18,2.25,-1.12,0.17,1721228270841
6.29,-15.64,-35.94,0.22,-0.04,0.07,1721228270851
2.22,27.28,21.86,0.18,2.95,-1.64,1721228270861
16.70,78.45,59.30,0.48,-1.12,-0.40,1721228270871
-8.32,-28.53,-22.69,-1.00,-0.27,0.31,1721228270881
10.78,1.46,5.33,0.11,1.22,0.05,1721228270891
-0.18,-24.08,-29.64,0.90,-0.61,1.02,1721228270901
20.14,-28.33,-14.73,0.20,0.73,0.01,1721228270911
-5.09,28.91,20.77,0.43,0.01,-1.04,1721228270921
-1.45,-8.11,20.93,0.22,-0.34,-1.25,1721228270931
-14.48,14.68,29.26,0.36,-0.13,-0.63,1721228270941
-12.24,50.20,-21.93,0.81,0.24,1.27,1721228270951
4.36,-16.90,-56.19,0.73,-0.18,1.36,1721228270961
8.86,-72.65,-28.69,-2.40,1.48,-0.23,1721228270971
2.79,-0.04,43.50,-0.71,-0.31,-1.34,1721228270981
-30.89,16.60,78.45,1.41,-1.12,-1.46,1721228270991
-17.30,24.73,-28.15,2.07,-1.91,-0.92,1721228271001
-1.67,27.69,-78.45,2.28,1.32,-0.01,1721228271011
-42.31,-4.02,-51.90,0.01,-4.37,1.90,1721228271021
37.87,31.57,1.59,-2.23,4.37,1.53,1721228271031
14.57,-78.45,72.30,-2.24,0.31,-0.27,1721228271041
-16.80,78.45,78.45,2.03,-3.38,-1.90,1721228271051
-18.84,72.55,-78.45,2.82,-0.08,-0.11,1721228271061
22.09,-31.40,-78.45,-0.07,0.05,0.56,1721228271071
-36.34,-3.37,-27.80,-4.37,1.10,0.46,1721228271081
28.85,78.45,78.45,0.05,3.92,-1.10,1721228271091
20.39,43.98,26.69,2.05,-2.17,-1.30,1721228271101
12.69,-78.45,-68.07,0.55,0.92,-0.41,1721228271111
-78.45,-34.61,-60.97,-0.33,-1.93,-0.14,1721228271121
12.41,78.45,69.96,-0.65,4.37,-0.92,1721228271131
23.85,78.45,-10.79,2.15,-0.69,0.71,1721228271141
8.06,-27.24,-58.88,0.93,0.49,1.72,1721228271151
9.80,25.17,78.45,-1.11,4.37,1.25,1721228271161
-0.01,2.98,35.88,-0.65,-1.79,0.82,1721228271171
19.14,-47.11,-7.43,0.55,-0.40,-0.96,1721228271181
4.44,-29.48,18.23,-1.09,0.96,-1.01,1721228271191
-8.81,64.53,45.73,-0.60,-2.69,-1.32,1721228271201
-24.01,35.20,-14.69,2.38,0.73,0.16,1721228271211
-6.51,-30.93,-43.77,-0.27,-0.40,1.61,1721228271221
4.07,-31.82,41.60,-0.97,1.95,1.15,1721228271231
8.09,26.47,65.09,1.02,-0.04,0.81,1721228271241
2.19,-18.08,-19.92,0.94,-1.56,0.27,1721228271251
5.10,2.30,18.41,-0.03,1.89,-1.02,1721228271261
-6.52,75.21,48.82,0.01,-2.25,-0.30,1721228271271
-4.19,-69.50,15.38,0.82,-1.50,-0.71,1721228271281
-16.86,43.09,6.86,0.18,0.68,-0.38,1721228271291
13.09,30.73,6.66,0.33,-1.03,0.47,1721228271301
3.57,-14.18,5.43,0.61,0.26,-0.16,1721228271311
-4.35,46.66,1.08,1.33,-0.47,-0.16,1721228271321
-1.95,-45.47,-5.22,-1.05,-0.17,-0.01,1721228271331
-9.27,17.35,59.17,-0.01,2.20,-0.15,1721228271341
1.03,74.86,15.29,1.37,-0.98,0.73,1721228271351
7.52,-49.05,-67.12,0.33,-1.66,0.88,1721228271361
8.85,-78.45,51.41,-0.92,1.70,0.40,1721228271371
2.20,7.76,74.03,0.30,-0.69,0.25,1721228271381
-13.00,44.65,-20.18,1.34,-0.72,-1.36,1721228271391
-3.58,19.97,-48.60,1.06,-1.35,0.02,1721228271401
-14.94,-37.72,-43.55,-0.31,0.50,1.39,1721228271411
-11.02,78.45,49.76,-0.43,3.23,1.23,1721228271421
13.72,-0.31,-9.87,-1.69,-1.25,0.56,1721228271431
53.97,-32.21,70.97,-2.87,1.39,-0.60,1721228271441
47.03,78.45,78.45,-2.10,4.37,-2.37,1721228271451
6.04,4.68,19.98,1.49,-0.54,0.32,1721228271461
-8.31,-28.36,-40.82,1.19,-0.88,0.85,1721228271471
-35.81,72.90,65.96,-1.71,1.78,0.95,1721228271481
3.55,35.72,13.55,-1.01,0.48,0.91,1721228271491
9.83,-78.45,-60.79,-1.77,-0.34,0.74,1721228271501
27.18,15.67,78.45,-1.65,0.08,-1.68,1721228271511
-10.33,-10.11,64.54,-2.04,-0.84,-0.78,1721228271521
-20.87,-21.80,66.94,0.39,0.89,-0.84,1721228271531
-13.80,19.27,19.50,0.30,-1.31,0.32,1721228271541
-7.08,30.87,-25.30,-0.79,-0.02,1.70,1721228271551
13.65,16.52,-14.09,-0.27,0.42,1.63,1721228271561
13.27,-25.52,-47.73,0.46,0.27,0.01,1721228271571
12.44,-77.67,20.22,-3.70,2.96,-1.48,1721228271581
18.05,75.39,78.45,-0.14,-3.20,-2.83,1721228271591
-0.37,78.45,77.25,0.20,-0.48,-0.34,1721228271601
-9.09,36.77,-78.45,4.37,-0.42,1.97,1721228271611
37.73,-42.44,-78.45,0.25,-3.91,1.62,1721228271621
56.28,-78.45,17.83,-4.37,4.37,-1.78,1721228271631
-62.19,78.45,-76.45,-0.51,-4.37,-2.90,1721228271641
1.81,11.89,58.68,-0.01,1.16,-1.80,1721228271651
6.41,-2.25,7.71,-0.83,-0.32,1.54,1721228271666
10.63,9.43,15.78,0.54,1.17,1.65,1721228271670
0.78,0.49,-3.15,1.42,0.63,1.32,1721228271680
11.87,53.44,17.59,1.53,1.03,0.15,1721228271690
7.63,31.97,18.20,0.91,-0.53,0.24,1721228271700
16.05,-57.72,-33.33,0.09,0.50,-0.23,1721228271710
-3.50,-40.37,73.65,1.37,-1.11,-1.39,1721228271720
5.68,78.45,17.93,1.57,-1.04,-1.15,1721228271730
-3.91,-31.00,-47.45,2.27,-0.54,-0.52,1721228271740
-10.73,-58.41,-18.05,1.41,-4.37,0.09,1721228271750
-34.44,63.67,78.45,-1.69,4.37,0.92,1721228271760
-58.76,-7.19,22.48,-0.21,1.08,1.78,1721228271770
9.55,-46.53,-5.22,-0.28,0.44,0.07,1721228271780
-4.47,10.62,18.74,-0.37,1.02,-0.72,1721228271790
-5.39,-0.16,28.80,0.19,-0.39,-0.66,1721228271800
-11.63,28.05,-20.14,1.22,-0.57,0.52,1721228271810
3.99,-45.23,-32.30,-0.73,0.80,0.83,1721228271820
-1.86,10.30,47.66,-0.34,0.80,-0.25,1721228271830
-3.12,43.98,25.76,0.79,-0.22,-0.31,1721228271840
-0.97,-36.03,-60.03,-0.43,-0.35,0.27,1721228271850
0.52,-40.47,5.55,-2.22,2.04,-0.09,1721228271860
-15.94,11.25,78.45,-2.48,0.34,-1.15,1721228271870
10.78,78.45,70.07,2.31,-0.99,0.09,1721228271880
-18.71,-56.22,-56.34,0.01,0.12,1.72,1721228271890
19.80,-35.81,-55.50,-1.48,-0.54,1.10,1721228271900
3.82,78.45,40.81,-0.04,2.07,0.08,1721228271910
10.60,-41.59,-17.23,0.72,-2.46,-0.84,1721228271920
14.77,16.78,4.44,-0.68,1.89,-1.91,1721228271930
-14.78,18.78,25.04,0.00,-2.73,-0.73,1721228271940
-2.90,-57.71,-6.28,-0.38,1.00,-0.60,1721228271950
-20.71,43.51,54.05,0.59,-0.97,0.81,1721228271960
-7.69,2.02,8.58,-0.08,1.35,1.08,1721228271970
4.94,-5.21,-14.14,0.54,-1.01,-0.10,1721228271980
-19.58,2.85,-11.13,-0.00,0.22,-0.19,1721228271990
3.67,-30.28,-34.35,-0.20,-0.48,0.46,1721228272000
-3.41,-54.50,32.45,-2.50,2.72,0.47,1721228272010
52.50,78.45,-50.85,1.08,-2.88,-0.35,1721228272020
-3.71,56.44,3.62,3.23,0.96,0.64,1721228272030
36.09,-14.92,-78.45,4.37,-2.04,0.78,1721228272040
-12.71,-78.45,-25.14,-4.29,-4.37,0.01,1721228272050
24.74,78.45,45.45,-2.05,4.37,-0.88,1721228272060
9.29,25.41,21.59,0.74,2.03,-0.45,1721228272070
5.72,-78.45,-78.45,2.71,-1.61,-0.96,1721228272080
-12.27,61.35,14.44,-0.59,-1.02,0.06,1721228272090
-4.60,17.53,64.54,0.90,0.06,-0.16,1721228272100
6.34,-39.86,-3.01,0.61,-1.64,-0.37,1721228272110
3.29,54.78,-22.91,0.53,1.03,0.22,1721228272120
-0.45,-4.61,18.13,0.45,0.33,-0.42,1721228272130
3.89,58.39,46.59,0.16,-0.34,-0.60,1721228272140
-7.89,-0.65,-16.42,0.18,-1.40,-0.20,1721228272150
-8.32,-78.45,-26.77,-0.42,1.38,0.01,1721228272160
-14.47,-36.23,-11.41,1.51,-0.39,-0.02,1721228272170
-9.43,-14.78,27.10,-0.75,-0.10,0.97,1721228272180
7.56,-2.40,24.72,-0.12,1.79,0.51,1721228272190
14.03,78.45,17.59,1.38,-0.17,0.94,1721228272200
7.45,-9.48,-48.60,1.51,-2.07,0.25,1721228272210
13.71,-78.45,-36.25,-4.37,2.64,-0.50,1721228272220
67.41,78.45,57.13,0.64,3.54,-2.62,1721228272230
-30.05,10.29,41.71,0.21,-2.42,-1.26,1721228272240
-25.02,-15.92,-7.23,1.32,-0.35,-0.56,1721228272250
-31.22,44.06,-20.81,1.22,-0.28,1.94,1721228272260
4.98,-78.45,7.20,-2.58,1.78,1.52,1721228272270
-3.63,41.27,56.22,0.29,0.19,-0.32,1721228272280
-0.40,3.76,-42.48,1.54,-3.37,-0.47,1721228272290
13.67,12.76,-78.45,-1.20,3.75,-1.60,1721228272300
-21.32,-78.45,32.13,-0.91,-4.37,-0.46,1721228272310
-3.50,60.20,59.36,4.37,-4.37,-1.53,1721228272320
-16.77,27.22,-65.40,4.37,-0.37,-0.36,1721228272330
52.62,76.63,-78.45,1.99,2.63,0.07,1721228272340
-27.51,37.60,-78.45,-0.60,-0.97,0.92,1721228272350
4.41,-78.45,78.45,-0.35,4.37,-1.66,1721228272360
10.03,5.63,78.45,2.70,-4.37,0.97,1721228272370
-13.62,12.68,-58.69,2.61,-2.97,-0.61,1721228272380
11.68,4.14,-56.12,-1.46,0.55,-0.23,1721228272390
-10.96,-42.60,32.66,-2.62,4.37,0.22,1721228272400
-30.44,5.67,78.45,0.80,-0.93,0.89,1721228272410
-20.60,-74.89,-54.52,-1.76,-0.13,0.53,1721228272420
-19.66,-78.32,-58.73,0.11,-2.92,-1.31,1721228272430
0.14,17.53,62.42,-3.64,4.37,0.32,1721228272440
78.45,58.77,-17.92,0.50,-1.86,-0.29,1721228272450
8.76,-43.09,-59.70,3.23,-2.42,0.72,1721228272460
19.68,50.86,-18.55,-0.68,3.11,0.63,1721228272470
33.69,34.45,63.97,-3.79,1.37,0.16,1721228272480
17.12,-78.45,49.10,-0.60,1.16,0.94,1721228272490
10.47,40.45,-30.00,0.79,0.47,-1.49,1721228272500
1.02,16.44,-30.64,1.44,-1.56,-1.63,1721228272510
-15.44,-50.63,-5.25,-1.12,0.67,0.38,1721228272520
-13.14,33.03,55.70,-0.80,0.77,0.42,1721228272530
0.57,78.45,14.66,1.62,-0.52,1.06,1721228272540
-7.99,-78.45,-66.74,0.32,-1.28,1.01,1721228272550
17.02,0.84,-31.78,-1.38,-2.57,-0.26,1721228272560
0.10,-14.83,44.94,0.11,-1.87,0.11,1721228272570
-8.71,-15.57,26.58,0.65,0.63,-0.18,1721228272580
-9.32,54.10,-20.81,1.10,-1.42,0.79,1721228272590
2.44,-26.66,-40.79,-0.53,0.35,0.93,1721228272600
-6.07,-34.78,59.06,0.09,0.87,-0.15,1721228272610
47.00,78.45,78.45,0.12,-1.95,0.99,1721228272620
0.32,-61.33,-38.91,1.11,-1.27,-0.33,1721228272630
1.03,-34.40,-31.79,0.01,-1.02,-1.18,1721228272640
-39.90,60.82,78.45,-0.54,-0.92,-1.18,1721228272650
-19.22,26.22,37.15,2.32,-0.80,0.22,1721228272660
-1.83,3.73,-54.28,1.67,-1.07,1.62,1721228272670
10.98,-45.88,-54.05,-3.00,1.25,0.96,1721228272680
-6.86,-3.30,78.45,-0.68,0.97,-0.99,1721228272690
6.00,78.45,69.01,1.05,-1.57,0.20,1721228272700
-0.79,-32.63,-51.67,3.13,-0.55,0.02,1721228272710
18.27,-36.63,-78.45,2.62,0.69,-0.03,1721228272720
17.94,-69.83,78.45,-1.37,0.59,-0.38,1721228272730
1.90,24.44,78.45,0.68,-1.42,0.88,1721228272740
-10.94,-52.94,-33.37,-0.72,-0.40,0.63,1721228272750
-2.09,2.28,-7.26,-1.69,1.93,-2.05,1721228272760
-26.30,36.83,3.26,0.53,-0.24,-0.08,1721228272770
1.99,-61.13,-15.24,0.50,0.42,0.45,1721228272780
13.06,-46.76,55.86,0.50,0.74,-0.81,1721228272790
-36.42,-12.47,78.45,0.37,-2.16,0.28,1721228272800
-13.29,-44.56,-53.47,1.51,0.29,1.00,1721228272810
10.62,-63.95,-78.45,0.93,-2.30,0.38,1721228272820
-10.50,-33.82,31.82,-1.35,-4.37,-0.55,1721228272830
-51.03,65.51,31.28,2.57,-2.69,-0.95,1721228272840
13.91,-16.27,-29.58,2.36,-2.33,-0.81,1721228272850
0.31,21.74,-48.60,0.56,0.38,-1.07,1721228272860
-14.14,-68.60,20.58,-0.75,0.60,0.22,1721228272870
-15.24,-5.17,35.07,1.06,0.05,0.64,1721228272880
-13.15,78.45,-7.63,1.48,0.22,1.72,1721228272890
14.26,-76.78,-16.74,-3.06,0.59,0.95,1721228272900
-10.60,-30.06,78.45,0.14,2.58,-2.35,1721228272910
-27.39,-7.80,17.58,0.71,-2.34,0.59,1721228272920
-2.36,-45.95,-36.53,1.16,1.60,0.95,1721228272930
13.99,11.08,-38.30,1.05,-0.96,0.76,1721228272940
1.64,13.39,-11.95,-1.42,1.83,-0.07,1721228272950
-0.01,-1.45,78.45,-1.97,-1.60,-1.80,1721228272960
-3.47,78.45,78.45,0.72,0.53,-0.28,1721228272970
-17.82,-78.45,-78.45,2.57,-0.79,0.66,1721228272980
-27.44,-0.31,-12.95,-4.37,-2.34,1.69,1721228272990
30.15,-48.35,58.24,-4.37,4.37,0.56,1721228273000
10.96,78.45,78.45,2.12,-4.37,-0.80,1721228273010
-47.60,-29.68,-7.41,0.49,4.37,1.39,1721228273020
-22.38,-23.26,-62.52,3.80,-3.73,1.62,1721228273030
8.48,0.43,-70.94,-0.78,1.76,-0.12,1721228273040
-11.70,-12.94,36.84,-0.14,4.37,-0.74,1721228273050
13.99,57.91,56.36,2.90,-4.37,-0.81,1721228273060
-19.53,-50.14,-41.32,-0.01,0.08,-0.25,1721228273070
-1.27,-56.56,-34.43,-1.36,0.67,0.91,1721228273080
-16.46,67.74,78.45,-1.90,0.61,0.44,1721228273090
8.17,43.61,19.40,4.37,-1.92,-0.71,1721228273100
7.83,-62.93,-71.06,1.24,-0.84,1.55,1721228273110
-23.04,-11.79,-21.38,-4.37,-4.37,0.72,1721228273120
27.72,78.45,78.45,-1.43,4.37,-0.39,1721228273130
8.42,-17.48,48.27,-1.25,0.28,0.63,1721228273140
-12.33,-78.45,-47.76,-2.52,-1.81,-0.46,1721228273150
3.24,-4.87,4.62,0.33,3.53,0.18,1721228273160
2.32,-15.54,75.61,0.38,-1.57,-0.12,1721228273170
-8.24,3.99,-45.14,0.90,-1.59,-0.58,1721228273180
3.22,-4.49,21.75,-0.30,0.85,-0.30,1721228273190
-17.51,64.61,49.62,0.47,-0.45,0.49,1721228273200
-3.29,-11.39,-35.97,-1.68,0.02,0.69,1721228273210
10.24,-56.52,-20.26,-0.71,1.30,0.45,1721228273220
0.74,36.20,78.45,-1.12,0.12,-1.84,1721228273230
0.55,3.50,78.45,0.24,1.65,-0.85,1721228273240
-23.46,33.30,-62.53,1.63,-2.88,0.70,1721228273250
8.89,-46.33,4.94,-1.72,2.44,0.36,1721228273260
14.04,17.13,44.09,0.05,0.34,-0.35,1721228273270
0.97,27.89,-27.11,2.31,-1.20,-0.20,1721228273280
3.73,-57.66,-34.41,-0.82,0.42,-0.54,1721228273290
19.17,22.19,41.85,-0.09,2.12,-1.05,1721228273300
25.90,15.31,24.14,-0.42,0.15,-1.32,1721228273310
-34.92,-21.66,4.72,-0.75,0.49,1.27,1721228273320
8.59,51.58,-3.17,1.38,0.57,1.33,1721228273330
6.66,-46.95,-34.34,-0.27,-1.22,0.72,1721228273340
-0.85,-37.41,31.55,0.08,1.36,-0.81,1721228273350
4.79,5.66,44.54,0.28,-2.09,-1.45,1721228273360
-21.84,9.16,-1.69,-0.08,0.01,-1.48,1721228273370
-10.17,36.05,-5.02,0.91,-0.02,0.84,1721228273380
-2.26,-20.82,-20.68,0.60,0.10,1.48,1721228273390
11.03,-20.55,-1.50,0.11,0.83,0.52,1721228273400
13.24,6.44,34.01,0.73,0.12,-0.33,1721228273410
6.90,13.38,21.48,-0.09,-0.24,-1.40,1721228273420
-9.56,11.37,33.90,-0.00,-0.63,-2.46,1721228273430
-20.73,12.93,-41.69,0.95,-1.88,-0.89,1721228273440
-16.71,-53.07,-56.83,-1.80,0.89,0.62,1721228273450
1.76,-27.42,78.45,1.12,2.50,2.34,1721228273460
31.23,42.39,78.45,0.61,1.37,0.78,1721228273470
13.29,-11.85,-50.65,0.94,-1.28,0.36,1721228273480
29.63,-5.62,-9.22,-2.11,1.78,-0.72,1721228273490
5.84,-14.60,55.54,-1.25,-1.20,-2.02,1721228273500
-0.80,-10.87,8.12,1.15,-1.16,-1.54,1721228273510
-13.89,-8.04,-10.30,0.20,-0.22,-0.96,1721228273520
-17.62,50.79,4.14,0.80,-0.34,0.62,1721228273530
1.85,-20.80,8.42,0.07,0.79,0.90,1721228273540
1.51,29.14,39.28,0.45,0.78,0.32,1721228273550
6.78,28.19,-25.32,0.65,-1.38,0.37,1721228273560
15.84,-63.62,-43.76,-1.75,0.62,-0.61,1721228273570
26.74,32.00,-13.15,2.23,-0.82,-0.69,1721228273580
12.64,-6.66,63.02,-0.93,-0.43,0.05,1721228273590
-11.43,36.43,24.68,1.14,-0.53,-0.55,1721228273600
-2.14,14.59,-48.35,0.95,-1.16,0.41,1721228273610
2.17,-41.41,-29.59,-1.84,1.22,0.41,1721228273620
20.00,40.51,72.85,-1.15,1.76,-0.27,1721228273630
-0.90,-12.32,41.19,1.08,-1.29,-0.27,1721228273640
-8.55,1.31,-38.68,0.49,-0.79,-1.15,1721228273650
-12.14,-24.50,14.93,-1.20,1.15,0.10,1721228273660
-2.74,66.25,44.87,1.64,-0.60,0.31,1721228273675
4.02,78.45,-3.74,1.92,0.30,0.72,1721228273679
2.20,-19.01,-65.51,0.51,-0.50,0.72,1721228273689
-5.99,-55.19,-65.70,-3.17,0.18,-0.11,1721228273699
1.14,-78.45,78.45,-0.01,1.55,-1.14,1721228273709
-78.45,78.45,78.45,0.59,-0.44,0.75,1721228273719
0.69,-22.81,-70.26,1.71,-0.14,0.28,1721228273729
4.81,-78.45,-78.45,4.37,-0.30,0.47,1721228273739
3.91,-17.18,-43.18,-0.14,-3.11,0.11,1721228273749
-78.45,53.30,78.45,-0.02,-1.11,-0.42,1721228273759
-44.47,-37.16,-6.79,-1.36,-2.39,0.36,1721228273769
5.59,31.88,-67.36,1.58,-0.16,1.16,1721228273779
6.00,-22.93,1.16,-0.19,1.19,1.60,1721228273789
5.80,31.77,63.03,0.38,-0.11,0.41,1721228273799
5.89,17.65,-4.29,0.74,-0.39,-0.05,1721228273809
11.58,-44.88,5.86,-0.38,0.53,-1.34,1721228273819
-5.19,11.15,28.60,-0.03,-0.21,-1.01,1721228273829
-14.17,-14.44,-20.84,-0.41,0.52,0.23,1721228273839
-1.05,-32.45,32.22,-3.36,2.06,0.76,1721228273849
-31.86,57.08,78.45,-0.38,-0.94,-0.17,1721228273859
5.46,65.24,17.95,0.85,-0.09,1.05,1721228273869
9.34,-19.82,-34.25,1.11,0.01,1.39,1721228273879
17.22,-33.97,-6.91,-0.69,1.29,0.16,1721228273889
3.23,-4.31,41.92,-0.15,0.44,-1.36,1721228273899
-4.43,-1.22,-2.71,0.51,-1.22,-1.42,1721228273909
-15.68,10.96,15.57,-0.61,0.94,-0.66,1721228273919
-13.03,58.05,26.57,0.63,-0.34,1.01,1721228273929
3.91,-36.50,-59.61,-0.33,0.62,1.42,1721228273939
-11.99,-78.45,-78.45,-1.55,1.16,0.85,1721228273949
21.64,25.93,78.45,0.98,-2.31,-1.15,1721228273959
-73.52,78.45,78.45,0.54,-0.70,0.35,1721228273969
-7.03,-39.83,-78.45,1.94,-1.52,0.66,1721228273979
3.96,10.80,-35.67,-4.37,1.50,0.12,1721228273989
-10.24,56.18,78.45,-1.09,-1.76,-0.35,1721228273999
38.40,-45.91,-39.15,2.43,0.03,-0.81,1721228274009
6.29,7.02,-76.51,0.34,1.10,0.44,1721228274019
-7.64,6.93,52.73,-1.31,0.75,0.01,1721228274029
7.53,-24.58,43.49,2.43,-2.01,-1.30,1721228274039
-12.60,41.43,-3.64,1.09,-0.44,0.75,1721228274049
5.36,32.62,5.63,-1.13,0.93,0.67,1721228274059
-0.33,-10.42,35.96,-1.78,0.23,-0.20,1721228274069
9.66,-9.93,-28.89,1.00,-0.99,0.10,1721228274079
3.78,-78.45,-9.42,-2.14,1.59,-0.49,1721228274089
31.29,51.33,58.57,-1.41,0.16,-2.59,1721228274099
-10.40,25.66,-4.52,1.48,-1.53,-0.02,1721228274109
-8.63,44.86,-76.28,1.42,0.12,0.61,1721228274119
-17.78,23.17,22.37,0.16,2.65,0.76,1721228274129
28.05,-24.62,18.23,-1.06,-0.39,0.50,1721228274139
12.53,-12.85,41.28,0.42,0.60,-0.52,1721228274149
3.08,7.67,42.19,0.27,-0.30,-0.82,1721228274159
-10.45,19.23,3.83,0.71,-0.53,-0.62,1721228274169
6.38,16.64,-42.49,1.14,-1.07,0.60,1721228274179
0.13,-32.73,-16.74,-0.16,1.17,0.19,1721228274189
-6.22,37.71,36.87,0.60,-0.29,-0.37,1721228274199
1.64,-12.33,-0.30,-1.48,-1.24,-0.65,1721228274209
-3.05,1.69,31.45,-0.90,1.03,-0.98,1721228274219
-12.45,40.71,54.51,-0.29,-1.16,0.72,1721228274229
5.15,-20.82,8.34,-0.53,1.09,0.37,1721228274239
9.87,41.17,-15.32,0.44,-0.40,0.17,1721228274249
2.95,-3.59,-40.35,1.19,-0.37,0.52,1721228274259
13.12,-59.45,8.22,-0.54,2.10,-0.13,1721228274269
1.53,59.61,62.71,1.04,-1.63,-0.47,1721228274279
22.04,-26.70,20.28,0.69,-1.48,-0.41,1721228274289
-12.14,18.72,4.92,-0.81,0.13,-1.51,1721228274299
-8.03,27.62,-24.41,0.71,-0.79,0.24,1721228274309
-6.91,-78.45,-14.30,-0.37,1.24,0.77,1721228274319
-14.76,54.76,36.64,1.54,1.18,0.54,1721228274329
11.27,20.32,-8.48,0.78,-0.72,1.10,1721228274339
11.98,-53.50,-3.88,-1.95,1.81,-0.27,1721228274349
-8.47,54.62,72.79,0.20,-1.05,-0.70,1721228274359
-7.62,-24.61,-40.48,0.75,-2.39,-1.27,1721228274369
-35.88,-78.45,-59.52,-1.77,1.81,-0.77,1721228274379
-38.00,37.46,63.35,-3.07,1.74,-0.08,1721228274389
0.65,72.63,46.48,1.31,-0.09,0.37,1721228274399
-6.13,26.44,-50.12,1.35,-2.23,1.27,1721228274409
9.63,-78.45,-62.87,-2.24,2.18,0.98,1721228274419
22.90,-78.45,46.71,3.96,1.93,-0.65,1721228274429
-1.83,78.45,78.45,0.25,-2.49,-0.63,1721228274439
-13.15,-47.47,-25.99,1.18,-1.21,-0.66,1721228274449
2.60,56.66,-34.25,-0.25,-0.34,0.53,1721228274459
-6.64,10.40,40.59,0.08,-0.75,0.60,1721228274469
3.45,-11.24,15.90,0.31,-1.82,0.14,1721228274479
1.63,-51.13,-6.23,0.09,-0.77,0.22,1721228274489
-6.95,60.04,24.27,0.73,1.15,-0.07,1721228274499
-6.17,20.37,20.45,-0.45,-2.14,0.42,1721228274509
-3.89,-75.05,-0.34,-0.36,0.56,0.25,1721228274519
8.73,36.37,28.46,1.46,0.49,0.15,1721228274529
-21.11,4.92,-30.55,-0.33,-0.43,1.08,1721228274539
19.37,-78.45,17.60,-0.97,2.48,0.20,1721228274549
-3.00,78.45,45.99,1.87,-0.70,0.07,1721228274559
20.80,19.06,-50.39,0.63,-1.13,-0.18,1721228274569
-3.59,-69.52,-0.68,-1.34,2.75,0.07,1721228274579
-15.45,78.45,31.73,0.19,-0.73,-0.17,1721228274589
-2.95,4.52,-18.67,0.85,-0.76,0.13,1721228274599
-5.46,1.65,0.54,-0.55,0.71,0.48,1721228274609
1.81,0.38,-18.72,0.49,-0.89,-0.04,1721228274619
9.14,-40.26,-47.91,-1.88,-0.03,0.02,1721228274629
-4.48,-1.76,74.33,-0.16,1.33,-0.46,1721228274639
-10.81,14.82,67.44,1.11,-0.91,0.03,1721228274649
-11.25,-32.12,-50.06,0.81,-0.10,0.04,1721228274659
11.43,12.81,0.79,-2.01,1.93,0.48,1721228274669
0.30,-21.05,59.37,-1.51,-0.24,0.12,1721228274679
-8.59,60.77,14.17,2.35,-0.58,0.25,1721228274689
3.55,-61.45,-70.72,-0.96,-1.56,0.77,1721228274699
-2.15,-78.45,-78.45,-0.22,-1.79,1.17,1721228274709
-59.71,29.03,78.45,-2.63,4.34,-2.04,1721228274719
0.36,-31.51,48.08,4.37,-4.37,-1.43,1721228274729
-8.87,-8.18,-78.45,2.52,-0.59,0.79,1721228274739
2.31,28.25,-48.16,-0.13,-4.37,2.05,1721228274749
61.00,-78.45,67.79,-4.37,4.37,-0.18,1721228274759
3.25,-4.21,78.45,0.45,-4.37,-0.77,1721228274769
7.91,61.50,-22.91,2.10,-1.85,-0.65,1721228274779
-10.81,18.00,-78.45,-0.03,-2.29,0.71,1721228274789
-17.49,-5.73,-3.22,-4.37,3.02,0.14,1721228274799
-78.45,28.32,44.35,4.37,-2.90,-0.21,1721228274809
62.98,61.60,-15.94,1.89,0.45,-0.11,1721228274819
11.03,-40.68,-45.56,-0.46,-1.72,0.27,1721228274829
2.16,0.91,-21.95,-3.81,1.99,-0.59,1721228274839
-2.10,78.45,77.72,-0.31,1.63,-0.73,1721228274849
27.93,-7.79,45.81,1.21,0.96,0.24,1721228274859
-1.49,35.70,-63.38,1.47,-0.71,0.42,1721228274869
13.68,-49.73,-66.15,-0.33,0.41,0.35,1721228274879
25.57,-48.50,-23.33,-0.16,0.11,-0.81,1721228274889
-36.80,11.94,54.26,-1.13,2.34,-0.27,1721228274899
70.39,74.16,73.40,-0.38,-3.08,0.17,1721228274909
-15.05,11.52,-54.20,0.96,0.10,0.42,1721228274919
1.77,-11.23,-70.38,-1.46,1.01,0.96,1721228274929
5.54,-78.45,70.26,-2.08,2.08,1.12,1721228274939
-18.99,53.95,78.45,2.83,-1.57,-0.24,1721228274949
15.27,-9.11,15.76,-1.48,-0.55,-0.30,1721228274959
4.27,23.37,26.64,0.26,0.89,-1.25,1721228274969
-11.18,30.19,-36.48,-0.14,-1.17,0.37,1721228274979
6.11,-13.35,-34.11,-0.91,0.98,1.11,1721228274989
2.72,-2.39,73.38,-0.23,2.17,0.82,1721228274999
9.76,1.06,48.60,-0.09,-1.05,-0.27,1721228275009
5.03,6.64,-45.73,0.64,-0.79,-0.61,1721228275019
-2.64,-39.51,28.55,-1.59,2.47,0.02,1721228275029
-16.50,61.29,59.30,2.07,-2.12,-0.36,1721228275039
-2.38,-6.24,-41.22,1.83,-0.40,1.03,1721228275049
6.68,-4.41,-16.06,-0.79,0.47,0.69,1721228275059
1.53,46.07,36.71,-1.35,1.07,-0.44,1721228275069
8.88,-76.05,6.96,-0.15,-1.60,-0.55,1721228275079
3.55,49.11,26.03,0.31,0.34,0.09,1721228275089
6.04,15.95,6.48,0.20,0.01,-0.14,1721228275099
1.39,-8.30,4.12,-0.02,0.40,-0.25,1721228275109
-5.21,-3.40,6.07,-0.16,0.03,-1.21,1721228275119
-8.74,-3.97,13.39,-0.03,-0.17,-0.44,1721228275129
-8.10,33.07,-28.22,0.68,-0.47,1.08,1721228275139
19.15,-59.58,-13.54,-0.68,1.50,0.47,1721228275149
-8.83,44.46,65.45,0.14,0.29,0.19,1721228275159
-5.97,-23.98,-10.84,0.18,-0.79,-1.19,1721228275169
-23.31,-22.17,71.46,0.09,-0.13,-0.87,1721228275179
27.20,60.50,78.08,0.93,-0.52,0.32,1721228275189
-2.21,6.68,-72.92,1.48,-0.26,1.10,1721228275199
26.46,-36.00,-78.45,-0.37,1.46,1.08,1721228275209
45.18,-78.45,56.65,-3.25,4.37,-2.52,1721228275219
-17.37,74.81,78.45,2.10,-4.37,-2.23,1721228275229
-31.62,78.45,-0.06,3.66,-2.57,-0.17,1721228275239
-14.61,-1.55,-78.45,3.90,-0.99,1.79,1721228275249
-8.85,19.67,-78.45,-1.95,0.22,0.79,1721228275259
-72.90,25.74,78.45,-3.06,4.37,-3.09,1721228275269
56.63,-60.28,53.01,1.81,-1.53,-0.89,1721228275279
-22.66,-1.54,-78.45,2.99,-1.68,0.62,1721228275289
-34.81,-30.10,-28.82,-0.26,-0.83,0.93,1721228275299
-78.45,37.17,-20.54,1.90,1.89,-0.74,1721228275309
-5.86,-20.63,-13.64,0.57,-0.35,-0.77,1721228275319
-14.26,-20.80,-45.32,-1.52,-0.11,-0.12,1721228275329
-4.59,74.55,38.42,-1.71,2.55,0.65,1721228275339
2.15,2.08,26.40,-0.98,0.49,0.65,1721228275349
-0.06,-25.73,-20.78,0.40,-1.09,-0.41,1721228275359
9.06,19.16,11.65,-0.29,1.89,-1.00,1721228275369
-12.15,-28.47,30.01,-0.83,-1.87,-0.60,1721228275379
-14.10,56.07,37.80,0.87,0.75,-0.24,1721228275389
-5.57,-3.85,-44.77,0.30,-1.70,0.29,1721228275399
-2.85,-68.29,-2.48,-2.99,2.54,0.41,1721228275409
6.05,27.87,23.14,-0.08,0.80,-0.91,1721228275419
-3.35,44.53,23.23,1.56,-2.52,-0.34,1721228275429
-1.29,8.27,-42.82,0.28,-0.76,0.34,1721228275439
17.21,-10.75,56.53,-1.75,3.80,0.35,1721228275449
-21.27,-36.14,-20.37,-0.40,-1.51,0.18,1721228275459
13.17,28.25,-36.97,1.69,0.47,-0.71,1721228275469
-8.53,-25.30,-11.67,-0.27,0.17,-0.24,1721228275479
-7.71,0.35,57.07,0.40,0.68,-0.54,1721228275489
-2.37,23.29,67.54,0.10,-0.69,0.47,1721228275499
-3.13,0.73,-13.82,0.36,-0.21,0.20,1721228275509
2.46,14.58,-12.04,0.33,0.42,-0.20,1721228275519
-13.27,-19.27,17.31,0.21,-0.61,0.10,1721228275529
1.19,-15.44,11.00,0.89,-0.44,0.36,1721228275539
-0.65,4.85,-15.56,0.65,0.03,0.33,1721228275549
4.13,17.11,53.46,-0.24,0.94,-0.66,1721228275559
-0.01,63.39,20.08,0.73,-1.59,-0.00,1721228275569
-7.65,-74.26,-59.38,-0.64,-0.35,0.40,1721228275579
3.49,-78.45,-3.22,3.62,1.93,-0.20,1721228275589
-9.64,58.61,78.45,-1.81,-2.14,-0.04,1721228275599
-46.19,35.34,78.45,1.73,2.50,-0.70,1721228275609
0.51,2.75,-9.07,0.24,-1.80,0.06,1721228275619
1.35,42.45,-59.74,0.56,0.36,0.14,1721228275629
8.39,-2.48,2.56,-1.11,0.15,-0.24,1721228275639
31.07,75.19,64.58,0.36,-0.63,-0.36,1721228275649
2.84,-78.45,-34.70,-0.94,-1.30,-0.61,1721228275659
-12.21,-65.33,-37.98,4.37,2.13,-1.62,1721228275669
1.30,1.75,-18.47,-2.61,-0.08,0.20,1721228275684
-9.75,-78.45,40.12,-1.99,-0.00,-0.05,1721228275688
-0.87,-37.83,24.96,1.37,2.09,1.14,1721228275698
7.05,23.87,-16.71,1.53,-1.11,1.14,1721228275708
17.03,7.32,6.26,-0.42,1.49,-0.37,1721228275718
-2.15,32.33,57.83,-0.46,-1.05,-0.61,1721228275728
-5.12,5.67,22.86,0.30,-0.23,-0.73,1721228275738
-7.39,-15.22,-51.57,0.18,-1.35,0.27,1721228275748
-7.93,-48.49,-20.42,-2.22,2.33,0.61,1721228275758
-7.86,46.33,38.33,-0.26,1.30,0.16,1721228275768
0.20,0.76,7.42,2.40,-1.78,0.14,1721228275778
-3.35,32.96,-24.76,0.88,-0.13,0.90,1721228275788
6.63,-4.02,-4.94,-1.25,0.74,1.16,1721228275798
12.84,-55.32,55.07,-2.75,1.68,-1.70,1721228275808
-27.08,55.70,70.33,0.75,-2.22,-1.22,1721228275818
-4.89,-22.49,-56.12,1.48,0.60,-0.16,1721228275828
6.81,-29.74,-78.45,1.74,2.75,1.09,1721228275838
25.03,-58.11,-64.99,-0.36,1.50,1.09,1721228275848
2.13,78.45,78.45,-0.68,1.76,-1.28,1721228275858
78.45,78.45,-23.82,-1.53,2.05,-1.02,1721228275868
-4.93,-78.45,-78.45,4.37,-3.51,-0.79,1721228275878
3.09,-7.24,-56.56,-2.36,-4.37,-0.10,1721228275888
32.14,-49.35,78.45,-2.03,4.37,-0.10,1721228275898
60.01,78.45,-11.51,0.08,-1.28,-1.13,1721228275908
3.69,7.27,-33.28,0.05,0.21,0.01,1721228275918
-14.70,-60.51,21.75,-2.80,2.41,0.41,1721228275928
-4.46,28.90,78.45,-0.37,1.06,-0.22,1721228275938
-11.85,5.54,-29.73,1.55,-2.56,0.76,1721228275948
11.63,-48.00,-47.35,-0.52,1.18,-0.21,1721228275958
-32.26,46.73,78.45,-2.07,0.93,-0.75,1721228275968
-35.16,78.45,74.09,-0.69,0.46,-0.36,1721228275978
-5.62,-1.78,-27.72,0.47,-1.22,0.76,1721228275988
-3.70,-30.69,-68.25,-1.33,0.42,1.10,1721228275998
14.96,-51.42,5.26,-4.37,-0.68,-0.40,1721228276008
-41.07,72.91,52.38,-0.02,-1.14,-1.99,1721228276018
4.41,39.97,25.56,1.88,-1.85,-0.47,1721228276028
-14.24,0.91,-64.22,-0.07,-0.21,0.69,1721228276038
-3.75,-11.22,55.39,-1.27,2.68,0.21,1721228276048
-30.47,-37.30,29.08,2.00,-0.64,-0.39,1721228276058
10.60,10.86,-45.98,2.28,-1.72,0.13,1721228276068
2.65,-36.79,50.59,-0.59,1.13,-0.57,1721228276078
49.21,78.45,68.21,0.09,-3.04,-0.20,1721228276088
20.63,-22.68,-61.22,-0.87,0.40,0.72,1721228276098
-21.77,-78.45,1.95,-4.37,-1.50,-0.59,1721228276108
-6.20,78.45,25.66,-1.28,1.18,-2.70,1721228276118
2.03,-21.40,4.70,-0.23,-1.09,-0.52,1721228276128
-10.38,-43.06,12.83,-1.50,0.86,-0.49,1721228276138
-17.50,47.64,78.45,0.70,-2.40,0.26,1721228276148
-43.33,78.45,-7.37,2.66,1.59,1.16,1721228276158
18.01,-68.98,-78.45,2.94,-1.16,2.15,1721228276168
7.61,-9.95,-66.25,-2.71,2.10,0.78,1721228276178
18.60,11.77,78.45,-2.21,4.37,-2.46,1721228276188
28.97,-1.72,70.24,1.31,-4.37,-1.73,1721228276198
-5.30,52.16,-3.70,1.96,-1.26,-1.74,1721228276208
-21.02,-4.72,-46.85,-0.80,-0.32,0.81,1721228276218
-7.54,-64.96,53.15,-2.10,3.41,1.90,1721228276228
-14.69,76.32,10.44,2.07,-0.27,1.31,1721228276238
10.35,1.78,-25.65,-0.82,-1.06,0.14,1721228276248
-2.59,-32.36,78.45,-2.58,1.16,-1.43,1721228276258
5.02,37.66,57.46,1.01,-0.73,-0.40,1721228276268
6.70,-45.46,-60.56,-0.07,-0.46,-0.28,1721228276278
9.39,-67.37,-78.13,0.55,0.52,0.39,1721228276288
-0.92,75.49,78.45,-1.54,-1.15,-1.41,1721228276298
-5.49,62.93,64.87,1.84,-0.02,0.12,1721228276308
-27.09,-35.67,-67.15,0.73,-0.90,1.09,1721228276318
24.69,-32.19,20.90,-3.98,4.37,0.66,1721228276328
11.12,-16.41,53.57,-0.02,0.02,-0.29,1721228276338
21.73,9.07,13.61,1.38,0.64,-0.74,1721228276348
0.08,-50.28,-15.94,0.33,-2.37,-1.39,1721228276358
-22.31,38.92,24.29,0.35,-0.18,0.15,1721228276368
-12.74,-6.77,19.21,0.79,0.36,0.69,1721228276378
-10.25,60.94,22.13,0.45,1.37,0.59,1721228276388
0.29,78.45,-4.28,0.86,-0.37,0.26,1721228276398
-23.61,-78.45,-78.45,-1.74,-0.20,0.66,1721228276408
-26.49,-33.68,13.17,1.72,1.38,-0.18,1721228276418
23.59,69.76,48.46,0.63,-1.85,-0.56,1721228276428
-12.09,-30.02,-23.70,1.17,-0.74,-0.81,1721228276438
-7.98,10.16,-62.36,1.96,-1.73,0.27,1721228276448
1.00,-51.01,62.44,-3.27,0.71,0.10,1721228276458
-31.64,78.45,78.45,-0.00,1.07,0.42,1721228276468
-4.21,-9.14,-26.53,2.56,-1.55,0.52,1721228276478
17.46,-25.94,-10.36,-1.73,-0.00,-0.56,1721228276488
-16.67,32.10,6.93,0.64,0.41,-0.37,1721228276498
-3.61,-39.91,-21.74,0.73,-2.35,-0.07,1721228276508
-13.60,-14.34,-2.33,-0.91,1.54,-0.22,1721228276518
-18.16,47.91,24.85,0.85,-0.95,0.63,1721228276528
-0.46,-16.64,-21.07,-1.51,1.00,1.29,1721228276538
12.60,-12.34,78.45,-2.11,1.28,0.07,1721228276548
-22.17,78.45,78.45,0.71,-1.10,-0.33,1721228276558
-12.30,-2.01,-78.45,3.02,-0.65,-1.06,1721228276568
-39.35,-78.45,-78.45,4.37,-2.28,0.78,1721228276578
-19.83,-30.55,-45.27,-0.71,1.88,-1.04,1721228276588
-9.75,78.45,-60.58,3.76,2.56,-2.05,1721228276598
-47.33,43.50,35.61,-1.27,-3.62,0.31,1721228276608
-11.55,44.20,-44.34,-0.30,2.47,0.22,1721228276618
-5.94,-58.60,55.77,-4.37,0.34,0.50,1721228276628
-35.60,-19.31,46.89,4.37,1.11,0.04,1721228276638
-2.08,12.39,-56.25,0.70,-3.51,0.15,1721228276648
3.35,-21.53,9.79,-2.96,4.08,0.03,1721228276658
-5.85,78.45,43.81,0.03,-1.75,-0.11,1721228276668
-4.95,55.32,-18.43,1.05,-0.40,0.53,1721228276678
5.03,-51.50,-48.04,-0.17,0.21,-0.76,1721228276688
-3.28,6.15,47.99,2.37,-0.06,-1.37,1721228276698
-24.05,15.82,-20.20,0.24,-1.80,-0.82,1721228276708
-20.75,-78.45,67.59,-0.56,0.37,0.54,1721228276718
60.09,78.45,19.10,1.49,-1.63,0.02,1721228276728
4.90,50.66,-36.77,2.73,0.06,1.10,1721228276738
19.77,17.93,-55.54,0.41,-1.55,0.59,1721228276748
-4.14,-78.45,27.93,-3.51,3.29,-0.08,1721228276758
25.15,12.34,67.76,3.19,-2.67,-1.14,1721228276768
-18.62,63.49,-19.40,2.54,-0.69,-0.24,1721228276778
-19.45,-68.58,-47.17,-0.15,-0.07,-0.17,1721228276788
-10.98,43.11,78.45,0.23,2.46,1.06,1721228276798
15.81,-8.08,-0.69,-0.50,0.97,2.36,1721228276808
11.84,-33.71,-34.00,-0.30,0.10,0.40,1721228276818
8.95,37.54,14.03,1.03,1.52,-1.08,1721228276828
0.29,-21.72,10.37,-0.19,-2.41,-0.61,1721228276838
-12.99,25.75,57.66,0.14,2.14,-0.48,1721228276848
-1.99,68.80,32.52,0.60,0.97,1.01,1721228276858
-0.40,-41.38,-38.27,-1.47,-0.11,0.41,1721228276868
6.49,-22.99,-15.22,-1.30,0.31,-0.79,1721228276878
4.54,37.71,-50.39,0.24,0.41,-0.93,1721228276888
-7.81,-78.45,25.57,-2.58,0.84,-1.40,1721228276898
-6.80,29.33,78.45,0.75,-1.87,0.07,1721228276908
7.25,78.45,26.51,1.90,1.01,1.32,1721228276918
2.62,6.48,-76.58,0.41,-1.59,2.04,1721228276928
23.50,-55.14,24.39,-3.00,3.72,-0.17,1721228276938
33.71,-7.77,26.59,-0.70,0.54,-2.28,1721228276948
15.45,-2.23,-36.59,1.94,-0.67,-1.82,1721228276958
-7.52,2.49,-40.93,-2.02,-0.45,-1.44,1721228276968
-39.53,59.49,31.30,0.68,-2.02,-0.06,1721228276978
-7.11,9.76,21.19,1.06,0.08,1.55,1721228276988
4.98,-10.29,-2.34,-0.75,0.82,1.74,1721228276998
12.54,-36.58,31.77,-0.84,0.64,-0.18,1721228277008
4.37,20.74,47.88,0.30,-1.26,-1.00,1721228277018
-5.95,19.89,-7.02,0.47,-0.47,-0.00,1721228277028
2.46,-18.57,-12.63,1.27,-0.11,0.63,1721228277038
8.07,-1.75,-36.45,0.47,-0.02,1.45,1721228277048
14.45,-54.25,-2.15,-1.27,1.27,0.39,1721228277058
-33.37,50.51,78.45,-0.33,-1.95,-1.31,1721228277068
13.54,57.35,56.67,1.27,-0.54,-0.52,1721228277078
-2.24,-77.54,-56.83,-0.89,-0.70,0.19,1721228277088
25.40,4.06,53.35,-0.12,1.99,-1.41,1721228277098
-26.61,30.78,49.50,0.65,-1.21,-0.27,1721228277108
-8.33,-21.87,-50.87,1.41,0.19,1.05,1721228277118
7.19,-46.13,-70.16,0.72,0.66,1.25,1721228277128
25.82,45.94,57.97,-1.12,3.17,0.11,1721228277138
-19.53,78.45,78.45,0.19,1.84,0.48,1721228277148
4.26,37.00,-19.12,1.35,-1.79,0.20,1721228277158
12.60,-78.45,-78.45,-0.91,1.55,0.76,1721228277168
9.38,-20.71,-78.45,0.49,-3.50,1.07,1721228277178
27.33,-78.45,78.45,-0.65,4.37,-2.19,1721228277188
38.50,-0.51,48.74,1.10,-0.98,-3.96,1721228277198
-14.52,-8.87,-78.45,4.23,4.37,-1.39,1721228277208
-12.89,-37.89,-40.34,-0.92,-3.11,3.20,1721228277218
76.20,38.68,-67.28,-4.37,4.37,0.58,1721228277228
-25.49,-14.92,78.45,0.76,-3.75,-2.11,1721228277238
-19.93,-2.13,72.77,3.41,-2.58,-0.31,1721228277248
29.26,-74.00,-78.45,4.37,-1.72,-0.26,1721228277258
-25.77,-53.17,-52.88,-0.36,-4.37,-0.79,1721228277268
75.43,43.41,-61.41,-4.37,4.37,0.42,1721228277278
13.69,-78.45,78.45,-0.46,4.37,-1.83,1721228277288
38.71,-69.36,78.45,0.55,-4.37,-2.09,1721228277298
-23.98,57.87,-7.98,-0.05,-0.04,-0.45,1721228277308
-20.54,16.22,-44.47,-0.10,-1.03,0.02,1721228277318
-22.35,-78.37,38.42,-0.14,2.41,0.98,1721228277328
11.64,17.47,70.33,-0.10,1.05,2.47,1721228277338
7.39,28.98,-40.70,2.34,-0.91,2.15,1721228277348
35.74,-8.36,-66.29,-0.89,-0.14,0.96,1721228277358
43.21,-22.67,6.69,-0.19,1.29,-1.69,1721228277368
31.19,62.52,70.25,1.24,-3.25,-0.84,1721228277378
1.44,-48.88,-52.69,-1.53,-0.85,-1.80,1721228277388
-2.44,-78.45,78.45,-1.19,4.37,-1.39,1721228277398
-16.17,78.45,73.00,-1.40,1.10,-0.94,1721228277408
-4.13,39.61,2.30,1.34,-0.22,-0.33,1721228277418
-26.13,-25.07,-42.99,0.46,-0.54,1.90,1721228277428
6.32,18.38,41.31,0.30,2.66,1.86,1721228277438
25.11,59.25,56.11,-0.25,0.22,1.73,1721228277448
15.76,-31.84,-42.83,-0.56,-0.44,0.50,1721228277458
30.37,-40.62,-0.44,-1.59,0.05,-0.93,1721228277468
-21.78,-4.74,28.08,-2.12,1.62,-1.14,1721228277478
8.74,31.26,53.50,2.73,-1.44,-1.38,1721228277488
-9.24,-22.29,-52.14,0.61,-1.46,-0.48,1721228277498
-4.94,-39.26,-9.37,-0.74,1.24,-0.52,1721228277508
-1.30,78.45,78.45,0.20,-1.79,0.10,1721228277518
-23.50,20.32,-6.15,-0.41,1.60,0.63,1721228277528
3.52,-78.45,-49.47,-0.99,-1.23,2.10,1721228277538
-6.60,42.31,40.81,2.23,1.50,-0.88,1721228277548
-6.73,26.62,-20.72,0.59,-2.31,0.15,1721228277558
6.73,-44.08,-28.07,0.16,0.41,0.25,1721228277568
-17.64,47.51,-1.02,0.84,1.45,0.38,1721228277578
-1.58,65.94,-33.26,0.79,-0.87,0.61,1721228277588
19.09,-39.77,-33.56,-4.37,1.37,0.34,1721228277598
-48.94,-55.88,78.45,2.97,-1.35,-2.14,1721228277608
11.07,78.45,-21.64,4.37,-1.97,-3.53,1721228277618
-31.79,-40.93,-78.45,2.66,-2.82,-0.05,1721228277628
