AccX,AccY,AccZ,GyrX,GyrY,GyrZ,Time
8.78,-0.66,1.07,-0.31,0.05,0.88,1721228146122
10.03,-1.07,9.61,-0.45,-0.07,0.33,1721228146127
1.89,-4.34,20.97,-0.39,-0.44,-0.48,1721228146137
-3.59,-3.76,8.94,-0.17,-0.64,-0.51,1721228146147
-11.46,-12.84,11.38,-0.40,-0.41,0.18,1721228146157
-6.31,1.17,17.09,0.12,-0.43,1.15,1721228146167
7.57,-1.78,-4.05,0.07,0.02,1.13,1721228146177
10.26,3.61,10.55,-0.23,-0.01,0.31,1721228146187
3.36,1.85,16.02,-0.26,-0.23,-0.56,1721228146197
-4.85,-6.80,16.76,-0.34,-0.39,-0.64,1721228146207
-5.89,-1.67,8.51,0.04,-0.34,0.04,1721228146217
0.45,-8.51,-1.28,-0.22,-0.08,0.54,1721228146227
3.54,0.39,14.72,0.13,-0.07,0.15,1721228146237
3.22,-8.33,6.52,0.14,-0.61,-0.17,1721228146247
-3.35,8.43,23.99,0.22,-0.16,-0.47,1721228146257
-1.12,6.11,9.77,0.60,-0.40,0.08,1721228146267
2.90,11.91,11.63,-0.12,0.23,0.33,1721228146277
8.32,11.21,19.59,0.29,-0.07,0.20,1721228146287
9.05,-16.97,-3.27,-0.19,-0.10,-0.71,1721228146297
-0.62,-5.21,22.30,0.12,-0.13,-1.30,1721228146307
-6.05,-1.68,11.05,0.62,-0.50,-0.74,1721228146317
-8.06,10.61,14.85,0.27,-0.13,0.36,1721228146327
2.54,5.40,11.97,0.53,0.01,0.89,1721228146337
10.30,-2.28,-0.10,0.27,0.02,0.29,1721228146347
6.89,-9.47,-4.84,-0.08,-0.02,-0.78,1721228146357
-8.05,-5.30,21.68,0.06,-0.04,-1.19,1721228146367
-7.63,7.74,2.57,0.71,-0.50,-0.03,1721228146377
-3.48,-3.71,-14.97,-0.57,0.27,0.84,1721228146387
9.30,-14.69,10.48,-0.94,0.51,0.45,1721228146397
5.80,-13.68,26.89,-0.43,-0.15,-0.96,1721228146407
-0.51,-5.32,39.85,0.20,-0.42,-1.66,1721228146417
-9.11,3.67,3.17,1.02,-0.61,-0.40,1721228146427
-7.29,-3.50,0.37,0.03,0.70,-0.13,1721228146437
-8.92,14.61,10.15,0.46,-0.51,0.01,1721228146447
-0.85,-2.85,-4.57,-0.66,0.19,-0.30,1721228146457
-1.45,-6.26,18.72,-0.42,-0.18,-0.23,1721228146467
5.05,-9.65,-5.85,-0.14,-0.07,0.06,1721228146477
4.78,5.90,8.71,-0.30,0.39,-0.33,1721228146487
3.67,-1.24,15.37,-0.50,-0.40,-0.50,1721228146497
-1.31,-1.25,17.98,-0.40,0.25,-0.80,1721228146507
0.40,-2.94,13.81,-0.24,0.14,-0.68,1721228146517
1.93,-1.61,9.58,-0.53,0.23,-0.53,1721228146527
1.10,-8.15,0.23,-0.35,-0.16,-0.33,1721228146537
2.81,0.11,22.99,-0.55,0.99,-1.07,1721228146547
-3.32,26.06,25.04,0.27,-0.50,-0.92,1721228146557
-7.86,10.99,6.36,-0.46,-0.08,-0.54,1721228146567
-4.45,-2.48,17.11,-0.82,0.14,0.38,1721228146577
6.28,-3.49,10.69,-0.63,0.55,0.13,1721228146587
7.25,-4.13,0.40,-0.25,-0.04,-0.53,1721228146597
4.47,-2.84,11.23,-0.35,0.41,-1.45,1721228146607
-0.92,2.35,19.92,0.05,-0.17,-1.35,1721228146617
-9.61,4.90,3.50,0.61,-0.16,-0.48,1721228146627
-4.55,-0.96,-1.99,0.30,0.56,-0.18,1721228146637
-3.74,1.56,12.43,0.11,0.26,-0.13,1721228146647
-2.57,-2.31,16.38,0.10,-0.12,-0.52,1721228146657
0.11,-4.04,9.33,0.31,0.07,-0.13,1721228146667
2.87,-11.34,10.87,-0.20,0.35,-0.16,1721228146677
5.12,5.41,38.57,0.06,0.51,-0.62,1721228146687
0.91,17.74,16.10,0.96,-0.40,-0.96,1721228146697
-5.75,-14.94,-16.36,-0.07,-0.16,-1.17,1721228146707
-14.18,-9.80,20.66,-0.18,0.41,-0.75,1721228146717
-14.15,3.28,-6.35,0.71,0.17,0.48,1721228146727
6.72,11.32,11.08,0.57,0.64,0.36,1721228146737
-1.13,21.81,10.49,0.49,-0.79,-0.10,1721228146747
4.24,-13.55,2.61,-0.19,0.27,-0.80,1721228146757
2.82,-19.27,21.46,-0.19,0.39,-0.54,1721228146767
-3.10,-5.10,15.43,0.48,-0.05,-0.34,1721228146777
-3.70,4.50,-3.74,0.61,0.10,-0.45,1721228146787
-4.83,15.83,-0.56,0.44,0.17,-0.23,1721228146797
1.07,-3.34,4.54,-0.34,0.15,-0.25,1721228146807
-0.75,-13.05,20.31,-0.44,0.17,-0.53,1721228146817
-1.95,-19.40,21.09,-0.02,-0.09,-0.67,1721228146827
-4.79,15.74,17.69,1.02,0.07,-0.48,1721228146837
-1.47,7.96,-12.08,0.30,-0.04,-0.20,1721228146847
-2.18,-6.28,23.42,-0.62,0.67,-0.12,1721228146857
0.48,-2.93,24.43,0.20,-0.21,0.18,1721228146867
8.87,6.44,14.94,0.04,0.82,-0.51,1721228146877
-1.81,15.97,1.87,0.44,-1.06,-0.61,1721228146887
-3.22,-14.48,-8.88,-0.50,0.57,-0.88,1721228146897
-6.26,-6.65,22.29,0.24,-0.35,-0.02,1721228146907
0.51,1.95,8.59,0.11,0.48,0.68,1721228146917
3.70,32.00,5.29,0.53,-0.03,0.65,1721228146927
9.91,-18.83,-16.35,-0.86,-0.01,-0.41,1721228146937
8.66,-6.79,21.28,-0.64,0.15,-1.37,1721228146947
-4.92,-23.26,6.67,0.22,-0.34,-0.87,1721228146957
-14.29,4.32,11.80,0.16,0.17,0.10,1721228146967
-2.74,21.24,8.05,0.29,0.48,0.87,1721228146977
7.57,0.42,-9.45,-0.67,-0.05,0.50,1721228146987
4.51,-20.74,29.49,-1.18,0.56,-0.82,1721228146997
-1.80,7.59,24.24,0.85,-1.32,-0.69,1721228147007
-5.87,-12.29,-6.85,-0.21,0.19,-0.52,1721228147017
-15.18,5.63,25.66,0.02,0.05,0.44,1721228147027
-0.29,-20.67,-3.33,-0.21,0.11,0.40,1721228147037
-4.28,9.99,22.82,-0.06,0.55,-0.14,1721228147047
1.14,13.49,-8.54,0.48,-0.41,0.17,1721228147057
1.41,-5.02,15.93,-1.01,0.70,0.28,1721228147067
7.00,11.77,37.78,0.03,-0.50,0.61,1721228147077
9.31,-11.50,-10.15,0.27,-0.15,0.34,1721228147087
5.46,12.40,16.04,-0.37,0.70,-0.52,1721228147097
-1.77,6.15,-5.53,0.30,-0.62,-0.66,1721228147107
-1.72,-21.17,-13.03,-0.54,0.55,-1.07,1721228147117
-9.25,-2.89,42.30,-0.26,0.19,-0.70,1721228147127
-8.24,24.46,39.87,0.80,-0.94,0.70,1721228147137
-5.27,-17.94,-8.21,-0.11,0.19,1.12,1721228147147
8.83,-15.14,14.53,-0.63,0.99,0.18,1721228147157
5.52,2.72,10.71,0.63,-0.96,0.05,1721228147167
7.51,0.43,14.09,0.04,0.59,-0.45,1721228147177
1.04,22.57,8.63,0.73,-0.38,-0.38,1721228147187
0.00,-34.28,-0.57,-0.64,0.47,-0.71,1721228147197
-13.06,7.24,41.89,0.47,-0.62,-0.41,1721228147207
-4.65,-6.36,-7.83,0.63,0.49,0.23,1721228147217
2.63,28.72,17.49,0.42,0.86,0.80,1721228147227
5.41,-4.56,-5.67,-0.07,0.07,0.18,1721228147237
7.93,2.74,22.72,-0.41,0.57,-0.92,1721228147247
-4.66,3.11,31.11,0.28,-0.58,-0.57,1721228147257
-4.12,13.03,-4.77,0.61,0.07,0.26,1721228147267
1.83,-7.02,-13.28,0.05,0.61,0.36,1721228147277
1.88,-16.37,14.70,-0.48,0.25,-0.32,1721228147287
-5.66,-7.68,27.32,0.67,-0.15,-0.78,1721228147297
-11.22,10.81,24.18,0.67,0.11,-0.23,1721228147307
-3.95,8.54,7.56,-0.09,0.34,0.77,1721228147317
4.79,-16.97,1.02,-0.35,0.30,0.88,1721228147327
9.43,-5.83,9.66,-0.12,0.52,0.02,1721228147337
-3.02,20.46,9.88,0.70,-0.34,-0.50,1721228147347
3.28,-2.45,-18.25,0.08,0.26,-0.65,1721228147357
-6.61,-11.01,24.04,-1.09,0.24,-0.76,1721228147367
-10.50,14.02,38.43,0.43,-0.56,0.09,1721228147377
-2.23,-5.76,-1.57,0.02,0.44,0.58,1721228147387
-0.37,-3.05,13.76,-0.43,0.40,0.36,1721228147397
9.37,-2.37,8.14,0.29,0.16,-0.51,1721228147407
3.06,5.41,18.42,0.03,0.53,-1.38,1721228147417
-9.73,18.80,5.61,0.35,-0.81,-0.47,1721228147427
-8.98,-8.31,14.78,-0.69,1.25,-0.07,1721228147437
-8.75,-0.56,25.31,0.63,-0.53,0.73,1721228147447
8.70,-3.71,-2.36,0.41,0.73,0.60,1721228147457
10.02,14.14,-4.25,0.71,0.34,-0.06,1721228147467
3.77,-14.18,-10.90,-0.49,-0.22,-1.12,1721228147477
-11.50,0.71,44.57,0.39,0.66,-1.04,1721228147487
-7.56,-28.01,1.40,0.09,-0.60,0.02,1721228147497
-9.77,1.09,13.67,0.09,0.76,0.52,1721228147507
3.01,5.80,-9.52,0.89,-0.16,0.52,1721228147517
6.57,-7.86,-16.55,-0.62,0.10,0.10,1721228147527
-6.86,-7.54,43.47,-0.39,0.94,-0.57,1721228147537
-6.47,-20.41,37.24,-0.39,-0.52,-0.25,1721228147547
-11.94,38.47,35.40,1.38,-0.40,0.59,1721228147557
-1.81,-32.16,-20.21,-0.47,-0.12,1.02,1721228147567
5.34,4.27,7.33,-0.35,0.71,0.50,1721228147577
15.68,-7.16,-20.08,0.29,-0.84,-0.29,1721228147587
5.59,24.15,11.48,-0.28,0.63,-1.23,1721228147597
-0.57,-0.21,33.53,-0.40,0.29,-1.09,1721228147607
-26.39,-18.27,15.49,-0.51,-0.52,-0.92,1721228147617
-22.35,-2.56,13.20,0.37,0.23,0.68,1721228147627
-6.38,13.70,9.96,-0.09,0.43,2.14,1721228147637
12.20,-1.44,31.14,-0.22,0.42,1.92,1721228147647
16.72,9.91,-5.03,1.01,-0.34,0.66,1721228147657
18.86,-14.00,-29.47,-0.21,-0.07,-0.99,1721228147667
-1.20,0.57,38.48,-1.17,-0.87,-1.72,1721228147677
-22.06,49.00,67.38,1.79,-0.49,-0.42,1721228147687
-25.27,-17.62,-26.54,0.76,-0.50,0.39,1721228147697
-15.99,5.88,24.13,-1.30,1.43,0.94,1721228147707
5.18,-3.55,11.55,-0.00,-0.08,1.70,1721228147717
5.66,-5.72,-6.69,0.06,-0.42,0.99,1721228147727
4.89,-4.18,-8.14,0.29,-0.29,0.13,1721228147737
9.63,-15.89,-1.64,-0.47,0.21,0.12,1721228147747
1.70,-1.90,29.74,0.23,-0.19,0.17,1721228147757
-0.11,7.23,17.21,0.15,-0.18,0.07,1721228147767
-2.52,-6.33,-1.87,-0.51,-0.06,-0.22,1721228147777
-6.47,-12.21,2.44,-0.80,-0.24,0.35,1721228147787
-6.66,9.37,35.60,-0.12,0.18,0.78,1721228147797
3.66,-19.14,3.51,0.16,-0.48,0.60,1721228147807
1.56,-3.97,-6.34,-0.14,-0.11,0.01,1721228147817
1.04,-7.28,-5.02,-0.31,-0.12,0.28,1721228147827
3.88,6.52,23.20,-0.45,0.32,0.23,1721228147837
5.00,7.72,12.51,-0.02,-0.54,0.62,1721228147847
9.33,2.31,1.41,-0.20,0.39,-0.17,1721228147857
0.86,-9.92,21.81,-0.50,-0.71,-0.33,1721228147867
-4.45,40.33,39.20,0.24,-0.10,0.12,1721228147877
4.78,15.42,-8.44,0.31,0.01,0.28,1721228147887
4.99,-31.62,-19.82,-1.06,0.11,0.06,1721228147897
6.29,-6.22,25.21,-0.70,0.45,-0.62,1721228147907
-8.12,-7.74,17.16,0.65,-1.11,0.01,1721228147917
4.78,19.12,2.80,0.03,-0.23,0.80,1721228147927
-1.39,19.19,29.61,0.50,0.49,0.91,1721228147937
9.04,14.84,12.64,0.31,0.09,0.13,1721228147947
7.16,-4.02,12.09,-0.41,0.21,-1.11,1721228147957
-7.11,7.03,7.66,0.75,-1.05,-0.48,1721228147967
-2.16,-7.40,-31.26,0.62,0.18,0.22,1721228147977
3.70,1.75,-7.69,0.07,0.39,0.63,1721228147987
8.16,-20.92,-2.98,-1.41,0.39,0.26,1721228147997
-9.18,12.84,78.45,-0.59,0.39,-2.11,1721228148007
-4.48,45.22,71.08,2.18,-0.56,-1.24,1721228148017
-10.98,-3.97,-78.45,2.61,-0.51,0.15,1721228148027
2.70,-15.04,-35.11,-2.82,1.37,0.80,1721228148037
11.19,5.66,24.74,-0.88,1.11,0.41,1721228148047
0.52,7.45,-21.78,-0.39,-1.11,-0.29,1721228148057
-10.43,-51.97,41.37,-1.71,0.83,-0.60,1721228148067
-48.16,-9.24,78.45,0.48,2.57,-0.52,1721228148077
3.33,-8.73,4.40,1.17,1.36,0.82,1721228148087
13.99,5.59,-18.87,-1.25,0.24,1.24,1721228148097
18.93,24.26,35.80,0.16,1.03,-0.15,1721228148107
16.84,-5.55,-11.78,0.34,-1.13,-0.92,1721228148117
-9.12,-8.83,45.79,-0.74,-0.29,-2.56,1721228148132
-0.32,29.91,61.30,-0.50,-0.18,-2.57,1721228148136
-37.43,26.39,23.07,1.11,-1.06,-0.22,1721228148146
-32.59,-4.53,-12.42,0.20,-0.30,1.66,1721228148156
4.41,13.66,23.04,0.63,1.27,2.57,1721228148166
30.00,17.10,20.57,-0.02,0.73,2.09,1721228148176
22.11,-4.79,-12.77,-0.22,0.02,-0.30,1721228148186
18.66,-25.84,15.10,-1.04,0.61,-2.20,1721228148196
-23.67,-30.57,44.54,0.58,-0.57,-2.12,1721228148206
-21.02,-8.68,-6.64,0.52,0.16,-0.68,1721228148216
-19.09,2.11,14.75,-0.56,0.76,1.37,1721228148226
-0.61,34.11,23.50,0.43,-0.12,2.19,1721228148236
18.78,-31.49,-7.47,-0.18,0.35,0.76,1721228148246
14.44,-1.84,-4.21,-0.30,-0.22,-0.94,1721228148256
-0.92,-0.04,-1.58,-0.40,-0.45,-1.59,1721228148266
-25.74,16.12,28.27,-0.27,-0.67,-0.67,1721228148276
-15.53,-5.93,14.88,0.06,0.37,0.84,1721228148286
1.02,-8.80,0.97,-0.13,0.49,1.27,1721228148296
4.80,17.59,34.07,-0.04,0.42,0.46,1721228148306
10.03,18.45,16.83,0.76,-0.69,0.20,1721228148316
9.38,-12.06,-19.84,-0.03,0.28,-0.82,1721228148326
-1.98,-4.04,-8.31,-0.08,-0.36,-0.45,1721228148336
-5.17,-12.68,45.89,-1.13,0.70,-0.21,1721228148346
-7.88,39.60,46.03,0.95,-0.74,-0.19,1721228148356
-0.05,-5.17,-36.05,1.08,-0.57,-0.55,1721228148366
-5.57,0.12,16.50,-1.12,0.50,0.28,1721228148376
23.33,-8.66,24.95,0.19,1.03,0.78,1721228148386
4.17,-4.29,-7.91,0.36,-0.33,0.11,1721228148396
-0.80,-15.22,9.47,-0.90,0.24,-1.40,1721228148406
-7.23,-6.47,26.23,-0.28,-0.66,-0.64,1721228148416
-7.17,4.54,0.60,0.18,0.46,0.56,1721228148426
2.46,6.27,25.31,-0.23,0.52,1.58,1721228148436
10.27,43.16,29.40,0.61,0.19,1.95,1721228148446
19.75,23.54,-2.99,0.75,0.25,0.35,1721228148456
14.52,-19.91,-12.26,-0.31,-0.36,-1.45,1721228148466
-3.24,-50.30,10.47,-0.51,-0.81,-2.14,1721228148476
-32.66,-6.50,34.51,1.24,-1.36,-1.04,1721228148486
-15.55,-2.63,-19.96,0.79,0.64,0.71,1721228148496
-11.28,-7.09,16.23,-0.11,0.60,1.88,1721228148506
20.69,52.15,49.44,0.17,0.35,1.34,1721228148516
11.10,5.37,4.43,0.53,-0.94,0.06,1721228148526
16.10,-22.43,-23.65,-0.13,-0.02,-1.56,1721228148536
-5.04,-20.86,-16.39,0.07,-0.65,-1.31,1721228148546
-18.57,-37.95,-4.59,-0.53,0.38,-0.34,1721228148556
-12.72,13.64,73.72,-0.39,0.82,1.05,1721228148566
2.19,70.88,9.73,-0.00,0.09,1.58,1721228148576
13.03,1.24,-66.62,-1.01,-1.11,1.11,1721228148586
25.69,-60.38,-0.80,-3.32,2.90,-1.15,1721228148596
-8.63,-18.18,78.45,-0.25,-3.39,-2.27,1721228148606
-15.90,-6.68,24.35,2.52,0.03,-1.96,1721228148616
-27.49,-14.36,-2.96,0.39,-0.45,0.05,1721228148626
-22.82,22.64,5.70,0.40,0.41,1.64,1721228148636
22.93,5.03,-30.81,-0.68,-0.07,1.88,1721228148646
0.84,19.99,36.45,-0.29,0.67,0.28,1721228148656
16.38,78.45,24.53,1.82,-1.51,0.84,1721228148666
6.77,-23.33,-44.02,-2.51,0.53,0.05,1721228148676
6.93,-18.22,61.39,-1.93,1.26,-1.08,1721228148686
0.80,-9.43,29.70,1.99,-1.90,-0.96,1721228148696
-7.76,-22.01,-42.01,0.01,-0.07,-0.67,1721228148706
-14.93,-0.29,27.66,-0.75,1.27,0.11,1721228148716
-6.32,25.94,30.65,0.92,-0.60,0.70,1721228148726
-5.95,56.58,18.60,0.33,0.49,0.96,1721228148736
14.53,1.10,12.33,-0.98,0.54,0.72,1721228148746
4.93,-24.85,10.14,-0.62,-0.27,-0.66,1721228148756
0.85,-1.95,2.87,0.67,0.14,-1.52,1721228148766
-12.14,-19.10,-15.86,0.23,-1.02,-0.29,1721228148776
-17.50,13.10,38.53,-0.06,0.78,0.60,1721228148786
18.94,53.06,47.41,0.42,0.74,1.70,1721228148796
7.88,-19.47,-13.57,-0.92,-0.84,0.34,1721228148806
-10.98,4.32,52.12,-0.05,1.28,-1.50,1721228148816
-3.59,-6.30,-0.31,1.04,-0.42,-0.91,1721228148826
-13.81,20.48,-29.09,0.56,-0.22,0.52,1721228148836
-2.04,19.96,-4.71,0.47,0.46,1.25,1721228148846
18.74,-3.73,15.70,-0.60,0.77,0.89,1721228148856
3.09,-10.21,43.87,0.15,-0.60,-0.29,1721228148866
0.06,12.22,2.27,1.06,-0.76,-0.83,1721228148876
2.47,-5.98,-40.55,-0.40,0.22,-0.08,1721228148886
-0.01,-28.51,3.33,-1.39,1.15,0.17,1721228148896
-15.24,1.46,57.53,0.81,-0.60,-0.23,1721228148906
-3.30,-30.72,0.53,-0.46,-0.21,-0.16,1721228148916
-7.39,35.95,78.45,0.68,-0.49,0.47,1721228148926
2.45,19.18,-7.38,2.30,-0.69,0.93,1721228148936
12.15,-6.95,-68.51,-1.31,0.24,0.81,1721228148946
6.17,11.97,17.00,-1.57,1.39,-0.48,1721228148956
-1.76,-26.36,6.53,0.97,-1.26,-1.03,1721228148966
-11.83,9.50,-3.27,0.47,0.19,-0.27,1721228148976
10.41,12.38,11.41,-0.93,0.72,0.86,1721228148986
-0.31,-15.56,31.25,-0.81,-0.62,0.53,1721228148996
2.47,11.04,30.63,0.59,-0.38,-0.60,1721228149006
4.15,24.32,9.75,0.49,-0.01,-0.25,1721228149016
0.37,-10.01,-0.58,-0.53,0.13,-0.51,1721228149026
-6.65,1.27,6.90,0.24,-0.01,-0.73,1721228149036
-6.17,-8.49,-7.08,-0.13,0.02,0.07,1721228149046
-17.20,6.96,17.65,0.13,0.12,0.58,1721228149056
3.93,3.73,2.31,0.52,-0.20,0.81,1721228149066
11.42,19.36,-6.74,0.20,0.27,0.46,1721228149076
12.30,3.48,-16.13,-0.52,-0.03,-0.17,1721228149086
2.07,-35.44,-8.31,-1.65,0.21,-0.87,1721228149096
-26.39,-41.11,76.94,-1.56,0.62,-1.34,1721228149106
-10.55,37.00,68.24,2.13,-0.54,-0.45,1721228149116
-3.90,-6.82,-11.20,0.38,0.12,0.56,1721228149126
2.04,57.27,-6.83,-0.10,1.01,0.80,1721228149136
9.04,9.95,-33.68,-0.53,-0.92,0.67,1721228149146
6.27,-40.58,-30.71,-1.29,1.03,-0.57,1721228149156
5.35,-78.45,46.05,-2.01,0.48,-1.54,1721228149166
-6.55,62.78,78.45,0.81,-1.16,-0.72,1721228149176
0.33,14.03,-72.83,0.45,-1.17,-0.28,1721228149186
5.03,49.96,-10.61,-0.89,1.31,0.12,1721228149196
-4.61,27.46,21.58,1.18,-1.02,0.87,1721228149206
6.16,12.32,-26.97,0.24,-0.93,-0.20,1721228149216
11.97,-19.27,16.63,-0.77,0.78,-1.65,1721228149226
-19.71,-40.27,39.90,-0.54,-1.34,-0.68,1721228149236
-9.90,11.17,29.11,0.14,-0.23,-0.55,1721228149246
-5.21,7.77,8.09,0.49,-0.20,-0.22,1721228149256
-1.69,35.14,0.96,0.80,0.37,0.33,1721228149266
0.99,8.41,-9.74,0.64,-0.00,1.31,1721228149276
8.14,-55.80,-7.31,-1.45,0.74,0.84,1721228149286
31.34,18.39,45.06,-0.24,0.81,0.21,1721228149296
26.33,-10.67,-8.43,2.42,-1.28,-0.84,1721228149306
-2.26,-6.80,30.07,-0.53,0.72,-1.27,1721228149316
-13.30,5.56,27.89,0.99,-1.57,-0.67,1721228149326
-20.91,31.74,3.89,1.22,0.57,0.62,1721228149336
-5.93,-11.35,-20.83,0.22,0.12,1.53,1721228149346
1.64,-36.53,-25.82,-0.41,0.62,1.16,1721228149356
13.57,-21.59,-6.49,-0.64,0.23,0.45,1721228149366
16.22,-38.09,57.08,-1.75,0.46,-1.08,1721228149376
-7.52,37.04,78.45,3.06,-1.60,-1.79,1721228149386
-4.85,-30.35,-24.96,2.86,-0.22,0.30,1721228149396
-1.01,44.55,-53.57,-2.05,1.04,1.46,1721228149406
4.75,-16.81,-22.85,-1.28,0.34,0.08,1721228149416
5.52,-24.09,6.06,0.15,-0.14,-0.58,1721228149426
-7.15,-12.02,14.96,0.65,-0.60,-0.86,1721228149436
-10.39,1.28,34.21,-0.15,0.59,-0.18,1721228149446
-10.97,24.00,73.36,-0.58,1.17,0.38,1721228149456
1.57,6.37,15.71,0.02,0.24,0.14,1721228149466
4.72,-2.38,-27.90,-0.28,-0.48,-0.34,1721228149476
-4.98,-42.30,-29.80,-0.95,-0.04,0.05,1721228149486
-15.35,-31.93,36.56,-0.30,0.14,0.28,1721228149496
2.80,17.23,21.38,1.20,0.74,0.17,1721228149506
8.25,7.99,5.82,-0.62,-0.41,-0.13,1721228149516
-7.20,11.58,17.65,-0.73,-0.21,0.53,1721228149526
13.75,14.85,13.57,0.33,0.55,0.71,1721228149536
10.47,-15.75,-28.14,-0.23,-0.85,0.17,1721228149546
2.80,-24.66,1.41,-1.07,0.91,-0.50,1721228149556
-0.32,15.45,64.29,0.27,-0.25,-1.21,1721228149566
-22.27,40.40,-5.61,0.80,-1.07,0.01,1721228149576
-9.58,-17.86,0.56,-0.68,1.36,-0.01,1721228149586
-8.19,11.34,49.07,-0.02,-0.67,0.58,1721228149596
4.36,8.46,-11.63,0.14,0.12,0.53,1721228149606
5.69,-23.44,-0.98,-1.12,0.85,-0.08,1721228149616
-11.40,1.49,29.92,0.70,-1.37,-0.08,1721228149626
4.81,-17.85,-11.10,0.16,0.97,0.05,1721228149636
5.60,21.27,36.57,0.22,0.03,0.63,1721228149646
6.80,24.25,17.35,0.88,-0.51,0.81,1721228149656
15.71,11.46,-23.30,0.11,-0.36,-0.14,1721228149666
-1.06,-32.08,19.47,-1.19,0.18,-1.14,1721228149676
-16.69,1.59,32.66,0.77,-0.82,-0.72,1721228149686
-17.51,-9.42,-9.95,0.28,0.77,-0.01,1721228149696
-5.11,13.51,24.20,0.26,0.19,1.27,1721228149706
8.89,-1.31,12.90,0.74,-0.04,1.40,1721228149716
11.13,11.41,22.17,0.58,0.30,0.89,1721228149726
15.58,-16.67,-1.89,-0.68,-0.34,-0.35,1721228149736
-19.29,7.36,34.61,0.19,0.14,-1.02,1721228149746
-2.87,5.49,-0.32,1.09,-0.55,-0.79,1721228149756
-7.16,3.28,-39.40,-0.18,-0.06,0.26,1721228149766
-7.28,-38.38,-2.01,-1.47,0.75,1.01,1721228149776
-4.74,-12.02,57.16,-0.17,-0.44,0.77,1721228149786
7.50,-14.87,20.43,0.77,-0.31,0.06,1721228149796
0.39,21.11,14.27,0.47,-0.36,0.36,1721228149806
11.87,49.49,2.79,0.31,0.17,0.89,1721228149816
7.14,-4.97,-12.69,-1.01,-0.23,0.24,1721228149826
-2.46,-24.24,22.33,-1.15,0.50,-1.37,1721228149836
-14.67,-9.64,27.95,0.46,-0.86,-0.93,1721228149846
-15.78,10.21,-16.07,0.63,-0.32,0.64,1721228149856
5.04,9.94,-11.45,-0.72,0.95,2.10,1721228149866
16.90,-31.44,16.94,-1.43,0.39,1.09,1721228149876
2.84,9.66,52.10,0.49,0.05,-0.60,1721228149886
4.37,9.87,-14.91,1.01,-0.69,-1.14,1721228149896
-0.44,6.86,-25.05,-0.77,0.34,-0.82,1721228149906
-15.43,2.40,53.13,-1.18,0.76,-0.69,1721228149916
3.78,54.65,71.15,0.48,-0.50,0.12,1721228149926
-15.64,-11.52,-20.18,-0.03,-0.61,0.58,1721228149936
11.52,-12.72,11.61,-1.14,1.15,1.08,1721228149946
8.44,9.83,2.36,0.76,-1.29,0.98,1721228149956
21.91,-29.93,-32.59,-1.01,0.93,-0.54,1721228149966
1.89,16.17,61.48,-0.68,0.06,-2.21,1721228149976
-6.67,49.22,28.69,1.35,-0.43,-1.57,1721228149986
-24.24,-15.31,-27.21,-0.30,-0.91,-0.54,1721228149996
-18.04,-12.84,28.34,-0.63,0.68,0.52,1721228150006
8.99,17.72,9.86,1.08,0.07,1.44,1721228150016
15.86,10.51,-6.11,-0.47,0.51,0.64,1721228150026
5.93,-0.86,16.35,-0.30,0.31,-0.81,1721228150036
1.53,-6.41,6.90,0.15,-0.55,-1.50,1721228150046
-3.40,0.46,24.33,-0.42,0.68,-1.28,1721228150056
-8.09,-12.26,16.57,-0.15,-0.67,0.23,1721228150066
-14.73,16.53,33.15,0.22,0.68,-0.13,1721228150076
3.60,-2.64,16.05,0.47,-0.17,0.69,1721228150086
14.19,13.01,-4.55,0.30,0.16,0.85,1721228150096
15.07,-8.19,-17.84,0.59,0.20,-0.26,1721228150106
5.07,-4.75,-7.20,-0.19,0.13,-1.43,1721228150116
-11.97,9.79,36.60,0.20,0.23,-1.58,1721228150126
-15.39,-5.29,-15.84,1.07,0.38,0.00,1721228150141
-15.55,-0.70,-15.05,0.22,-0.94,0.48,1721228150145
-5.98,11.50,40.05,-0.79,1.35,0.37,1721228150155
-0.98,53.26,44.16,0.61,0.12,0.76,1721228150165
14.64,-15.13,-35.07,0.06,-0.38,0.22,1721228150175
9.54,-21.01,4.04,-1.06,0.82,-1.01,1721228150185
0.34,15.05,26.41,0.49,-0.21,-1.12,1721228150195
-4.46,-12.32,-12.59,-0.25,-0.60,-0.23,1721228150205
-13.80,14.06,48.25,0.53,1.04,0.45,1721228150215
5.21,0.51,-6.99,1.07,-0.23,-0.20,1721228150225
-1.86,-12.48,-29.92,-0.48,-0.14,-0.28,1721228150235
-6.43,-0.41,11.94,-0.97,0.58,-0.03,1721228150245
-3.65,9.19,61.60,-0.18,0.31,-0.17,1721228150255
-14.30,45.91,42.07,1.36,-0.09,0.71,1721228150265
4.11,-35.61,-52.99,-0.98,-0.55,0.98,1721228150275
-4.10,-0.58,47.52,-2.30,1.46,-0.72,1721228150285
8.89,3.89,41.69,1.87,-1.36,-0.36,1721228150295
-13.30,-10.38,-52.54,-0.28,-0.82,-0.55,1721228150305
-3.53,39.39,15.61,-0.45,1.16,-1.27,1721228150315
-8.30,17.50,25.59,0.95,-1.12,-0.28,1721228150325
-23.06,2.39,13.83,-0.56,0.25,0.97,1721228150335
8.52,-12.02,12.33,-1.04,0.82,1.18,1721228150345
8.57,-20.98,9.58,-0.19,-0.29,0.27,1721228150355
8.57,11.21,-6.22,1.05,-0.03,-0.56,1721228150365
4.51,7.75,0.09,-0.34,0.41,-1.12,1721228150375
-18.60,-2.74,50.89,-1.13,-0.06,-0.82,1721228150385
-13.84,-23.73,12.05,-0.22,-0.01,0.05,1721228150395
-3.69,0.38,14.43,-0.17,0.71,0.85,1721228150405
14.36,-2.13,2.87,0.64,-0.37,1.26,1721228150415
9.88,20.99,1.73,0.24,0.32,0.56,1721228150425
13.30,-3.17,17.42,-0.93,0.07,-0.92,1721228150435
-15.23,-13.35,24.45,-0.14,-1.26,-1.53,1721228150445
-6.48,9.01,-6.45,0.80,0.33,-0.67,1721228150455
-1.65,-1.23,-38.66,0.32,-0.13,0.21,1721228150465
-10.61,-22.38,16.25,-0.90,0.64,0.22,1721228150475
1.38,8.86,60.34,-0.34,0.15,0.21,1721228150485
6.01,17.45,71.53,-0.92,0.60,-0.23,1721228150495
4.57,-6.19,-0.45,0.21,-0.76,0.25,1721228150505
13.41,8.01,-39.67,0.22,0.84,0.02,1721228150515
-0.37,-21.88,-8.80,-0.26,0.04,-0.33,1721228150525
-5.37,-25.24,25.31,0.33,0.56,-0.49,1721228150535
-7.42,16.49,42.78,1.02,-0.42,-0.31,1721228150545
-7.30,-16.96,15.55,-1.22,1.04,-0.31,1721228150555
3.13,34.17,32.66,-0.51,-0.01,0.36,1721228150565
9.35,7.86,5.58,0.12,-0.32,-0.04,1721228150575
-4.08,-17.63,-20.74,0.04,-0.15,-0.61,1721228150585
-2.58,-37.16,23.54,-1.39,0.25,-0.81,1721228150595
-8.79,4.94,64.06,0.40,-0.31,-0.00,1721228150605
-4.66,20.72,-33.10,0.46,-0.64,0.28,1721228150615
6.59,-5.17,-35.28,-0.86,0.66,-0.12,1721228150625
-21.19,4.90,68.11,-0.49,0.75,-0.82,1721228150635
4.28,-0.78,25.40,3.31,-0.24,-0.64,1721228150645
-8.49,-34.55,-28.99,0.46,-0.38,0.63,1721228150655
11.49,-27.91,1.84,-1.32,1.99,0.39,1721228150665
-8.70,-4.61,52.26,0.50,-1.31,0.40,1721228150675
-0.39,-9.07,-13.64,1.92,0.28,-0.44,1721228150685
19.66,-37.03,12.48,-0.14,0.70,-0.35,1721228150695
-28.07,11.24,44.15,-0.00,-1.37,0.21,1721228150705
0.34,43.67,44.32,-0.89,1.26,0.03,1721228150715
-2.59,-19.91,-13.67,-0.22,-1.52,0.64,1721228150725
11.71,-6.18,-19.72,0.48,1.26,0.46,1721228150735
2.93,-27.52,-3.46,0.14,-1.27,-0.13,1721228150745
-4.08,3.37,32.16,-0.03,0.70,-0.92,1721228150755
-10.64,58.12,27.20,0.20,-0.60,-0.57,1721228150765
-13.90,44.08,-18.20,0.55,-0.47,0.27,1721228150775
-4.71,-25.17,14.69,-1.70,0.76,1.18,1721228150785
5.12,-52.08,51.61,-0.78,-0.09,0.87,1721228150795
12.23,15.98,11.24,1.83,-0.12,0.23,1721228150805
11.19,-10.37,-3.06,-0.30,-0.26,-1.19,1721228150815
-29.52,-17.91,21.99,0.32,-0.85,-0.75,1721228150825
-1.75,23.21,-1.55,1.14,1.34,0.14,1721228150835
-2.82,39.15,-2.63,0.11,-0.32,1.07,1721228150845
-6.60,-20.38,22.77,-2.15,-0.01,0.87,1721228150855
15.94,-18.57,56.45,0.29,0.80,-0.03,1721228150865
9.28,17.19,-30.65,3.16,-1.81,-0.21,1721228150875
17.26,-24.16,-41.98,-0.57,1.14,-0.42,1721228150885
0.62,-11.94,15.85,0.23,-0.80,-0.03,1721228150895
5.79,39.62,14.25,1.75,0.78,0.11,1721228150905
1.46,28.43,-3.25,-2.86,-0.20,-0.14,1721228150915
-4.98,-29.18,73.33,-1.85,-0.39,-0.62,1721228150925
-6.32,-4.97,24.24,2.03,-1.25,-0.71,1721228150935
-8.94,0.34,-44.01,0.43,-0.31,-0.92,1721228150945
-20.52,-13.58,20.71,-0.14,0.01,0.89,1721228150955
3.13,28.54,15.96,1.51,0.78,1.24,1721228150965
23.37,64.37,-32.45,0.06,-0.71,0.82,1721228150975
16.47,-30.66,-9.39,-3.14,0.65,-0.21,1721228150985
-2.71,-60.46,78.45,-1.42,-0.50,-2.32,1721228150995
-13.75,20.38,37.22,3.38,-2.37,-2.34,1721228151005
-9.13,3.02,-68.39,2.23,0.15,0.03,1721228151015
-11.68,-17.38,4.14,-2.37,-2.62,2.12,1721228151025
4.50,38.23,1.48,1.38,1.05,1.47,1721228151035
38.40,-18.65,-37.13,-1.07,-1.68,0.21,1721228151045
26.32,-54.49,71.31,-3.28,3.59,-1.16,1721228151055
-4.54,14.84,78.45,1.23,0.70,-1.17,1721228151065
-1.71,75.60,14.34,4.37,-2.59,0.13,1721228151075
-5.81,35.37,-48.57,-0.87,2.13,0.07,1721228151085
5.11,12.01,12.26,-0.23,0.49,1.49,1721228151095
3.87,-11.01,-51.88,-0.23,0.72,0.77,1721228151105
23.51,-78.45,6.12,-3.59,0.80,-0.29,1721228151115
16.76,34.99,78.45,-0.10,1.12,-3.38,1721228151125
-78.45,78.45,31.89,-1.12,3.65,0.57,1721228151135
-39.24,-38.91,-78.45,2.52,2.81,0.69,1721228151145
-35.09,-22.42,-78.45,-0.03,0.53,2.70,1721228151155
64.87,-78.45,66.95,-2.42,4.37,-0.19,1721228151165
-15.94,-47.38,78.45,1.18,-4.37,-0.88,1721228151175
-5.15,52.66,7.69,1.41,-0.40,-2.04,1721228151185
-15.72,34.38,-6.63,-1.23,-1.41,-0.37,1721228151195
-49.61,-14.93,2.81,-0.07,-0.07,0.59,1721228151205
14.40,-28.53,-5.15,0.25,0.75,0.77,1721228151215
13.22,11.17,7.06,-0.27,0.28,-0.13,1721228151225
-0.64,3.40,34.38,0.30,-0.05,-1.18,1721228151235
-8.29,-32.17,16.34,-0.50,0.15,-0.83,1721228151245
-7.28,-0.03,16.50,0.16,0.32,-0.49,1721228151255
3.78,-4.11,-6.26,0.16,0.00,1.04,1721228151265
1.07,6.20,-19.73,0.43,-0.13,0.70,1721228151275
8.81,-23.08,17.89,-1.09,0.72,-0.95,1721228151285
-28.74,12.34,64.54,0.53,-0.87,-0.29,1721228151295
23.13,-21.46,13.97,-0.01,0.77,-0.17,1721228151305
3.87,-7.75,-2.46,-0.82,0.09,0.43,1721228151315
-3.32,-1.24,5.09,0.09,-0.13,0.07,1721228151325
4.51,-24.19,13.02,-0.32,0.78,-0.09,1721228151335
1.13,28.04,43.71,0.94,-1.32,0.80,1721228151345
9.33,38.87,-0.87,1.24,0.61,0.96,1721228151355
16.46,-30.56,-4.88,-0.98,0.30,0.17,1721228151365
-4.80,-35.86,24.12,-0.45,-0.36,-1.30,1721228151375
-5.75,35.64,-3.61,1.73,-0.15,-0.63,1721228151385
-4.62,-11.31,-34.34,-0.57,0.17,1.08,1721228151395
-8.08,11.37,39.99,-0.35,0.69,0.61,1721228151405
1.76,5.39,19.97,1.13,-0.84,0.13,1721228151415
9.19,6.25,-25.02,-0.10,0.06,0.04,1721228151425
6.58,18.58,44.62,-1.11,1.00,-0.43,1721228151435
0.93,-3.45,32.61,0.15,-0.62,-1.03,1721228151445
-4.44,-46.05,2.58,-0.42,0.04,-0.77,1721228151455
-13.28,17.49,47.11,0.27,0.17,0.26,1721228151465
15.32,40.38,-27.70,0.67,-0.12,0.68,1721228151475
1.05,-32.96,-29.76,-0.28,0.12,-0.16,1721228151485
-11.60,11.85,55.23,0.31,0.41,-0.47,1721228151495
9.23,-12.30,-19.46,2.95,-0.27,-0.21,1721228151505
3.04,-17.14,-3.33,-0.72,0.54,0.55,1721228151515
7.57,-13.32,28.44,-1.27,0.11,0.11,1721228151525
14.22,-10.96,26.67,0.50,0.20,-0.72,1721228151535
3.19,-7.26,-31.21,0.05,-0.72,-1.14,1721228151545
-1.89,8.24,38.76,-1.22,1.42,-2.01,1721228151555
-13.07,49.92,40.36,1.07,-0.67,-1.09,1721228151565
-25.25,-9.30,-23.47,-0.26,-0.42,0.14,1721228151575
-6.00,-25.04,9.62,-1.16,1.50,1.33,1721228151585
14.18,9.05,4.34,0.81,0.25,1.16,1721228151595
18.86,-35.97,-8.17,-0.70,0.29,-1.06,1721228151605
9.17,-4.30,52.78,1.20,-0.23,-1.90,1721228151615
-3.13,31.37,-10.67,1.78,-0.59,-1.00,1721228151625
-18.80,-4.38,-25.55,-2.43,0.55,-0.09,1721228151635
-22.17,-10.33,78.45,-1.86,0.74,-0.26,1721228151645
1.75,-8.39,24.72,1.85,-0.55,0.55,1721228151655
17.13,-1.12,-50.23,0.85,0.80,0.17,1721228151665
10.53,-12.34,-9.49,-1.24,0.86,-0.74,1721228151675
-1.81,12.80,37.69,1.28,-0.97,-0.88,1721228151685
-3.95,16.84,-14.37,-1.22,-0.26,-1.50,1721228151695
-13.51,29.91,29.33,-0.44,0.26,-0.74,1721228151705
-11.71,1.04,2.83,-0.55,0.81,0.89,1721228151715
9.00,-33.82,28.22,-1.85,1.11,0.66,1721228151725
3.67,20.22,37.53,1.13,-0.33,-0.18,1721228151735
11.63,5.29,-31.38,0.75,-0.53,-0.66,1721228151745
-2.27,-20.49,11.22,-1.02,1.62,-1.14,1721228151755
-3.28,40.71,50.96,1.11,-0.49,-0.22,1721228151765
-13.15,-6.03,11.51,-0.51,0.09,0.15,1721228151775
-1.98,-12.61,13.37,-0.51,0.44,-0.01,1721228151785
2.84,-3.14,-3.14,0.88,0.07,0.75,1721228151795
7.95,4.47,-30.58,0.87,0.64,0.55,1721228151805
1.58,-13.22,2.44,-0.69,0.30,-0.56,1721228151815
-9.36,-1.31,46.59,0.44,0.04,-0.70,1721228151825
-8.06,-10.20,4.49,0.27,-0.04,0.59,1721228151835
-4.48,-3.72,34.96,-1.44,1.47,0.09,1721228151845
1.91,23.45,38.42,1.10,-0.72,0.60,1721228151855
1.31,-16.34,-38.65,0.53,-0.42,0.61,1721228151865
0.35,8.37,12.80,-0.79,1.36,-0.08,1721228151875
12.04,6.14,13.59,0.74,-0.61,0.09,1721228151885
4.88,-38.77,-15.47,-1.05,-0.43,0.00,1721228151895
-12.72,10.04,36.91,-1.06,1.14,-0.40,1721228151905
2.66,-2.90,23.79,0.57,0.40,-0.14,1721228151915
-17.64,-20.53,39.46,0.12,-0.14,0.61,1721228151925
0.73,-17.81,-3.72,0.73,-0.09,0.94,1721228151935
8.65,12.88,-31.60,-0.09,0.18,0.72,1721228151945
7.41,0.96,38.68,-0.97,0.52,-0.25,1721228151955
-0.38,40.86,35.02,1.30,-1.50,-0.01,1721228151965
3.76,-2.09,-44.39,0.88,-0.07,-0.27,1721228151975
-3.43,-22.53,8.89,-1.46,1.21,0.16,1721228151985
-5.83,2.03,59.68,-0.12,-0.17,-0.07,1721228151995
5.33,40.63,-0.93,0.08,-0.46,0.07,1721228152005
4.72,17.32,-4.72,0.10,-0.66,0.24,1721228152015
-4.89,-4.55,-6.11,-0.17,-0.12,0.44,1721228152025
2.30,-13.32,0.10,-1.06,0.68,0.19,1721228152035
-1.23,-6.39,38.91,-0.68,-0.07,0.03,1721228152045
-5.28,8.92,-1.14,1.08,-1.05,0.14,1721228152055
1.29,-14.04,-36.80,-0.08,0.24,0.49,1721228152065
3.20,-12.91,45.94,-1.32,0.87,0.42,1721228152075
3.11,40.32,69.42,1.91,-0.81,0.83,1721228152085
25.40,18.29,-25.73,0.78,-0.49,0.40,1721228152095
10.24,-3.60,7.75,-2.34,1.22,-0.46,1721228152105
-4.89,-40.60,47.48,-1.92,-0.99,-0.68,1721228152115
-13.21,20.38,32.39,0.78,-0.19,-1.27,1721228152125
-7.25,15.69,-31.58,0.57,-0.56,-0.32,1721228152135
-4.31,-3.78,-2.28,0.47,-0.15,2.41,1721228152150
5.01,-22.68,4.20,-0.89,0.50,2.27,1721228152154
9.07,12.39,46.32,0.03,0.70,0.88,1721228152164
17.92,-22.69,1.00,-0.04,-1.39,-0.44,1721228152174
2.73,6.92,13.65,-0.92,1.44,-1.64,1721228152184
2.12,14.39,23.79,0.59,-1.08,-1.04,1721228152194
-19.33,22.88,-10.49,1.05,0.21,-0.28,1721228152204
-3.64,-46.68,-19.77,-1.36,0.26,0.12,1721228152214
-17.49,4.01,78.45,-0.53,-0.30,-0.11,1721228152224
8.51,48.50,29.58,0.89,-0.35,-0.27,1721228152234
-11.43,-18.11,-35.90,0.32,-0.56,0.25,1721228152244
-3.75,45.40,39.17,0.69,1.70,1.19,1721228152254
34.80,78.45,-30.91,0.88,-0.80,0.94,1721228152264
12.11,-53.82,-54.62,-1.86,0.42,-0.65,1721228152274
6.54,-78.45,57.67,-0.31,-0.08,-2.61,1721228152284
-1.67,44.21,67.69,1.33,-1.40,-1.13,1721228152294
-0.27,-56.01,-34.64,0.33,1.98,-0.30,1721228152304
-7.52,42.80,-8.69,-1.07,1.15,0.92,1721228152314
-2.35,-2.31,-10.96,-0.06,-0.49,1.64,1721228152324
-6.12,7.86,40.14,-1.28,1.43,1.00,1721228152334
5.53,30.44,46.86,1.10,0.21,1.04,1721228152344
25.35,-41.23,-26.73,-0.43,-0.01,-0.45,1721228152354
3.38,-51.61,17.87,-1.82,1.23,-2.80,1721228152364
-9.39,27.65,62.88,1.02,-2.55,-2.43,1721228152374
-5.57,59.25,-6.39,0.32,0.88,-0.95,1721228152384
-19.81,15.25,-23.90,0.50,-0.93,1.17,1721228152394
-3.21,-36.92,-4.68,-0.74,1.93,1.66,1721228152404
0.15,26.83,57.86,0.34,0.22,1.00,1721228152414
5.03,58.99,-6.23,0.14,-0.25,0.71,1721228152424
25.74,2.15,-40.11,0.21,0.05,0.10,1721228152434
9.34,-16.94,-20.64,-0.51,0.68,-1.63,1721228152444
-3.70,-47.54,46.36,-1.61,-0.59,-2.31,1721228152454
-28.76,19.37,78.45,0.21,-0.01,-1.57,1721228152464
-0.33,29.45,40.57,3.00,1.34,0.56,1721228152474
11.57,-0.85,-78.45,3.74,-1.91,2.35,1721228152484
-28.99,-52.69,-8.39,-0.37,-4.37,1.15,1721228152494
36.02,-33.34,12.75,-0.80,0.54,-1.84,1721228152504
8.21,17.94,50.95,0.77,-3.07,-0.57,1721228152514
-10.40,-0.84,-26.47,1.38,-2.92,0.90,1721228152524
11.80,-9.45,26.11,-2.01,2.74,-0.02,1721228152534
3.85,20.33,64.62,-1.15,0.26,-0.70,1721228152544
0.03,-6.44,-6.49,1.13,-0.91,-0.27,1721228152554
4.04,41.95,13.86,0.72,0.33,0.52,1721228152564
3.15,24.07,-20.55,0.28,-0.46,0.58,1721228152574
1.37,-54.96,-13.22,-2.58,0.98,-0.42,1721228152584
-20.69,-24.29,78.45,-0.45,0.60,-1.27,1721228152594
1.97,63.08,-2.13,3.18,-1.92,1.13,1721228152604
-8.72,-21.12,-76.41,0.51,1.75,1.19,1721228152614
4.48,-38.31,31.61,-1.94,-3.84,0.30,1721228152624
9.20,14.94,78.45,-1.52,1.97,-1.70,1721228152634
18.76,47.78,35.99,4.37,-2.09,0.85,1721228152644
16.22,-42.20,-78.45,3.98,-0.05,1.81,1721228152654
6.68,-15.47,-77.02,-2.04,-4.37,0.35,1721228152664
63.26,53.48,78.45,-2.23,4.37,-0.68,1721228152674
-10.68,78.45,39.02,2.34,-4.37,0.90,1721228152684
-14.69,-32.98,-70.29,-0.34,0.48,-1.50,1721228152694
-9.54,-31.30,73.48,-2.23,1.21,0.80,1721228152704
-40.62,19.38,31.71,1.11,1.94,2.64,1721228152714
29.17,34.93,-47.05,-0.29,-1.65,1.65,1721228152724
25.81,12.68,35.42,-3.33,2.81,-1.51,1721228152734
-31.33,-6.07,78.45,-3.22,0.52,-0.87,1721228152744
-15.83,-44.41,4.62,-1.84,4.12,-1.06,1721228152754
-12.85,8.60,-31.31,-0.41,1.90,-2.40,1721228152764
-24.64,-64.74,1.61,-0.65,-0.65,-0.22,1721228152774
-20.40,8.65,39.10,1.36,-0.47,1.92,1721228152784
37.28,30.92,7.75,2.98,1.69,1.32,1721228152794
22.46,27.42,41.75,-0.46,0.71,2.05,1721228152804
17.53,14.91,15.68,-0.44,0.06,-0.13,1721228152814
9.93,-57.40,-18.10,-0.05,-0.49,-1.94,1721228152824
-4.41,18.47,0.61,-0.29,0.94,-2.68,1721228152834
-11.55,32.85,32.13,0.08,0.43,-1.00,1721228152844
-31.62,40.48,29.49,0.38,-0.83,0.55,1721228152854
-24.85,14.62,8.99,0.72,0.53,0.60,1721228152864
2.31,-18.22,-0.59,0.43,0.09,0.75,1721228152874
0.83,-18.80,5.37,-0.46,0.17,0.49,1721228152884
11.35,9.10,27.72,0.51,0.93,-0.47,1721228152894
-0.05,11.84,-10.27,1.27,-1.42,-0.37,1721228152904
-8.47,-9.16,-29.77,-1.00,1.20,-0.32,1721228152914
14.44,-11.01,72.40,-2.09,1.31,-0.55,1721228152924
-8.27,62.16,68.82,1.82,-1.08,-0.59,1721228152934
-5.61,-22.09,-65.15,2.47,-1.72,0.26,1721228152944
-1.99,46.12,-47.48,-2.14,2.26,1.00,1721228152954
6.06,64.14,12.63,0.48,0.38,0.62,1721228152964
3.00,-70.86,-57.93,0.28,-2.12,-0.44,1721228152974
4.34,-62.02,-2.58,-1.93,1.49,-1.65,1721228152984
16.06,42.57,78.45,-0.93,-0.00,-2.02,1721228152994
-9.45,-22.65,42.99,0.52,-0.58,-0.75,1721228153004
-2.51,18.63,-3.72,0.52,1.88,1.16,1721228153014
15.22,31.01,-1.28,-0.41,-0.75,2.09,1721228153024
12.28,18.12,13.18,-0.17,0.80,0.89,1721228153034
18.84,-3.08,0.84,0.32,-0.46,-0.82,1721228153044
3.55,-58.52,-7.10,-0.87,-0.29,-1.49,1721228153054
-10.53,24.39,54.99,0.24,0.00,-1.09,1721228153064
-27.23,8.28,-14.75,0.40,-0.37,-0.30,1721228153074
-7.80,15.56,12.39,-0.46,0.71,0.70,1721228153084
1.47,36.29,34.36,1.18,-0.51,1.73,1721228153094
4.09,-32.29,-31.97,-0.26,-0.18,0.50,1721228153104
21.75,-14.86,20.10,-0.83,1.57,-0.85,1721228153114
-6.35,22.80,63.02,0.98,-2.09,-0.46,1721228153124
-15.01,3.90,6.09,-0.26,1.21,-0.64,1721228153134
-9.73,-32.83,15.58,-1.55,0.01,0.16,1721228153144
-10.61,19.41,-3.74,1.03,-0.48,0.46,1721228153154
5.72,-45.42,-25.53,-1.43,-0.31,0.44,1721228153164
-17.01,8.43,78.45,-0.91,1.15,0.19,1721228153174
0.57,54.67,4.13,2.29,-0.34,0.33,1721228153184
15.06,-6.50,-55.62,-0.47,-0.57,-0.18,1721228153194
-7.17,2.44,62.74,-2.36,0.95,-0.99,1721228153204
10.59,10.96,8.69,0.36,-1.46,-0.77,1721228153214
-11.62,-4.64,-23.67,0.34,-0.30,-0.70,1721228153224
-17.11,12.12,27.01,0.39,0.30,0.45,1721228153234
7.83,0.44,26.31,-0.36,-0.49,1.55,1721228153244
-3.58,23.17,23.09,0.10,-0.38,0.58,1721228153254
10.37,0.33,-16.56,0.64,-0.62,0.11,1721228153264
13.08,-8.95,-38.16,-0.39,0.58,-0.05,1721228153274
1.17,-12.21,43.82,-0.91,0.20,-0.69,1721228153284
-35.64,6.44,43.95,1.92,-1.75,-1.30,1721228153294
-6.24,-38.87,-31.37,0.72,0.06,0.01,1721228153304
0.95,-23.90,-11.87,-3.21,0.26,0.99,1721228153314
2.46,9.16,43.42,-0.61,0.58,0.94,1721228153324
-0.60,-13.67,-9.14,0.26,-0.37,0.02,1721228153334
0.29,17.89,43.20,-0.02,0.38,-1.03,1721228153344
5.96,11.90,39.23,-1.32,-0.03,-0.36,1721228153354
-7.72,20.37,32.46,-0.58,-0.25,-0.17,1721228153364
-1.52,-0.15,-11.98,0.66,-0.30,-0.38,1721228153374
-7.24,-15.13,-41.01,0.43,-0.37,0.01,1721228153384
-9.01,-37.86,-11.83,-0.66,1.08,0.25,1721228153394
-4.32,15.22,70.63,-0.65,-0.26,-0.45,1721228153404
41.58,78.45,12.55,2.14,-1.47,1.87,1721228153414
-17.82,22.04,-2.15,1.03,0.73,1.37,1721228153424
29.43,-54.28,-36.76,0.32,-0.00,-0.22,1721228153434
14.21,-52.20,9.99,0.98,-1.43,-1.39,1721228153444
-24.28,-7.18,34.13,0.87,0.55,-0.76,1721228153454
-15.55,-37.81,-36.79,2.05,-3.02,1.03,1721228153464
-14.23,-1.84,52.21,-0.50,1.73,1.60,1721228153474
4.51,22.04,52.95,0.03,-0.11,0.68,1721228153484
15.83,-13.57,-32.49,0.68,-0.51,-0.46,1721228153494
14.04,-16.81,-39.37,-0.63,0.45,-1.09,1721228153504
-10.89,6.06,18.95,-0.06,-0.41,-0.85,1721228153514
5.13,-2.73,5.13,0.84,-0.47,-0.29,1721228153524
-6.24,-20.06,65.66,-1.10,1.45,0.38,1721228153534
-2.09,49.73,78.45,0.47,-0.05,0.98,1721228153544
10.04,-17.10,-43.75,1.09,-0.40,-0.11,1721228153554
14.99,2.76,-46.06,-0.61,0.61,-0.81,1721228153564
-7.22,10.03,18.07,-0.59,-0.52,-0.66,1721228153574
-27.71,-56.16,-6.94,0.50,-1.02,-0.33,1721228153584
-2.45,-23.12,-21.30,-0.27,0.48,0.83,1721228153594
32.55,-78.45,44.64,-3.63,2.80,0.40,1721228153604
-17.09,28.96,78.45,-0.51,-2.94,-1.48,1721228153614
29.10,-11.23,38.52,4.35,0.23,-1.12,1721228153624
-12.32,0.14,-78.45,1.74,-1.44,2.02,1721228153634
26.76,28.91,-78.45,-0.55,0.12,1.01,1721228153644
24.70,13.01,9.17,-2.76,4.37,-2.02,1721228153654
32.45,78.45,37.81,0.41,-4.37,-1.48,1721228153664
-25.04,-7.32,-11.80,0.45,0.43,-1.58,1721228153674
-4.73,24.57,39.21,0.54,-0.38,0.88,1721228153684
-1.25,30.61,-28.33,1.49,0.15,2.27,1721228153694
27.61,19.68,-50.10,-0.60,0.37,1.38,1721228153704
-1.60,-7.04,29.10,-1.98,1.57,-0.60,1721228153714
13.31,-44.61,40.49,-1.33,-2.44,-0.55,1721228153724
-8.41,-16.66,78.45,-0.07,1.26,-1.54,1721228153734
-9.12,46.12,-17.52,2.00,-0.28,-0.22,1721228153744
4.11,-29.48,-71.13,-0.93,0.39,1.06,1721228153754
15.86,-47.72,73.15,-2.50,2.28,-0.73,1721228153764
-33.67,29.79,78.45,0.28,0.77,-0.19,1721228153774
-2.89,36.24,-27.92,0.63,-3.16,-0.20,1721228153784
5.13,42.25,-27.01,-0.35,2.44,0.44,1721228153794
10.34,14.77,29.71,-0.30,-0.39,0.23,1721228153804
-3.47,-11.29,7.32,-0.62,-0.35,-0.30,1721228153814
3.12,-40.51,-28.83,0.53,0.20,-0.91,1721228153824
-3.66,17.60,-22.86,-0.21,0.12,-0.39,1721228153834
7.49,-44.45,42.84,-2.04,1.86,-0.16,1721228153844
-19.87,18.87,78.45,2.20,-1.42,0.26,1721228153854
-16.12,-2.21,-41.39,2.14,0.10,-0.18,1721228153864
-4.66,-48.46,-18.95,-3.35,1.32,0.94,1721228153874
26.37,23.68,44.33,-0.64,1.21,0.80,1721228153884
18.59,-14.99,-23.64,1.23,-0.65,0.21,1721228153894
-9.86,-44.78,12.28,-1.88,-0.10,-1.80,1721228153904
-28.17,9.26,63.77,0.19,-0.23,-1.88,1721228153914
-0.69,31.18,9.77,1.82,0.70,0.16,1721228153924
-3.16,16.70,-13.37,-0.68,0.02,1.54,1721228153934
5.65,-23.16,25.82,-1.24,1.01,0.46,1721228153944
13.13,-16.75,14.89,1.20,-0.93,0.15,1721228153954
-4.13,32.84,-57.38,1.59,0.17,-0.24,1721228153964
0.96,-29.25,-23.68,-1.59,0.53,-1.26,1721228153974
-27.31,7.56,77.69,-0.75,0.19,-1.30,1721228153984
-5.81,15.27,31.82,0.80,1.09,-0.06,1721228153994
-0.66,-29.65,1.15,-0.81,-0.86,1.09,1721228154004
-0.15,-5.05,51.69,0.61,0.41,1.74,1721228154014
25.92,1.34,-18.55,1.47,-0.66,0.90,1721228154024
7.90,2.07,-38.51,-0.28,0.47,-1.28,1721228154034
-0.87,28.88,27.93,0.66,0.04,-1.35,1721228154044
-18.61,61.81,13.95,-1.32,-0.69,-0.51,1721228154054
-16.29,-4.90,44.84,-0.12,-0.59,0.93,1721228154064
5.99,-5.89,9.07,0.29,0.29,1.44,1721228154074
13.56,21.13,-16.42,0.05,0.24,0.37,1721228154084
6.24,-26.76,9.80,0.07,-0.42,-1.64,1721228154094
-22.58,-8.59,-4.56,0.48,-1.34,-1.02,1721228154104
-15.14,-6.54,13.13,-0.50,1.73,0.58,1721228154114
1.74,14.27,41.36,0.02,-0.11,1.58,1721228154124
0.29,-16.07,13.77,-0.25,-0.84,1.01,1721228154134
16.85,-11.44,24.95,-0.08,0.40,0.87,1721228154144
16.53,7.87,-12.51,0.24,-1.10,-0.97,1721228154159
14.46,-4.80,-10.68,-0.47,-0.02,-1.75,1721228154163
-10.31,-6.46,21.73,-0.21,-0.78,-2.04,1721228154173
-18.51,52.44,-10.40,1.42,-0.59,-0.18,1721228154183
-6.55,-40.45,-36.74,-0.99,-0.11,1.77,1721228154193
3.41,11.38,50.94,-1.03,1.83,0.95,1721228154203
23.77,-45.19,17.50,2.25,-0.06,0.26,1721228154213
1.53,-23.88,-5.58,0.01,-1.27,0.44,1721228154223
1.26,34.22,7.44,-0.25,1.22,0.30,1721228154233
12.56,-48.65,8.33,-1.99,-0.34,-0.23,1721228154243
-9.78,22.59,50.86,0.20,-0.15,-1.18,1721228154253
-10.56,14.40,20.11,0.61,0.02,-0.90,1721228154263
-12.05,4.64,-11.37,-0.83,-0.43,0.51,1721228154273
-6.82,12.64,4.49,0.68,0.57,1.28,1721228154283
6.22,-41.41,-17.22,-0.50,-0.38,0.61,1721228154293
5.26,8.44,30.17,-0.32,0.59,-0.44,1721228154303
0.29,8.55,27.27,0.85,-0.62,-0.38,1721228154313
-3.84,9.42,-0.11,0.33,-0.79,-0.46,1721228154323
-2.80,24.32,7.15,0.41,0.23,-0.09,1721228154333
-2.18,-28.82,-30.76,-0.46,-0.58,0.15,1721228154343
-4.57,-67.00,38.42,-1.47,0.86,-0.69,1721228154353
-6.95,45.66,78.45,0.36,-1.69,0.76,1721228154363
-24.47,62.73,-34.62,-1.21,0.05,-0.15,1721228154373
10.98,46.90,-26.18,0.36,-0.43,-0.35,1721228154383
-1.10,10.83,-2.77,1.31,0.17,-0.18,1721228154393
-9.00,-40.62,4.70,0.00,-0.07,-0.58,1721228154403
-11.94,9.00,64.83,-1.02,-0.06,-0.36,1721228154413
-0.28,32.63,45.71,0.53,0.05,0.57,1721228154423
0.30,-31.92,-35.05,-0.06,-0.36,0.34,1721228154433
11.13,8.59,-15.38,-0.53,1.16,0.04,1721228154443
7.61,-43.99,-4.81,-0.92,-0.81,-1.04,1721228154453
-17.32,-4.88,62.63,-0.88,-0.52,-1.81,1721228154463
12.77,78.45,41.04,0.30,-0.45,0.56,1721228154473
-15.63,-32.69,-48.19,0.88,1.05,0.39,1721228154483
5.66,-9.57,-8.32,-1.70,0.56,0.01,1721228154493
-6.96,-13.01,30.65,-0.39,-0.23,-0.25,1721228154503
-1.83,4.81,22.19,1.05,0.36,-0.04,1721228154513
5.02,-10.48,-3.76,0.21,-0.15,0.39,1721228154523
5.27,0.68,8.15,-1.11,0.73,-0.19,1721228154533
5.45,29.72,67.06,0.09,-1.31,-0.11,1721228154543
-2.63,22.24,29.60,0.76,0.56,0.40,1721228154553
14.50,-76.10,-41.06,0.55,-0.18,0.24,1721228154563
9.79,-2.72,-17.93,-0.34,0.40,-1.55,1721228154573
9.37,0.53,-5.00,-1.04,0.05,-0.97,1721228154583
-46.26,-19.25,13.51,0.07,-0.95,0.01,1721228154593
-10.30,-3.98,28.14,0.40,1.07,0.63,1721228154603
5.20,3.93,24.59,-0.86,-0.09,0.89,1721228154613
4.98,32.93,-1.00,0.66,-0.11,1.18,1721228154623
16.10,-30.54,-25.41,-0.39,0.14,0.01,1721228154633
4.32,-21.73,23.31,-0.56,0.25,-1.62,1721228154643
-7.60,2.79,47.28,1.04,-0.71,-0.93,1721228154653
-8.08,18.38,17.30,0.27,0.90,-1.21,1721228154663
-10.64,39.64,-20.71,0.71,-0.61,0.18,1721228154673
-3.28,8.24,-9.01,-0.06,1.00,1.02,1721228154683
10.84,-31.63,16.75,-1.17,0.86,0.88,1721228154693
-0.73,-15.94,31.53,0.46,0.80,-0.54,1721228154703
4.29,40.23,-25.72,1.05,-0.51,-0.53,1721228154713
-0.01,-34.91,-18.26,-2.10,0.87,-0.61,1721228154723
-39.56,-8.25,78.45,-0.98,1.36,-1.17,1721228154733
1.71,21.29,60.30,1.21,0.19,0.04,1721228154743
1.84,38.07,-33.18,0.69,0.01,1.29,1721228154753
11.73,-22.25,-33.30,-1.99,0.74,0.81,1721228154763
15.25,-58.15,35.05,-1.76,0.17,-0.84,1721228154773
-9.02,45.57,56.97,1.80,-0.44,-0.51,1721228154783
-18.10,-15.56,-50.33,-0.03,-0.30,-1.17,1721228154793
-19.40,-35.29,12.63,-0.86,0.83,-0.50,1721228154803
-7.29,57.21,68.86,-0.10,-0.54,0.30,1721228154813
22.98,47.81,5.14,-0.01,-0.10,0.89,1721228154823
4.35,-36.82,-20.37,-1.04,0.68,0.53,1721228154833
15.51,8.16,-6.48,0.32,0.81,-0.90,1721228154843
8.13,-25.71,-16.45,-0.01,-1.03,-1.50,1721228154853
-14.87,11.60,36.27,0.17,0.02,-1.96,1721228154863
-3.58,55.28,4.24,0.06,-0.75,-1.24,1721228154873
-21.05,36.92,10.49,-0.53,-0.58,0.38,1721228154883
-9.30,11.01,18.62,-0.93,0.48,0.98,1721228154893
7.63,-66.35,0.94,-1.32,-0.11,1.09,1721228154903
15.45,40.74,4.05,0.78,0.86,0.30,1721228154913
10.26,-8.73,-19.05,0.57,-0.74,-0.84,1721228154923
-16.21,-42.26,49.51,-1.57,1.26,-1.85,1721228154933
3.16,76.52,56.07,0.86,-0.80,-1.19,1721228154943
-16.92,17.78,-3.38,1.20,-1.00,0.52,1721228154953
-5.05,0.06,-25.93,0.48,1.02,1.02,1721228154963
-5.68,-21.32,-13.95,-0.00,-0.28,1.30,1721228154973
11.40,-38.94,21.59,-0.28,1.08,0.35,1721228154983
2.87,14.73,46.84,0.47,-0.73,-1.05,1721228154993
-4.07,20.21,7.23,-0.77,-0.82,-1.17,1721228155003
-1.58,62.47,0.77,0.96,-0.25,0.43,1721228155013
-0.41,9.97,-26.17,0.39,-0.18,1.51,1721228155023
8.32,-78.45,-41.58,-1.69,0.44,0.86,1721228155033
-35.82,-78.45,78.45,1.09,-0.85,0.46,1721228155043
55.55,-51.70,12.55,4.06,0.77,-0.46,1721228155053
5.14,-64.25,17.00,-0.01,1.22,-0.85,1721228155063
-11.61,36.67,-26.58,1.89,-1.49,-0.11,1721228155073
-6.20,-50.14,-10.02,-1.15,1.24,1.38,1721228155083
-3.74,-38.73,41.28,-1.82,0.80,1.04,1721228155093
9.75,-3.21,-12.05,0.97,-0.63,0.97,1721228155103
6.29,-12.85,8.64,-1.07,0.57,-0.30,1721228155113
-0.89,18.98,44.99,0.41,-0.57,-1.29,1721228155123
-6.78,-3.39,-18.40,0.81,-1.01,-0.29,1721228155133
-11.02,43.05,14.76,0.39,1.08,0.78,1721228155143
9.97,15.97,-2.78,-0.05,-0.42,1.24,1721228155153
7.22,-73.46,-24.73,-1.60,0.30,0.23,1721228155163
-3.82,18.88,69.15,0.32,0.72,-1.57,1721228155173
7.21,-35.53,-3.77,2.43,-1.70,-1.24,1721228155183
-0.34,-16.61,1.27,-0.48,0.01,1.88,1721228155193
2.38,-37.24,39.65,-2.13,1.10,1.20,1721228155203
10.39,38.70,33.71,0.93,-0.62,0.57,1721228155213
1.96,-6.72,-38.86,0.74,-0.95,0.23,1721228155223
10.80,-26.63,0.05,-0.56,1.65,-0.91,1721228155233
-11.26,-0.10,29.82,0.50,-1.64,-0.52,1721228155243
-11.98,30.21,1.94,-0.52,1.56,-0.02,1721228155253
-2.65,41.52,29.77,1.22,-1.11,1.39,1721228155263
6.09,44.97,14.36,0.52,0.57,1.55,1721228155273
17.48,-27.23,-1.08,-1.29,0.14,0.09,1721228155283
6.65,-49.72,2.63,-0.22,-0.53,-1.73,1721228155293
-12.66,5.36,6.58,-0.18,-0.74,-1.48,1721228155303
-5.52,33.42,9.53,0.40,-0.49,0.32,1721228155313
-20.88,-65.92,-4.89,-0.87,-0.38,1.80,1721228155323
-0.88,35.28,78.45,-0.58,0.77,1.90,1721228155333
29.23,60.68,26.20,1.63,0.76,1.83,1721228155343
23.95,-17.42,-53.93,-0.09,-1.36,0.26,1721228155353
18.27,-30.38,-4.18,-0.89,1.96,-1.78,1721228155363
4.75,-53.12,16.68,-1.09,-1.75,-2.13,1721228155373
-22.28,-10.64,69.55,-0.79,0.07,-2.21,1721228155383
-7.00,62.48,60.14,1.36,-0.16,-0.12,1721228155393
-21.45,-19.80,-43.72,-0.28,-0.35,1.62,1721228155403
4.63,12.20,36.21,-1.12,2.47,1.33,1721228155413
5.43,-16.91,-18.23,0.44,-1.24,1.22,1721228155423
18.08,-5.13,-39.99,2.39,1.53,-0.35,1721228155433
5.14,-17.81,-34.92,1.33,-1.21,-0.48,1721228155443
-7.38,-78.45,78.45,-3.74,0.87,-2.12,1721228155453
-19.52,78.45,78.45,2.61,-1.98,2.41,1721228155463
-8.54,-15.50,-56.32,4.37,1.00,1.02,1721228155473
21.26,15.31,-78.45,-0.52,0.66,0.94,1721228155483
-5.15,-9.24,-9.36,-0.75,0.90,-1.00,1721228155493
1.74,78.45,6.26,2.61,2.09,-4.00,1721228155503
-5.49,35.35,-58.82,3.11,-4.37,-0.19,1721228155513
-18.32,-16.28,-30.26,-2.16,3.91,-0.47,1721228155523
-6.70,71.41,78.45,0.16,-3.82,0.17,1721228155533
-52.26,78.45,43.22,-0.60,-3.35,1.76,1721228155543
-5.48,-35.90,-58.41,1.64,1.79,1.09,1721228155553
8.17,-42.90,-29.78,-3.28,-0.01,-0.20,1721228155563
-3.20,-0.92,42.32,0.43,-0.69,-3.04,1721228155573
-13.42,-75.29,-18.43,3.79,-2.11,-1.27,1721228155583
-20.86,-39.15,-12.07,0.69,1.07,1.38,1721228155593
7.88,-5.38,31.54,-0.44,1.72,1.06,1721228155603
5.62,5.06,-35.24,1.34,-1.09,0.79,1721228155613
14.52,-30.39,-5.44,-0.28,1.71,-0.02,1721228155623
-1.64,-29.51,27.68,-0.11,-0.65,-0.45,1721228155633
-5.20,-10.98,28.46,0.14,0.17,-0.88,1721228155643
-8.38,18.07,7.73,0.72,0.28,-0.44,1721228155653
-5.01,22.86,-23.71,0.54,0.06,0.89,1721228155663
11.94,-14.33,23.22,-1.08,1.46,0.22,1721228155673
2.35,13.80,51.08,1.34,-0.55,-0.36,1721228155683
0.56,-53.59,-52.02,0.39,-0.56,-0.22,1721228155693
-7.15,39.80,20.27,-1.29,2.69,-1.02,1721228155703
-5.92,-44.16,-12.38,2.52,-2.06,-0.52,1721228155713
-6.55,6.33,-20.04,0.29,0.96,0.35,1721228155723
1.80,-2.24,26.70,-2.31,1.24,0.13,1721228155733
0.11,-30.19,76.81,-0.02,-0.52,-0.42,1721228155743
-2.41,28.60,13.76,0.94,0.12,0.43,1721228155753
11.98,24.77,-38.70,0.45,-0.42,0.65,1721228155763
11.04,5.98,21.61,-0.24,1.31,-0.34,1721228155773
-1.61,3.28,29.05,0.37,-1.77,-1.15,1721228155783
-6.51,22.29,-14.37,0.69,0.49,-0.47,1721228155793
0.57,-20.81,7.87,-0.86,0.65,-0.01,1721228155803
-22.36,-13.01,33.59,0.06,0.71,0.53,1721228155813
7.77,13.61,-2.56,0.41,0.13,0.14,1721228155823
6.02,20.53,17.76,-0.63,0.03,-0.01,1721228155833
4.41,-18.28,9.04,-1.28,0.35,-0.32,1721228155843
1.40,-38.18,33.22,-0.80,0.49,-0.91,1721228155853
-5.86,40.45,19.53,1.60,-0.54,-0.89,1721228155863
-11.33,-12.85,-41.98,0.65,-0.38,0.31,1721228155873
-4.68,-31.84,-2.55,-0.59,1.82,0.57,1721228155883
1.80,55.37,59.42,0.75,-1.38,1.19,1721228155893
-35.18,11.59,-26.21,-1.55,-0.85,0.87,1721228155903
24.49,-31.10,10.71,-1.92,1.52,-0.94,1721228155913
-5.81,9.98,37.04,1.04,-1.45,-0.33,1721228155923
-9.42,2.99,-46.41,1.30,-0.54,0.50,1721228155933
6.93,3.66,-52.19,-0.03,1.84,0.38,1721228155943
-1.08,-19.12,78.45,0.13,-0.72,0.27,1721228155953
45.77,78.45,21.19,-1.33,0.99,1.74,1721228155963
-11.45,-78.45,-65.84,1.14,0.67,0.56,1721228155973
-12.64,-48.97,39.70,1.41,1.29,-0.10,1721228155983
47.85,-78.45,-15.65,4.37,2.53,0.99,1721228155993
31.77,-66.71,-21.22,0.26,-1.60,0.57,1721228156003
-1.02,65.44,62.20,-2.21,-0.50,-0.90,1721228156013
-18.35,59.70,60.69,-2.16,-0.06,-1.00,1721228156023
-0.83,-3.12,-20.70,1.41,-0.42,-0.52,1721228156033
-7.13,-7.89,-14.47,0.58,-1.00,0.99,1721228156043
0.76,13.88,0.80,0.87,1.21,0.91,1721228156053
3.74,-11.59,22.76,-0.62,0.05,0.30,1721228156063
8.48,-15.38,23.80,-0.29,-0.14,-0.85,1721228156073
-7.19,23.05,22.64,-0.44,-0.82,-1.35,1721228156083
-7.35,5.45,-18.57,0.52,-0.42,-0.69,1721228156093
-12.79,-41.11,-2.61,-0.54,-0.11,0.40,1721228156103
-5.90,46.26,-50.10,-0.11,-4.37,-0.61,1721228156649
48.93,32.19,78.45,-0.90,4.37,-0.98,1721228156653
-35.40,42.37,24.15,-0.95,-4.34,1.61,1721228156662
-69.64,-51.84,42.16,-2.08,4.37,-1.46,1721228156672
31.67,55.65,42.96,1.27,-0.78,1.85,1721228156681
-3.69,4.41,-22.40,1.10,0.75,1.86,1721228156691
23.75,17.16,-25.94,-0.08,0.04,0.48,1721228156700
9.50,-19.44,-8.56,-0.84,0.38,-1.19,1721228156710
-1.77,0.59,53.70,-0.06,-0.48,-2.55,1721228156719
-16.37,29.46,-1.86,1.62,-1.23,-1.20,1721228156729
-13.69,4.41,-69.59,0.49,0.53,0.80,1721228156738
2.17,-78.45,-14.53,-2.46,1.58,1.49,1721228156748
15.96,-5.27,78.45,-0.21,1.03,-0.64,1721228156757
-30.00,78.45,-5.99,-1.73,1.20,-0.76,1721228156767
-7.64,38.21,1.61,1.56,1.08,-0.55,1721228156776
-2.98,13.22,-53.20,-0.41,-0.59,0.47,1721228156786
10.23,-62.58,13.92,-2.88,2.16,0.07,1721228156795
9.72,-28.53,29.79,1.24,-0.11,-0.72,1721228156805
5.19,22.28,-48.73,2.94,-2.11,0.12,1721228156814
-4.82,-38.31,-64.93,-2.31,1.96,-0.28,1721228156824
4.59,-73.96,78.45,-0.63,-2.00,-0.82,1721228156834
-7.30,-62.26,34.07,4.37,4.37,0.28,1721228156844
-25.02,-40.29,-66.71,3.57,-0.71,0.34,1721228156854
-14.43,73.19,-78.45,-0.46,2.47,-0.20,1721228156864
0.27,-9.99,2.08,0.13,0.01,1.04,1721228156874
-44.13,-78.45,-5.60,-1.59,4.37,0.01,1721228156884
17.53,7.59,-11.37,1.49,0.46,-0.07,1721228156894
-10.86,-10.56,-17.75,-1.81,0.00,-0.11,1721228156904
-1.48,14.74,47.72,-0.33,1.98,-1.17,1721228156914
9.32,57.42,43.40,2.34,-1.63,0.35,1721228156924
-18.86,18.91,-68.00,0.61,-0.00,1.25,1721228156934
-3.02,-78.45,12.75,-4.24,-2.08,1.06,1721228156944
31.48,58.91,78.45,-0.56,1.15,-1.01,1721228156954
-17.10,72.93,26.75,-1.77,-0.40,-0.30,1721228156964
-4.08,-5.65,-65.50,2.36,2.71,-1.17,1721228156974
-44.94,-15.95,27.34,-0.01,-4.37,-0.04,1721228156984
-3.06,-16.79,34.26,-2.38,4.37,-0.18,1721228156994
15.56,9.04,55.08,0.06,-2.52,0.54,1721228157004
-4.27,58.34,-67.38,1.60,-0.11,1.06,1721228157014
-8.04,-44.48,-17.22,0.50,-4.37,1.64,1721228157024
7.66,-34.91,58.60,-2.51,4.37,-0.28,1721228157034
31.25,-78.45,-18.01,2.11,0.91,-0.10,1721228157044
-59.42,-78.45,27.26,-0.38,1.15,-0.24,1721228157054
-19.04,10.52,-58.55,2.88,-2.77,-0.25,1721228157064
-36.38,-53.96,2.42,-0.05,1.58,2.16,1721228157074
47.26,-43.41,-18.54,0.95,3.46,-0.19,1721228157084
23.45,78.45,-18.63,0.87,0.25,1.33,1721228157094
13.67,-78.45,-25.09,-2.71,-0.34,0.08,1721228157104
-5.09,14.46,78.45,0.34,1.80,-1.98,1721228157114
-13.98,37.11,-1.31,-0.06,-0.51,-0.06,1721228157124
4.26,-62.12,-39.64,1.17,2.09,-0.36,1721228157134
-14.28,5.92,35.41,0.26,3.26,1.66,1721228157144
29.97,-78.45,3.61,0.45,0.84,0.49,1721228157154
36.21,74.45,77.52,1.28,-0.37,0.46,1721228157164
7.66,65.18,-0.33,1.52,-2.66,1.28,1721228157174
15.96,-57.31,-76.92,2.88,-0.25,0.94,1721228157184
1.11,-74.76,-78.45,-2.55,-2.25,-0.42,1721228157194
45.46,68.02,72.90,-1.29,4.37,-0.68,1721228157204
78.45,78.45,-0.83,3.47,-4.37,1.53,1721228157214
-34.09,-3.46,-43.38,2.45,-0.81,-0.22,1721228157224
-1.09,72.03,-15.25,-0.13,0.73,1.58,1721228157234
24.20,-18.47,13.04,-1.52,0.44,1.49,1721228157244
6.56,-70.76,51.47,-1.82,0.12,-0.91,1721228157254
-3.05,56.55,15.01,2.21,-1.25,-1.81,1721228157264
-22.44,-41.11,-31.74,-0.13,0.22,-0.57,1721228157274
-27.85,47.73,51.98,-0.84,0.39,1.67,1721228157284
33.03,48.84,13.00,1.64,0.77,2.43,1721228157294
29.06,-74.58,-76.68,2.45,-0.86,1.82,1721228157304
1.13,-78.45,-11.58,-3.66,0.12,-1.42,1721228157314
63.49,40.08,35.83,-0.65,-2.14,-4.30,1721228157324
19.64,-15.18,31.81,2.32,-1.97,-1.42,1721228157334
-11.82,27.07,-50.37,-1.50,-0.38,-0.16,1721228157344
29.01,4.53,78.45,-0.51,-0.10,0.70,1721228157354
3.90,-12.92,49.77,0.81,-0.55,1.75,1721228157364
25.58,-22.30,-65.62,3.13,-0.45,2.04,1721228157374
24.77,9.30,-74.36,0.25,0.28,0.26,1721228157384
16.24,-70.50,-11.53,-2.43,0.38,-1.54,1721228157394
-16.73,78.45,78.45,-2.59,-4.35,-4.37,1721228157404
0.68,70.47,78.45,1.61,0.96,-0.22,1721228157414
-23.55,-2.79,-78.45,4.37,-1.56,1.47,1721228157424
16.53,-29.34,-78.45,-1.96,2.05,0.80,1721228157434
-7.02,-78.45,17.25,-1.83,4.36,0.21,1721228157444
-10.75,78.45,28.53,-0.60,-4.37,-2.09,1721228157454
78.45,-78.45,47.97,1.21,4.14,0.35,1721228157464
-9.44,-7.48,41.33,-0.45,-0.54,0.30,1721228157474
25.03,78.45,2.85,-0.65,-0.36,0.43,1721228157484
2.56,-33.79,-34.63,0.99,-1.09,0.13,1721228157494
11.21,-78.45,5.75,-0.06,1.46,-1.65,1721228157504
-4.62,5.53,-15.35,-0.23,-1.03,-1.45,1721228157514
-10.97,78.45,-28.36,-0.92,-1.06,-0.34,1721228157524
-33.94,24.95,0.96,2.34,-2.14,1.51,1721228157534
19.76,-20.83,-41.12,-0.29,1.81,1.33,1721228157544
10.46,-28.59,45.85,-1.52,2.86,-0.66,1721228157554
-2.03,17.85,-20.61,0.95,-1.04,-0.87,1721228157564
-1.12,-65.70,-68.59,-0.92,0.82,-0.73,1721228157574
4.24,13.75,62.08,-3.39,4.37,-1.44,1721228157584
2.46,78.45,-44.35,-1.92,-1.34,-0.34,1721228157594
-2.74,-15.38,-21.17,0.67,0.37,0.94,1721228157604
7.92,43.57,-7.30,1.01,1.22,0.83,1721228157614
14.87,-9.44,-16.45,-1.36,0.03,0.04,1721228157624
5.89,-34.24,16.08,-0.31,0.65,-1.99,1721228157634
3.86,62.00,78.45,2.09,-1.18,-0.57,1721228157644
-14.40,-38.24,-20.92,-1.63,0.95,0.10,1721228157654
-10.16,-23.65,63.05,0.09,0.04,0.30,1721228157664
-20.78,78.45,-9.60,-0.81,-1.02,1.13,1721228157674
9.98,-67.25,-55.41,0.27,0.06,0.51,1721228157684
1.10,-6.04,39.92,-1.88,0.96,-1.59,1721228157694
-78.45,-78.45,-5.11,0.09,-0.17,1.36,1721228157704
-18.40,-25.42,19.05,-0.19,0.21,-0.50,1721228157714
-5.44,19.56,-4.73,-0.60,0.72,0.16,1721228157724
0.40,-11.21,30.97,-0.69,0.06,0.96,1721228157734
10.79,5.55,35.19,0.23,0.60,0.71,1721228157744
10.49,31.64,2.64,0.55,0.22,-0.28,1721228157754
7.68,-18.10,1.18,-0.21,0.29,-1.04,1721228157764
-0.40,31.02,2.27,0.41,-0.36,-0.71,1721228157774
-4.13,-17.04,3.73,0.22,-0.10,-0.95,1721228157784
-14.54,15.26,22.15,0.29,-0.13,-0.24,1721228157794
-9.28,-7.59,-19.80,0.60,0.07,0.74,1721228157804
1.84,-16.77,24.61,-1.42,1.17,0.42,1721228157814
8.62,78.45,54.24,0.95,-0.54,-0.05,1721228157824
-9.25,-44.15,-41.94,1.44,-1.21,-0.30,1721228157834
13.08,34.68,-29.83,-2.14,3.98,-1.36,1721228157844
-10.94,48.09,40.65,-1.27,1.62,-0.39,1721228157854
7.52,53.88,11.38,0.52,-3.31,-0.71,1721228157864
-2.30,-18.47,-1.53,-0.65,0.38,-0.65,1721228157874
-12.01,-5.67,36.80,-0.72,-0.33,-0.72,1721228157884
-6.08,-11.59,-28.65,0.53,-0.25,0.42,1721228157894
0.94,-58.56,20.04,-0.81,1.74,0.07,1721228157904
-30.38,-75.83,70.72,1.02,1.94,0.59,1721228157914
-15.87,-14.57,-6.37,1.11,-0.43,0.55,1721228157924
1.98,22.97,-26.24,-0.39,1.06,0.02,1721228157934
9.39,-1.78,-5.35,1.45,0.71,0.27,1721228157944
-6.49,-78.45,10.30,-2.80,0.43,-0.22,1721228157954
-2.29,-45.17,78.45,0.27,0.39,-0.47,1721228157964
-9.75,76.45,-3.54,2.39,-1.46,-0.64,1721228157974
-3.69,-32.53,-64.23,3.95,-0.08,0.11,1721228157984
-11.51,-48.69,-9.16,-2.47,-4.37,0.23,1721228157994
-75.17,78.45,78.45,-1.95,1.18,1.47,1721228158004
-3.24,16.52,-3.35,4.37,-2.20,-0.13,1721228158013
21.12,-78.45,-57.25,2.52,-0.55,-0.01,1721228158023
-5.55,0.14,47.00,1.02,0.34,0.34,1721228158033
-78.45,-78.45,16.01,-3.76,4.37,3.28,1721228158043
5.60,-45.74,38.55,0.14,-0.28,-0.22,1721228158053
-15.33,78.45,-6.55,2.33,-0.33,0.21,1721228158063
-0.13,-9.46,-38.87,0.98,-0.18,0.56,1721228158073
7.05,-68.81,32.67,-3.01,1.78,0.26,1721228158083
-36.44,-14.76,78.45,1.94,0.77,0.78,1721228158092
-3.31,17.85,14.51,1.64,-2.86,0.26,1721228158102
-5.53,16.42,-78.10,2.22,2.34,0.99,1721228158112
-9.80,-78.45,48.89,-0.61,-4.37,1.92,1721228158122
32.53,-43.35,78.45,0.63,4.37,-1.15,1721228158132
58.88,78.45,3.79,1.86,0.04,0.43,1721228158142
0.99,-56.70,-74.01,2.04,-2.01,0.65,1721228158152
5.83,-11.37,68.81,-2.44,2.14,-0.52,1721228158162
12.57,78.45,-33.92,-2.34,-1.08,0.61,1721228158172
-35.37,-73.52,-25.06,0.35,-0.49,-0.37,1721228158182
-3.50,42.93,-7.37,0.78,0.49,0.61,1721228158192
-2.49,-10.19,-23.23,0.84,-0.95,1.16,1721228158202
15.05,5.64,12.66,-0.60,0.69,0.54,1721228158212
14.42,39.83,55.99,0.25,0.34,0.50,1721228158222
13.45,-78.45,33.33,-0.64,-0.66,-0.74,1721228158232
-2.90,-8.20,26.75,0.75,-0.27,-1.89,1721228158242
0.72,11.39,-27.06,1.28,-0.48,0.16,1721228158252
-13.24,-68.15,-19.64,-0.74,0.96,1.13,1721228158262
-8.16,61.27,52.26,0.37,-0.96,0.47,1721228158272
7.95,56.37,-26.62,1.32,-0.67,1.50,1721228158282
10.13,-78.45,-41.11,-1.69,0.05,0.17,1721228158292
17.49,73.79,66.46,-1.67,0.84,-2.09,1721228158302
-51.16,-22.01,5.45,1.64,-1.23,-0.94,1721228158312
-12.87,-68.10,-58.31,0.06,-0.41,-0.27,1721228158322
-7.91,52.93,44.79,-2.82,2.00,0.06,1721228158332
16.22,11.30,36.86,0.73,-0.22,-0.80,1721228158342
12.34,7.05,-42.09,1.45,-0.37,0.41,1721228158352
13.14,-24.87,-18.00,-2.37,1.28,0.07,1721228158362
12.98,-47.11,51.32,-1.76,0.38,-1.54,1721228158372
-6.86,78.02,64.58,1.81,-1.98,-0.38,1721228158382
0.02,-63.01,-53.82,0.46,0.11,-0.15,1721228158392
3.81,-3.55,46.37,-1.05,0.29,-0.60,1721228158402
30.06,-78.45,-42.69,4.22,-0.06,0.61,1721228158412
7.79,27.87,-3.73,0.37,0.42,1.79,1721228158422
15.10,-55.30,-13.69,-2.09,0.33,1.31,1721228158432
0.82,-6.25,36.76,-0.30,0.64,-0.37,1721228158442
-10.44,28.12,78.45,-1.00,-0.85,-0.50,1721228158452
5.34,-3.68,-0.93,0.22,-0.22,0.17,1721228158462
2.11,33.03,-5.11,0.80,0.37,-0.51,1721228158472
-10.59,9.83,5.45,0.63,0.08,-0.20,1721228158482
-10.68,-7.36,40.77,-0.78,0.83,-0.00,1721228158492
-0.63,5.30,34.53,0.25,-0.13,0.90,1721228158502
7.74,-35.50,-16.46,0.39,0.34,1.04,1721228158512
8.69,35.36,25.39,-0.13,0.95,-0.63,1721228158522
-6.77,-2.53,41.76,0.86,-1.08,-0.62,1721228158532
0.65,15.74,-15.83,1.57,-0.47,-1.05,1721228158542
-6.40,51.08,18.12,1.57,-0.44,-0.22,1721228158552
2.75,-4.58,-29.59,-0.38,0.01,0.84,1721228158562
21.39,-78.45,-9.13,-1.05,1.28,0.22,1721228158572
-4.18,78.45,39.98,-1.82,0.92,-1.30,1721228158582
-15.93,42.17,78.45,2.49,-0.51,-0.65,1721228158592
4.21,-78.45,-52.10,0.66,-0.59,-1.25,1721228158602
-19.14,78.45,36.93,-0.74,0.76,-0.72,1721228158612
-14.07,19.69,25.06,1.89,0.88,0.04,1721228158622
11.68,-34.50,-14.89,-1.36,0.23,-0.46,1721228158632
-29.08,-7.71,74.83,1.57,0.08,-0.40,1721228158642
6.60,-42.60,-76.22,0.73,-0.11,0.48,1721228158657
-4.87,-23.60,-33.71,-1.89,1.70,-0.03,1721228158661
-15.43,14.60,71.52,-2.60,-0.25,-0.39,1721228158671
-63.95,-4.60,67.92,0.96,0.54,0.57,1721228158681
9.58,33.61,-51.96,1.59,-0.60,0.12,1721228158691
5.75,-9.23,-66.05,-0.29,1.21,0.10,1721228158701
7.21,1.22,-4.51,-1.39,-0.48,-0.45,1721228158711
-37.08,-78.45,16.51,-4.37,0.89,-1.12,1721228158721
24.81,76.77,78.45,1.19,-1.46,-1.40,1721228158731
-29.44,31.18,-40.12,4.37,0.33,0.32,1721228158741
17.99,36.19,-78.45,3.00,-0.12,1.38,1721228158751
17.61,-43.26,-78.45,-1.12,0.12,0.76,1721228158761
-67.99,25.21,78.45,-0.94,2.19,-4.37,1721228158771
-2.43,-78.42,-23.24,3.23,-3.72,0.47,1721228158781
-61.20,42.22,-78.45,-4.37,2.15,-0.77,1721228158791
7.37,-60.19,78.45,-2.99,4.37,0.44,1721228158801
-38.58,78.45,41.14,-2.41,-0.66,1.79,1721228158811
-8.96,47.05,-40.48,1.41,-2.11,0.53,1721228158821
8.95,-68.52,-45.31,-1.13,1.95,0.25,1721228158831
-1.38,-10.66,71.69,-0.11,0.06,0.46,1721228158841
-15.55,78.45,-31.89,-2.53,-0.89,2.02,1721228158851
-15.19,-36.28,-24.54,-0.45,1.60,-0.65,1721228158861
-8.09,70.30,28.16,-0.86,1.01,-0.94,1721228158871
-19.76,16.07,25.12,0.46,-0.07,-0.02,1721228158881
-7.50,-66.72,4.31,-0.89,-0.02,0.50,1721228158891
0.49,31.00,24.40,0.80,1.08,0.63,1721228158901
4.95,-18.85,-9.75,0.88,-0.96,0.70,1721228158911
7.99,14.69,-2.70,-0.22,1.23,-0.05,1721228158921
2.25,5.98,48.85,-0.87,0.35,-0.32,1721228158931
5.86,-12.14,24.80,0.54,-0.11,-0.18,1721228158941
1.32,10.72,-37.36,0.03,-0.79,0.17,1721228158951
-0.61,-21.49,20.31,-0.53,1.11,-0.05,1721228158961
-9.28,33.32,37.68,0.92,-1.17,0.54,1721228158971
10.30,3.92,-40.70,1.71,-0.33,0.63,1721228158981
9.89,24.84,-28.65,0.51,1.15,0.10,1721228158991
-33.27,5.08,78.45,-2.60,0.25,-0.37,1721228159001
-1.29,-8.98,78.45,0.68,-1.54,-0.61,1721228159011
0.45,-27.84,-46.52,2.02,-1.53,0.23,1721228159021
-12.14,38.66,-25.40,-1.54,0.94,-0.33,1721228159031
-19.30,49.37,-20.45,-1.35,0.27,0.53,1721228159041
-14.19,-36.81,34.40,0.43,-0.01,0.45,1721228159051
0.09,-6.81,30.89,0.56,-0.57,1.14,1721228159061
8.83,21.55,-19.24,-0.17,0.12,0.36,1721228159071
5.62,16.82,13.92,0.16,0.52,-1.35,1721228159081
-16.39,20.86,24.34,-0.20,-0.68,0.12,1721228159091
-8.79,-55.92,-9.35,-2.10,0.85,0.24,1721228159101
-11.98,2.67,47.25,-0.57,0.95,-0.73,1721228159111
-12.16,25.85,57.78,0.91,-1.59,0.37,1721228159121
-2.91,-13.55,-36.23,0.10,0.53,1.61,1721228159131
13.83,22.69,-14.00,0.45,0.67,1.14,1721228159141
24.98,-1.28,-1.48,-0.76,-0.95,-0.46,1721228159151
2.01,-0.11,30.23,0.13,-0.59,-1.48,1721228159161
-9.79,11.94,-4.30,0.09,-1.36,-1.44,1721228159171
-21.83,-24.91,20.87,-1.34,0.23,-0.59,1721228159181
-14.38,-2.91,56.84,-1.13,0.09,0.98,1721228159191
-1.75,-1.07,-2.46,0.39,-0.04,0.50,1721228159201
3.89,16.01,-8.54,0.32,-0.24,0.38,1721228159211
4.94,13.56,14.72,-0.20,0.83,0.13,1721228159221
5.36,41.42,23.86,1.03,-0.95,0.28,1721228159231
13.02,-60.62,-14.92,-1.40,0.12,-0.34,1721228159241
0.23,-4.63,30.69,0.07,-0.68,-1.36,1721228159251
-42.90,50.27,31.90,-0.61,0.56,0.20,1721228159261
-25.11,2.11,22.22,-0.13,0.81,0.14,1721228159271
-7.90,-10.50,-7.07,-0.42,0.31,1.04,1721228159281
5.19,-10.99,15.09,-0.29,0.70,0.20,1721228159291
5.05,46.51,20.10,1.52,-0.53,-0.04,1721228159301
7.29,22.56,-37.67,1.54,-0.19,0.25,1721228159311
12.84,-78.45,-8.47,-2.02,1.00,-0.81,1721228159321
4.08,-11.85,74.29,0.77,-1.63,-1.35,1721228159331
-7.54,30.51,7.58,0.77,-0.85,-0.14,1721228159341
-8.59,-15.94,-21.45,0.44,-0.01,-0.51,1721228159351
-2.85,-49.58,-21.35,1.34,-0.35,0.05,1721228159361
8.11,35.69,-17.18,1.76,1.61,1.49,1721228159371
17.71,-15.15,-10.95,-2.25,0.33,0.70,1721228159381
-0.95,-78.45,70.87,-1.95,0.49,-1.74,1721228159391
46.91,78.45,78.45,1.05,-2.83,-0.07,1721228159401
-1.21,0.76,-58.73,2.47,1.27,1.66,1721228159411
32.18,1.35,-75.64,-0.77,1.01,1.27,1721228159421
14.09,-56.66,59.61,-0.18,-0.75,-0.91,1721228159431
-47.23,75.28,-3.46,-2.34,-1.08,0.85,1721228159441
-31.83,7.00,54.30,-0.99,-0.10,-0.05,1721228159451
-2.31,-52.88,-71.36,0.04,2.26,1.30,1721228159461
-4.49,-63.63,-14.42,-0.25,3.05,1.42,1721228159471
16.61,9.58,78.45,-0.41,-0.52,-0.73,1721228159481
-78.45,45.70,78.45,-0.86,4.37,-0.76,1721228159491
1.45,-19.57,-47.02,2.23,2.02,0.75,1721228159501
0.90,48.47,-67.59,-2.28,-1.08,1.13,1721228159511
51.66,17.39,46.95,-3.93,4.37,-1.15,1721228159521
54.13,-45.98,60.52,2.15,-0.25,-1.45,1721228159531
-25.45,-1.73,-55.24,0.76,-0.01,-0.46,1721228159541
11.82,10.20,29.91,-1.31,1.77,0.15,1721228159551
14.06,-24.81,19.94,1.70,0.19,-0.48,1721228159561
1.64,-6.28,0.15,-0.38,0.10,-0.24,1721228159571
-4.25,61.95,-9.73,0.83,0.13,-0.26,1721228159581
-0.06,-37.60,-46.11,-0.34,-0.33,0.71,1721228159591
-0.62,-78.45,44.59,-3.34,0.70,-0.21,1721228159601
39.20,-17.05,76.17,2.26,-0.04,-0.29,1721228159611
-38.17,68.72,26.08,3.69,-0.98,-0.71,1721228159621
20.07,11.12,-78.45,4.37,-1.07,0.43,1721228159631
-49.32,-78.45,-71.86,-0.35,-4.37,1.50,1721228159641
-48.07,77.86,78.45,-1.52,4.37,-0.61,1721228159651
-47.97,-31.74,29.14,0.91,-2.66,-0.41,1721228159661
4.51,-70.49,-46.09,0.49,0.63,-0.38,1721228159671
14.88,11.28,20.76,-0.16,0.99,-0.49,1721228159681
26.19,-78.45,-41.36,0.30,3.45,0.08,1721228159691
-7.84,-48.21,7.25,0.93,1.43,0.52,1721228159701
-2.45,49.68,-0.14,1.31,-0.55,0.94,1721228159711
1.96,1.80,-32.06,0.31,-0.78,0.46,1721228159721
13.80,-2.95,60.25,-0.81,0.92,-0.82,1721228159731
-3.47,30.32,78.45,-1.76,-0.32,-0.15,1721228159741
-13.47,-51.29,-34.06,1.04,-1.49,-1.03,1721228159751
-13.39,34.85,2.05,-0.20,1.90,-0.80,1721228159761
-28.08,-56.08,-36.75,1.11,0.74,1.78,1721228159771
14.98,-2.22,-31.47,1.23,1.17,1.19,1721228159781
22.60,-78.45,13.92,-2.13,1.17,-0.35,1721228159791
-13.00,-18.11,78.45,1.33,-0.92,-0.14,1721228159801
-8.04,33.98,9.85,1.84,0.15,-0.55,1721228159811
12.88,-19.04,-48.88,3.39,-1.56,-0.73,1721228159821
-39.67,-78.45,-39.83,-0.39,-4.37,-0.01,1721228159831
49.02,48.52,39.54,-1.97,4.37,-0.41,1721228159841
41.62,78.45,23.34,-1.81,-1.19,3.53,1721228159851
5.20,78.45,-35.12,2.57,-0.34,0.03,1721228159861
15.95,8.92,-64.24,3.06,-1.43,0.23,1721228159871
-25.38,-78.45,-43.40,-1.78,-2.78,-0.01,1721228159881
41.04,22.81,78.45,1.04,4.37,-2.23,1721228159891
-78.45,-71.11,-30.22,4.37,0.79,1.71,1721228159901
12.90,-21.57,-24.41,3.39,-1.66,0.62,1721228159911
5.01,78.45,-35.13,-1.46,1.13,0.99,1721228159921
-17.97,-33.15,43.64,-1.34,4.37,0.72,1721228159931
-4.13,-74.09,39.16,-0.80,-1.12,-0.32,1721228159941
-3.39,30.86,-50.01,1.79,-0.34,-1.00,1721228159951
-11.11,-36.58,-8.14,-0.48,-3.05,-0.32,1721228159961
-19.19,23.95,55.70,0.68,-1.10,-0.46,1721228159971
-0.26,28.80,4.43,1.47,0.16,-0.15,1721228159981
6.73,47.51,-11.90,0.78,0.70,1.21,1721228159991
4.50,10.21,-7.80,-0.92,-0.47,0.83,1721228160001
25.57,-78.45,-28.82,-0.25,-0.87,-0.19,1721228160011
25.42,54.71,49.38,-1.52,2.23,-1.32,1721228160021
-11.17,-5.92,62.12,-0.30,1.34,-1.39,1721228160031
1.46,2.32,-43.59,1.61,-2.02,-0.35,1721228160041
-1.93,35.90,-43.96,0.25,0.86,0.57,1721228160051
5.38,-43.96,15.02,-2.11,0.15,-0.05,1721228160061
-3.90,-7.85,78.45,-0.04,-0.51,-0.67,1721228160071
-0.70,-1.64,-23.72,1.13,-1.12,-0.51,1721228160081
-8.03,-49.57,2.25,-1.80,1.35,-0.65,1721228160091
22.12,-31.39,4.74,0.88,-0.37,-1.88,1721228160101
-26.84,-2.30,-26.62,1.22,1.77,1.28,1721228160111
16.25,-1.14,-5.28,-0.12,1.28,1.02,1721228160121
2.78,19.25,-12.82,-0.49,-0.17,0.37,1721228160131
13.41,-78.45,10.21,-0.35,0.14,-0.83,1721228160141
4.38,20.48,28.71,0.38,-1.14,-1.00,1721228160151
-1.63,-7.54,6.57,0.30,-0.16,0.58,1721228160161
6.13,-3.43,20.11,-0.36,0.82,0.86,1721228160171
12.22,5.42,-18.91,0.20,-0.16,1.18,1721228160181
13.11,-46.18,31.58,-1.23,0.78,-0.59,1721228160191
0.76,78.45,13.86,0.46,-1.65,-0.45,1721228160201
4.90,-35.60,-23.00,1.75,-0.47,-0.30,1721228160211
-2.42,-16.63,17.55,0.51,0.61,-0.46,1721228160221
15.00,-70.21,-5.63,3.65,0.14,0.33,1721228160231
-0.46,-55.67,56.72,-1.57,2.42,0.69,1721228160241
11.94,29.43,-40.95,0.27,1.01,-0.23,1721228160251
-1.70,-22.01,-8.80,-0.05,0.05,-0.03,1721228160261
-19.17,-32.51,36.19,0.71,0.83,-0.47,1721228160271
-9.03,-3.42,19.29,1.37,-0.77,0.54,1721228160281
3.43,14.32,-2.62,0.70,0.95,0.13,1721228160291
6.17,73.98,20.80,0.57,-0.39,0.42,1721228160301
7.22,-38.77,-6.21,-1.61,0.44,-0.15,1721228160311
-2.59,-46.71,35.91,0.41,-0.34,-0.97,1721228160321
8.21,77.72,10.38,-0.06,-0.04,-0.47,1721228160331
-7.44,-17.75,-7.64,0.51,0.40,-0.20,1721228160341
-8.65,25.40,6.60,1.01,-0.26,0.24,1721228160351
2.96,29.88,-34.39,0.70,0.17,0.64,1721228160361
6.94,-59.82,-10.10,-2.06,0.76,-0.22,1721228160371
-1.75,16.87,58.28,1.14,-0.40,-1.28,1721228160381
2.10,14.65,-38.31,-0.09,-0.47,0.29,1721228160391
-16.28,-31.55,75.65,-1.30,-0.36,-0.49,1721228160401
-3.88,78.45,78.45,-0.60,-0.92,-0.58,1721228160411
-0.05,-12.40,-71.91,2.10,0.35,0.07,1721228160421
5.12,-34.94,-45.97,-3.13,1.06,0.41,1721228160431
-7.32,77.81,-24.13,-0.32,0.55,-0.20,1721228160441
-27.57,-5.59,13.02,-1.95,0.34,-0.07,1721228160451
-9.27,-22.17,49.67,0.64,0.36,-1.09,1721228160461
-5.90,22.03,-19.19,1.08,-0.21,-0.12,1721228160471
-3.58,-20.04,22.64,-1.82,2.16,0.38,1721228160481
11.73,47.37,51.60,-0.74,-0.68,0.87,1721228160491
13.54,-13.36,-19.16,-0.46,-0.21,0.56,1721228160501
20.70,9.38,-19.36,0.13,0.47,-0.95,1721228160511
-10.45,-0.51,45.12,-0.82,0.03,-2.05,1721228160521
-24.90,14.98,49.41,0.76,-0.14,-1.21,1721228160531
-15.25,6.44,-35.79,0.89,0.47,0.77,1721228160541
-8.70,-22.87,19.05,-0.56,1.72,1.23,1721228160551
-3.17,78.45,38.12,-0.28,-0.20,0.94,1721228160561
6.70,-43.57,-12.66,-0.62,-0.50,0.00,1721228160571
16.61,-30.93,21.74,-1.38,1.04,-0.54,1721228160581
-1.99,78.45,64.80,0.68,-0.12,-0.43,1721228160591
-10.58,16.23,-22.34,2.20,-0.90,-1.65,1721228160601
-6.51,6.08,-49.12,2.11,0.71,0.10,1721228160611
-4.25,-37.99,12.91,-0.12,0.17,1.69,1721228160621
0.68,19.28,53.93,-0.09,0.64,0.06,1721228160631
6.91,49.31,60.49,0.35,-0.22,1.46,1721228160641
5.43,-61.10,-39.86,1.10,-2.11,0.18,1721228160651
-0.50,-7.86,31.90,-1.57,-0.00,-0.66,1721228160666
9.12,-78.45,-44.66,-0.03,-0.35,-1.29,1721228160670
-5.45,26.70,27.72,1.94,-0.53,-0.44,1721228160680
-1.40,11.22,-57.96,1.68,-0.73,0.20,1721228160690
-1.66,-7.86,37.73,-0.73,1.88,-0.01,1721228160700
7.30,78.45,-26.87,-1.12,-1.17,1.43,1721228160710
12.35,-71.96,-34.28,-1.05,-0.73,0.01,1721228160720
-5.62,-47.97,47.98,0.18,0.09,-1.84,1721228160730
-31.78,-78.45,52.00,2.22,-0.07,-0.63,1721228160740
-12.03,55.96,-38.93,1.13,2.32,0.40,1721228160750
-2.18,-45.64,-49.87,0.64,-0.05,0.86,1721228160760
-3.54,-17.50,35.10,-0.55,0.39,0.21,1721228160770
-41.15,65.46,24.83,0.02,2.42,1.37,1721228160780
-3.06,-28.13,-10.48,0.40,-1.06,0.27,1721228160790
1.00,-21.76,-14.32,-1.02,1.65,-0.34,1721228160800
-6.31,-3.26,51.11,-1.64,-0.51,-0.28,1721228160810
-24.20,10.79,69.66,0.45,-0.05,0.21,1721228160820
-7.69,2.43,-39.45,1.36,-0.76,0.86,1721228160830
3.11,-14.26,-26.56,-0.80,1.40,0.77,1721228160840
17.79,-35.46,38.47,-0.62,1.41,-0.57,1721228160850
-13.47,16.19,35.16,-0.39,0.20,0.77,1721228160860
4.82,-78.45,-30.43,-0.24,0.88,-0.28,1721228160870
-10.14,58.44,17.95,-1.42,0.55,-0.37,1721228160880
-13.93,-2.52,62.85,0.35,-0.41,0.47,1721228160890
-10.63,33.89,39.85,0.85,0.70,1.17,1721228160900
9.88,78.45,-14.47,1.55,-0.48,1.09,1721228160910
9.00,-57.82,-53.37,-0.70,-0.95,0.01,1721228160920
0.49,-78.45,41.11,-0.09,-1.10,-0.77,1721228160930
36.83,-34.68,-30.87,0.84,-0.28,-2.13,1721228160940
-24.88,-20.97,10.08,0.93,-1.06,-0.17,1721228160950
-15.65,23.88,-35.96,0.56,0.37,0.02,1721228160960
-7.37,15.27,27.21,-0.27,0.17,1.50,1721228160970
-4.35,8.05,35.35,-0.41,0.20,1.47,1721228160980
12.49,-4.92,8.32,0.04,0.51,0.99,1721228160990
21.38,-29.86,9.28,0.79,-0.31,0.49,1721228161000
0.95,65.99,-37.75,1.13,-1.25,0.09,1721228161010
8.42,-51.56,-22.15,-0.82,0.03,-0.66,1721228161020
-13.84,13.78,66.29,-0.98,1.09,-1.60,1721228161030
-4.04,40.93,31.63,1.67,-0.94,0.06,1721228161040
-8.43,-48.01,-53.06,0.66,-0.19,0.31,1721228161050
-11.30,53.13,3.30,-1.38,0.37,0.62,1721228161060
12.35,29.68,-14.72,-1.16,0.60,0.77,1721228161070
12.18,34.68,27.97,1.08,-0.19,0.11,1721228161080
2.55,-3.13,-24.85,-0.55,-1.34,-0.49,1721228161090
4.23,-18.59,25.05,-1.58,1.60,-0.93,1721228161100
-13.20,54.01,60.39,0.09,-0.97,-0.27,1721228161110
-0.21,-16.66,-56.22,1.28,-0.50,-0.17,1721228161120
1.66,26.68,-52.39,1.68,0.73,0.11,1721228161130
7.56,-14.16,-12.82,-0.60,-0.70,0.19,1721228161140
23.62,78.45,56.97,-1.66,-1.39,-0.32,1721228161150
-6.44,-10.13,38.89,-0.16,-0.89,0.04,1721228161160
10.40,-72.48,-57.27,0.80,0.38,-0.37,1721228161170
14.37,50.96,4.77,0.22,-1.26,0.39,1721228161180
-52.42,-78.45,78.45,-0.42,0.54,0.04,1721228161190
16.47,-8.99,32.28,-0.04,1.60,0.29,1721228161200
-7.16,29.93,-9.92,0.50,-0.84,0.79,1721228161210
-6.64,23.03,20.12,-1.84,0.96,1.40,1721228161220
6.01,16.57,15.66,-0.01,0.11,1.26,1721228161230
17.57,-78.45,-21.84,-0.29,-0.15,-0.32,1721228161240
10.34,25.95,51.89,-1.11,1.56,-1.57,1721228161250
-18.76,18.23,52.70,-0.14,-1.29,-0.83,1721228161260
-6.56,-8.98,-6.51,0.26,-0.05,-0.12,1721228161270
-1.26,36.40,-14.41,1.09,-0.12,0.65,1721228161280
2.02,14.83,-32.87,1.44,-0.57,1.04,1721228161290
9.56,-54.58,-6.64,-1.56,1.00,0.06,1721228161300
-1.66,-15.71,78.45,-0.84,-0.98,-1.26,1721228161310
11.72,78.45,57.90,-0.41,-0.59,0.52,1721228161320
1.60,-9.29,-58.26,3.11,-0.44,0.24,1721228161330
0.31,-47.81,11.39,-1.86,1.35,-0.13,1721228161340
-4.81,-39.77,24.98,0.21,-0.69,-0.75,1721228161350
-7.47,47.18,-34.35,1.96,-0.67,0.09,1721228161360
1.05,-37.02,-50.69,0.15,0.05,1.06,1721228161370
2.36,-57.85,78.06,-2.00,2.07,-0.33,1721228161380
11.48,78.45,78.45,0.70,-1.85,-0.97,1721228161390
-12.79,32.07,-42.76,2.76,-0.04,0.94,1721228161400
19.76,-38.68,-62.00,0.85,1.93,1.48,1721228161410
-5.52,-78.45,78.45,-1.02,1.99,-0.92,1721228161420
-3.77,-40.83,36.50,-0.47,-2.56,-3.71,1721228161430
29.48,-78.45,6.37,-1.15,0.77,-1.27,1721228161440
-3.23,4.18,10.54,-0.61,1.30,-0.26,1721228161450
-1.78,-17.42,53.69,-3.06,-0.18,-0.54,1721228161460
40.56,78.45,78.45,0.98,-0.19,-1.64,1721228161470
-7.30,34.69,-20.50,1.27,-2.02,0.86,1721228161480
-10.20,-66.40,-19.10,-0.02,-1.58,0.75,1721228161490
8.31,-29.82,10.49,-0.36,0.15,-1.23,1721228161500
-17.56,37.06,28.27,-0.10,-1.50,-0.10,1721228161510
-8.36,5.64,-2.93,1.49,-0.17,0.54,1721228161520
11.61,-32.29,-34.20,0.96,-0.58,1.09,1721228161530
29.26,46.46,11.96,-0.00,2.05,-0.17,1721228161540
18.81,0.85,-5.08,-1.27,-0.12,-0.21,1721228161550
4.04,-78.45,47.97,-0.98,0.79,-1.35,1721228161560
-35.56,78.45,48.53,0.42,-1.39,-1.64,1721228161570
5.51,8.85,-55.84,0.46,0.39,0.35,1721228161580
-13.01,-69.91,-7.80,-1.06,1.34,1.61,1721228161590
-9.48,52.52,6.53,-0.94,1.96,0.13,1721228161600
7.51,-28.30,12.52,0.96,-0.88,0.06,1721228161610
7.20,23.24,12.24,0.45,-0.56,-0.57,1721228161620
4.92,-39.62,-11.70,-0.71,-1.14,-0.29,1721228161630
3.95,21.50,20.99,-0.56,1.45,-1.48,1721228161640
-12.51,31.95,42.78,0.45,-0.60,-1.24,1721228161650
-10.16,-33.75,-16.96,-0.51,-0.65,0.26,1721228161660
0.36,34.96,10.10,-0.32,1.29,0.95,1721228161670
3.74,16.80,-7.30,0.50,-0.49,0.04,1721228161680
10.08,2.18,-5.37,0.04,0.30,-0.86,1721228161690
-5.80,21.93,7.99,0.59,-0.89,-1.16,1721228161700
-8.27,-51.55,-8.98,-1.35,-0.26,-0.61,1721228161710
-5.48,21.99,42.34,-0.98,1.21,-0.24,1721228161720
-7.93,18.84,-9.66,1.19,-0.66,1.46,1721228161730
13.12,-78.45,8.81,-2.20,1.86,0.41,1721228161740
9.71,33.24,78.45,0.88,-0.76,-0.61,1721228161750
5.94,9.77,-13.86,0.21,-0.57,-0.11,1721228161760
5.00,-39.94,-1.99,-0.55,2.35,0.66,1721228161770
15.25,-6.34,17.26,0.94,-0.33,0.93,1721228161780
14.31,15.76,62.76,-0.88,0.79,-0.12,1721228161790
-0.44,35.00,17.62,1.29,-0.79,0.33,1721228161800
5.04,-66.20,-28.78,1.25,-0.61,-0.25,1721228161810
-15.58,47.94,19.94,-0.01,1.13,-1.16,1721228161820
-30.86,-40.28,-19.21,2.53,-0.87,0.68,1721228161830
-25.77,10.44,-28.79,2.01,1.23,0.49,1721228161840
-0.62,-35.72,4.80,-2.83,0.75,1.62,1721228161850
-0.83,-75.87,78.45,-2.27,2.79,-0.63,1721228161860
13.06,78.45,59.62,2.09,-0.26,0.73,1721228161870
4.57,-71.00,-68.31,3.93,-1.55,-0.01,1721228161880
-21.51,-34.17,-78.45,-3.96,-1.41,-1.69,1721228161890
1.44,78.45,10.93,-2.25,2.89,-0.59,1721228161900
-2.37,3.56,3.88,0.21,-1.40,-0.91,1721228161910
3.75,-45.30,1.92,0.42,-1.30,-1.04,1721228161920
-2.54,78.45,30.73,-0.21,-0.54,0.08,1721228161930
0.17,-7.83,-16.62,0.36,-0.93,-0.58,1721228161940
-13.24,-66.50,-16.24,-0.25,-0.29,-0.91,1721228161950
-11.80,7.63,8.57,-1.28,0.42,0.11,1721228161960
39.73,74.84,-6.49,0.56,0.67,0.88,1721228161970
-2.70,16.02,-14.01,1.55,-0.82,1.22,1721228161980
13.59,-51.32,-14.15,-0.35,0.95,1.36,1721228161990
12.20,78.45,60.99,-0.62,1.54,-0.72,1721228162000
6.32,78.45,56.50,0.29,0.18,-1.12,1721228162010
-5.13,-78.45,-17.83,1.75,-0.82,-0.88,1721228162020
0.10,71.04,-37.99,0.31,0.42,0.43,1721228162030
11.95,-54.39,-16.14,0.40,0.55,-0.47,1721228162040
-9.88,40.84,29.83,0.97,1.58,-0.49,1721228162050
5.59,-36.75,3.40,-0.06,-0.87,0.01,1721228162060
2.40,29.68,17.43,0.25,1.35,-0.85,1721228162070
-5.96,62.64,22.07,-0.09,-1.10,-0.09,1721228162080
2.70,-42.37,-1.73,-0.38,0.03,-0.14,1721228162090
-7.91,17.49,52.09,-0.11,0.13,-0.30,1721228162100
12.62,2.42,-19.24,0.37,-1.28,0.36,1721228162110
-1.83,-23.70,26.77,-0.34,1.00,-0.09,1721228162120
-4.66,78.45,63.80,1.10,0.33,1.13,1721228162130
-5.41,19.08,-44.74,1.46,-0.17,0.50,1721228162140
14.44,-78.45,22.86,-3.02,2.33,-0.75,1721228162150
27.79,49.94,63.61,-2.77,-2.08,-2.16,1721228162160
17.47,16.39,-26.41,0.62,-0.40,-0.57,1721228162170
-9.39,-25.54,-6.09,-0.54,0.41,0.75,1721228162180
0.75,25.26,10.33,-0.67,0.51,1.43,1721228162190
8.89,78.45,-23.59,-0.89,-1.15,1.07,1721228162200
15.93,13.09,49.34,-1.13,-0.91,-0.63,1721228162210
24.30,-37.92,46.02,0.26,-0.55,-0.24,1721228162220
2.45,18.36,-29.90,1.42,-1.54,-2.64,1721228162230
-23.31,26.99,-55.68,0.58,-0.08,-1.36,1721228162240
-22.13,-78.45,-12.26,-0.35,0.93,1.09,1721228162250
-20.36,78.45,45.05,-0.64,1.89,1.83,1721228162260
34.43,13.87,15.41,-3.24,-0.15,0.89,1721228162270
10.44,-78.45,78.45,-0.75,0.23,0.20,1721228162280
36.64,78.45,-49.29,3.55,-1.02,0.81,1721228162290
4.67,-59.20,-62.47,-1.26,1.65,-0.34,1721228162300
-1.18,19.36,57.93,0.15,4.37,-1.30,1721228162310
-78.45,-0.02,-36.05,1.36,-1.90,1.73,1721228162320
-2.40,35.93,22.70,-0.71,2.06,0.42,1721228162330
-2.30,22.31,41.59,-0.55,0.24,1.22,1721228162340
11.80,-43.96,-29.22,-0.31,-0.17,0.80,1721228162350
30.25,-27.37,12.15,0.87,-1.17,-0.26,1721228162360
-5.06,47.48,25.74,-2.96,0.55,-0.78,1721228162370
-52.70,78.45,14.90,-1.55,-1.08,-0.82,1721228162380
-18.53,35.39,-10.63,1.73,-0.01,0.41,1721228162390
5.47,-5.36,-33.67,-0.76,0.02,1.21,1721228162400
1.87,-13.89,78.45,-0.43,1.18,-0.30,1721228162410
-12.80,21.12,0.70,0.99,-1.55,-0.92,1721228162420
2.66,31.75,-27.83,-0.15,0.41,0.59,1721228162430
3.62,13.83,30.67,0.64,0.62,0.80,1721228162440
10.30,-12.17,0.36,0.62,-1.11,0.92,1721228162450
13.90,-17.41,-16.76,0.23,0.48,-0.20,1721228162460
9.52,20.63,1.58,0.71,-0.78,-1.26,1721228162470
9.89,8.55,-8.10,0.32,-0.02,-0.41,1721228162480
-6.92,-44.87,54.50,-0.34,0.33,-0.65,1721228162490
-15.53,22.13,34.57,0.60,-0.80,0.41,1721228162500
2.72,-44.80,-13.51,-0.45,0.98,0.57,1721228162510
23.89,31.76,52.10,-0.42,-0.17,0.59,1721228162520
19.36,-2.09,-7.57,1.13,-0.45,0.81,1721228162530
13.82,38.55,4.74,0.20,1.31,-0.59,1721228162540
4.61,34.53,-2.42,0.09,-0.54,-0.56,1721228162550
-2.07,-78.45,-23.62,0.65,0.54,-0.74,1721228162560
36.93,7.53,6.58,0.82,0.07,-1.65,1721228162570
-67.40,78.45,7.42,-0.36,-0.52,1.22,1721228162580
-11.48,-49.84,3.17,0.28,0.40,0.21,1721228162590
12.21,19.48,29.20,0.64,0.68,-0.34,1721228162600
5.44,-15.81,11.88,-0.39,-0.23,-0.12,1721228162610
-5.37,-6.60,-7.36,1.10,-0.20,-0.72,1721228162620
-14.39,-16.70,-23.99,0.43,0.85,0.27,1721228162630
2.13,-34.20,21.05,-1.21,1.21,-0.19,1721228162640
-13.90,67.19,78.45,0.27,-1.31,-0.59,1721228162650
-10.94,12.22,3.10,0.89,-0.14,-0.15,1721228162660
6.75,-27.32,-54.00,-0.69,0.84,1.48,1721228162675
18.87,-38.59,-6.38,-0.90,1.52,0.98,1721228162679
14.37,25.06,34.53,-1.14,0.67,-1.23,1721228162689
15.15,26.16,-1.13,0.14,-1.54,-2.13,1721228162699
1.13,-34.72,-11.78,0.99,-1.87,-2.21,1721228162709
-37.05,6.89,42.90,-0.00,0.25,-0.13,1721228162719
-5.93,20.75,22.96,0.60,0.35,1.37,1721228162729
14.32,-11.81,-46.94,0.90,-0.06,1.28,1721228162739
21.53,-78.45,-3.36,-1.12,0.92,-0.41,1721228162749
-1.26,52.69,78.45,-1.90,-0.23,-1.76,1721228162759
11.27,53.75,25.00,-0.06,-0.84,-2.41,1721228162769
-10.64,-17.12,-48.40,2.26,-1.85,-0.82,1721228162779
-15.74,-64.58,-16.17,-0.20,1.30,1.19,1721228162789
-4.77,-12.06,28.82,-1.41,0.86,1.44,1721228162799
43.18,67.93,-31.51,2.49,2.26,1.55,1721228162809
8.02,-52.03,-15.27,1.59,-0.09,0.26,1721228162819
13.52,-11.08,36.25,-0.65,1.59,-1.20,1721228162829
-0.57,78.45,36.12,0.91,-0.87,-0.68,1721228162839
-13.41,8.21,-13.34,0.40,-0.54,-0.21,1721228162849
-6.01,-78.45,-15.77,0.01,0.49,0.63,1721228162859
21.13,7.41,-20.59,1.28,1.04,0.67,1721228162869
38.44,-9.70,9.13,-0.71,-0.74,0.78,1721228162879
5.35,-70.78,61.86,-0.55,0.32,-0.92,1721228162889
-4.32,38.96,51.03,0.03,-1.31,-1.76,1721228162899
-14.62,61.29,-25.05,1.04,-0.27,-0.13,1721228162909
-12.42,-41.96,8.91,-0.36,1.12,0.64,1721228162919
-6.51,-10.79,44.56,-1.19,0.47,0.96,1721228162929
-3.85,-26.37,-24.64,1.18,-0.11,0.84,1721228162939
4.69,8.01,-20.88,-0.11,0.62,0.13,1721228162949
10.50,-46.87,20.23,0.79,-0.02,-0.47,1721228162959
7.06,40.86,22.13,1.33,0.31,-0.27,1721228162969
-1.20,28.16,-48.19,1.30,-1.19,-0.20,1721228162979
0.62,-62.53,-22.04,-2.24,1.01,-0.58,1721228162989
-14.58,-41.49,78.45,-0.82,1.31,-0.59,1721228162999
4.31,78.45,25.14,-2.17,-1.07,-0.04,1721228163009
-2.13,-20.28,-68.98,3.06,-0.95,0.07,1721228163019
-13.44,-21.43,-6.34,-1.93,1.58,0.50,1721228163029
-18.50,54.86,-5.05,-1.01,1.80,0.97,1721228163039
8.85,-26.83,-8.62,0.08,-0.28,0.57,1721228163049
2.39,-48.21,-6.55,-2.15,1.23,-0.44,1721228163059
-2.70,22.27,78.45,-1.12,-1.23,-2.10,1721228163069
14.23,78.45,20.63,0.46,-0.73,-0.48,1721228163079
-32.26,-57.36,-59.74,2.61,0.04,1.02,1721228163089
2.45,-44.75,65.38,-0.50,3.51,0.60,1721228163099
14.43,21.20,-29.17,3.89,-0.76,1.00,1721228163109
-6.60,-78.45,-38.43,1.66,-0.28,0.92,1721228163119
16.70,-66.04,68.78,0.86,0.13,-0.77,1721228163129
-12.62,37.45,62.22,-2.54,-0.41,-1.60,1721228163139
10.87,1.53,53.35,0.43,-0.59,-1.91,1721228163149
-23.89,11.33,-44.84,1.68,-1.15,0.73,1721228163159
4.70,-8.70,-54.83,0.19,0.93,1.33,1721228163169
20.34,-68.30,54.74,-2.29,1.17,-0.39,1721228163179
-32.85,5.46,78.45,0.03,0.45,-1.58,1721228163189
-34.48,78.45,-32.18,3.80,-3.11,-1.59,1721228163199
-14.21,-28.20,-78.45,-0.20,-0.07,-0.16,1721228163209
15.12,-78.45,78.45,-3.88,4.37,0.68,1721228163219
-19.22,25.40,78.45,0.03,1.43,-0.97,1721228163229
-43.64,36.71,-61.38,1.97,-3.56,0.45,1721228163239
18.76,-33.50,-17.67,-0.15,4.37,0.53,1721228163249
13.09,39.18,16.86,0.57,0.46,-0.77,1721228163259
-36.92,78.45,-3.18,-1.50,2.54,1.16,1721228163269
14.73,-78.45,-43.87,-0.59,2.17,-0.80,1721228163279
-16.01,-73.67,-3.49,3.00,0.13,-1.27,1721228163289
-38.14,1.93,52.67,1.07,-0.34,-1.14,1721228163299
26.97,-29.86,26.77,-0.43,-3.76,0.32,1721228163309
11.94,18.92,62.85,-1.28,2.19,-0.18,1721228163319
14.65,1.09,68.70,-0.74,-1.21,0.77,1721228163329
10.29,57.04,-48.00,0.72,-1.00,0.78,1721228163339
10.79,13.01,-53.75,-0.86,0.33,0.02,1721228163349
-12.78,-78.45,58.04,-2.33,0.78,-1.63,1721228163359
26.32,-1.53,78.45,0.01,-0.91,-2.44,1721228163369
-61.89,33.82,78.45,0.77,-3.61,-0.49,1721228163379
-16.08,-33.52,-49.20,0.83,0.86,1.30,1721228163389
-14.70,-16.06,25.61,-0.35,1.14,2.69,1721228163399
12.19,-13.70,13.37,-0.44,1.70,0.48,1721228163409
16.54,-47.58,32.65,0.68,-0.70,-2.10,1721228163419
-0.25,69.55,21.99,0.35,-0.91,-0.49,1721228163429
0.19,-19.36,-28.15,1.71,-0.31,0.89,1721228163439
7.21,-49.55,-38.77,-1.10,0.31,1.14,1721228163449
13.29,51.43,36.36,-1.11,2.06,-0.97,1721228163459
28.95,78.45,3.68,2.36,-2.94,-1.13,1721228163469
22.82,-31.89,3.76,2.53,-3.03,0.24,1721228163479
13.29,16.05,3.93,0.21,1.05,0.80,1721228163489
16.18,-36.54,39.55,-0.51,0.76,0.41,1721228163499
4.44,-12.78,32.53,1.42,0.75,0.41,1721228163509
8.46,-71.30,-22.48,-0.31,1.65,0.39,1721228163519
-18.95,64.13,37.67,-0.99,0.27,-1.95,1721228163529
-58.75,-15.46,45.04,-1.78,1.75,1.16,1721228163539
-21.33,-13.60,15.13,0.49,1.26,1.92,1721228163549
21.05,-5.05,-13.58,0.86,1.55,1.61,1721228163559
25.43,-33.87,14.59,-0.79,1.06,-0.01,1721228163569
26.14,34.70,50.63,2.31,-0.01,-2.89,1721228163579
11.18,-34.91,-34.68,-0.18,-1.75,-1.12,1721228163589
-25.21,-46.69,64.23,-0.41,-0.08,-1.30,1721228163599
-11.54,69.58,33.36,-0.13,0.66,-0.02,1721228163609
18.01,9.03,-33.51,0.33,-3.54,1.12,1721228163619
-1.22,70.26,39.57,0.27,0.00,-0.39,1721228163629
-78.45,78.45,-78.34,-2.03,-1.96,-0.01,1721228163639
2.00,-78.45,-2.63,-1.58,2.13,-0.77,1721228163649
-33.59,78.45,45.32,-1.83,-1.08,-0.65,1721228163659
78.45,-6.00,-17.27,2.97,2.04,-0.30,1721228163669
-13.46,-17.51,-17.95,1.18,1.12,0.01,1721228163679
-4.92,45.27,-34.68,0.56,0.16,0.61,1721228163689
2.92,-67.45,-35.98,-2.94,1.05,0.83,1721228163699
6.14,-12.44,78.45,-0.05,1.74,-0.75,1721228163709
-75.24,-78.45,-12.26,-1.99,1.82,2.26,1721228163719
-23.54,-64.12,-33.75,-0.12,1.74,0.08,1721228163729
6.24,12.90,6.44,-1.77,2.12,0.11,1721228163739
16.50,36.22,78.45,-2.08,0.80,0.05,1721228163749
60.55,22.82,34.57,2.67,-4.09,0.34,1721228163759
19.92,-66.32,-55.11,1.41,-0.01,0.68,1721228163769
28.13,-78.45,78.45,1.45,1.77,-0.95,1721228163779
-4.61,39.65,25.72,-2.42,-1.77,-0.41,1721228163789
-78.45,78.45,-20.91,-2.02,0.77,-0.82,1721228163799
-39.65,20.85,12.20,2.16,-2.00,-0.36,1721228163809
-3.93,31.66,-51.39,0.58,0.29,1.01,1721228163819
5.08,-78.45,58.44,-3.71,0.72,0.76,1721228163829
-47.93,-65.06,78.45,-2.25,2.75,2.04,1721228163839
-9.67,62.14,-11.21,2.44,-2.18,0.41,1721228163849
5.96,-7.91,-52.96,1.61,-0.40,-2.42,1721228163859
7.98,-76.01,40.38,0.60,0.32,-0.74,1721228163869
-29.17,-11.17,6.17,-0.70,-0.30,-0.95,1721228163879
-18.10,78.45,29.36,0.77,-0.52,-0.86,1721228163889
-0.11,64.27,6.65,1.78,-2.98,0.79,1721228163899
4.36,-78.45,-48.39,0.37,1.25,1.45,1721228163909
-5.54,78.45,58.13,-0.98,4.37,0.95,1721228163919
-40.84,-78.45,-23.60,2.91,2.13,-0.42,1721228163929
18.53,-63.24,-21.34,0.02,0.84,0.11,1721228163939
1.38,36.19,14.23,0.66,-0.22,0.12,1721228163949
14.26,-4.59,7.79,-0.45,0.26,-0.02,1721228163959
-7.17,-26.87,53.20,0.03,-1.13,0.33,1721228163969
7.92,-37.81,-20.93,0.38,0.25,-0.82,1721228163979
-2.32,-10.80,28.53,0.11,-0.13,-0.75,1721228163989
24.80,18.44,30.27,2.04,0.64,-1.01,1721228163999
5.37,-43.38,4.22,0.60,-0.53,0.05,1721228164009
3.24,-1.49,38.61,-0.82,1.04,0.24,1721228164019
6.72,8.26,6.21,2.25,1.44,0.45,1721228164029
10.57,-50.77,-17.70,0.08,0.20,0.01,1721228164039
2.97,-26.75,77.92,-0.05,2.67,-1.27,1721228164049
7.35,16.19,49.44,1.11,-1.57,-1.50,1721228164059
2.11,-58.51,9.16,-0.03,-0.91,-0.70,1721228164069
-11.22,-5.80,-30.08,0.57,-0.10,0.70,1721228164079
-0.91,-43.88,-25.55,0.04,0.21,1.03,1721228164089
11.77,17.56,73.06,-2.01,0.94,-0.15,1721228164099
30.66,-74.98,-22.17,3.92,2.09,-0.94,1721228164109
11.78,-63.80,-39.92,0.53,1.88,-0.06,1721228164119
23.66,44.76,53.58,-0.39,1.28,-0.12,1721228164129
18.83,-6.34,-5.51,1.75,-1.48,0.31,1721228164139
44.35,50.37,0.83,1.13,0.75,0.55,1721228164149
26.87,5.81,-8.77,-2.73,-0.03,-0.39,1721228164159
20.13,-78.45,78.45,-2.99,3.22,-0.85,1721228164169
-78.45,78.45,-30.30,4.37,0.96,1.50,1721228164179
-3.56,-6.17,-78.45,1.00,2.18,-0.28,1721228164189
5.69,-78.45,-59.34,-1.27,4.37,0.63,1721228164199
-78.45,78.45,2.68,-1.85,-2.46,-0.27,1721228164209
-27.37,78.45,-78.45,-3.05,-2.75,0.61,1721228164219
-17.93,69.92,-19.11,0.39,-2.09,1.12,1721228164229
-0.07,30.08,43.41,-0.78,2.72,0.29,1721228164239
-5.08,54.10,78.45,1.27,-1.16,0.19,1721228164249
59.27,-66.02,-38.97,-2.65,0.58,-1.26,1721228164259
-37.62,-78.45,78.45,-4.37,1.63,-0.42,1721228164269
0.03,-68.59,-30.01,-2.38,2.28,-1.63,1721228164279
-13.06,-36.19,-32.26,-1.85,-4.37,1.20,1721228164289
-9.57,-19.85,43.07,2.77,-2.46,-0.37,1721228164299
26.77,78.45,-19.14,1.79,0.17,-0.36,1721228164309
-10.17,-62.91,22.29,-2.20,0.78,-0.22,1721228164319
-16.94,-11.04,78.38,-0.61,0.53,-0.42,1721228164329
-16.80,78.45,-32.76,1.62,-3.52,0.56,1721228164339
-4.99,-26.48,-17.31,1.56,1.50,0.70,1721228164349
-7.86,30.28,11.70,0.41,0.90,0.51,1721228164359
12.45,-62.99,20.79,-1.35,0.36,-0.98,1721228164369
10.05,-18.46,32.47,0.91,-0.36,-1.23,1721228164379
4.71,52.32,-45.62,2.32,-1.11,0.29,1721228164389
18.73,-37.93,-58.54,-1.66,0.14,0.81,1721228164399
-10.95,-78.45,78.45,0.82,-2.05,0.09,1721228164409
55.19,-24.16,78.45,3.74,4.37,-1.29,1721228164419
8.45,-23.11,17.65,-0.06,2.55,0.23,1721228164429
-18.90,64.32,-78.45,0.80,-0.21,1.47,1721228164439
-30.55,-74.42,-0.76,0.57,-4.37,2.86,1721228164449
-11.38,-43.98,-3.90,-2.01,1.28,-0.81,1721228164459
-64.28,10.81,57.47,-1.32,-2.83,-1.34,1721228164469
-36.22,78.45,-34.23,-1.66,-2.27,0.24,1721228164479
10.62,74.88,2.19,0.33,-0.16,1.32,1721228164489
6.15,-30.60,-44.28,0.83,0.36,0.89,1721228164499
21.47,-74.95,28.13,-1.14,1.21,-0.77,1721228164509
-46.90,30.48,43.63,0.55,0.08,-1.01,1721228164519
5.86,-19.07,-60.80,1.06,0.83,-1.47,1721228164529
17.84,-32.96,78.45,-1.70,1.09,0.51,1721228164539
-53.07,37.33,69.39,-1.10,1.30,1.34,1721228164549
-7.73,-21.65,-41.21,1.24,-1.11,1.14,1721228164559
11.29,3.22,-39.06,-0.07,0.73,0.39,1721228164569
8.27,-49.11,-7.45,-0.25,0.17,-0.87,1721228164579
-16.25,-18.51,69.65,-1.10,-0.78,-1.48,1721228164589
75.23,-0.51,-21.38,3.83,-0.23,-1.16,1721228164599
-9.29,-12.89,7.97,-0.09,2.04,2.37,1721228164609
11.15,33.47,-21.22,-0.23,1.52,1.24,1721228164619
17.79,-78.45,3.64,-2.39,0.30,-1.05,1721228164629
-1.02,57.32,42.95,0.54,-1.38,-2.37,1721228164639
0.95,0.04,-8.15,1.19,-2.27,-0.32,1721228164649
-8.66,-12.86,-5.27,-0.55,-0.27,0.72,1721228164659
-3.20,36.77,17.42,0.18,-0.09,1.14,1721228164669
22.97,-76.97,7.13,-2.43,2.49,0.82,1721228164684
3.89,-78.45,55.07,-3.04,0.04,-0.60,1721228164688
53.68,78.45,76.95,2.85,-2.41,-1.32,1721228164698
13.03,-6.94,-8.60,2.66,-0.79,-0.18,1721228164708
5.91,19.71,-55.78,-0.77,0.28,-0.41,1721228164718
-27.30,-16.11,31.71,0.14,0.18,-0.81,1721228164728
17.05,-49.39,-4.28,4.37,-0.34,-0.15,1721228164738
26.91,-33.25,-22.07,1.61,-2.48,1.20,1721228164748
3.66,39.42,28.58,0.35,0.21,-0.58,1721228164758
12.10,35.30,21.01,1.41,-1.26,-0.57,1721228164768
12.53,-15.36,46.85,-0.98,-0.42,0.02,1721228164778
-8.62,-55.94,33.27,-1.26,1.72,-0.26,1721228164788
5.65,14.82,-26.89,0.72,0.19,0.52,1721228164798
15.69,-35.52,-48.04,-2.68,1.23,0.54,1721228164808
43.34,1.76,78.45,-1.22,-0.18,-2.65,1721228164818
18.74,78.45,-20.38,3.00,-3.36,-0.52,1721228164828
-0.87,-60.55,-78.45,4.37,0.01,1.25,1721228164838
-27.48,-39.88,-30.44,-0.29,-4.37,2.24,1721228164848
73.33,-78.45,78.45,-4.25,4.37,0.42,1721228164858
78.45,-78.45,41.77,4.37,1.32,-1.55,1721228164868
37.03,-78.45,-12.47,0.59,4.37,-3.21,1721228164878
-16.36,64.13,17.33,2.27,-3.36,-0.92,1721228164888
-3.22,-74.61,-24.52,-0.92,1.01,-0.72,1721228164898
8.17,14.08,45.51,-1.31,0.64,-0.19,1721228164908
18.11,46.63,-12.15,1.30,-1.25,0.00,1721228164918
-0.60,-25.34,-31.52,-0.34,0.14,-0.47,1721228164928
-6.70,35.80,43.63,-2.52,-0.05,-0.81,1721228164938
4.89,-12.07,78.45,-1.46,-1.13,-0.55,1721228164948
-9.21,23.65,-48.71,1.81,-1.22,0.69,1721228164958
5.06,-41.98,-55.56,-0.48,0.75,0.22,1721228164968
5.00,-20.55,78.45,-0.52,0.81,0.73,1721228164978
1.30,-0.71,51.41,0.64,-1.07,0.12,1721228164988
8.77,-8.66,-55.16,4.37,-4.34,-0.71,1721228164998
-23.28,48.79,-33.61,1.41,-1.53,-0.59,1721228165008
-13.60,-60.64,0.56,-1.61,1.61,0.40,1721228165018
-4.65,-37.82,63.96,0.70,-0.86,0.74,1721228165028
78.45,24.28,39.18,1.07,4.37,0.55,1721228165038
17.20,-52.35,14.88,1.02,-0.03,-0.40,1721228165048
4.30,14.69,-24.20,-0.49,0.98,-0.36,1721228165058
11.06,53.81,4.97,0.02,0.36,-0.33,1721228165068
4.88,-48.35,12.28,0.44,-0.51,-0.40,1721228165078
6.78,7.77,46.59,-0.50,-0.13,-0.92,1721228165088
-5.41,26.03,-0.34,0.30,0.19,-0.29,1721228165098
-2.66,18.05,18.66,-0.53,0.38,0.27,1721228165108
-7.15,-14.30,34.89,-1.10,-0.28,0.51,1721228165118
3.30,25.18,-14.49,1.29,-0.12,0.66,1721228165128
3.98,-25.59,-43.37,0.54,-0.05,0.57,1721228165138
6.06,-27.83,37.23,-0.06,1.10,-0.07,1721228165148
0.03,49.39,31.74,1.33,-0.89,-0.03,1721228165158
16.38,-7.94,-21.97,-0.53,-2.88,0.16,1721228165168
7.38,8.10,57.01,-0.53,0.09,-0.49,1721228165178
5.39,14.13,-6.39,2.20,-1.44,-0.14,1721228165188
29.08,-28.64,-5.77,-1.49,0.99,0.54,1721228165198
0.84,19.05,64.39,0.10,-0.80,-0.14,1721228165208
12.09,19.09,-46.46,1.94,-2.16,0.19,1721228165218
1.89,-7.35,-54.52,1.05,0.45,0.02,1721228165228
2.59,-78.45,78.45,-2.26,0.42,-0.77,1721228165238
-5.08,78.45,78.45,-0.09,-2.62,0.12,1721228165248
-12.55,-20.08,-24.57,2.01,-1.35,-1.88,1721228165258
9.37,-8.50,-78.45,2.56,1.15,-0.39,1721228165268
-11.89,-78.45,-75.07,-0.26,-4.37,0.42,1721228165278
17.41,33.86,78.45,-2.27,1.10,-0.40,1721228165288
-78.45,78.45,-78.45,-4.37,-1.71,1.04,1721228165298
-12.12,-38.95,-21.19,0.18,4.37,0.56,1721228165308
9.25,40.56,26.05,-0.04,0.89,-0.24,1721228165318
3.45,-9.10,-5.18,1.10,-1.12,-0.75,1721228165328
18.31,37.17,7.19,0.08,-0.91,-0.41,1721228165338
-4.07,-59.63,18.49,-3.34,1.01,-1.01,1721228165348
1.06,16.41,38.68,0.58,-0.36,-0.49,1721228165358
-4.11,-37.86,3.70,0.66,-0.73,0.16,1721228165368
-5.79,-4.56,13.32,0.36,0.78,2.34,1721228165378
18.44,-48.56,-35.25,0.49,-0.00,1.55,1721228165388
16.02,-12.19,36.60,0.12,1.18,-0.64,1721228165398
36.13,45.39,68.32,2.17,-2.26,-2.02,1721228165408
6.16,-6.64,0.40,1.96,-1.32,-0.38,1721228165418
3.58,-36.63,-24.48,-2.13,0.54,-0.06,1721228165428
0.18,-9.03,78.45,-0.96,1.09,-0.27,1721228165438
73.89,-27.18,68.62,4.08,2.77,-0.20,1721228165448
9.97,-49.34,-35.27,0.96,-1.36,0.75,1721228165458
3.05,50.45,11.61,0.18,1.25,0.16,1721228165468
12.46,-2.32,-24.08,0.05,-0.89,0.40,1721228165478
-10.28,-29.97,2.46,-3.53,1.54,-0.21,1721228165488
5.53,16.34,59.04,-0.24,-1.88,-1.00,1721228165498
-9.39,-21.70,6.31,-0.83,-0.61,-0.38,1721228165508
-6.51,34.37,10.31,0.40,0.08,1.40,1721228165518
9.79,-13.18,-2.70,0.68,0.70,1.36,1721228165528
8.06,27.44,36.30,0.34,0.19,0.52,1721228165538
14.80,26.17,6.33,-0.50,-0.42,0.50,1721228165548
15.10,-58.90,-17.62,-0.73,0.33,-1.96,1721228165558
-0.80,43.91,33.45,1.02,-1.87,-2.56,1721228165568
-6.86,22.21,-48.53,2.15,-0.05,-0.02,1721228165578
-22.46,-36.20,39.54,-1.34,-0.99,0.17,1721228165588
18.58,43.84,78.45,1.50,0.77,0.75,1721228165598
15.80,-25.97,-23.20,0.29,-1.25,1.50,1721228165608
10.29,-40.71,4.47,-0.96,1.50,0.04,1721228165618
2.45,66.43,12.08,0.24,-2.21,-1.18,1721228165628
16.72,-23.49,-34.90,0.46,-0.15,-1.71,1721228165638
-4.68,67.50,75.17,-0.07,-2.10,0.08,1721228165648
-2.69,34.29,38.01,0.94,0.25,0.81,1721228165658
15.15,-75.44,-23.16,0.63,-0.75,0.14,1721228165668
3.67,48.58,-7.21,0.84,0.50,-0.29,1721228165678
3.56,-43.80,-22.62,-0.00,0.04,0.02,1721228165688
3.95,-12.85,15.50,-0.10,-0.13,-0.88,1721228165698
-52.63,78.45,-10.78,0.49,-1.68,0.44,1721228165708
3.03,-1.27,5.37,-0.56,0.56,0.67,1721228165718
24.36,17.52,42.29,-0.13,1.90,0.01,1721228165728
12.56,-33.00,-7.47,0.70,-1.16,-0.05,1721228165738
11.72,-53.25,-0.94,0.74,0.81,-1.45,1721228165748
-9.85,23.57,5.63,0.05,-0.75,-0.67,1721228165758
-5.31,-28.81,-44.91,0.06,0.74,0.16,1721228165768
-1.59,22.26,78.45,-0.13,0.36,0.52,1721228165778
-1.05,78.45,11.71,1.36,0.48,1.24,1721228165788
18.20,-60.58,-66.61,0.51,0.12,1.06,1721228165798
25.51,-78.45,78.45,-1.45,3.31,-1.53,1721228165808
-11.20,42.49,33.21,-0.18,-1.68,-3.18,1721228165818
75.68,-1.08,-33.39,2.43,-4.14,-1.66,1721228165828
10.31,39.97,-46.00,0.73,0.23,-0.41,1721228165838
-4.17,-17.31,20.58,-1.36,0.50,-0.11,1721228165848
-21.93,-1.30,65.82,-0.44,-0.07,-0.14,1721228165858
14.72,32.39,2.09,1.67,0.82,1.39,1721228165868
18.95,-48.86,-56.88,-0.86,-0.57,0.13,1721228165878
22.54,29.80,78.45,-0.26,0.91,-1.67,1721228165888
-20.72,78.45,-42.63,0.44,-2.82,-1.42,1721228165898
-12.33,-78.45,-59.34,0.17,0.71,0.34,1721228165908
22.98,78.45,44.09,0.59,0.12,0.81,1721228165918
23.57,-61.94,-8.44,1.51,0.27,-0.34,1721228165928
35.30,-58.12,-15.69,0.48,-4.37,-0.06,1721228165938
-4.67,54.59,78.45,-2.31,1.31,-2.58,1721228165948
-78.45,78.45,-57.01,-2.43,-0.73,-2.56,1721228165958
-0.51,28.90,-39.04,2.28,-1.28,0.28,1721228165968
-12.87,-44.86,-7.36,0.04,0.78,1.78,1721228165978
14.35,-34.99,24.85,0.29,1.55,0.49,1721228165988
3.64,51.80,-21.27,0.36,-0.29,0.34,1721228165998
11.34,13.14,22.53,-1.10,-0.15,-0.76,1721228166008
0.20,78.45,22.87,0.79,-1.16,0.08,1721228166018
18.96,-18.08,-48.45,-0.42,-1.67,0.70,1721228166028
4.82,-78.45,-30.76,-4.37,2.39,0.33,1721228166038
8.64,78.45,72.61,-2.33,0.03,-1.62,1721228166048
40.69,-36.25,63.83,-4.20,4.37,0.91,1721228166058
-7.17,14.11,54.80,0.85,4.37,0.66,1721228166068
5.49,46.16,-5.53,0.21,-1.47,1.96,1721228166078
14.10,-78.45,42.29,-1.62,1.11,0.51,1721228166088
3.69,-7.72,55.40,0.34,-0.01,0.22,1721228166098
-13.26,36.96,-78.45,-1.30,0.84,0.95,1721228166108
6.81,-23.24,16.12,-0.65,3.86,-0.93,1721228166118
-15.66,55.59,45.33,-0.90,-0.12,-0.64,1721228166128
11.21,-56.64,7.05,0.49,-3.48,-0.78,1721228166138
-7.24,-5.63,-4.85,2.28,-0.32,0.01,1721228166148
6.06,11.84,-14.56,1.14,-0.99,1.14,1721228166158
13.38,-7.71,45.60,-0.91,1.41,0.62,1721228166168
-1.03,5.41,32.80,0.33,-0.73,-0.40,1721228166178
0.88,-11.67,-41.93,0.59,-0.65,-0.20,1721228166188
-0.87,-67.12,48.40,-0.95,1.86,-0.27,1721228166198
14.53,44.39,48.30,0.90,-0.67,-0.01,1721228166208
37.04,-24.21,-18.90,0.39,-1.73,0.16,1721228166218
11.14,34.49,24.22,0.10,-0.45,-0.20,1721228166228
2.93,-11.13,-21.02,0.24,-1.19,0.11,1721228166238
10.57,-2.18,38.35,-0.50,1.41,-0.01,1721228166248
1.24,34.49,12.64,0.83,-0.92,0.27,1721228166258
2.23,-72.85,-10.67,-0.29,0.86,-0.03,1721228166268
-8.49,37.88,52.47,-0.69,0.83,-0.39,1721228166278
-33.76,75.34,-32.32,-1.69,0.82,2.17,1721228166288
-10.83,-44.05,37.00,-0.39,2.19,-0.05,1721228166298
15.32,51.77,33.45,3.42,-0.84,-0.01,1721228166308
23.29,-29.01,-46.18,1.67,-1.76,0.54,1721228166318
1.76,-54.92,37.82,-0.97,1.16,-0.51,1721228166328
-25.22,59.12,74.78,-0.68,-3.11,-0.22,1721228166338
-67.28,-2.65,-49.59,-0.99,-4.37,-1.41,1721228166348
-24.92,48.25,16.62,0.47,-0.86,0.27,1721228166358
20.36,4.03,-9.33,0.10,0.06,-0.50,1721228166368
7.49,-19.22,62.87,-1.91,1.34,0.50,1721228166378
4.78,17.28,-25.86,1.37,-1.78,-0.30,1721228166388
-4.98,-29.64,-1.06,-0.75,0.87,-0.69,1721228166398
-5.66,-16.02,44.71,-0.38,-0.07,0.31,1721228166408
-7.27,-2.97,-9.80,0.22,-0.70,1.03,1721228166418
3.79,21.82,-7.54,0.84,0.60,1.19,1721228166428
13.97,16.02,-15.62,1.55,0.00,0.62,1721228166438
12.47,16.82,35.34,-0.72,0.42,0.39,1721228166448
12.05,-22.37,23.84,-1.12,-0.44,-0.83,1721228166458
-4.11,-26.63,-10.49,0.15,-0.68,-1.72,1721228166468
-14.27,21.61,24.97,-0.22,-0.52,-0.41,1721228166478
-39.19,38.32,-9.12,-2.11,1.28,0.91,1721228166488
-13.25,-4.15,5.93,1.22,-0.56,0.59,1721228166498
-0.07,28.46,7.26,1.14,-0.56,1.36,1721228166508
14.58,26.16,21.99,-0.59,0.79,0.87,1721228166518
14.17,26.40,29.19,-0.87,-0.13,-0.56,1721228166528
-1.52,-55.25,8.38,-1.17,-0.87,-2.09,1721228166538
-12.86,-1.03,19.20,0.03,-0.37,-2.10,1721228166548
-28.50,2.34,-37.39,0.19,-1.69,0.46,1721228166558
-7.71,-44.59,26.55,0.14,0.88,1.20,1721228166568
22.05,-1.82,20.61,1.38,-0.27,1.56,1721228166578
20.64,8.83,-21.72,0.21,0.99,1.51,1721228166588
22.64,-15.25,4.43,-0.85,0.50,-1.02,1721228166598
-9.24,9.01,36.61,0.35,-1.79,-2.92,1721228166608
-2.95,-18.38,-4.99,0.73,-1.04,-1.90,1721228166618
