AccX,AccY,AccZ,GyrX,GyrY,GyrZ,Time
-0.47,0.00,17.97,0.11,0.16,0.51,1721228864153
0.90,4.98,3.81,0.64,-0.78,0.58,1721228864158
7.86,-6.31,-7.39,-0.47,-0.13,-0.19,1721228864168
-1.48,12.09,44.13,0.17,-0.84,-0.05,1721228864178
3.32,-8.54,21.30,0.74,-0.00,0.14,1721228864188
2.29,3.07,0.03,0.42,-0.01,0.17,1721228864198
6.57,0.71,-16.34,-0.77,1.03,0.10,1721228864208
3.26,-10.26,-2.13,-1.84,0.66,-0.47,1721228864218
-10.01,3.87,41.48,0.22,-1.55,-0.91,1721228864228
1.17,-4.81,15.07,0.87,0.11,-1.09,1721228864238
-13.75,9.36,3.58,-0.35,0.58,0.38,1721228864248
-11.83,11.94,0.68,0.57,-0.20,1.04,1721228864258
-0.88,-3.73,-3.02,-1.34,0.21,1.21,1721228864268
4.48,-0.05,48.82,0.63,-0.22,1.03,1721228864278
0.33,10.16,12.02,0.17,-0.24,1.38,1721228864288
18.79,-1.51,-19.09,0.47,-0.17,0.29,1721228864298
9.71,6.22,28.89,-0.86,0.20,-0.05,1721228864308
11.52,1.47,9.80,0.21,-0.33,-0.19,1721228864318
4.64,-7.83,-2.63,-1.02,0.84,-0.70,1721228864328
-2.00,3.96,28.98,-0.18,-0.77,-0.96,1721228864338
-2.19,10.33,11.86,0.21,-0.27,-0.92,1721228864348
-4.53,-5.76,-1.51,0.20,-0.36,-0.04,1721228864358
-17.20,15.13,10.04,-0.67,0.62,0.54,1721228864368
-0.97,15.01,10.88,-0.08,0.23,0.89,1721228864378
-1.96,-13.67,5.50,-0.09,0.08,0.83,1721228864388
4.90,4.42,16.59,-0.14,0.54,0.63,1721228864398
5.50,2.25,3.11,0.41,0.08,0.33,1721228864408
16.41,-2.65,11.83,-0.32,1.03,-0.34,1721228864418
8.90,18.19,25.15,0.35,0.01,-0.93,1721228864428
8.13,3.12,2.63,0.57,-0.31,-0.83,1721228864438
-2.17,-33.41,-10.70,0.27,0.83,-2.50,1721228864448
-66.15,-57.78,-2.00,-1.91,-1.23,-3.59,1721228864458
-42.75,-19.25,62.07,-1.44,-0.19,0.17,1721228864468
-6.06,6.63,25.36,-0.34,3.08,3.89,1721228864478
2.77,-4.07,-8.18,1.84,2.18,4.37,1721228864488
32.65,4.39,-19.06,-0.40,0.04,1.14,1721228864498
62.50,-31.93,49.17,-1.66,0.08,-1.26,1721228864508
14.63,3.45,20.44,-0.01,-0.21,-2.19,1721228864518
5.32,-12.38,7.17,-0.28,-0.36,-2.80,1721228864528
-11.79,0.70,22.11,-0.52,-0.43,-3.34,1721228864538
-50.05,40.51,37.03,0.59,-1.06,-2.55,1721228864548
-15.70,-2.58,-5.84,-0.50,1.18,0.56,1721228864558
-14.06,-9.79,5.21,-0.58,0.50,2.04,1721228864568
0.43,0.36,18.24,-0.02,1.12,2.22,1721228864578
10.32,6.49,19.56,-0.06,1.30,1.58,1721228864588
15.08,6.28,12.85,0.44,-0.45,0.08,1721228864598
12.37,3.39,9.18,0.08,-0.10,-1.20,1721228864608
4.12,-2.93,12.35,-0.25,-0.32,-1.58,1721228864618
4.69,-3.06,10.60,0.21,0.07,-1.85,1721228864628
-6.49,-7.91,2.25,0.49,0.01,-2.14,1721228864638
-12.83,-5.73,10.79,0.03,0.05,-0.96,1721228864648
-10.17,3.74,19.30,0.45,0.31,-0.12,1721228864658
-7.10,-1.25,-3.57,0.65,0.54,0.41,1721228864668
-0.35,-4.58,0.63,-0.15,0.69,0.55,1721228864678
4.86,7.25,26.89,-0.00,0.65,0.15,1721228864688
1.59,7.87,11.16,0.42,-0.28,-0.30,1721228864698
6.77,-17.57,-14.10,-0.47,0.45,-1.02,1721228864708
-3.66,-2.99,33.61,0.05,0.17,-0.65,1721228864718
-1.35,23.98,13.89,0.57,-0.12,0.46,1721228864728
-37.69,-57.06,-22.92,0.78,0.70,0.96,1721228864738
-8.12,-16.37,54.27,0.50,-0.29,-0.01,1721228864748
-0.41,-2.44,-13.61,0.25,-0.34,-0.54,1721228864758
-1.70,-3.14,-11.20,-0.15,0.65,-0.83,1721228864768
-2.70,2.83,5.06,-0.36,-0.02,-0.78,1721228864778
-21.85,-28.29,36.97,-1.38,0.63,-0.59,1721228864788
-5.49,14.82,37.44,0.27,0.22,0.00,1721228864798
0.09,-26.92,-4.58,0.67,0.08,0.02,1721228864808
1.88,10.84,16.18,0.02,0.19,0.05,1721228864818
-0.43,11.82,2.81,0.23,0.09,-0.19,1721228864828
0.53,-7.82,6.33,-0.64,0.10,-1.22,1721228864838
-8.05,-5.79,20.75,-0.04,-0.39,-1.39,1721228864848
-11.62,1.08,9.75,0.06,0.16,-0.90,1721228864858
-14.04,14.30,7.04,0.19,0.06,0.25,1721228864868
-8.31,-11.20,4.54,-0.59,0.28,0.83,1721228864878
0.03,-2.94,18.68,-0.04,0.02,1.21,1721228864888
8.86,-22.25,1.83,0.01,0.08,0.80,1721228864898
6.29,6.96,12.14,0.06,0.45,0.83,1721228864908
6.99,13.51,2.98,0.65,-0.23,-0.47,1721228864918
7.40,-11.26,-10.62,0.89,-0.96,-1.05,1721228864928
-1.53,-6.91,-3.65,-0.85,0.01,-0.98,1721228864938
-22.75,-2.22,46.68,-0.30,-0.95,-0.37,1721228864948
-11.15,38.71,29.18,-1.18,1.49,1.25,1721228864958
-5.47,-27.73,-20.16,1.26,0.60,1.24,1721228864968
1.39,-2.11,-23.50,0.23,-0.79,0.83,1721228864978
2.26,-2.63,-1.90,-1.98,0.53,-0.11,1721228864988
5.04,2.62,21.87,1.30,-0.48,0.13,1721228864998
2.61,-10.60,14.03,0.02,0.12,-0.72,1721228865008
-1.43,14.70,10.56,-0.35,0.10,0.03,1721228865018
1.23,4.72,10.43,0.45,-0.11,0.31,1721228865028
6.16,-25.88,3.57,-0.06,-0.06,0.15,1721228865038
0.87,6.45,20.49,0.46,0.18,0.90,1721228865048
5.57,17.61,2.44,-0.09,0.04,-0.04,1721228865058
-9.71,-14.24,-2.29,-0.25,0.57,-0.44,1721228865068
-4.53,-19.24,23.16,-0.07,-0.23,-0.64,1721228865078
-3.15,2.77,15.56,0.62,-0.01,-0.45,1721228865088
-0.97,-1.08,-3.88,0.73,-0.06,-0.52,1721228865098
-3.95,-3.49,2.49,-0.44,0.17,0.05,1721228865108
-6.03,-0.89,3.32,0.45,-0.18,0.09,1721228865118
-2.51,8.06,4.84,-0.03,-0.05,0.63,1721228865128
2.87,-4.60,21.28,-0.72,0.43,0.46,1721228865138
5.09,-8.71,26.41,0.05,0.04,0.39,1721228865148
2.09,-29.25,2.28,0.83,0.07,-0.19,1721228865158
3.73,-10.19,12.61,0.18,-0.19,-0.87,1721228865168
-3.43,15.98,8.91,0.34,0.05,-0.39,1721228865178
-3.75,12.70,3.09,0.46,0.17,0.15,1721228865188
-2.40,-9.95,-5.01,-0.52,0.50,0.25,1721228865198
-6.22,-25.19,3.05,-1.18,0.10,-0.17,1721228865208
-6.90,2.68,43.00,0.15,-0.46,0.21,1721228865218
-13.84,27.14,17.18,0.51,0.09,1.40,1721228865228
25.82,33.16,-7.38,0.86,0.10,0.81,1721228865238
12.51,-12.01,-16.61,-0.67,0.91,0.76,1721228865248
15.23,-0.43,36.41,-1.63,1.83,-0.28,1721228865258
5.64,-4.23,5.33,0.17,-0.98,-0.70,1721228865268
-2.06,-3.96,38.76,0.41,-0.03,-0.52,1721228865278
1.36,-22.38,8.58,0.29,0.04,-0.36,1721228865288
-5.51,11.93,12.74,0.02,0.83,0.05,1721228865298
-2.99,4.62,5.17,0.81,0.06,0.47,1721228865308
-0.93,-8.50,-1.66,-2.03,0.96,0.10,1721228865318
-9.20,68.62,56.92,0.41,-0.20,0.05,1721228865328
-1.70,-5.53,17.65,1.25,-0.99,-0.30,1721228865338
1.68,0.63,-2.77,-1.36,1.16,1.17,1721228865348
6.64,-2.59,29.53,0.85,0.11,0.96,1721228865358
5.45,27.76,0.38,0.13,-0.18,0.58,1721228865368
3.05,-20.22,-32.19,1.75,-0.27,-1.29,1721228865378
-1.00,-3.29,-23.98,1.03,-0.31,-0.98,1721228865388
0.23,-4.87,-5.26,-2.77,0.67,0.07,1721228865398
-1.90,33.22,56.48,0.18,0.79,0.49,1721228865408
2.41,9.67,40.69,1.44,-0.68,0.19,1721228865418
-10.65,-14.59,-7.58,0.18,0.26,0.68,1721228865428
3.31,-10.91,4.33,-1.31,0.79,-0.30,1721228865438
6.56,21.21,12.62,0.37,0.10,-0.47,1721228865448
-7.55,-16.33,16.81,1.26,-0.51,-0.07,1721228865458
-6.90,7.64,-0.28,0.79,0.47,0.62,1721228865468
-0.96,1.18,-7.93,1.27,0.12,1.05,1721228865478
1.99,-3.00,-11.08,0.13,0.36,0.95,1721228865488
7.61,-13.50,-11.57,-0.53,0.69,-0.12,1721228865498
-4.64,-67.15,78.45,-1.36,1.25,-1.28,1721228865508
-6.63,37.43,78.45,1.98,-1.28,-1.29,1721228865518
-2.85,19.14,7.29,2.00,0.35,-0.44,1721228865528
14.54,-9.36,-22.57,2.50,1.03,1.08,1721228865538
-0.99,-31.16,-22.80,-0.41,-1.05,1.90,1721228865548
5.45,7.07,-25.02,-0.47,0.55,1.39,1721228865558
13.08,0.76,1.39,-1.95,0.21,0.74,1721228865568
7.44,15.73,-3.28,-2.20,2.21,-1.50,1721228865578
18.49,-2.93,27.85,3.48,-2.84,-1.59,1721228865588
-26.59,17.27,-0.40,1.14,0.10,-1.35,1721228865598
-18.00,-2.40,7.47,-2.39,1.62,-0.64,1721228865608
-22.46,15.03,50.25,0.70,-1.07,0.59,1721228865618
-15.83,8.33,-10.58,0.53,1.04,1.78,1721228865628
17.43,18.68,-14.75,0.47,-0.34,1.73,1721228865638
2.65,0.48,2.03,-2.13,0.78,0.83,1721228865648
4.80,-7.70,22.63,-0.31,-0.01,-0.23,1721228865658
7.49,16.48,-4.35,1.13,-1.59,-1.20,1721228865668
-0.06,0.86,-19.00,0.96,-1.42,-0.98,1721228865678
-1.15,-11.55,-6.27,-2.86,-0.09,-0.99,1721228865688
-13.82,31.47,64.01,0.11,-2.34,0.40,1721228865698
-4.86,5.59,2.83,1.30,1.27,0.78,1721228865708
-11.22,1.07,-26.42,0.86,-0.54,2.08,1721228865718
10.10,2.90,-12.05,-2.60,1.15,0.95,1721228865728
-1.60,-13.22,21.69,-1.70,2.04,-0.09,1721228865738
4.41,-4.66,23.97,1.66,-2.54,-0.34,1721228865748
-6.38,-18.56,-20.04,-0.56,0.16,-0.50,1721228865758
-15.62,8.41,17.57,-0.39,-0.38,0.42,1721228865768
-18.88,17.20,9.62,1.17,-0.62,1.51,1721228865778
0.39,-4.24,-19.29,0.88,-0.12,1.33,1721228865788
1.09,-5.69,-21.06,-0.89,-0.05,0.92,1721228865798
0.13,-69.56,76.65,-2.03,1.09,0.22,1721228865808
-2.36,-16.88,45.04,-0.56,-0.15,0.66,1721228865818
4.82,5.52,15.60,0.63,-0.20,0.34,1721228865828
4.75,-2.08,-12.37,0.39,-0.68,-0.31,1721228865838
17.03,31.95,-2.22,-0.72,-0.42,-1.05,1721228865848
-1.08,-1.61,-1.75,0.10,-0.68,0.69,1721228865858
-11.48,-20.69,-0.41,-1.51,0.48,1.58,1721228865868
-0.06,-15.59,25.91,0.25,-0.97,1.12,1721228865878
-14.81,24.29,20.73,0.38,-0.38,2.01,1721228865888
7.42,-11.60,21.28,-0.12,0.35,0.87,1721228865898
2.48,12.53,12.84,-0.82,-0.14,0.85,1721228865908
3.67,2.74,11.57,-0.49,0.06,0.08,1721228865918
10.92,-29.52,-4.83,0.23,-0.84,-0.79,1721228865928
-2.07,5.49,12.93,-0.26,-0.23,0.05,1721228865938
-0.48,2.28,3.12,1.26,-0.43,-0.09,1721228865948
-1.93,0.57,-5.72,0.41,-0.75,0.39,1721228865958
-4.69,15.98,12.51,-1.08,1.06,0.51,1721228865968
-2.53,-2.74,44.68,-0.26,0.28,0.02,1721228865978
2.98,9.97,4.86,0.89,-0.40,0.69,1721228865988
7.56,13.72,-27.80,1.18,-0.37,0.85,1721228865998
9.70,-15.96,-15.89,-0.67,0.36,0.60,1721228866008
8.08,-14.99,-4.43,-3.12,1.50,-0.35,1721228866018
3.94,3.66,15.45,1.48,-1.94,-1.06,1721228866028
-15.90,26.12,6.72,0.30,0.24,-0.72,1721228866038
-3.70,-18.29,-25.51,0.37,-0.43,-0.83,1721228866048
0.66,-67.42,55.79,-2.55,0.82,0.22,1721228866058
-2.42,8.26,13.62,0.79,-0.32,1.03,1721228866068
6.68,-13.59,-45.80,2.30,-0.63,0.65,1721228866078
-1.05,-13.87,-17.50,-2.23,0.18,-0.05,1721228866088
-1.70,-2.47,10.86,0.55,0.28,-0.37,1721228866098
16.72,67.55,38.65,0.10,0.37,-0.12,1721228866108
-3.35,-78.45,-38.73,1.70,0.77,-0.04,1721228866118
-1.12,-5.78,-29.48,-1.55,-1.36,-0.05,1721228866128
17.42,22.46,77.97,-1.08,1.69,-0.75,1721228866138
9.23,10.35,2.81,0.30,-0.97,-1.01,1721228866148
-22.70,-78.45,-23.73,-2.18,1.28,-1.34,1721228866163
-4.41,1.82,-10.82,-2.15,-0.00,-0.88,1721228866168
-1.27,12.20,30.38,0.90,-1.44,-0.48,1721228866178
-1.57,-1.98,-1.70,0.05,0.28,-0.48,1721228866188
-13.39,12.11,-0.23,0.47,-0.05,0.04,1721228866198
-3.40,-2.39,13.70,0.15,0.11,-0.28,1721228866208
14.53,52.29,20.09,0.54,0.48,-0.02,1721228866218
2.97,3.44,2.51,1.17,-0.08,0.65,1721228866228
4.88,-40.41,-9.38,-0.17,1.38,1.05,1721228866238
19.90,-32.03,7.75,-0.75,-0.03,-1.34,1721228866248
-40.59,39.32,39.91,-0.69,-0.67,-0.63,1721228866258
9.29,0.92,45.56,0.75,0.55,-2.19,1721228866268
-11.33,23.04,27.50,0.21,-0.67,-2.87,1721228866278
-23.51,23.27,-1.38,3.15,-1.10,-1.90,1721228866288
-30.35,14.86,-41.17,0.49,1.50,0.28,1721228866298
-15.36,-36.33,-28.98,-2.01,1.10,0.74,1721228866308
14.70,-34.96,-13.88,-4.37,0.73,0.58,1721228866318
34.64,30.31,78.45,0.02,4.37,1.98,1721228866328
0.22,0.29,13.62,0.38,0.27,1.31,1721228866338
78.45,78.45,3.72,2.52,-0.87,-2.37,1721228866348
23.95,-7.62,-21.33,0.80,-1.14,-2.00,1721228866358
-0.60,-17.52,-23.41,-1.69,0.10,-2.77,1721228866368
-15.39,-78.45,78.45,-0.61,0.04,-1.91,1721228866378
41.01,75.33,35.27,1.17,0.96,-0.24,1721228866388
-25.48,-78.45,-34.30,4.37,2.75,2.74,1721228866398
24.45,-2.68,-78.45,2.64,-3.87,1.11,1721228866408
-43.48,-18.50,-68.15,-0.07,-4.37,2.24,1721228866418
49.95,-25.15,14.02,-4.37,3.22,-0.37,1721228866428
-19.24,-25.78,50.80,-1.21,-1.30,1.34,1721228866438
12.04,-8.60,-4.98,-0.10,3.21,-0.26,1721228866448
6.88,-13.40,6.38,2.42,0.29,0.12,1721228866458
-14.41,57.23,-44.69,3.90,-0.19,0.69,1721228866468
-3.78,-27.99,-26.96,1.32,-1.79,-0.62,1721228866478
-6.14,-3.19,-34.99,-4.37,1.25,-0.60,1721228866488
-78.45,78.45,78.45,1.05,-3.91,-0.77,1721228866498
8.64,-15.74,44.36,1.05,2.07,-0.26,1721228866508
-45.19,48.12,-8.67,0.87,1.48,3.09,1721228866518
21.41,-36.50,1.49,1.08,-0.98,0.87,1721228866528
9.25,24.85,78.45,-1.22,1.45,0.48,1721228866538
-36.21,40.16,30.18,1.65,-0.23,1.10,1721228866548
45.16,-78.45,-10.18,0.74,3.36,-1.03,1721228866558
0.52,7.50,-11.85,-0.68,-1.01,-0.14,1721228866568
-1.59,17.75,35.35,1.13,-2.29,0.23,1721228866578
-0.03,0.32,-19.73,0.25,0.82,-0.47,1721228866588
-3.94,11.29,18.61,-0.11,-0.26,-0.19,1721228866598
-9.10,39.96,62.25,2.69,-3.21,0.13,1721228866608
-22.57,44.92,18.90,1.10,1.61,1.93,1721228866618
11.60,-13.44,-36.89,0.99,0.08,2.79,1721228866628
29.53,-78.45,-3.98,-4.15,1.98,-0.17,1721228866638
4.60,8.16,41.07,1.22,-1.13,-0.55,1721228866648
14.67,-7.71,27.00,1.35,-0.58,-1.15,1721228866658
1.38,-7.60,-20.43,2.34,-0.65,-2.44,1721228866668
-22.57,-11.20,-34.80,0.07,-1.58,-1.75,1721228866678
-10.44,-15.00,78.45,-2.10,2.05,-0.34,1721228866688
-9.18,-1.00,17.15,-0.25,-0.34,0.03,1721228866698
4.94,-37.71,-18.83,1.02,2.11,0.70,1721228866708
22.68,-19.46,26.33,0.09,0.27,0.09,1721228866718
3.73,46.01,-1.00,1.49,0.97,0.34,1721228866728
11.19,-26.82,-18.17,1.90,-0.32,-0.52,1721228866738
-0.36,-2.07,-5.51,-4.37,0.30,-0.58,1721228866748
0.02,29.52,73.11,0.36,-1.64,-1.92,1721228866758
-5.87,19.49,16.14,-0.66,-0.13,-1.18,1721228866768
-8.26,-6.73,-10.88,0.38,-0.30,0.91,1721228866778
-22.23,-42.39,2.46,-0.73,0.67,1.98,1721228866788
7.58,42.42,-16.55,1.89,0.34,1.39,1721228866798
12.43,-18.90,-21.63,1.99,-0.57,0.20,1721228866808
4.06,8.68,-11.95,-4.37,0.37,-0.63,1721228866818
-6.93,78.45,78.45,-1.03,-2.36,-2.34,1721228866828
-0.15,7.23,31.66,2.66,-0.93,-1.12,1721228866838
6.67,-3.13,-0.21,4.37,0.73,0.30,1721228866848
16.92,-5.52,-74.83,2.03,-3.47,0.27,1721228866858
-43.05,5.63,-68.43,-0.21,-0.64,1.28,1721228866868
18.90,-12.62,16.27,-3.65,4.37,0.16,1721228866878
16.03,46.72,16.29,-2.19,1.13,-1.43,1721228866888
7.43,32.73,29.40,-0.58,-0.34,-0.88,1721228866898
6.77,-55.27,-31.49,2.75,0.20,-0.98,1721228866908
0.22,-1.55,-40.07,-1.17,2.08,-0.78,1721228866918
4.15,-23.72,-23.26,-0.48,1.30,-0.71,1721228866928
-21.04,1.42,-35.19,-4.20,1.80,-1.10,1721228866938
56.28,78.45,31.35,-0.78,3.46,-1.84,1721228866948
-30.04,18.95,48.25,1.86,-1.85,1.01,1721228866958
-21.34,-78.45,-0.12,-2.35,2.11,-0.24,1721228866968
-6.04,-8.30,53.39,0.44,-1.50,0.06,1721228866978
-4.23,-2.72,24.51,0.56,-0.02,-0.29,1721228866988
-1.04,4.47,2.35,1.07,-0.53,0.60,1721228866998
3.22,39.72,-25.22,1.25,0.62,0.34,1721228867008
5.15,-1.09,-21.42,0.14,0.20,0.78,1721228867018
6.17,-57.20,-14.68,-4.37,1.96,-0.35,1721228867028
-19.37,1.09,78.45,-0.06,-0.49,-0.24,1721228867038
-7.96,2.32,25.71,2.15,-0.92,-1.03,1721228867048
13.91,78.45,-38.26,4.37,-0.41,-0.25,1721228867058
11.30,-51.02,-66.93,1.29,-2.61,0.19,1721228867068
-3.58,-42.64,-52.12,-1.26,1.87,0.19,1721228867078
11.71,-0.69,7.00,-4.37,2.66,-2.21,1721228867088
-6.75,41.34,66.33,-0.46,-1.70,0.15,1721228867098
-46.19,-67.37,10.69,2.61,1.21,0.80,1721228867108
17.63,1.28,-32.65,1.18,-0.73,-0.01,1721228867118
-0.59,-8.02,-20.61,0.10,-0.83,-0.39,1721228867128
-4.00,3.46,-3.93,-1.26,1.28,-0.51,1721228867138
16.50,39.49,45.00,-1.50,0.37,0.57,1721228867148
4.47,-16.21,17.13,-0.26,0.52,-0.02,1721228867158
-1.64,-7.66,61.02,-0.71,-0.04,0.08,1721228867168
4.52,6.82,23.16,0.89,-0.51,-0.20,1721228867178
2.50,5.13,-8.74,0.61,-0.11,0.06,1721228867188
2.93,-18.74,-4.14,-0.36,0.17,0.07,1721228867198
3.27,-10.19,2.82,-0.30,0.40,-0.35,1721228867208
-0.18,5.23,5.54,-1.23,-0.84,-0.77,1721228867218
-2.65,-5.82,42.74,-0.03,-1.20,-0.23,1721228867228
0.55,26.11,16.07,0.97,0.09,0.35,1721228867238
-24.41,-41.99,-21.99,0.90,1.28,1.09,1721228867248
8.37,-2.20,-12.88,-2.64,0.80,0.99,1721228867258
4.82,7.88,18.76,-0.40,1.53,0.40,1721228867268
3.66,-57.75,8.09,-0.95,-0.00,-1.21,1721228867278
-3.36,10.50,40.55,0.68,-1.32,-0.07,1721228867288
-3.48,-22.32,14.15,0.85,-0.69,-0.82,1721228867298
-1.50,34.60,19.61,-0.31,-0.28,-0.67,1721228867308
-7.52,22.89,19.13,1.15,0.75,0.73,1721228867318
3.26,-6.81,-12.60,0.52,-1.01,-0.07,1721228867328
7.33,5.41,-1.63,-1.41,0.10,0.29,1721228867338
-1.31,-2.71,44.48,0.54,-0.89,0.06,1721228867348
2.88,-0.41,-11.23,0.11,0.16,-0.25,1721228867358
7.36,-11.89,-2.47,-1.18,0.91,0.20,1721228867368
-5.43,-19.96,54.21,0.45,-1.01,0.67,1721228867378
-11.03,6.11,17.52,0.06,-0.17,-0.29,1721228867388
5.98,-29.86,-34.68,3.51,0.24,-1.56,1721228867398
-6.81,29.08,-43.70,0.56,0.11,-0.40,1721228867408
6.04,-3.27,-27.53,-0.86,1.60,0.36,1721228867418
16.18,-50.52,-22.13,-4.37,0.33,-0.75,1721228867428
-2.27,78.45,68.58,0.97,-2.55,-0.55,1721228867438
18.47,-15.67,-10.94,4.37,1.20,-0.27,1721228867448
-6.51,-1.46,-71.64,-2.21,0.18,0.49,1721228867458
7.56,-13.97,-5.56,-3.34,-1.98,-0.47,1721228867468
-53.80,78.45,78.45,1.22,-2.93,-1.29,1721228867478
5.86,-8.10,-7.92,4.37,1.88,-0.54,1721228867488
-41.74,44.53,-33.79,-0.50,1.07,1.23,1721228867498
6.74,-31.67,-8.07,-1.31,-0.59,-0.87,1721228867508
1.32,1.01,21.03,-0.28,0.90,-0.15,1721228867518
0.75,-1.11,-3.03,1.19,-0.90,0.37,1721228867528
-8.97,20.58,41.72,-1.95,0.86,-0.52,1721228867538
-4.89,6.62,49.34,1.04,-2.20,-0.30,1721228867548
11.35,-32.93,6.50,0.04,1.32,-1.40,1721228867558
2.88,9.87,0.35,1.10,-0.06,0.33,1721228867568
4.49,8.06,2.25,-1.25,0.64,0.15,1721228867578
10.17,58.37,1.25,1.37,0.48,-0.16,1721228867588
-2.52,2.20,-10.55,0.86,0.15,-0.15,1721228867598
-5.14,-27.61,-13.54,-0.71,-0.70,0.49,1721228867608
-5.37,-37.03,78.45,-0.70,0.44,-0.06,1721228867618
-27.42,66.66,31.49,0.45,1.08,1.02,1721228867628
5.56,15.81,7.49,0.39,0.84,-0.42,1721228867638
-2.25,23.15,12.44,0.11,0.02,0.00,1721228867648
0.63,6.60,-8.66,-0.34,-0.05,0.40,1721228867658
-11.05,-40.54,4.88,-2.09,2.09,0.32,1721228867668
-1.90,2.57,26.88,1.09,-0.94,0.09,1721228867678
23.43,21.26,-13.28,3.94,0.02,-0.16,1721228867688
-1.41,15.08,-23.76,-1.02,0.43,-0.11,1721228867698
3.97,-4.18,9.08,-2.22,2.13,-0.41,1721228867708
-2.80,26.14,58.99,1.07,-1.09,1.12,1721228867718
0.01,-78.45,-36.22,1.94,0.30,-0.14,1721228867728
0.24,31.37,-23.70,1.98,-0.53,0.18,1721228867738
0.59,-31.34,-16.53,1.16,0.57,0.65,1721228867748
5.42,-14.45,-18.84,-2.20,-0.09,0.64,1721228867758
26.06,51.50,21.05,-1.55,2.44,-0.40,1721228867768
13.48,8.62,74.11,-0.49,-0.57,-0.63,1721228867778
-22.00,-71.41,-6.89,0.34,0.26,-1.05,1721228867788
-9.96,13.34,-1.44,0.90,-0.31,0.83,1721228867798
-10.46,-9.28,-20.25,2.46,-0.34,1.03,1721228867808
-2.44,-19.61,-13.35,-0.96,0.51,1.78,1721228867818
12.18,-8.49,20.53,-2.36,3.34,1.15,1721228867828
11.90,12.00,45.57,0.27,-0.56,0.08,1721228867838
1.39,14.38,20.11,0.61,-0.96,-0.88,1721228867848
0.03,2.87,-0.48,0.77,-0.34,-1.19,1721228867858
-33.32,-49.29,-19.42,0.60,-0.81,-0.19,1721228867868
-8.68,-7.33,-13.11,0.83,-0.02,0.86,1721228867878
-8.21,-8.18,-6.47,-0.18,-0.51,1.98,1721228867888
16.50,-23.28,76.55,-1.82,2.38,1.32,1721228867898
16.48,40.67,57.44,1.52,-2.13,0.51,1721228867908
3.40,-0.96,2.46,1.66,-0.37,-0.03,1721228867918
11.51,66.32,4.61,1.02,-0.49,-0.21,1721228867928
2.91,-27.40,-16.65,-1.86,-0.34,0.47,1721228867938
1.19,-54.87,78.45,-3.64,2.33,-0.37,1721228867948
-0.51,10.03,-14.27,-0.30,-3.10,0.17,1721228867958
-5.50,-21.42,41.61,0.97,3.71,-0.23,1721228867968
-2.12,-34.17,62.69,-0.26,0.06,0.44,1721228867978
-11.98,25.79,11.15,-0.44,-1.24,1.17,1721228867988
16.73,-47.69,-17.82,0.17,2.52,-0.01,1721228867998
12.27,13.55,6.57,-0.77,-0.06,0.57,1721228868008
4.28,13.49,20.48,-0.34,-0.43,-0.06,1721228868018
5.58,8.50,16.67,-0.10,-0.38,-0.87,1721228868028
-17.48,22.29,-3.32,1.31,-0.29,-0.35,1721228868038
-2.16,-4.07,-37.54,1.53,0.68,-0.23,1721228868048
11.37,-78.45,-19.88,-4.37,1.66,0.16,1721228868058
-17.17,-61.31,78.45,-0.64,-0.12,-0.56,1721228868068
-8.44,7.65,66.27,-0.96,-0.41,0.44,1721228868078
-16.55,-71.92,-55.11,4.37,-0.31,0.45,1721228868088
37.03,29.02,-78.45,-0.41,-1.75,1.23,1721228868098
8.30,-7.20,-47.02,0.08,-0.64,1.00,1721228868108
3.35,-78.45,-36.04,-4.37,0.99,-0.91,1721228868118
6.01,54.22,78.45,2.78,-3.42,-1.64,1721228868128
-78.45,78.45,59.52,3.69,-1.95,1.07,1721228868138
-75.11,24.09,-78.45,4.37,2.63,2.21,1721228868148
-78.45,-78.45,-24.35,0.39,-4.37,3.12,1721228868158
0.68,-16.80,-41.49,-2.02,4.21,-2.13,1721228868173
-26.95,-45.56,-15.25,-2.45,0.48,0.92,1721228868178
-1.03,52.96,45.34,-1.60,2.42,-0.52,1721228868188
6.11,-78.45,4.20,4.37,-0.92,-0.26,1721228868198
4.06,-28.52,-24.55,3.71,-1.08,2.31,1721228868208
-16.77,12.82,-9.17,-0.40,-4.37,-0.32,1721228868218
-14.56,-37.43,-19.90,-2.10,2.89,-1.22,1721228868228
-5.32,-4.04,-3.93,-4.37,-3.48,-2.12,1721228868238
7.84,78.45,46.69,0.63,0.77,0.21,1721228868248
-0.05,-1.36,-2.45,1.94,1.00,1.42,1721228868258
0.37,-31.00,-36.20,2.36,-1.37,1.26,1721228868268
11.11,5.88,-9.12,-3.03,0.17,0.30,1721228868278
-16.11,-12.06,37.36,1.36,-0.64,0.58,1721228868288
-16.96,12.10,36.52,1.16,0.59,0.58,1721228868298
17.02,-62.10,-11.15,3.68,-0.33,-0.65,1721228868308
7.08,-24.87,-40.02,-2.06,-0.71,-0.59,1721228868318
-3.40,-16.29,-15.95,-3.85,0.36,-0.81,1721228868328
30.91,78.45,9.40,0.72,-1.18,-1.26,1721228868338
9.02,-78.45,40.54,-1.56,2.62,0.36,1721228868348
9.95,-19.54,78.45,1.53,-1.37,0.09,1721228868358
-25.79,36.71,43.44,1.43,0.43,0.16,1721228868368
5.04,-43.39,-31.13,3.86,-1.27,0.10,1721228868378
-2.87,-12.72,-46.49,-1.92,0.43,-0.80,1721228868388
-5.27,-1.13,-17.47,-0.73,-0.39,-0.53,1721228868398
0.02,-5.63,-1.68,-3.15,-0.21,-0.02,1721228868408
16.97,1.65,78.45,3.47,-1.86,0.77,1721228868418
-7.87,45.13,78.45,2.10,-0.95,-0.03,1721228868428
9.11,-12.16,-57.10,3.86,-1.88,-0.26,1721228868438
-0.43,-7.50,-63.94,0.80,-0.72,-0.05,1721228868448
-6.19,-51.05,-22.06,-4.37,-1.24,-0.30,1721228868458
-3.17,-37.53,78.45,-1.63,4.37,-0.14,1721228868468
61.04,57.07,58.56,0.78,-1.68,2.49,1721228868478
-4.92,14.40,-65.64,4.37,0.43,0.07,1721228868488
5.20,-1.56,-37.61,-2.17,0.06,-0.28,1721228868498
-12.34,-44.39,-19.19,-4.11,0.81,0.65,1721228868508
-4.77,14.79,50.32,0.37,-1.10,0.27,1721228868518
3.28,-1.20,-18.85,-1.18,3.91,0.53,1721228868528
1.77,-1.58,-11.24,1.30,-0.52,0.31,1721228868538
-0.17,-18.72,-15.93,0.45,-0.63,-0.48,1721228868548
-0.89,-12.34,78.45,-1.94,-1.55,-0.81,1721228868558
31.76,78.45,78.45,1.03,-0.95,0.38,1721228868568
12.11,-49.45,-31.32,4.37,0.89,-1.94,1721228868578
20.80,78.45,14.26,2.16,-0.53,-0.29,1721228868588
-14.85,-37.85,-2.67,-2.58,0.85,-0.37,1721228868598
33.71,-28.40,78.45,-2.53,4.37,-0.40,1721228868608
-40.17,20.83,-43.42,-0.07,-1.21,0.02,1721228868618
-11.66,4.74,19.39,0.11,-1.66,-0.25,1721228868628
2.77,-4.99,-6.26,1.98,-1.04,0.79,1721228868638
21.71,30.38,-8.95,-0.21,0.73,1.57,1721228868648
12.87,-11.22,-10.83,-0.62,1.13,0.00,1721228868658
3.65,-5.01,-7.43,-0.80,-0.19,-0.75,1721228868668
15.13,-60.40,66.09,-1.35,0.64,-2.10,1721228868678
-10.24,72.55,78.45,0.69,-1.06,-1.46,1721228868688
-18.57,38.72,27.09,3.16,1.42,0.06,1721228868698
-12.00,-19.35,-59.18,4.37,1.05,1.11,1721228868708
23.55,-57.92,-76.36,1.49,-2.10,0.27,1721228868718
34.68,-37.46,-52.39,-1.44,2.01,-0.72,1721228868728
-15.72,-0.79,-40.40,-0.39,0.24,-2.64,1721228868738
-3.61,78.45,78.45,-0.34,-4.08,-0.91,1721228868748
-26.19,-78.45,-78.45,4.37,3.77,-2.53,1721228868758
-48.36,10.14,-60.71,4.32,-1.06,1.56,1721228868768
-1.23,-8.02,-75.24,-0.88,0.16,1.43,1721228868778
25.43,-22.57,-21.60,-3.99,4.37,-0.75,1721228868788
-20.72,-23.53,20.65,-4.37,-0.26,0.11,1721228868798
7.33,19.98,78.45,-1.01,-0.35,0.91,1721228868808
12.08,-32.83,5.49,3.83,0.97,-1.05,1721228868818
10.56,32.20,-66.14,4.19,-2.42,0.26,1721228868828
2.38,-16.68,-38.24,0.04,1.03,-0.42,1721228868838
-11.02,10.85,-33.50,-3.93,1.65,-0.07,1721228868848
4.34,-25.18,22.37,-3.43,1.53,0.24,1721228868858
-20.54,-16.80,61.78,0.46,-2.34,-0.74,1721228868868
-7.45,27.98,67.97,1.27,-0.11,-0.51,1721228868878
-4.88,13.19,-13.15,2.41,-1.25,0.00,1721228868888
-1.99,14.18,-17.65,2.94,-0.09,0.23,1721228868898
-3.96,3.15,-51.54,0.58,-0.16,0.37,1721228868908
-6.18,-74.03,-24.77,-4.37,2.58,-1.52,1721228868918
-38.03,-78.45,78.45,-1.17,1.38,-1.11,1721228868928
-31.63,78.45,78.45,0.74,1.05,2.96,1721228868938
27.21,-57.44,-32.35,4.37,-4.03,0.93,1721228868948
5.45,-64.63,-78.45,0.08,-1.59,1.12,1721228868958
1.48,18.45,-78.45,-0.26,2.60,-0.33,1721228868968
-4.74,-20.21,5.84,-4.37,4.37,-0.97,1721228868978
29.33,6.81,70.47,0.37,-1.36,-2.49,1721228868988
-6.27,57.62,21.19,4.37,0.27,-2.49,1721228868998
-36.63,18.98,-78.37,2.44,-1.30,1.58,1721228869008
-1.70,-15.64,-62.83,-3.44,-2.93,1.49,1721228869018
23.88,-46.76,25.81,-4.37,4.37,-0.37,1721228869028
-15.87,-9.02,26.54,2.15,-0.50,-0.97,1721228869038
16.97,-44.54,46.53,-1.10,0.00,-1.29,1721228869048
-18.99,18.38,47.29,-0.28,0.49,0.58,1721228869058
-50.56,49.45,-26.02,-0.72,-2.33,0.87,1721228869068
4.63,-8.79,-3.54,1.19,0.47,0.39,1721228869078
1.97,-2.67,11.26,-3.46,0.84,0.44,1721228869088
-5.57,24.50,51.90,0.43,-0.74,0.25,1721228869098
-9.08,50.83,0.93,2.52,-1.24,-0.28,1721228869108
-12.49,14.48,-55.92,4.37,0.43,-0.19,1721228869118
-0.96,-36.82,-74.77,0.95,-2.21,-0.03,1721228869128
-14.03,-43.79,-53.15,-0.34,-2.84,1.58,1721228869138
47.87,-22.82,50.00,-1.20,2.95,-2.02,1721228869148
78.45,78.45,-26.58,3.25,1.09,3.33,1721228869158
-11.94,-13.56,-39.48,4.37,-0.23,2.10,1721228869168
6.86,-62.81,-47.80,3.03,-4.37,-0.93,1721228869178
-46.36,-56.24,-58.59,-0.52,-4.37,-0.37,1721228869188
-10.69,78.45,14.87,-3.60,1.17,-0.16,1721228869198
14.85,44.76,38.06,0.01,-0.04,1.08,1721228869208
-4.32,-5.98,6.90,3.63,0.08,2.11,1721228869218
10.44,-26.56,-10.38,0.07,0.98,1.48,1721228869228
-7.49,-67.57,75.72,-3.94,1.15,-1.56,1721228869238
39.41,78.45,-1.23,-1.10,-2.00,-3.20,1721228869248
17.80,16.26,10.11,3.54,0.86,-1.80,1721228869258
-4.31,-26.39,-49.67,2.51,0.10,-0.82,1721228869268
1.31,-6.45,-39.10,-2.59,0.71,-0.89,1721228869278
-5.33,22.86,-12.19,-4.25,-1.22,-0.31,1721228869288
25.42,55.97,41.50,-0.83,1.55,0.71,1721228869298
0.44,-22.16,78.13,-0.60,2.60,0.95,1721228869308
12.53,-13.15,-0.37,2.79,0.02,0.12,1721228869318
1.88,-5.26,-26.36,2.58,-1.16,0.23,1721228869328
24.01,31.90,0.01,0.31,-1.04,-0.19,1721228869338
9.06,5.87,25.40,-2.37,1.23,-0.73,1721228869348
-8.07,19.61,38.88,-0.03,-1.28,-0.72,1721228869358
-3.22,5.55,7.49,1.35,0.02,-0.51,1721228869368
-0.25,-16.39,-14.32,2.18,0.26,1.10,1721228869378
-1.97,-5.79,-18.59,-1.19,-0.89,0.08,1721228869388
27.03,56.75,75.24,0.15,3.25,0.16,1721228869398
1.16,0.85,41.25,0.25,0.69,0.69,1721228869408
21.17,-50.96,6.66,3.87,0.33,0.71,1721228869418
18.92,-3.10,-39.19,0.35,-2.84,-1.16,1721228869428
8.09,-4.30,9.44,-3.05,1.28,-0.45,1721228869438
-26.02,65.61,-2.00,0.91,-0.07,1.27,1721228869448
9.50,0.77,49.05,-0.44,1.27,0.71,1721228869458
-1.38,-6.61,-25.84,0.11,0.10,-0.62,1721228869468
-20.67,-73.89,48.47,-0.63,1.10,-0.00,1721228869478
0.94,4.20,17.40,1.16,-0.20,0.24,1721228869488
15.95,17.90,-37.18,2.55,-0.30,0.69,1721228869498
5.09,-14.00,-24.14,-1.21,0.34,0.30,1721228869508
1.55,-78.45,56.72,-2.36,1.55,-1.00,1721228869518
3.19,49.58,58.54,-0.22,-1.62,0.12,1721228869528
-6.00,-57.45,-42.26,2.94,-0.08,-0.29,1721228869538
-27.65,8.61,-37.43,-0.93,-0.79,0.79,1721228869548
-10.63,-39.03,-16.94,-3.01,2.42,0.35,1721228869558
10.52,31.88,72.42,0.95,-2.17,-0.19,1721228869568
-17.17,11.90,45.13,-1.52,-0.14,-0.49,1721228869578
-7.58,3.57,15.38,2.52,-1.93,-0.43,1721228869588
-2.31,60.16,-39.05,2.04,-0.32,0.81,1721228869598
8.54,6.64,-31.24,0.17,1.29,1.18,1721228869608
48.82,-78.45,-8.51,-4.37,0.59,-1.37,1721228869618
2.26,-20.56,78.45,3.15,-1.87,-0.50,1721228869628
-30.64,50.01,78.45,1.87,-1.77,1.37,1721228869638
-12.70,-27.78,-64.83,4.37,0.28,1.96,1721228869648
-11.57,-78.45,-69.70,-1.58,-1.64,0.40,1721228869658
-12.37,-5.62,-17.24,-0.67,-1.52,0.84,1721228869668
-37.54,12.32,3.20,1.03,4.37,-2.42,1721228869678
28.67,-78.45,36.66,4.37,1.99,-2.80,1721228869688
-34.41,14.31,-78.45,4.37,-0.44,0.62,1721228869698
-7.92,-47.78,-44.60,-0.54,-1.44,0.36,1721228869708
13.47,-22.42,-5.75,-4.37,4.37,-1.52,1721228869718
-11.10,-16.55,78.45,0.94,0.84,-0.86,1721228869728
17.24,74.98,78.45,0.56,-0.64,1.65,1721228869738
-2.67,-78.45,-39.51,3.65,1.53,2.22,1721228869748
9.13,-21.94,-57.45,1.57,-3.83,1.39,1721228869758
19.30,10.58,-48.04,-1.98,1.81,-0.92,1721228869768
-12.23,12.76,-9.55,-4.37,0.39,-0.15,1721228869778
-50.95,35.17,65.46,-1.89,-1.85,-2.77,1721228869788
-36.09,31.92,-16.58,1.86,1.33,-1.49,1721228869798
-18.36,-54.81,27.69,4.37,0.42,-1.98,1721228869808
-3.82,-12.79,-51.29,0.26,-1.15,1.64,1721228869818
15.21,47.63,-27.50,-2.94,1.24,2.24,1721228869828
0.48,-1.85,21.25,-4.37,2.85,1.97,1721228869838
-38.17,13.30,52.77,-2.18,-0.31,2.48,1721228869848
17.18,-78.45,-13.45,1.38,-1.42,-1.19,1721228869858
0.60,20.25,-12.59,4.37,-1.29,-0.02,1721228869868
-6.72,-0.46,-77.40,0.41,-0.11,-1.14,1721228869878
-0.29,-49.79,-16.00,-0.24,4.03,0.20,1721228869888
-78.45,28.12,-47.96,-4.37,0.03,-2.07,1721228869898
-78.45,65.74,78.45,0.06,-0.21,-1.22,1721228869908
-17.48,26.80,25.34,4.11,2.14,-0.06,1721228869918
25.33,-23.10,-37.64,4.37,-1.97,1.36,1721228869928
14.29,-57.88,-38.57,-1.17,0.58,0.43,1721228869938
-10.91,1.91,-28.50,-3.92,1.49,-1.62,1721228869948
50.45,0.40,74.69,-0.90,2.56,-2.27,1721228869958
-24.99,5.29,17.65,0.85,-3.68,0.91,1721228869968
-10.57,-4.00,-39.01,1.85,-0.17,-0.06,1721228869978
2.80,16.96,-35.43,1.09,0.04,0.33,1721228869988
-15.23,-68.71,-33.14,-4.37,0.92,0.69,1721228869998
11.15,-78.45,78.45,-1.53,-0.08,-0.17,1721228870008
4.88,78.45,78.45,-0.09,-4.03,0.90,1721228870018
-18.37,-49.63,-78.45,4.37,0.47,-1.42,1721228870028
-4.95,-10.92,-74.81,3.16,-2.15,1.48,1721228870038
-14.31,34.09,-5.13,-0.32,-4.37,2.22,1721228870048
35.22,-72.89,6.70,-4.37,4.37,0.29,1721228870058
-33.21,7.52,-29.21,1.32,-1.98,-0.38,1721228870068
-17.51,15.55,-47.30,0.25,-3.50,-0.81,1721228870078
5.63,-53.45,-77.02,2.10,0.95,-1.63,1721228870088
-3.08,-12.98,-14.41,-3.07,0.74,0.19,1721228870098
12.76,-6.68,78.45,-0.01,4.15,-0.18,1721228870108
-41.87,78.45,-13.70,-4.37,-1.17,0.40,1721228870118
-14.45,-19.81,-21.64,-4.37,4.37,-0.66,1721228870128
15.71,-78.45,26.70,2.31,-2.84,-0.09,1721228870138
-19.73,78.45,-8.75,0.52,1.09,0.43,1721228870148
-3.08,-6.53,-1.71,0.16,-0.80,1.14,1721228870158
-20.71,-55.84,-10.91,-1.90,0.78,1.47,1721228870168
11.26,21.26,56.40,-0.94,2.50,0.73,1721228870183
3.18,78.45,39.57,0.44,0.17,1.07,1721228870188
12.14,14.52,-1.12,1.38,-1.04,0.86,1721228870198
4.76,-71.14,-7.03,-0.35,1.25,-0.83,1721228870208
5.02,0.47,6.80,-3.83,-0.56,-2.05,1721228870218
-19.45,35.15,57.64,1.04,-2.60,-2.48,1721228870228
-8.57,1.02,23.44,1.64,0.04,-0.97,1721228870238
-15.87,3.83,-8.14,-1.29,0.21,1.47,1721228870248
-7.34,0.19,18.90,0.16,0.07,1.77,1721228870258
8.17,-4.03,16.73,2.53,1.48,1.17,1721228870268
7.32,-28.91,-14.60,1.63,-0.11,1.65,1721228870278
20.34,39.53,3.73,-1.28,0.80,-0.28,1721228870288
-8.83,16.10,37.53,-0.53,-1.56,-0.94,1721228870298
-13.37,-54.36,33.25,0.23,-1.32,-1.50,1721228870308
-39.97,39.00,1.34,0.85,0.60,-0.91,1721228870318
-15.85,-2.37,-9.78,0.75,-0.77,-0.18,1721228870328
-18.03,20.85,1.27,-1.06,0.12,1.10,1721228870338
3.08,6.59,47.56,-0.41,1.34,0.63,1721228870348
-3.38,-78.45,-19.05,0.23,0.05,-0.01,1721228870358
-25.79,20.55,-8.10,0.53,0.34,0.47,1721228870368
7.26,-29.71,13.67,-1.22,3.24,-0.29,1721228870378
25.49,48.14,-4.88,0.99,-0.25,-0.09,1721228870388
19.41,-78.45,-30.61,-1.02,-0.01,-1.00,1721228870398
-16.31,4.45,22.08,-0.33,-0.60,-1.83,1721228870408
-56.73,62.25,50.60,-0.27,-0.22,-0.20,1721228870418
-12.00,-4.09,14.79,0.95,0.51,0.30,1721228870428
34.03,63.00,-32.43,2.53,0.26,1.46,1721228870438
20.11,-53.51,-36.80,-0.79,0.76,0.91,1721228870448
1.52,-2.64,-8.88,-4.31,1.05,-0.52,1721228870458
-21.22,7.17,44.48,-3.73,2.13,-1.56,1721228870468
-3.17,51.41,44.87,2.68,-0.25,-1.00,1721228870478
-21.23,1.81,-31.28,2.60,2.07,0.23,1721228870488
-12.82,-55.33,-49.48,-1.24,-1.06,0.16,1721228870498
-20.74,-34.76,29.48,-4.37,-0.07,0.24,1721228870508
-33.94,78.45,-43.59,1.06,2.75,-0.56,1721228870518
12.03,-10.31,7.72,4.37,1.95,0.30,1721228870528
13.28,10.76,-22.03,1.93,-1.00,0.06,1721228870538
8.15,-7.10,-10.53,-1.14,0.99,0.30,1721228870548
0.32,-10.03,-6.47,-2.12,-0.30,-0.15,1721228870558
-0.85,34.58,34.57,-0.43,0.69,-0.58,1721228870568
-9.14,52.91,38.81,1.27,-0.75,-0.10,1721228870578
-4.35,-78.45,-19.94,0.25,-0.08,-0.94,1721228870588
-8.04,8.20,21.44,-1.32,-0.56,0.55,1721228870598
-1.73,18.62,14.16,-0.99,0.29,-0.31,1721228870608
-0.58,-45.02,16.59,-0.69,0.44,-0.29,1721228870618
-1.20,-1.95,-4.25,2.28,-1.08,-0.12,1721228870628
-9.62,6.53,-30.20,2.17,0.23,0.15,1721228870638
-3.97,8.53,-32.42,-1.98,-0.17,0.77,1721228870648
0.69,-78.45,78.45,-4.37,4.05,-1.75,1721228870658
4.99,46.32,78.45,-0.43,-0.34,1.53,1721228870668
-4.82,-34.95,-78.45,4.37,1.14,-0.59,1721228870678
14.10,34.85,-78.45,4.37,-3.76,-0.03,1721228870688
-38.78,34.12,-73.34,-0.05,1.47,0.76,1721228870698
-0.47,-4.45,2.46,0.97,4.37,-0.66,1721228870708
14.42,-66.09,78.45,0.59,-4.37,-0.96,1721228870718
-40.70,38.19,-5.53,-0.87,-1.37,-0.44,1721228870728
-14.21,-6.79,13.48,0.60,1.28,-0.43,1721228870738
-31.32,36.95,2.35,0.77,-0.33,0.34,1721228870748
-4.30,4.53,1.38,-1.03,-0.67,1.26,1721228870758
9.62,-41.04,6.51,2.86,-0.07,1.54,1721228870768
22.23,59.51,-43.00,0.94,-1.15,1.54,1721228870778
9.72,-4.28,-7.53,-3.00,1.38,0.46,1721228870788
28.06,10.36,43.37,0.41,2.33,-0.97,1721228870798
-11.72,-3.59,21.80,-0.73,-1.69,-0.77,1721228870808
2.71,26.42,48.12,-0.45,0.89,-2.42,1721228870818
-24.32,32.21,55.90,-0.59,-2.70,-0.73,1721228870828
-5.64,-50.66,-10.83,2.40,1.60,-0.98,1721228870838
-17.71,4.65,-23.03,0.94,-0.42,1.27,1721228870848
-24.00,18.18,-2.46,2.39,-0.93,1.69,1721228870858
-1.29,-9.74,-9.90,-2.20,0.67,1.13,1721228870868
19.04,51.57,30.14,0.09,-0.88,-0.23,1721228870878
28.23,78.45,40.19,0.81,-0.66,0.81,1721228870888
10.81,-78.45,-62.79,3.00,-0.38,-0.34,1721228870898
-26.98,-78.45,-39.68,-4.37,-0.86,0.33,1721228870908
-31.49,-53.85,78.45,-3.08,1.50,-0.90,1721228870918
-78.45,49.84,78.45,-2.18,-2.01,-0.53,1721228870928
-8.72,-78.45,-25.42,4.37,-0.49,-1.11,1721228870938
-4.03,29.59,-78.45,-0.38,0.43,0.72,1721228870948
28.06,63.95,-13.24,0.10,-4.37,0.24,1721228870958
7.60,-5.63,-3.17,-1.16,-0.33,1.62,1721228870968
10.28,-41.26,4.18,-3.04,1.61,1.49,1721228870978
-21.43,-42.40,78.45,1.40,-2.15,-0.65,1721228870988
38.44,78.45,78.45,3.15,-2.66,-1.33,1721228870998
12.73,-57.35,-58.09,4.37,-1.86,-2.12,1721228871008
-37.99,-49.93,-36.03,-0.25,-4.37,0.20,1721228871018
8.82,-30.36,-26.29,-3.53,4.37,0.46,1721228871028
-23.83,5.12,-5.25,-4.37,-0.41,0.68,1721228871038
-2.54,5.12,-33.70,-1.25,2.53,-1.20,1721228871048
16.26,-6.35,42.71,1.35,-0.50,-0.82,1721228871058
14.22,6.96,-7.66,3.09,-0.98,-0.67,1721228871068
-16.92,-5.60,-35.32,2.30,-1.33,-0.39,1721228871078
-3.07,-33.25,-34.95,-0.25,1.36,-0.52,1721228871088
-25.56,3.39,-16.75,-3.90,0.26,0.13,1721228871098
-3.67,1.87,75.86,0.01,1.21,1.54,1721228871108
14.69,-17.87,78.45,1.66,1.28,1.98,1721228871118
-1.58,-9.54,-9.54,-1.20,0.20,1.23,1721228871128
7.64,-31.20,66.35,-1.34,1.11,-0.57,1721228871138
27.80,39.79,-36.49,3.08,-1.47,-0.38,1721228871148
13.19,-15.35,24.08,2.87,0.30,0.52,1721228871158
-66.52,42.75,-15.08,1.20,-4.37,-0.13,1721228871168
-11.84,-22.25,13.85,-1.40,1.66,0.11,1721228871178
-8.07,-28.12,49.68,-1.36,-0.44,1.33,1721228871188
-1.38,1.81,19.92,-1.80,1.96,0.51,1721228871198
1.33,-2.74,-2.74,0.45,-0.17,-0.38,1721228871208
12.06,25.73,-22.97,1.92,-0.87,-0.77,1721228871218
-3.15,-33.72,-20.37,1.75,-1.13,-1.19,1721228871228
-16.79,-6.34,13.71,-3.31,-0.78,-0.09,1721228871238
-57.82,78.45,9.75,-0.21,2.71,-0.28,1721228871248
-0.55,-0.60,-3.00,2.35,0.49,0.53,1721228871258
-7.30,15.99,8.18,4.20,-0.49,1.96,1721228871268
3.62,-27.07,-20.42,-1.45,-0.28,0.66,1721228871278
-1.27,-18.29,27.38,-4.22,0.23,-0.79,1721228871288
-78.45,34.54,78.45,-2.00,-3.12,-0.46,1721228871298
-32.05,14.48,-33.11,1.02,1.47,-0.03,1721228871308
-21.84,-38.39,-37.42,4.37,0.87,1.32,1721228871318
-8.25,-78.45,-78.45,1.88,-2.84,1.22,1721228871328
10.69,7.56,-22.21,-4.37,0.88,0.28,1721228871338
53.16,-17.02,78.45,-3.04,4.37,0.09,1721228871348
18.93,-24.62,69.63,0.13,4.37,-0.53,1721228871358
7.34,18.64,4.71,2.57,-1.44,0.11,1721228871368
-8.97,-27.31,-34.10,3.87,-1.07,0.92,1721228871378
9.84,-31.92,-33.39,1.25,-0.44,0.43,1721228871388
0.21,-18.61,-37.38,-2.59,1.03,-0.23,1721228871398
-4.19,-7.17,-5.61,-4.37,-0.06,-0.18,1721228871408
-72.18,78.45,-9.12,-0.67,-1.63,-1.21,1721228871418
-4.14,7.91,20.32,4.04,1.16,0.13,1721228871428
-7.92,-32.07,-34.60,1.83,0.35,-0.50,1721228871438
-2.33,-20.88,-27.32,-2.06,0.18,-1.27,1721228871448
-7.06,52.18,5.94,-1.83,-0.51,-0.45,1721228871458
3.69,-17.60,33.85,0.21,2.44,-0.11,1721228871468
-9.51,42.60,32.00,1.21,-1.49,1.30,1721228871478
10.61,-51.09,-38.08,3.21,-0.61,-0.37,1721228871488
3.92,1.48,-13.07,-3.03,-0.19,0.01,1721228871498
11.94,30.22,67.67,0.58,2.02,-0.44,1721228871508
-8.82,-9.04,-14.52,-2.09,-1.20,0.52,1721228871518
-0.76,2.83,-12.48,-1.46,2.19,-0.53,1721228871528
-3.69,-8.83,15.43,0.85,-0.29,-0.61,1721228871538
-25.24,-78.45,51.70,-2.00,1.85,-0.88,1721228871548
-25.48,50.63,77.20,0.66,-1.92,-0.69,1721228871558
-19.60,5.86,5.39,4.37,0.97,2.19,1721228871568
12.90,37.18,-55.14,4.16,0.19,2.93,1721228871578
17.87,-3.58,-78.45,0.57,0.09,1.09,1721228871588
21.59,-48.18,-31.38,-4.37,0.74,-1.82,1721228871598
21.70,-54.38,78.45,0.39,0.71,-2.57,1721228871608
16.74,62.55,71.69,1.67,-4.37,0.53,1721228871618
1.71,-57.20,-48.69,4.37,4.18,-0.51,1721228871628
3.82,-71.62,-78.45,1.61,-2.17,-0.26,1721228871638
-37.58,-44.47,-29.55,0.38,-2.12,0.71,1721228871648
27.93,-29.08,78.45,-1.90,4.37,0.62,1721228871658
-11.78,2.96,3.00,-4.37,-0.33,1.59,1721228871668
12.27,-28.08,14.92,4.06,2.18,-0.02,1721228871678
-3.64,56.15,-26.20,-0.70,-1.01,0.66,1721228871688
11.15,-19.25,30.64,-2.95,4.37,0.45,1721228871698
-14.06,18.25,49.63,-0.75,-2.51,-0.46,1721228871708
3.86,-6.19,5.35,4.37,-0.37,-1.45,1721228871718
-15.36,8.25,-48.49,1.57,0.64,-0.87,1721228871728
-15.31,-65.85,-47.27,0.28,-0.42,-0.38,1721228871738
0.63,-25.66,17.60,-4.37,-4.13,1.03,1721228871748
-19.47,-21.63,78.45,-4.37,2.20,-0.65,1721228871758
25.97,-7.74,68.32,2.13,4.37,1.99,1721228871768
6.53,-28.81,-36.71,4.37,-1.92,-0.03,1721228871778
9.19,-34.20,-58.78,-0.36,4.37,0.45,1721228871788
-5.01,-24.83,-29.54,-0.91,-4.37,2.06,1721228871798
-7.30,30.75,-20.01,-0.81,2.73,-0.02,1721228871808
22.36,17.34,-19.78,0.85,4.37,-1.87,1721228871818
37.54,41.03,7.81,1.31,-1.76,-0.65,1721228871828
-15.68,45.70,10.56,0.10,1.76,-0.53,1721228871838
-4.12,-39.53,-13.43,1.04,0.42,0.11,1721228871848
5.46,-44.05,-34.22,3.15,-0.42,1.15,1721228871858
27.80,-19.06,-63.01,-2.69,-1.26,0.60,1721228871868
12.72,-54.38,56.56,-0.73,1.81,-0.49,1721228871878
19.59,77.18,78.45,1.87,-1.49,-1.22,1721228871888
5.51,20.14,-3.92,4.37,-0.95,-0.04,1721228871898
0.31,10.94,-47.83,3.30,0.38,1.11,1721228871908
6.93,-26.27,-75.27,1.22,-0.34,0.32,1721228871918
6.12,-52.39,-38.44,-3.91,-0.08,-0.30,1721228871928
14.45,2.46,15.06,-4.37,0.96,-0.90,1721228871938
-10.54,78.45,25.44,-0.34,-2.66,0.40,1721228871948
22.20,-47.29,-29.31,4.37,0.53,-2.57,1721228871958
-11.15,-3.53,-62.50,2.83,-1.64,-0.10,1721228871968
-35.45,-59.14,-45.92,0.45,-4.37,1.48,1721228871978
-34.85,-9.67,78.45,-4.01,3.67,3.04,1721228871988
-78.45,40.46,8.15,-1.55,-4.37,2.70,1721228871998
32.56,-8.71,78.45,-0.96,4.37,0.28,1721228872008
27.61,6.44,67.80,1.59,-0.42,-0.65,1721228872018
37.33,78.45,10.74,4.37,-1.07,-0.77,1721228872028
12.28,-56.97,-68.05,4.37,0.77,-1.60,1721228872038
-11.93,-78.45,-39.94,-0.12,-4.37,0.18,1721228872048
16.72,-4.98,-7.24,-4.37,4.37,-0.85,1721228872058
78.45,78.45,33.44,1.31,1.11,-1.76,1721228872068
-7.71,50.36,36.89,2.80,-0.15,-0.26,1721228872078
-12.23,-37.80,-10.88,4.37,2.44,0.53,1721228872088
58.22,58.31,-64.36,-0.68,-3.85,-0.52,1721228872098
-24.13,-33.99,-8.68,-0.82,-3.91,0.66,1721228872108
45.47,57.66,18.56,-2.97,3.30,0.52,1721228872118
13.30,19.70,-13.54,3.02,-4.37,1.28,1721228872128
20.41,-44.21,26.99,-0.04,2.90,-0.46,1721228872138
-5.73,0.62,1.49,-0.42,-1.55,0.69,1721228872148
14.30,-11.55,72.23,-1.18,0.76,-0.58,1721228872158
13.17,41.99,13.47,0.51,0.38,-0.02,1721228872168
8.61,-41.22,6.16,0.57,-0.12,-0.73,1721228872178
-20.19,-67.62,74.49,-3.03,0.66,-1.11,1721228872193
-13.55,15.78,57.36,-0.14,-2.20,-1.06,1721228872198
-18.10,19.92,8.07,1.57,0.05,-0.17,1721228872208
0.11,-3.00,-19.23,3.57,-0.19,1.73,1721228872218
16.43,-31.46,-22.74,-0.18,0.61,1.12,1721228872228
-32.77,41.92,-7.81,-4.37,-1.04,0.49,1721228872238
-27.34,78.45,-24.22,-0.14,0.32,-1.26,1721228872248
6.44,-2.36,21.28,3.36,-1.65,-0.13,1721228872258
-1.78,-19.46,-34.56,2.19,1.62,-0.02,1721228872268
0.26,-17.32,-31.99,-1.23,-1.76,-0.87,1721228872278
-16.26,25.10,-18.39,-4.37,0.85,-0.44,1721228872288
-22.78,15.79,-0.25,-2.32,1.71,-2.11,1721228872298
16.39,30.78,42.83,3.68,-2.50,-0.37,1721228872308
-11.89,-74.15,-16.04,-1.84,1.42,0.58,1721228872318
11.59,22.72,5.87,-0.13,-0.29,0.30,1721228872328
-0.20,-0.24,-10.34,0.96,-0.33,0.73,1721228872338
9.55,-21.14,19.26,-0.90,-0.87,0.69,1721228872348
-11.38,41.00,40.57,-0.58,-0.55,0.00,1721228872358
-13.95,33.96,12.98,3.46,-0.09,0.46,1721228872368
8.12,-43.63,-31.93,2.40,2.59,0.52,1721228872378
-1.83,-8.76,-60.28,-1.56,-1.30,-1.18,1721228872388
-3.89,-10.32,0.27,-4.37,0.05,-1.02,1721228872398
-8.83,-14.07,30.47,-2.12,2.05,-0.28,1721228872408
-8.88,33.61,58.65,3.85,-2.63,0.77,1721228872418
6.50,-17.48,-49.08,3.25,0.69,-0.16,1721228872428
12.25,-25.79,-21.66,-0.60,-1.26,-0.72,1721228872438
1.16,6.98,-2.54,-4.37,-0.48,-0.01,1721228872448
2.11,78.45,34.72,-0.16,-1.66,0.05,1721228872458
15.29,-66.93,-43.85,4.37,-0.19,-1.58,1721228872468
19.15,9.98,-61.33,1.33,-0.53,-0.61,1721228872478
-7.60,-10.14,-5.37,-2.80,1.60,-0.18,1721228872488
-5.83,-27.32,1.30,-3.09,1.03,0.07,1721228872498
49.53,71.61,50.75,2.71,-0.38,-0.99,1721228872508
-2.39,7.80,2.83,0.68,-0.65,0.25,1721228872518
9.09,-69.93,-14.14,0.33,2.87,-0.43,1721228872528
-32.26,16.36,-2.35,-1.12,-0.24,1.63,1721228872538
1.70,-10.97,-8.63,-2.65,-2.00,-0.22,1721228872548
-6.77,32.20,72.16,0.69,-1.38,0.72,1721228872558
10.58,33.02,23.74,1.98,-0.38,0.81,1721228872568
6.21,-48.35,-34.18,3.76,-0.54,0.61,1721228872578
8.75,-18.39,-26.95,-1.24,0.25,-0.48,1721228872588
5.58,-12.24,-0.52,-2.35,0.81,-0.97,1721228872598
11.72,-10.37,48.00,0.43,0.66,-1.86,1721228872608
-16.07,25.00,57.96,1.81,-2.20,-0.63,1721228872618
2.93,-10.62,-11.59,1.00,0.54,-1.30,1721228872628
0.89,3.91,-10.65,1.08,-0.71,0.37,1721228872638
-1.33,1.68,-0.47,-2.72,0.66,1.42,1721228872648
-24.79,26.08,6.95,1.05,0.55,1.26,1721228872658
20.51,-53.75,-9.46,0.85,-0.59,-1.47,1721228872668
7.81,2.00,9.17,-1.46,1.06,-0.72,1721228872678
-11.35,78.45,39.19,0.26,-0.31,-1.13,1721228872688
2.47,13.80,3.96,1.26,-0.99,-0.25,1721228872698
6.73,-20.36,-1.85,1.61,-0.04,-1.01,1721228872708
-5.26,-12.81,-14.12,-1.35,-0.12,0.46,1721228872718
1.33,-5.62,25.32,0.17,0.53,0.09,1721228872728
-10.40,21.26,44.47,0.52,-0.21,0.10,1721228872738
6.00,4.78,25.69,0.43,0.02,0.30,1721228872748
-4.16,-30.27,-6.52,1.37,0.19,0.19,1721228872758
0.45,-8.20,-38.47,1.12,-0.50,0.01,1721228872768
-0.03,-20.37,-3.98,-2.46,0.96,0.53,1721228872778
9.24,7.04,26.22,1.06,0.96,0.22,1721228872788
8.04,-4.42,-13.97,0.70,-1.35,0.27,1721228872798
5.51,27.87,72.45,-3.24,2.65,-0.18,1721228872808
-64.60,78.45,78.45,-1.51,-1.29,-2.08,1721228872818
2.13,-3.48,22.96,4.08,-1.10,-1.97,1721228872828
-19.05,22.57,-31.59,2.89,1.40,0.47,1721228872838
3.67,-33.18,-75.35,1.57,-1.87,0.53,1721228872848
12.54,33.73,-43.41,-4.37,0.29,1.02,1721228872858
-3.63,78.45,-12.76,-0.29,0.15,-2.13,1721228872868
14.45,-9.37,45.94,4.37,2.20,-1.72,1721228872878
-73.26,-78.45,-78.45,4.37,-2.51,0.68,1721228872888
-20.87,65.69,-78.45,-3.97,-0.98,-1.12,1721228872898
1.98,-28.63,7.02,-3.22,3.44,0.43,1721228872908
-33.90,59.52,-13.14,-1.72,0.39,0.03,1721228872918
14.44,-21.55,76.83,0.53,2.55,0.08,1721228872928
2.77,51.76,25.36,0.64,-0.13,0.44,1721228872938
-0.06,-2.51,-9.16,1.25,-1.39,0.25,1721228872948
-10.52,-48.06,-33.37,-0.24,0.70,0.10,1721228872958
5.47,-38.00,1.21,-4.37,0.42,0.03,1721228872968
-16.31,71.10,67.92,1.00,-0.17,-1.41,1721228872978
12.46,-8.80,30.21,3.77,-1.32,-1.53,1721228872988
-20.87,-34.99,-35.95,1.27,2.74,-0.71,1721228872998
-9.48,-5.78,-17.63,0.65,-2.16,1.41,1721228873008
2.71,-0.50,23.74,-2.92,2.90,0.46,1721228873018
-26.51,78.45,61.78,-0.93,-0.69,0.03,1721228873028
13.96,21.18,18.48,2.57,-1.01,-0.93,1721228873038
1.24,-36.07,-26.42,4.37,-0.64,-0.90,1721228873048
0.51,-19.84,-72.26,0.84,-1.30,-1.04,1721228873058
-0.86,-3.27,-26.81,-3.53,-1.44,-0.27,1721228873068
5.24,-43.88,25.13,-4.37,4.37,0.37,1721228873078
-3.81,27.00,78.45,0.44,4.37,0.78,1721228873088
4.39,22.36,31.30,2.83,0.09,0.49,1721228873098
15.46,13.45,-22.12,2.83,-1.47,0.74,1721228873108
4.63,-51.33,-27.07,-3.68,-0.24,-1.13,1721228873118
5.09,-18.48,78.45,-1.34,3.55,-1.65,1721228873128
-58.18,35.01,-64.50,-1.71,-1.51,0.28,1721228873138
14.30,-23.07,-0.01,0.38,4.35,0.72,1721228873148
5.77,34.24,-8.43,-0.22,-1.59,1.54,1721228873158
29.97,35.04,-40.02,0.95,-0.03,1.21,1721228873168
21.65,-78.45,-17.38,0.18,0.88,0.73,1721228873178
-10.28,-67.14,27.32,-4.37,2.27,-0.69,1721228873188
17.14,-32.74,-12.65,2.22,-3.05,-4.37,1721228873198
-27.35,37.64,13.22,4.37,1.99,-0.84,1721228873208
-7.07,-19.82,-78.45,4.37,-1.24,0.64,1721228873218
0.72,-31.89,-41.99,-2.16,-0.68,0.84,1721228873228
11.79,-30.11,-14.43,-0.84,4.37,-1.14,1721228873238
-10.51,-32.16,73.65,-2.25,4.14,-0.70,1721228873248
-10.54,-15.85,39.13,2.69,-2.53,0.19,1721228873258
-8.43,-0.80,-5.66,-0.33,1.18,-0.15,1721228873268
0.75,32.49,-6.59,0.41,-0.02,-0.01,1721228873278
0.39,0.40,-1.89,-0.75,0.20,0.09,1721228873288
8.55,-33.30,-1.77,-1.08,-0.90,-0.17,1721228873298
2.39,-19.06,36.43,0.04,0.50,-0.28,1721228873308
3.18,31.24,-16.86,1.97,-1.24,-0.75,1721228873318
0.91,-55.65,-3.99,2.10,0.28,-0.69,1721228873328
-12.16,6.94,-19.66,-2.09,0.27,1.05,1721228873338
9.12,-19.15,-18.04,-2.75,-1.33,-0.68,1721228873348
-53.24,78.45,78.45,-1.31,-0.61,0.26,1721228873358
-14.27,63.35,13.65,2.99,-0.03,0.47,1721228873368
29.12,-78.45,59.45,1.23,3.88,-0.02,1721228873378
-9.14,-43.32,-30.66,0.76,-1.99,-0.03,1721228873388
-21.61,0.87,-36.08,-4.37,4.37,-0.82,1721228873398
1.21,-5.94,35.60,0.14,2.31,-0.72,1721228873408
8.33,-8.81,2.63,0.70,-0.44,0.07,1721228873418
1.91,6.62,11.38,-0.43,-0.64,0.70,1721228873428
-10.90,33.75,24.42,0.18,0.12,1.46,1721228873438
-10.50,-16.40,50.83,0.60,1.35,-0.19,1721228873448
21.09,-43.89,0.81,1.83,0.32,0.67,1721228873458
-9.96,17.13,-20.80,0.53,-1.67,0.61,1721228873468
6.04,-1.09,-1.89,0.28,0.88,-0.51,1721228873478
0.95,-7.33,-4.39,-0.44,0.47,-0.38,1721228873488
-0.64,23.98,43.35,-0.67,-0.29,-0.67,1721228873498
-1.11,-0.51,38.28,-2.06,0.08,-0.39,1721228873508
-2.51,-34.94,29.02,-0.09,-1.20,-0.76,1721228873518
-10.80,1.03,23.48,0.96,-0.22,-0.08,1721228873528
8.65,28.29,-23.71,0.76,-0.33,1.86,1721228873538
7.57,1.32,-12.62,-0.80,0.56,2.39,1721228873548
23.89,-78.45,78.45,-1.80,2.94,-0.89,1721228873558
25.29,78.45,-14.15,0.36,-2.68,-1.99,1721228873568
12.75,-15.40,-28.78,4.37,-1.28,-1.20,1721228873578
-15.19,-23.20,-21.33,-2.47,0.99,-2.15,1721228873588
13.07,-38.81,78.45,2.95,-2.36,-1.38,1721228873598
-15.87,0.16,78.45,0.03,-0.43,0.47,1721228873608
-5.51,-15.00,-20.83,4.37,1.41,1.57,1721228873618
15.61,-18.08,-37.78,2.82,-2.04,0.82,1721228873628
16.83,-22.28,-68.47,-1.76,0.26,0.06,1721228873638
2.50,23.47,-2.46,-4.37,0.21,-0.53,1721228873648
17.48,78.45,-37.22,-0.46,-0.36,-1.63,1721228873658
-2.10,-78.45,59.79,1.48,-2.00,-0.16,1721228873668
-7.06,50.56,48.63,0.25,0.21,2.68,1721228873678
10.79,-1.20,20.10,0.69,0.77,1.24,1721228873688
-0.17,-19.99,-14.00,0.67,-0.20,-0.19,1721228873698
9.00,-10.56,-11.21,-2.43,0.81,-0.54,1721228873708
36.10,78.45,-6.64,0.98,-0.09,-0.60,1721228873718
26.12,31.98,-36.00,2.44,-2.14,-0.78,1721228873728
6.09,-27.45,-18.10,0.26,2.06,-1.64,1721228873738
-14.01,-54.44,11.88,-3.70,-1.39,-1.54,1721228873748
-26.60,19.38,78.45,0.37,0.32,-0.05,1721228873758
7.17,10.11,67.82,0.85,0.75,1.82,1721228873768
-20.56,-78.45,-10.56,2.24,0.22,1.92,1721228873778
-1.11,7.24,-74.42,1.09,-0.08,0.66,1721228873788
12.43,-33.29,-16.56,1.55,-0.43,0.75,1721228873798
20.33,78.45,-12.09,-3.29,-0.92,-0.54,1721228873808
37.11,35.06,78.45,-2.05,4.37,-2.19,1721228873818
1.81,20.32,60.75,2.93,-4.37,-1.11,1721228873828
-23.22,-12.97,-20.32,4.37,2.74,0.93,1721228873838
-10.55,-78.45,-70.43,2.58,-0.51,2.13,1721228873848
-41.89,56.05,-78.45,-2.30,-1.83,1.50,1721228873858
-18.86,-15.54,37.70,-0.60,3.02,0.95,1721228873868
-78.45,78.45,12.04,-0.83,0.45,0.54,1721228873878
11.60,2.00,17.73,1.83,-1.37,0.66,1721228873888
-30.39,-47.11,-22.20,4.37,-0.93,-0.71,1721228873898
-9.43,23.01,-32.19,0.73,-2.31,0.14,1721228873908
-5.32,-14.01,-16.75,-1.71,1.47,0.14,1721228873918
-4.55,-19.92,-3.46,-2.88,-0.02,0.73,1721228873928
7.41,21.31,-17.55,-1.49,2.82,0.11,1721228873938
18.51,-18.11,59.75,2.02,-1.56,-0.19,1721228873948
-1.54,12.42,-16.52,0.51,-0.98,0.18,1721228873958
9.61,-39.49,29.26,0.29,0.12,-0.65,1721228873968
2.08,19.18,56.96,1.25,0.84,0.37,1721228873978
2.41,0.00,22.43,2.05,-2.15,0.15,1721228873988
-14.94,51.47,-37.56,3.38,1.23,0.01,1721228873998
5.72,-33.87,-38.93,2.35,-1.09,-0.04,1721228874008
-4.87,-45.86,-30.60,-4.37,1.19,1.19,1721228874018
18.85,-49.73,78.45,-3.04,0.32,0.89,1721228874028
8.00,64.10,78.45,1.74,-3.67,1.25,1721228874038
-10.58,-78.45,-46.53,4.37,-0.86,0.86,1721228874048
-30.67,-78.45,-78.45,1.01,-1.41,1.47,1721228874058
0.86,-9.54,-2.50,-4.37,-0.93,0.45,1721228874068
78.45,78.45,78.45,-1.58,4.37,-0.34,1721228874078
-29.87,51.30,0.36,2.39,-3.31,2.87,1721228874088
1.07,-35.04,-23.41,1.81,0.58,-0.03,1721228874098
10.42,-62.54,-36.79,-2.39,-0.77,-0.77,1721228874108
-1.83,-11.16,78.45,-0.97,0.50,-0.61,1721228874118
-35.21,46.39,6.47,-0.62,-0.66,-0.37,1721228874128
14.68,-39.19,-37.42,4.37,-0.62,-0.48,1721228874138
-11.74,-18.71,-3.78,-0.40,0.03,-0.21,1721228874675
-15.01,-41.77,2.24,1.74,-0.39,1.34,1721228874679
-2.99,10.64,19.23,0.18,1.95,2.47,1721228874688
8.21,78.45,-12.17,2.90,-0.52,2.66,1721228874698
13.31,-11.23,-26.50,2.43,-0.31,1.59,1721228874707
31.34,-78.45,-2.43,-1.84,0.87,-1.26,1721228874717
7.13,-58.05,78.45,-2.80,1.58,-2.34,1721228874727
-78.45,78.45,78.45,-0.39,-3.54,1.44,1721228874737
10.23,-17.18,-78.45,4.37,4.37,-1.80,1721228874746
-17.59,-44.14,-66.26,3.94,-2.94,1.14,1721228874756
-52.41,-62.79,-12.04,-0.78,-0.81,2.26,1721228874765
5.27,-11.62,23.49,-4.37,4.37,1.03,1721228874775
-78.45,78.45,40.01,1.18,3.11,-0.11,1721228874784
-16.44,8.94,0.42,2.87,-2.39,-3.68,1721228874794
-33.61,-14.85,-54.67,4.37,-2.61,1.18,1721228874803
-32.62,-78.45,-78.45,-0.21,-1.33,0.29,1721228874813
2.05,-61.77,-65.33,-4.37,4.37,-1.28,1721228874823
-0.92,-6.64,78.45,-0.00,-2.91,-0.71,1721228874833
-78.45,39.46,-72.03,2.14,-0.67,4.02,1721228874843
-5.19,-78.45,-78.45,4.37,-3.31,1.78,1721228874853
29.53,-23.27,11.07,-1.89,-2.82,-0.87,1721228874862
18.61,23.12,-18.16,-0.39,2.80,-0.09,1721228874872
3.14,-61.86,-14.78,-4.37,3.93,-1.98,1721228874882
12.52,32.28,78.45,-0.15,0.19,-2.12,1721228874892
-69.23,-6.13,39.18,-0.40,-3.97,-0.09,1721228874902
-12.77,-32.78,-50.71,4.37,0.71,-0.34,1721228874912
-9.90,-6.15,-78.45,4.37,-1.54,0.62,1721228874922
0.35,5.34,-32.64,-3.40,-3.35,1.38,1721228874932
1.24,-25.71,9.81,-4.30,3.08,1.21,1721228874942
-9.16,4.07,48.83,-3.01,2.25,-0.78,1721228874952
-50.75,7.52,47.67,0.64,-4.37,-0.93,1721228874962
15.12,-40.73,9.10,3.77,2.48,-1.76,1721228874972
-32.21,23.64,-5.32,0.57,-0.72,2.54,1721228874982
3.40,-19.52,17.16,-3.15,3.43,0.29,1721228874992
17.47,0.26,68.35,-0.28,-0.17,0.66,1721228875002
-19.22,32.33,-18.21,1.14,-1.31,0.62,1721228875012
21.57,-77.06,4.99,-0.15,-1.07,-1.38,1721228875022
-6.94,64.52,-13.05,-0.28,-0.02,-0.46,1721228875032
-14.62,29.68,-23.36,1.23,0.01,-0.21,1721228875042
2.65,4.52,-25.20,-0.96,-0.74,0.12,1721228875052
-1.36,-35.83,-8.50,-4.37,2.78,0.01,1721228875062
-9.97,-27.82,78.45,0.14,1.98,-0.49,1721228875072
-26.47,78.45,47.34,3.14,-1.75,-1.34,1721228875082
-5.49,-12.93,-10.19,4.37,-2.42,-0.06,1721228875092
-34.17,14.03,-68.84,-2.01,-0.12,2.32,1721228875102
-13.15,-13.25,-2.13,0.32,0.44,0.90,1721228875112
29.27,-78.45,55.11,-2.59,1.42,0.10,1721228875122
55.34,78.45,-8.27,1.24,-0.73,-0.70,1721228875132
-14.09,-78.45,16.76,0.88,-0.63,0.53,1721228875142
-6.12,-5.54,8.12,-1.31,1.04,0.83,1721228875152
43.89,44.74,50.13,0.39,0.41,0.44,1721228875162
3.87,25.27,31.68,1.27,-0.78,-0.34,1721228875172
10.61,-11.75,16.96,1.25,-0.83,-0.39,1721228875182
-5.91,-13.78,-10.85,-0.79,1.99,0.60,1721228875192
-4.39,-28.61,-22.11,1.49,-0.38,-0.02,1721228875202
-0.89,0.07,-18.95,0.22,-2.70,0.17,1721228875212
8.71,-7.81,15.17,-4.30,0.82,0.13,1721228875222
-11.68,16.97,78.45,-1.22,-0.55,1.51,1721228875232
6.44,-61.25,9.36,2.51,-0.64,0.98,1721228875242
19.58,78.45,-7.29,-1.99,-0.62,-0.37,1721228875252
14.97,-3.08,78.45,-1.04,-0.04,-0.63,1721228875262
-9.62,73.59,28.04,0.74,-0.34,0.19,1721228875272
9.53,-78.45,-14.83,2.39,-0.89,-0.97,1721228875282
-14.24,-49.01,-78.45,1.78,0.56,-1.57,1721228875292
0.10,34.77,-40.15,1.25,-0.03,0.14,1721228875302
-23.89,-43.57,-29.25,-1.63,-0.87,1.07,1721228875312
-13.06,-33.57,78.45,-1.74,1.87,0.55,1721228875322
0.14,27.53,78.45,-0.21,-0.73,0.72,1721228875332
17.02,-31.23,0.73,2.41,0.38,-1.34,1721228875342
-17.51,72.40,-13.10,3.28,-1.08,-0.16,1721228875352
8.71,-24.70,-36.07,1.20,-0.93,0.20,1721228875362
29.99,-78.45,-34.17,-4.37,-0.04,-3.03,1721228875372
-15.08,48.46,78.45,-0.08,0.37,-2.54,1721228875382
-3.96,78.45,30.82,2.80,1.62,0.84,1721228875392
-18.10,-76.14,-60.60,4.37,0.76,3.19,1721228875402
26.34,-37.62,-78.45,-0.66,-0.68,1.49,1721228875412
33.14,-22.13,-18.45,-3.88,4.37,-0.32,1721228875422
-78.45,76.34,78.45,0.02,-0.28,-0.61,1721228875432
-36.66,-48.52,-1.66,2.02,4.37,-3.44,1721228875442
-9.05,-66.41,-78.45,4.37,-2.11,2.82,1721228875452
-10.15,-78.45,-78.45,0.24,-0.72,-0.48,1721228875462
37.07,-78.45,-17.81,0.43,4.37,-1.94,1721228875472
78.45,78.45,65.83,0.58,-2.40,-4.37,1721228875482
-32.68,-8.41,6.46,0.53,4.37,2.76,1721228875492
-4.79,1.84,24.76,0.50,-4.37,2.09,1721228875502
9.74,-33.14,-6.10,-1.04,4.37,0.48,1721228875512
-14.67,-78.45,-35.82,2.16,-2.70,1.73,1721228875522
-51.89,58.43,4.52,0.35,2.23,0.39,1721228875532
5.72,-1.00,12.67,-2.87,-2.24,-0.78,1721228875542
3.57,5.31,33.20,1.02,1.76,-0.94,1721228875552
-2.62,-2.89,-3.18,-0.11,-1.49,0.36,1721228875562
13.55,-12.53,27.72,-0.89,0.38,0.42,1721228875572
-5.38,-3.41,69.78,-0.59,-0.49,0.59,1721228875582
6.59,33.04,31.58,-0.19,1.74,0.77,1721228875592
1.24,64.99,-63.50,2.42,-2.61,0.21,1721228875602
-3.14,-34.22,-27.84,3.38,-0.71,-0.11,1721228875612
3.10,-9.83,-35.93,-1.35,-0.09,-0.63,1721228875622
-10.03,20.67,2.46,-4.37,1.82,-0.78,1721228875632
-6.81,2.89,-19.74,-0.49,0.20,1.06,1721228875642
-14.82,6.07,47.19,-0.59,0.38,-1.02,1721228875652
-6.77,-12.38,59.07,0.78,-1.65,0.58,1721228875662
12.65,59.78,13.39,1.91,0.77,1.85,1721228875672
3.08,-21.47,-6.04,2.78,0.83,0.64,1721228875682
-1.54,-53.50,-40.77,-0.21,-1.36,-0.08,1721228875692
8.69,6.59,-11.53,-4.37,1.79,-0.75,1721228875702
8.32,78.45,23.21,-0.49,0.60,-2.59,1721228875712
-17.43,24.24,10.09,1.94,-0.76,-1.44,1721228875722
3.08,-48.38,-15.53,4.37,-0.30,-0.12,1721228875732
-37.73,22.77,-30.56,-3.93,-1.26,1.37,1721228875742
0.32,0.64,20.43,-4.37,3.46,1.51,1721228875752
31.34,78.45,38.30,1.31,-2.07,1.35,1721228875762
12.03,-13.18,4.45,4.37,1.46,-0.12,1721228875772
14.63,-71.32,-17.32,1.78,-2.74,0.41,1721228875782
25.09,78.45,-9.32,-4.37,-0.40,0.15,1721228875792
-4.72,78.45,38.50,-0.86,-0.73,-0.95,1721228875802
8.20,-26.62,26.78,3.37,-0.78,-2.41,1721228875812
-9.00,-37.70,-12.84,0.07,0.47,-0.16,1721228875822
38.29,78.45,-24.18,0.58,-0.21,0.65,1721228875832
-7.92,-22.05,-22.17,-0.35,-0.41,0.23,1721228875842
3.44,-10.72,24.27,-3.99,1.76,-0.09,1721228875852
48.88,78.45,78.45,1.10,-1.65,-0.60,1721228875862
5.10,9.54,17.90,3.68,0.21,0.48,1721228875872
6.66,-10.50,-20.81,4.33,-0.82,1.45,1721228875882
12.02,-78.45,-67.21,-2.65,0.77,0.47,1721228875892
20.87,28.88,-41.84,-4.37,-0.49,-2.47,1721228875902
-78.45,38.06,78.45,-4.37,0.70,-2.94,1721228875912
-27.02,32.98,-6.92,4.01,-0.63,-2.07,1721228875922
-7.60,-12.07,-29.66,3.36,0.56,0.99,1721228875932
-13.25,40.44,-46.41,-0.51,0.02,2.38,1721228875942
20.14,-78.45,-22.15,-0.21,2.23,1.64,1721228875952
57.24,-78.45,78.45,4.37,0.43,0.16,1721228875962
-50.26,78.45,42.88,4.19,0.78,-0.45,1721228875972
28.44,-26.70,-59.60,-0.89,-1.87,0.76,1721228875982
11.79,-78.45,-55.86,-1.72,2.10,-0.24,1721228875992
2.35,54.46,-60.86,-3.01,-0.18,-0.80,1721228876002
20.32,-39.60,78.45,-4.37,3.44,-1.61,1721228876012
78.45,62.51,39.54,-0.26,-0.85,-0.55,1721228876022
17.03,-78.45,50.91,-0.44,-1.28,0.07,1721228876032
-9.92,-7.37,-45.97,-0.37,0.57,-0.73,1721228876042
-8.44,-11.15,29.26,0.18,-0.40,-0.99,1721228876052
-38.36,42.84,5.51,1.10,-0.32,-0.04,1721228876062
-1.02,10.96,-25.68,3.72,-0.54,1.02,1721228876072
7.08,-24.62,-46.92,1.11,0.13,1.26,1721228876082
12.82,-32.24,-9.13,-4.37,1.22,1.46,1721228876092
-21.06,-78.45,78.45,-1.78,-0.98,-0.71,1721228876102
-37.99,78.45,78.45,1.02,-1.18,-1.35,1721228876112
-21.22,-78.45,-78.45,4.37,1.19,0.06,1721228876122
5.16,-14.51,-78.45,1.53,-0.47,1.03,1721228876132
-35.21,-40.00,-3.02,-0.06,0.63,0.61,1721228876142
66.99,41.43,-27.38,-3.21,4.22,-1.52,1721228876152
18.24,-78.45,74.01,-4.37,-4.37,-0.47,1721228876162
-25.93,78.45,78.45,-0.41,-1.57,1.42,1721228876172
-15.24,60.99,42.59,4.37,-0.80,0.20,1721228876182
-8.99,-78.45,-78.45,4.37,-2.76,1.42,1721228876192
-8.61,-78.45,-78.45,-0.13,-0.42,0.26,1721228876202
9.79,-19.57,-59.25,-4.37,4.37,-0.80,1721228876212
-58.26,-78.45,78.45,-0.94,2.98,-1.84,1721228876222
-27.75,46.78,28.85,-4.37,4.37,0.13,1721228876232
-29.22,-78.45,19.01,2.63,3.19,1.97,1721228876242
-4.11,-1.76,-39.09,4.37,-4.34,0.49,1721228876252
21.89,-9.28,-22.70,-4.37,-0.05,-0.76,1721228876262
-19.09,52.41,25.06,-2.46,-0.06,1.10,1721228876272
4.97,18.89,78.45,-2.95,1.70,0.54,1721228876282
-4.84,-8.95,49.34,2.45,-1.25,-0.35,1721228876292
16.92,54.91,-6.83,3.36,-0.55,0.76,1721228876302
-6.52,-78.45,-20.47,-0.00,1.92,1.14,1721228876312
7.25,-11.86,-8.05,1.09,-2.00,-0.18,1721228876322
2.70,3.81,2.21,-4.37,-0.41,-0.95,1721228876332
-26.70,78.45,71.80,1.11,-1.50,0.51,1721228876342
18.10,-16.14,28.15,4.37,2.58,-0.50,1721228876352
10.48,-78.45,-34.25,1.17,-0.82,-0.13,1721228876362
7.95,12.92,-57.52,-2.70,-1.57,-1.35,1721228876372
1.99,-14.91,-4.35,-4.37,0.35,-0.74,1721228876382
0.82,48.43,78.45,2.22,-2.25,0.91,1721228876392
-0.94,11.37,7.91,1.60,0.62,-0.33,1721228876402
-16.68,-31.31,-16.74,-1.04,-0.80,0.51,1721228876412
0.20,-3.52,15.05,-0.22,0.42,0.04,1721228876422
6.81,-76.20,-14.91,0.60,-0.12,0.90,1721228876432
6.58,-0.72,-18.21,-4.37,0.84,-0.53,1721228876442
-4.05,3.43,68.11,0.30,-0.94,-0.23,1721228876452
1.07,14.42,26.22,1.14,0.35,0.84,1721228876462
4.63,5.74,-27.01,0.51,-0.12,-0.36,1721228876472
1.32,6.47,-5.32,-1.10,0.25,-0.65,1721228876482
-17.10,-78.45,18.84,-0.82,0.60,0.08,1721228876492
-4.95,-4.30,58.76,0.89,-0.79,-0.24,1721228876502
-10.69,25.64,43.46,0.23,0.84,0.26,1721228876512
-4.02,6.34,-65.17,2.65,-0.09,0.57,1721228876522
7.43,-11.34,-29.69,2.40,-0.29,0.42,1721228876532
3.69,-18.48,-27.14,-2.04,0.04,0.33,1721228876542
-0.55,-3.32,-4.20,-4.37,0.58,-0.51,1721228876552
-9.97,78.45,78.45,0.95,-3.67,0.33,1721228876562
-6.65,8.67,40.89,2.20,2.24,-0.74,1721228876572
-32.09,-6.05,-20.55,3.62,0.39,1.98,1721228876582
7.87,-6.27,-32.96,0.77,-0.75,1.17,1721228876592
10.99,-7.90,-21.22,-3.13,1.45,-0.29,1721228876602
-0.51,-9.61,-5.15,-1.74,0.58,-1.19,1721228876612
-2.18,-30.96,60.85,-1.80,-1.31,-1.42,1721228876622
-8.52,17.33,78.35,0.83,-1.04,0.17,1721228876632
-15.73,27.19,5.01,2.02,0.87,0.46,1721228876642
8.55,-30.38,47.29,3.67,-0.56,0.02,1721228876652
4.30,7.68,0.44,-3.20,-0.81,1.74,1721228876662
14.91,-60.88,78.45,-2.97,3.29,-0.21,1721228876677
-5.56,25.18,74.46,-1.15,0.04,0.56,1721228876682
13.31,-7.86,45.47,1.54,-1.88,-0.63,1721228876692
-8.04,-7.50,-9.91,0.93,-0.46,-0.23,1721228876702
-0.12,-0.09,-1.60,-2.49,0.26,-0.98,1721228876712
-2.70,31.96,32.59,-0.42,-0.29,-0.28,1721228876722
-16.40,-78.45,-1.58,2.79,-0.20,0.90,1721228876732
0.00,-3.73,-45.84,-0.11,-0.81,0.52,1721228876742
7.76,-15.09,-8.07,-0.57,0.48,-0.24,1721228876752
-5.31,-15.60,-14.05,-3.46,0.24,0.70,1721228876762
-56.91,75.91,78.45,0.45,-2.40,2.44,1721228876772
-25.50,61.50,78.45,0.96,0.91,-1.27,1721228876782
-10.76,-78.45,-1.59,3.32,-1.07,-0.73,1721228876792
-10.53,-32.34,-78.45,2.96,3.29,-0.53,1721228876802
-47.34,-12.21,-28.13,-0.09,-3.41,1.61,1721228876812
45.37,78.45,78.45,-4.37,2.61,1.33,1721228876822
13.16,78.45,36.26,1.35,-3.83,0.41,1721228876832
-11.79,-78.45,43.05,4.37,4.37,-0.68,1721228876842
-26.66,-58.75,-34.05,0.09,-1.53,-0.66,1721228876852
8.03,78.45,-41.58,-4.37,-2.87,-0.36,1721228876862
-29.19,54.98,30.79,2.25,-3.42,1.29,1721228876872
-0.77,-23.04,-7.27,2.27,1.76,0.12,1721228876882
1.81,2.50,14.90,1.73,-2.17,1.26,1721228876892
-46.04,17.55,27.96,-1.76,0.69,1.34,1721228876902
11.08,-16.69,31.48,0.78,-0.50,-1.48,1721228876912
-33.94,38.67,-0.89,3.16,0.22,0.10,1721228876922
-5.46,-36.53,-9.83,1.46,-1.50,-1.08,1721228876932
-14.84,-18.80,-3.58,-2.67,-0.33,1.59,1721228876942
-10.62,22.03,68.59,0.28,-0.29,2.12,1721228876952
8.48,-21.54,39.50,-1.05,2.35,0.64,1721228876962
4.96,-12.34,30.25,-0.96,-1.82,0.72,1721228876972
25.90,-16.68,70.06,-0.36,1.86,-0.97,1721228876982
-3.44,78.45,-13.32,3.81,-3.16,-0.55,1721228876992
7.49,-23.79,-7.78,4.37,0.36,-0.83,1721228877002
-4.74,-28.85,-78.45,2.77,-2.12,1.08,1721228877012
13.01,-3.99,-56.09,-0.55,0.90,0.74,1721228877022
0.51,-2.19,-8.94,-4.37,4.37,-1.27,1721228877032
-13.73,78.45,78.45,1.67,-4.37,-0.68,1721228877042
21.68,-15.42,-39.27,4.37,4.37,-2.21,1721228877052
-11.30,-78.45,-78.45,4.37,-1.09,1.60,1721228877062
-17.32,-53.10,39.33,-0.25,-4.37,0.94,1721228877072
-78.45,15.80,78.45,2.01,-0.52,-0.60,1721228877082
-29.63,78.45,-19.80,4.37,-2.57,-1.62,1721228877092
8.36,-23.63,-49.31,4.37,0.21,1.54,1721228877102
-12.02,-78.45,-27.18,-4.37,-1.20,0.04,1721228877112
-29.98,-2.21,46.32,-4.37,-1.32,1.50,1721228877122
-22.83,78.45,47.75,1.29,2.06,1.85,1721228877132
11.18,-41.60,0.41,1.27,2.11,1.85,1721228877142
25.59,-74.32,-14.30,-4.37,0.36,0.36,1721228877152
0.15,-78.45,78.45,0.06,2.05,-1.32,1721228877162
-11.99,78.45,24.76,-1.13,-0.54,-2.24,1721228877172
-2.21,-10.63,-14.45,4.37,-1.88,-1.92,1721228877182
-13.24,-19.41,-26.90,-2.44,0.79,0.99,1721228877192
-23.39,19.35,3.99,-2.00,-0.52,0.52,1721228877202
-7.92,-23.64,2.76,-3.75,-0.74,2.12,1721228877212
27.18,-35.58,78.45,-2.03,4.37,0.64,1721228877222
40.70,47.89,78.45,1.59,-3.47,0.56,1721228877232
25.86,25.32,-67.62,4.37,-1.01,-1.16,1721228877242
-5.89,7.68,-59.66,4.11,-0.62,-0.12,1721228877252
12.58,-55.58,-70.93,-2.42,1.82,-1.52,1721228877262
8.87,-78.45,2.22,-0.89,3.20,-1.61,1721228877272
-78.45,78.45,-78.45,-2.06,2.37,-0.59,1721228877282
-45.51,62.88,21.88,4.37,-0.41,2.56,1721228877292
-0.82,-2.57,-25.95,1.67,4.35,3.16,1721228877302
32.86,-67.25,-78.45,0.42,-2.04,-0.21,1721228877312
-4.64,-33.47,21.28,-1.85,1.35,-0.34,1721228877322
20.06,78.45,-4.68,0.55,4.37,-3.12,1721228877332
10.22,-14.39,35.95,1.06,-3.23,0.52,1721228877342
-5.22,-36.04,-18.16,3.69,-2.55,-0.17,1721228877352
-18.78,-52.65,-16.94,-3.57,0.60,-0.93,1721228877362
4.73,9.14,1.45,2.67,-2.89,0.37,1721228877372
1.18,13.55,24.33,0.35,0.70,0.87,1721228877382
0.92,-11.26,24.58,1.67,-0.03,0.80,1721228877392
-11.09,76.72,19.61,0.38,1.14,0.02,1721228877402
9.66,-40.42,27.57,-0.84,-1.48,-0.68,1721228877412
-30.52,-30.67,-45.53,1.92,2.79,0.30,1721228877422
-4.87,-3.91,-19.79,-0.14,-2.44,0.60,1721228877432
2.48,-6.88,13.86,-2.58,3.53,-0.51,1721228877442
0.07,2.80,16.62,2.34,-2.31,-0.30,1721228877452
4.41,33.03,-25.21,2.89,-0.08,-0.70,1721228877462
-0.41,-11.34,-22.55,-0.40,-0.67,-0.90,1721228877472
-9.21,-16.17,-8.80,-4.37,2.14,-1.63,1721228877482
10.30,26.12,74.91,2.72,-2.49,0.76,1721228877492
-27.23,11.17,-6.08,2.14,1.34,2.18,1721228877502
19.80,31.02,-35.75,3.03,0.92,1.75,1721228877512
19.28,-34.12,-64.84,0.59,-0.65,-0.01,1721228877522
10.58,-7.88,-26.71,-4.37,2.19,-2.31,1721228877532
-3.25,-20.54,-1.17,-4.37,0.08,-2.24,1721228877542
-19.12,10.82,42.23,-1.68,3.64,-3.63,1721228877552
7.66,54.27,78.45,1.02,3.51,1.60,1721228877562
0.99,-34.95,-29.44,3.78,0.93,1.77,1721228877572
20.05,-4.76,-65.09,3.68,-0.12,2.48,1721228877582
3.31,-78.45,45.37,-1.65,-4.37,1.20,1721228877592
50.47,9.80,8.12,-4.37,4.37,-1.79,1721228877602
-30.12,30.51,-18.40,-3.14,0.93,-1.22,1721228877612
3.42,-2.69,0.20,-2.37,-0.62,-2.64,1721228877622
54.15,8.93,78.45,0.31,4.37,-1.21,1721228877632
-31.21,78.45,78.45,3.19,-1.16,1.57,1721228877642
28.20,7.92,-70.53,4.37,-0.22,-0.24,1721228877652
11.99,-78.45,-78.45,3.91,-1.29,1.40,1721228877662
49.28,-57.11,78.45,-0.10,-4.37,1.29,1721228877672
23.76,-16.76,-17.09,-4.37,4.37,0.31,1721228877682
15.89,78.45,46.33,-0.66,-1.87,-2.90,1721228877692
-10.69,-78.45,68.35,3.71,-3.04,-2.59,1721228877702
-27.65,-45.10,26.75,-2.72,3.97,-1.53,1721228877712
78.45,78.45,29.14,1.90,0.24,-0.27,1721228877722
-18.36,27.75,-63.64,4.37,-0.11,0.90,1721228877732
5.00,-21.44,-28.88,4.37,-1.86,1.37,1721228877742
-1.06,-19.53,-71.47,-4.18,-0.63,1.21,1721228877752
-11.17,-68.81,51.29,-4.37,3.27,0.48,1721228877762
-78.45,76.70,37.67,4.37,-4.37,1.01,1721228877772
1.32,-31.63,21.16,1.76,4.37,-1.33,1721228877782
3.70,-42.01,-78.45,4.37,-0.65,0.57,1721228877792
-5.54,48.01,-54.51,-1.14,-4.37,1.31,1721228877802
21.78,12.52,-49.56,-0.18,2.20,0.64,1721228877812
41.75,-78.45,-18.00,-4.37,0.32,-1.99,1721228877822
68.94,78.45,78.45,0.02,0.80,-2.36,1721228877832
-41.25,-7.56,-5.41,3.98,4.37,-3.28,1721228877842
29.40,-76.02,-57.45,4.37,-2.64,1.10,1721228877852
-7.94,-42.05,-78.45,-0.03,-1.31,1.07,1721228877862
27.48,48.69,-13.98,-4.37,4.34,1.19,1721228877872
18.07,75.25,-12.69,-4.37,-0.17,0.89,1721228877882
-23.51,21.99,-24.09,-2.87,-3.28,-0.29,1721228877892
23.09,-17.15,12.78,3.38,0.89,-1.12,1721228877902
-1.36,-4.35,-15.97,1.40,-1.32,-1.56,1721228877912
-2.89,-15.72,0.43,-2.41,0.75,0.14,1721228877922
-10.70,23.92,-6.61,-3.33,3.31,-0.19,1721228877932
7.31,39.49,-7.45,1.30,-2.34,0.10,1721228877942
2.85,-11.13,9.30,-1.26,2.04,0.04,1721228877952
5.62,21.88,65.87,-0.18,0.99,0.04,1721228877962
-0.00,-9.39,36.84,-0.87,-1.52,-0.86,1721228877972
-9.41,-8.11,-32.44,1.07,2.86,-1.77,1721228877982
-17.95,-0.52,-12.84,0.22,-2.91,-0.34,1721228877992
-15.96,24.07,-9.60,2.52,0.25,1.09,1721228878002
2.72,-9.29,-30.60,1.65,0.89,2.22,1721228878012
15.74,-63.67,-6.01,-4.37,0.69,0.14,1721228878022
-28.96,-78.45,78.45,-4.04,3.23,-1.68,1721228878032
-2.42,78.45,78.45,-1.02,-3.19,1.63,1721228878042
-9.01,-78.45,-78.45,4.37,3.57,-0.55,1721228878052
2.82,-1.06,-6.99,2.77,-1.83,2.79,1721228878062
-78.45,-7.88,-49.77,-1.15,-4.37,-0.14,1721228878072
11.63,24.35,5.77,-3.75,4.37,-0.39,1721228878082
4.78,-78.45,0.23,-4.02,1.99,0.54,1721228878092
10.44,-78.45,78.45,-0.54,0.52,-2.68,1721228878102
-73.04,39.67,78.45,-0.43,-4.37,0.37,1721228878112
12.33,-15.48,-78.45,4.37,3.90,-2.16,1721228878122
-36.11,-78.45,-78.45,4.37,-1.77,0.53,1721228878132
-73.36,13.49,39.63,-3.00,-4.37,-0.19,1721228878142
-6.44,76.03,-3.77,-4.37,4.37,0.69,1721228878152
-78.45,75.95,33.83,-2.78,0.37,1.21,1721228878162
6.29,-78.45,43.72,2.56,-4.05,-0.61,1721228878172
57.87,78.45,10.46,1.77,-0.04,-0.34,1721228878182
-0.26,-9.56,-10.32,1.00,-0.65,0.00,1721228878192
-2.09,-8.42,-39.08,4.37,1.04,-0.45,1721228878202
-0.68,27.45,-35.17,-3.35,0.35,-0.66,1721228878212
1.74,-10.57,73.47,-4.37,2.58,-0.42,1721228878222
-34.06,14.52,46.58,-4.29,-2.86,0.75,1721228878232
6.43,-78.45,25.35,4.37,-2.48,0.42,1721228878242
-30.67,21.78,-8.74,0.53,0.49,0.96,1721228878252
10.21,43.28,-4.35,-1.09,-0.47,-0.01,1721228878262
8.32,38.48,-8.62,-1.39,0.70,1.32,1721228878272
-29.78,-78.45,-16.95,-2.27,0.28,0.97,1721228878282
-4.17,-21.35,78.45,-0.95,0.10,-1.89,1721228878292
-12.13,54.53,78.45,-0.98,-2.73,1.50,1721228878302
-1.91,41.90,-44.51,4.37,0.03,1.59,1721228878312
2.14,-8.54,-30.80,4.37,-0.24,0.76,1721228878322
10.30,-10.68,-47.42,-2.60,0.77,-0.07,1721228878332
-3.43,-70.45,-30.37,-4.37,1.65,-3.37,1721228878342
41.17,78.45,73.53,0.53,-0.57,-1.18,1721228878352
41.95,63.42,78.45,1.27,0.24,0.66,1721228878362
-39.17,-78.45,-6.20,-0.41,0.42,0.75,1721228878372
-3.40,78.45,-24.88,4.37,0.27,0.05,1721228878382
-1.81,-78.45,-31.93,-0.03,1.60,0.45,1721228878392
1.38,26.34,-12.00,-4.32,-0.54,-1.09,1721228878402
20.12,-10.18,39.32,1.63,2.91,-0.86,1721228878412
-12.23,40.58,68.00,1.20,-0.60,0.57,1721228878422
24.45,-5.77,30.27,2.77,4.37,1.36,1721228878432
-12.20,-37.47,-78.45,0.19,-1.42,1.45,1721228878442
22.41,-9.48,27.94,-3.86,1.54,-0.18,1721228878452
11.14,28.08,-18.72,-0.92,-0.86,-0.27,1721228878462
-11.72,-6.68,-15.21,-4.37,-1.20,-1.63,1721228878472
-11.46,-1.54,70.14,-1.05,2.17,-0.39,1721228878482
29.73,78.45,67.95,-1.46,-0.16,1.14,1721228878492
8.76,17.62,9.84,4.22,-0.59,0.41,1721228878502
2.63,-60.57,-32.51,2.74,0.24,0.58,1721228878512
2.90,-9.88,-53.97,-0.87,-1.10,-0.10,1721228878522
2.66,9.48,-7.75,-2.66,2.10,-0.51,1721228878532
-2.61,-40.74,-12.04,-1.83,0.34,-1.12,1721228878542
-23.67,2.74,78.45,-1.32,-0.36,-2.37,1721228878552
47.46,78.45,78.45,-0.59,-2.11,-1.30,1721228878562
-22.82,29.36,1.24,0.48,-0.34,1.01,1721228878572
19.70,-78.45,-21.24,4.37,-0.27,-0.30,1721228878582
7.50,-17.54,-70.84,4.37,-1.09,1.73,1721228878592
2.97,-68.70,-62.49,0.42,-4.37,0.79,1721228878602
-12.56,3.31,-32.38,-4.37,3.47,-0.25,1721228878612
28.33,26.52,71.99,-2.43,4.37,-2.79,1721228878622
27.07,18.66,78.45,4.37,-4.37,-0.83,1721228878632
-29.77,-2.66,-55.31,0.57,1.57,-0.73,1721228878642
-12.88,-20.08,-43.72,2.60,-0.73,2.56,1721228878652
-2.05,-12.76,-13.57,1.56,-1.45,1.51,1721228878662
33.88,51.20,-18.52,-0.41,-0.03,0.36,1721228878672
0.35,-2.42,-1.73,-2.78,1.00,0.68,1721228878687
10.90,-42.01,42.60,-2.97,0.71,-1.09,1721228878692
17.15,78.45,21.85,-0.91,0.47,-1.99,1721228878702
20.13,-78.45,43.58,0.71,-4.23,-4.07,1721228878712
-16.84,7.18,14.94,-1.79,2.34,-2.72,1721228878722
-14.17,14.55,33.63,1.52,-4.26,0.48,1721228878732
6.32,-5.97,12.28,2.54,4.37,1.86,1721228878742
-1.76,1.21,-21.11,1.08,-3.18,2.43,1721228878752
13.59,78.45,-43.65,-1.79,1.86,1.93,1721228878762
14.98,47.83,30.86,-3.16,3.54,0.46,1721228878772
15.76,-78.45,-17.47,2.50,-3.39,-0.43,1721228878782
44.94,78.45,-35.26,1.35,0.28,-1.30,1721228878792
11.80,-17.60,-11.46,0.30,-0.81,-1.87,1721228878802
-4.22,-12.68,-14.09,-2.40,0.55,-0.35,1721228878812
-5.08,-78.45,78.45,-1.03,-0.09,-0.16,1721228878822
-16.32,64.00,65.46,-0.20,-0.66,-0.07,1721228878832
-8.01,10.63,14.85,2.20,1.01,-0.46,1721228878842
7.17,50.98,-31.03,2.45,-0.06,0.30,1721228878852
-20.72,-78.45,-40.00,0.96,-0.46,0.27,1721228878862
-0.86,-24.03,16.66,-3.27,3.00,-0.86,1721228878872
-36.25,29.17,48.52,-0.36,0.06,-0.37,1721228878882
-25.67,27.02,10.21,-1.00,-1.69,0.82,1721228878892
9.41,-34.76,14.20,1.17,-1.52,-0.25,1721228878902
-5.35,-78.45,73.85,-1.60,1.37,-1.43,1721228878912
6.13,78.45,78.45,1.99,-3.40,-1.01,1721228878922
13.06,-24.19,-62.28,4.37,0.31,-1.34,1721228878932
-45.69,-14.19,-46.36,2.78,-0.59,1.91,1721228878942
12.08,-8.99,-26.39,-4.37,0.83,0.98,1721228878952
0.98,-61.09,78.45,-2.46,4.37,-0.17,1721228878962
-2.82,-5.51,-18.19,-0.48,-1.37,-0.08,1721228878972
-1.70,-50.71,-20.62,4.37,-2.13,0.72,1721228878982
-2.01,-16.82,-9.15,-1.20,-0.18,-0.32,1721228878992
55.10,74.64,-7.40,-0.59,-0.68,0.12,1721228879002
26.36,36.42,10.86,-2.95,0.96,0.68,1721228879012
-7.90,-12.80,40.14,-2.35,0.16,0.42,1721228879022
2.97,-11.69,31.38,1.44,-2.51,-0.78,1721228879032
-1.20,-5.21,33.51,-1.14,0.10,-1.33,1721228879042
7.07,78.45,3.39,1.33,0.49,-0.18,1721228879052
0.91,-11.86,-58.15,4.37,0.20,0.18,1721228879062
-6.66,-71.28,-34.32,0.39,1.10,-0.10,1721228879072
-0.40,-6.39,-34.78,-3.49,-2.53,-1.46,1721228879082
-1.25,-16.66,36.87,2.16,3.14,1.30,1721228879092
-14.34,63.92,46.05,1.90,0.93,2.32,1721228879102
-10.60,-78.45,-68.27,2.08,-0.05,2.60,1721228879112
19.34,-10.06,-41.46,1.76,0.01,0.10,1721228879122
20.36,19.57,-11.09,-4.10,-0.40,-0.54,1721228879132
13.55,-6.50,74.01,-3.46,4.27,-1.35,1721228879142
-9.89,26.00,38.38,-2.23,-2.99,0.13,1721228879152
17.19,-48.78,35.64,3.95,0.23,-2.31,1721228879162
-29.35,41.07,-41.59,-2.48,0.48,-0.04,1721228879172
-15.15,-57.09,-24.14,2.98,-2.99,0.51,1721228879182
-8.35,-4.37,38.48,-3.83,1.22,1.01,1721228879192
9.56,6.75,78.45,0.78,-0.67,0.25,1721228879202
15.73,53.17,44.66,2.75,-2.52,1.16,1721228879212
8.45,-50.29,-31.05,4.37,-0.80,0.48,1721228879222
-23.30,18.18,1.57,-0.23,0.03,1.24,1721228879232
24.07,-14.91,-35.28,1.07,0.32,0.46,1721228879242
10.54,-26.39,-0.85,-4.37,1.96,-2.32,1721228879252
18.66,-46.53,77.21,0.49,-1.32,-1.04,1721228879262
-2.36,-0.60,78.45,0.35,-1.47,-0.59,1721228879272
-27.21,68.99,-27.95,3.41,0.43,0.01,1721228879282
4.32,-15.77,5.50,-0.04,-0.74,1.52,1721228879292
18.92,-15.63,-6.45,-2.71,3.48,2.73,1721228879302
27.93,31.83,28.38,1.05,0.67,-0.22,1721228879312
21.97,39.07,-9.47,0.01,-1.89,-1.68,1721228879322
25.72,-78.45,23.99,-1.75,-0.22,-2.34,1721228879332
-31.18,78.45,43.58,2.41,-0.05,-1.85,1721228879342
-35.42,34.82,-38.21,-1.40,-1.94,-0.20,1721228879352
-35.93,-65.19,-78.45,-1.01,4.36,-0.38,1721228879362
8.65,-42.12,78.45,-0.33,-0.74,1.97,1721228879372
-2.52,52.54,64.72,0.55,2.62,1.80,1721228879382
11.58,-11.09,3.25,4.37,-0.98,0.70,1721228879392
11.04,-21.75,-72.21,4.37,-1.21,-0.62,1721228879402
-1.62,-29.60,-70.52,-2.81,-1.98,-0.72,1721228879412
-7.82,-47.58,15.10,-4.37,0.20,-1.88,1721228879422
-10.80,78.45,78.45,4.37,-3.51,-3.46,1721228879432
-9.12,-0.61,43.68,2.75,0.98,-1.84,1721228879442
-2.03,-0.73,-12.18,2.73,0.49,2.33,1721228879452
15.52,-13.48,-26.12,1.14,-0.68,2.07,1721228879462
21.40,-22.99,-43.14,-1.91,0.68,0.59,1721228879472
0.03,-39.72,14.13,-3.69,-1.13,-1.03,1721228879482
39.56,55.67,78.45,-1.97,4.37,-2.74,1721228879492
34.61,65.31,59.13,0.16,-2.13,0.43,1721228879502
-61.18,-78.45,-32.99,-0.84,1.47,0.28,1721228879512
4.10,-20.83,-6.97,-0.39,-0.83,-1.04,1721228879522
-23.33,-40.56,-16.82,-0.18,0.40,0.71,1721228879532
14.65,1.18,31.98,-3.21,1.79,1.23,1721228879542
-0.70,25.14,13.44,0.01,0.20,0.57,1721228879552
-13.84,29.80,10.39,3.70,-1.36,0.73,1721228879562
10.96,-34.53,1.57,-1.70,0.79,-0.15,1721228879572
31.22,61.11,66.31,0.12,1.61,-1.40,1721228879582
-17.57,-19.30,37.29,-0.51,-4.02,-0.21,1721228879592
17.61,-55.68,56.27,2.80,4.37,-0.52,1721228879602
-8.62,17.36,-22.02,-1.79,-2.02,-0.25,1721228879612
-5.14,-9.74,-8.98,1.62,-0.82,-0.49,1721228879622
4.27,-38.91,0.83,-1.11,1.05,0.70,1721228879632
10.21,-5.01,53.55,-2.35,1.27,-0.27,1721228879642
55.14,78.45,46.61,-1.14,-0.94,-2.04,1721228879652
-1.12,78.45,11.64,4.37,-1.89,0.11,1721228879662
-5.75,-33.36,-39.17,1.85,2.05,0.21,1721228879672
1.06,-17.05,-7.32,-1.01,-1.26,-0.00,1721228879682
-5.79,78.45,-78.45,-3.73,-0.38,0.32,1721228879692
41.61,-77.23,78.45,0.36,4.37,-0.62,1721228879702
-44.38,27.28,25.90,0.82,-4.37,0.43,1721228879712
-8.65,0.81,-37.49,-0.38,0.72,-0.25,1721228879722
-5.15,-22.92,-3.43,-0.29,0.16,-0.04,1721228879732
-9.78,8.37,-19.04,0.62,-0.57,1.20,1721228879742
-14.86,-61.56,78.45,-2.80,0.30,1.18,1721228879752
-76.90,78.45,0.16,1.71,2.23,1.89,1721228879762
0.10,12.33,9.83,3.67,-2.01,1.14,1721228879772
26.75,-1.13,-61.00,4.19,2.57,-0.37,1721228879782
-6.32,-78.45,-64.19,-2.43,-1.12,-0.50,1721228879792
9.81,-55.32,0.88,-4.37,2.00,-1.66,1721228879802
77.47,78.45,78.45,3.28,0.77,-4.37,1721228879812
2.26,0.79,56.77,4.37,-0.70,-1.68,1721228879822
27.72,-13.91,-35.32,2.40,2.64,-1.30,1721228879832
-8.62,-26.44,-11.71,0.41,-4.37,1.76,1721228879842
-2.61,-21.13,21.94,-1.80,-0.90,1.34,1721228879852
2.98,2.23,13.79,-0.99,0.40,0.65,1721228879862
15.78,-18.72,-7.27,0.01,-2.11,-0.11,1721228879872
-11.42,-1.24,74.75,0.27,-1.08,-1.24,1721228879882
12.21,76.41,12.07,1.57,-1.47,0.04,1721228879892
15.45,6.68,-0.62,2.23,1.63,-0.17,1721228879902
13.92,-35.02,-14.00,-2.46,-1.05,0.30,1721228879912
-4.58,-2.79,1.24,-4.37,0.45,-0.78,1721228879922
-75.39,63.52,-5.50,-0.15,-0.27,-1.80,1721228879932
8.28,-30.52,-12.34,4.37,-0.74,-1.59,1721228879942
-30.50,-50.07,-67.19,0.22,0.95,-0.17,1721228879952
-15.69,34.59,-6.04,-2.00,-1.13,1.03,1721228879962
-33.46,78.45,31.10,-0.90,-0.07,0.72,1721228879972
28.21,-67.90,76.48,0.22,-0.39,0.27,1721228879982
-0.07,-24.78,4.15,-0.06,-0.21,0.37,1721228879992
52.75,78.45,-5.74,3.69,-0.39,0.22,1721228880002
-0.56,4.45,-40.80,1.69,-0.81,-0.49,1721228880012
1.52,-11.07,-25.63,-1.71,0.30,-0.83,1721228880022
1.23,2.66,-4.31,-3.68,-0.20,-1.01,1721228880032
-21.25,-44.59,44.43,-2.17,1.88,-1.92,1721228880042
13.61,78.45,78.45,3.48,-2.10,-0.43,1721228880052
-54.75,-78.45,-29.85,0.35,0.71,0.30,1721228880062
-38.64,23.13,-39.46,1.76,-0.77,1.23,1721228880072
12.93,1.56,-11.57,0.77,-0.11,0.42,1721228880082
8.94,12.58,0.43,-3.94,0.13,0.64,1721228880092
8.40,-34.42,15.56,-2.49,2.63,-0.64,1721228880102
23.76,-78.45,76.70,1.64,-3.80,-1.49,1721228880112
-21.55,50.77,78.45,1.87,-1.60,0.09,1721228880122
3.48,1.54,14.63,4.37,0.97,-1.05,1721228880132
-23.27,78.45,-66.99,4.37,0.01,-0.65,1721228880142
-3.09,-20.36,-78.45,-1.51,-3.67,1.31,1721228880152
26.49,-54.57,15.67,-4.37,4.37,0.40,1721228880162
15.39,-21.19,78.45,2.44,2.84,-0.21,1721228880172
11.20,34.81,78.45,0.08,-0.46,2.17,1721228880182
-2.87,-24.44,-2.53,4.37,2.94,-0.13,1721228880192
17.78,57.18,-48.93,-2.27,-2.78,0.20,1721228880202
-18.62,25.91,23.91,-2.08,2.08,0.09,1721228880212
-7.03,-24.78,52.16,-2.77,0.72,-1.42,1721228880222
-18.55,-64.30,78.45,-0.86,-0.98,-0.90,1721228880232
-61.82,78.45,75.81,-0.78,-0.41,0.73,1721228880242
34.23,71.51,-14.18,4.37,-0.06,1.00,1721228880252
18.08,1.28,-46.58,4.30,-0.47,0.62,1721228880262
7.22,5.98,-7.73,-0.62,-4.37,0.38,1721228880272
60.08,6.50,11.20,-4.37,4.37,-0.08,1721228880282
3.97,-20.48,16.65,0.97,3.58,-1.09,1721228880292
3.70,-2.76,66.60,3.08,-4.37,1.45,1721228880302
29.54,-62.41,-3.92,0.43,3.06,-2.77,1721228880312
1.77,70.87,-24.43,-0.79,-2.33,-1.49,1721228880322
-13.58,-20.84,16.87,0.63,-1.47,-1.56,1721228880332
-11.13,8.50,21.70,0.23,0.11,0.12,1721228880342
0.57,1.20,1.62,0.43,-0.06,1.38,1721228880352
4.85,-4.47,38.33,-0.05,1.61,2.03,1721228880362
2.32,15.33,26.81,-0.49,-0.43,1.94,1721228880372
-2.35,-30.35,-4.01,1.83,0.89,-0.22,1721228880382
-8.81,17.64,-48.54,3.49,-1.06,-0.65,1721228880392
-18.27,-78.45,-39.04,-1.33,0.78,-1.01,1721228880402
-2.57,-4.12,-9.90,-4.37,-0.45,-1.24,1721228880412
1.11,38.01,58.63,0.11,2.48,-2.37,1721228880422
2.31,9.77,30.29,3.01,-2.99,-1.03,1721228880432
-56.49,30.92,-6.84,-1.49,1.95,2.01,1721228880442
23.10,27.95,5.19,0.60,1.52,1.93,1721228880452
-14.19,-78.45,20.92,1.09,-0.79,2.69,1721228880462
-10.28,-4.64,-78.45,-0.83,-1.09,0.67,1721228880472
-5.44,-25.23,63.72,-3.53,3.39,-0.99,1721228880482
-64.80,47.37,-1.12,1.96,-1.18,0.13,1721228880492
8.68,9.87,-21.48,1.53,-1.79,0.35,1721228880502
-11.80,-73.76,23.42,-4.24,0.50,-0.15,1721228880512
30.15,19.87,78.45,1.58,1.37,-1.23,1721228880522
-20.66,70.97,43.17,2.98,-4.37,2.05,1721228880532
-15.82,30.79,-59.56,4.37,4.37,2.03,1721228880542
11.54,-50.31,-67.01,2.07,-0.22,1.74,1721228880552
11.80,-35.80,-78.45,-4.37,-0.36,0.55,1721228880562
-3.45,-50.59,7.15,-4.37,1.85,-1.03,1721228880572
50.06,78.45,32.88,-0.19,-2.25,-4.03,1721228880582
-6.97,9.14,27.11,1.71,-1.04,-2.21,1721228880592
-3.06,-10.73,-5.86,2.83,2.04,-0.18,1721228880602
-2.79,-26.33,-62.63,1.10,-2.75,1.63,1721228880612
0.49,-8.61,-2.94,-3.51,-2.49,0.98,1721228880622
54.30,78.45,78.45,-0.44,4.37,0.31,1721228880632
0.54,-32.10,-3.87,-0.81,-3.42,0.07,1721228880642
0.58,15.65,61.17,-1.76,3.15,0.67,1721228880652
3.60,-7.59,-22.90,-0.86,-1.73,-0.82,1721228880662
2.07,-2.55,24.00,0.00,0.34,-0.86,1721228880672
10.35,38.33,-8.03,0.69,-1.35,-0.03,1721228880682
19.73,78.45,14.39,0.54,0.87,0.92,1721228880697
-20.56,25.81,-4.89,0.06,0.56,1.09,1721228880702
3.23,-65.27,-28.50,2.84,-0.55,0.30,1721228880712
-15.75,-78.45,-22.34,-3.27,-0.69,-0.94,1721228880722
5.68,53.60,78.45,0.97,-0.99,0.05,1721228880732
-35.39,78.45,0.45,1.06,-0.42,1.53,1721228880742
18.26,-23.33,78.45,4.37,3.76,1.44,1721228880752
8.61,-78.45,-78.45,0.98,-4.37,0.07,1721228880762
-9.58,10.98,-64.86,-1.83,4.33,-0.02,1721228880772
-22.62,-7.31,-78.45,0.69,4.27,-2.95,1721228880782
2.69,-63.32,54.96,2.06,-4.37,2.06,1721228880792
6.69,-14.23,-49.86,1.74,0.79,1.39,1721228880802
13.99,-14.32,-15.83,1.85,1.43,0.68,1721228880812
17.56,-42.79,-42.98,-3.11,-0.31,-2.13,1721228880822
-14.11,-10.32,15.15,-4.37,-1.15,-3.18,1721228880832
35.01,78.45,76.34,1.01,-4.13,-2.35,1721228880842
-20.42,-32.64,-67.10,4.37,4.37,0.68,1721228880852
4.78,-78.45,-78.45,4.37,-3.55,1.74,1721228880862
-14.44,-69.54,-78.45,-4.37,2.29,-2.46,1721228880872
-14.90,2.37,78.45,-4.37,4.37,2.13,1721228880882
-37.35,13.33,-18.72,2.29,0.59,2.05,1721228880892
31.08,-78.45,-22.16,0.51,-2.57,1.06,1721228880902
9.20,-5.46,-52.40,-0.93,0.78,-2.13,1721228880912
13.12,-28.94,7.07,1.77,-2.00,-2.94,1721228880922
-1.16,0.04,-12.88,-1.31,0.01,-2.37,1721228880932
-24.95,-78.45,78.45,-3.01,0.17,-4.21,1721228880942
-42.20,74.01,78.45,0.90,-1.33,-0.14,1721228880952
-51.84,55.35,-8.21,4.37,2.91,1.59,1721228880962
10.62,-74.28,-78.45,4.05,2.86,1.45,1721228880972
15.72,1.98,-30.94,-1.24,-4.37,1.47,1721228880982
26.65,-35.49,-30.59,-4.37,4.37,-1.09,1721228880992
-5.65,-53.56,60.18,-2.28,2.21,-1.64,1721228881002
-78.45,78.45,-74.71,-2.35,-3.81,0.50,1721228881012
16.58,78.45,-13.27,4.37,-0.01,-0.73,1721228881022
13.41,-78.45,-78.45,1.81,1.57,-1.08,1721228881032
-14.53,-78.45,-18.63,-4.37,-2.75,-2.18,1721228881042
-32.77,-49.67,46.74,0.14,0.82,-0.49,1721228881052
-15.49,78.45,-30.32,-0.20,-0.14,2.05,1721228881062
1.37,-78.45,-22.80,4.27,-0.08,2.30,1721228881072
-28.06,57.41,-60.52,-0.67,-0.65,1.19,1721228881082
28.32,-36.14,-0.24,-3.99,0.98,0.08,1721228881092
14.92,-78.45,78.45,-2.52,1.51,-1.80,1721228881102
-54.94,78.45,-26.63,-0.37,-2.38,-0.98,1721228881112
27.13,-77.24,3.47,3.26,1.59,-0.30,1721228881122
-36.54,-54.17,-67.76,-2.53,0.36,1.23,1721228881132
5.87,-24.30,-4.98,-3.53,-1.99,-0.44,1721228881142
-7.64,78.45,31.30,1.64,-3.28,-0.59,1721228881152
0.71,-9.52,45.24,2.26,0.62,-0.08,1721228881162
63.00,78.45,-52.87,3.91,-0.99,0.86,1721228881172
-2.35,-70.64,-43.05,0.45,0.19,0.24,1721228881182
4.30,-21.90,-19.04,-4.18,-2.70,-1.01,1721228881192
31.15,-1.78,60.40,-0.24,2.18,-1.85,1721228881202
-19.22,3.74,-4.79,-2.29,-4.18,-0.14,1721228881212
-11.03,-54.13,14.71,2.49,4.37,-1.15,1721228881222
-24.88,41.66,-37.72,-1.48,-2.86,0.54,1721228881232
1.36,-11.00,1.12,0.87,-0.03,0.40,1721228881242
8.63,-71.41,73.00,0.02,0.25,0.10,1721228881252
51.04,78.45,18.01,-1.82,-0.17,-0.24,1721228881262
1.43,8.18,-12.33,4.37,-1.07,0.22,1721228881272
-5.35,-78.45,-43.85,2.05,1.83,-0.64,1721228881282
36.29,78.45,-6.48,-0.13,-3.25,-0.16,1721228881292
25.78,28.71,-31.52,-3.75,-4.37,-0.93,1721228881302
-27.97,8.23,23.66,-4.37,2.22,-2.30,1721228881312
-2.82,-10.16,33.45,4.37,-3.59,0.17,1721228881322
-26.72,15.04,-14.31,2.00,0.59,0.75,1721228881332
-1.62,-0.03,-21.67,2.61,0.27,-0.08,1721228881342
-1.07,-78.45,7.19,-4.37,-0.87,-0.11,1721228881352
60.81,-69.81,78.45,1.63,1.44,1.73,1721228881362
4.02,78.45,61.48,3.48,-0.81,0.92,1721228881372
18.66,-49.12,8.88,4.37,2.05,-0.01,1721228881382
-17.93,-78.45,-78.45,-1.58,-1.37,0.38,1721228881392
5.84,-51.11,48.95,-2.45,-1.23,-1.90,1721228881402
64.45,78.45,35.20,-1.99,3.25,-2.46,1721228881412
-18.32,-27.37,-19.10,1.32,-4.14,-0.01,1721228881422
-15.12,-78.45,-55.35,-2.58,4.37,-0.54,1721228881432
78.45,78.45,78.45,3.38,0.57,0.47,1721228881442
6.65,6.62,14.86,4.08,0.65,-0.93,1721228881452
6.24,13.37,-78.45,4.37,-1.71,0.24,1721228881462
-18.53,-57.46,-25.12,-0.66,-4.37,1.20,1721228881472
68.68,70.02,-12.25,-2.75,4.37,0.26,1721228881482
26.86,75.83,28.30,2.69,-1.50,-2.30,1721228881492
5.08,-18.56,68.64,1.37,4.37,-2.43,1721228881502
-13.17,-70.97,-53.00,-0.82,-3.95,0.96,1721228881512
-7.84,-10.27,-13.23,-4.37,3.23,2.09,1721228881522
-78.45,78.45,-22.50,-0.85,-1.34,0.92,1721228881532
-73.47,78.45,-49.52,1.98,-4.20,-0.12,1721228881542
-4.53,-43.21,-4.48,-0.53,2.19,-0.73,1721228881552
-1.61,-9.63,-0.60,-1.99,-1.99,0.21,1721228881562
12.98,-21.58,78.45,-4.37,1.72,-1.12,1721228881572
-60.62,51.58,38.92,-0.75,-2.49,2.22,1721228881582
9.43,78.15,-1.28,2.70,-0.07,0.80,1721228881592
-17.73,12.85,-30.16,4.37,-0.34,1.71,1721228881602
-21.02,-78.45,-78.45,0.27,-2.46,1.13,1721228881612
-13.54,-58.03,-2.28,-4.37,0.27,-2.08,1721228881622
-25.36,7.51,78.45,-1.60,1.89,-2.14,1721228881632
20.25,22.87,70.97,4.37,-3.63,3.28,1721228881642
0.87,-12.55,-10.86,1.59,2.63,2.17,1721228881652
7.11,-55.60,-53.97,1.50,-1.38,1.16,1721228881662
42.47,78.45,-20.29,-4.37,3.03,-0.50,1721228881672
-21.90,-78.45,78.45,-1.02,1.20,0.34,1721228881682
10.91,-31.76,65.52,-2.61,2.18,-0.42,1721228881692
1.45,-22.39,47.53,1.06,-2.17,-0.17,1721228881702
7.16,78.45,14.22,3.08,-0.55,0.72,1721228881712
-1.44,-7.38,-6.25,-0.19,1.09,-0.95,1721228881722
8.00,45.94,-8.73,0.70,-0.81,-0.30,1721228881732
-0.53,-5.77,-9.10,0.21,0.17,-0.11,1721228881742
5.28,-43.97,-2.58,-0.25,-0.55,-0.60,1721228881752
-10.96,-52.70,68.14,-1.20,-1.81,1.34,1721228881762
-67.10,78.45,56.17,-0.31,1.70,1.48,1721228881772
0.73,78.45,10.44,4.37,-1.20,2.58,1721228881782
31.45,-78.45,-52.18,-1.81,2.99,0.63,1721228881792
-9.96,-78.45,-43.59,1.14,-1.75,-0.81,1721228881802
-68.01,78.45,-26.77,-4.37,1.92,-1.12,1721228881812
5.94,-24.11,6.78,-1.21,-0.38,-1.41,1721228881822
-25.97,38.67,34.43,0.12,-1.08,-0.61,1721228881832
-40.10,-55.49,5.55,1.43,-1.39,0.81,1721228881842
29.58,73.56,-11.47,1.33,0.46,0.22,1721228881852
0.85,2.47,-14.82,-0.56,0.26,2.44,1721228881862
15.32,-78.45,6.07,-1.68,1.14,1.59,1721228881872
20.21,3.73,-8.47,-1.24,-0.80,-0.32,1721228881882
2.19,76.30,41.11,1.67,1.05,0.75,1721228881892
6.22,-22.39,-37.79,4.37,-1.62,-0.46,1721228881902
-24.98,-78.45,-78.45,1.07,1.05,-0.59,1721228881912
6.12,-45.94,17.32,-4.37,-1.14,-2.35,1721228881922
-78.45,78.45,-78.45,2.78,-3.14,-0.73,1721228881932
23.39,-26.19,-29.21,4.37,3.41,0.16,1721228881942
-34.34,-15.82,-25.07,1.72,1.32,1.92,1721228881952
9.63,-78.45,-78.45,-4.37,0.47,0.65,1721228881962
15.95,38.75,30.10,-4.37,4.37,-1.01,1721228881972
11.77,55.60,71.39,-0.40,-0.21,-2.33,1721228881982
9.02,-37.44,78.45,-1.27,-1.19,-2.21,1721228881992
-23.99,-15.88,6.07,1.90,0.97,-1.30,1721228882002
-7.41,49.58,-24.61,1.08,-0.67,0.56,1721228882012
-2.79,36.76,78.45,0.75,1.63,1.65,1721228882022
-2.90,11.05,-2.53,-0.50,-0.05,1.63,1721228882032
15.12,-78.45,-13.83,-1.70,3.57,0.33,1721228882042
78.45,78.45,-35.67,1.49,-1.67,-0.02,1721228882052
5.14,-20.83,0.83,-1.23,1.94,-1.05,1721228882062
45.32,78.45,2.91,2.08,-2.21,-2.34,1721228882072
-2.67,-15.24,-21.80,-0.83,1.06,-2.61,1721228882082
-19.22,-40.73,78.45,-0.36,0.86,-1.85,1721228882092
-27.18,31.00,78.45,-2.01,1.61,1.30,1721228882102
-19.50,-78.45,-36.61,4.37,1.37,3.55,1721228882112
10.31,-21.48,-78.45,4.37,-1.98,1.21,1721228882122
-2.66,-12.56,-26.21,-4.25,-0.10,0.66,1721228882132
-22.31,18.77,-10.07,0.26,-1.19,0.06,1721228882142
-66.46,45.28,20.35,-4.37,4.37,-0.99,1721228882152
28.99,-49.49,-14.61,-2.80,0.14,-2.76,1721228882162
-7.90,-22.08,21.34,0.51,-0.45,-0.59,1721228882172
-3.62,16.47,2.49,4.37,-0.79,2.45,1721228882182
-11.24,-33.67,-37.66,1.30,0.24,1.17,1721228882192
15.81,65.27,-39.27,-0.06,0.49,0.26,1721228882202
-16.40,28.33,-22.74,0.04,0.84,1.40,1721228882212
14.04,-41.60,-6.45,-4.37,0.78,1.19,1721228882222
-44.60,-78.45,78.45,0.87,4.37,-2.73,1721228882232
-78.45,78.45,78.45,4.37,-4.37,-0.75,1721228882242
-4.98,20.95,-50.00,4.37,4.37,1.87,1721228882252
21.18,-78.45,-78.45,-0.57,1.53,3.22,1721228882262
66.96,-78.45,-78.45,-0.41,4.37,-2.48,1721228882272
-17.94,-59.48,-5.97,-4.37,1.03,-4.37,1721228882282
-45.25,49.52,-19.27,-0.73,-4.37,-2.93,1721228882292
-40.43,-44.32,52.25,-0.58,4.18,0.64,1721228882302
1.28,-45.63,-75.56,2.53,-0.36,2.38,1721228882312
-10.47,-78.45,-78.45,4.14,-0.81,2.49,1721228882322
26.74,75.57,-23.28,-4.08,1.36,-0.16,1721228882332
-17.37,-3.64,-29.11,-1.10,0.25,-1.05,1721228882342
-1.99,-75.52,26.47,-4.37,0.69,-1.11,1721228882352
15.84,2.58,78.45,-0.01,2.18,0.73,1721228882362
-41.58,4.26,-19.29,-0.52,2.71,1.88,1721228882372
4.36,-11.00,-17.27,1.53,-2.46,0.95,1721228882382
22.80,-39.73,3.83,-4.25,-1.58,-1.64,1721228882392
62.52,78.45,25.67,4.37,-3.23,-0.66,1721228882402
-42.39,26.77,-78.45,4.37,-2.73,2.12,1721228882412
36.30,-70.77,-21.91,-0.00,2.42,0.67,1721228882422
-10.62,-64.56,-31.26,-4.37,2.95,-1.91,1721228882432
-3.91,-28.59,78.45,-2.05,1.81,1.22,1721228882442
78.45,78.45,52.32,1.34,1.38,0.00,1721228882452
-19.88,-60.41,-48.57,4.37,-0.24,3.15,1721228882462
-4.21,-78.45,-55.63,-4.37,-0.62,1.05,1721228882472
40.43,-78.45,62.40,2.55,2.40,-2.37,1721228882482
14.44,78.45,78.45,1.46,-1.53,-1.53,1721228882492
-22.50,-72.25,-17.72,-0.74,0.02,0.64,1721228882502
-23.93,-62.14,2.71,-4.05,0.60,0.14,1721228882512
-23.35,40.91,78.45,1.39,0.60,-0.61,1721228882522
-10.70,13.13,7.82,2.32,0.05,2.09,1721228882532
19.09,-10.81,-11.00,3.89,-0.38,2.16,1721228882542
1.25,-8.94,-54.99,-3.29,0.44,-0.03,1721228882552
-0.17,-18.17,-11.72,-4.32,1.74,-0.37,1721228882562
28.57,50.58,63.92,0.35,1.41,-1.11,1721228882572
20.76,78.45,15.12,-1.72,-3.85,-0.10,1721228882582
2.54,-74.40,19.65,-1.56,3.24,-0.15,1721228882592
-26.43,-45.16,34.65,1.59,0.57,-0.33,1721228882602
-46.65,36.56,-5.45,3.87,-0.29,0.70,1721228882612
-31.07,-78.45,-0.11,0.42,-1.10,0.41,1721228882622
-11.60,-2.15,-17.50,-0.71,-0.35,1.19,1721228882632
49.13,78.45,-5.87,-1.13,1.53,1.18,1721228882642
2.40,0.72,-10.00,-2.65,0.17,1.35,1721228882652
3.65,-78.45,78.45,-1.94,2.89,-2.33,1721228882662
3.17,78.45,37.32,3.99,-4.16,-2.52,1721228882672
9.28,-15.49,-51.28,4.37,0.57,-0.73,1721228882682
-23.64,20.80,-78.45,4.01,-1.86,-0.26,1721228882692
-14.82,11.65,-48.47,-0.24,-4.37,1.87,1721228882707
20.82,-21.63,-35.27,-0.70,2.27,-0.17,1721228882712
32.81,-78.45,17.07,-4.37,4.37,-3.62,1721228882722
12.96,8.64,73.31,0.84,-4.37,0.15,1721228882732
7.35,-19.38,19.91,4.37,2.27,-1.84,1721228882742
-17.24,32.14,-63.36,1.84,-4.37,-0.70,1721228882752
5.52,38.78,-42.17,-0.15,3.69,-0.13,1721228882762
6.99,-78.45,-35.08,-4.37,0.15,-0.80,1721228882772
9.83,-34.05,45.93,-4.37,1.95,-2.37,1721228882782
24.72,8.09,6.55,1.08,-0.36,-2.19,1721228882792
-0.40,-16.61,12.08,1.25,3.92,-1.00,1721228882802
-3.51,2.30,-37.48,4.37,-2.84,1.23,1721228882812
-10.72,51.68,-43.25,-0.50,0.60,-0.55,1721228882822
-14.75,3.72,11.15,-2.00,-2.12,-0.35,1721228882832
7.55,15.45,25.69,-1.85,3.22,0.23,1721228882842
12.75,-63.64,-22.04,-4.37,1.79,-2.36,1721228882852
-16.56,-1.82,63.87,4.37,-3.86,0.26,1721228882862
14.53,44.53,-0.82,1.08,0.49,2.23,1721228882872
16.09,-9.29,10.54,4.37,0.02,2.42,1721228882882
-28.46,-16.85,-28.83,-1.72,-0.52,0.69,1721228882892
0.65,-24.61,6.17,-4.37,0.90,0.66,1721228882902
1.80,78.14,39.13,0.44,-1.07,-1.01,1721228882912
-23.54,-44.34,71.22,2.08,-1.27,-2.61,1721228882922
-22.68,19.06,-16.16,1.48,-0.29,0.22,1721228882932
-12.92,11.60,-16.83,3.32,0.21,1.16,1721228882942
-0.86,-70.76,-51.36,3.88,-0.26,2.37,1721228882952
7.43,-11.46,-37.71,-4.37,0.16,0.09,1721228882962
14.97,20.22,21.56,-4.37,1.96,-0.04,1721228882972
-20.70,78.45,27.74,1.32,-0.20,-1.15,1721228882982
-0.46,3.88,43.84,2.46,-0.35,-0.57,1721228882992
-3.06,-2.90,-10.17,3.01,1.47,0.68,1721228883002
-2.31,12.24,-21.67,1.55,-0.95,0.73,1721228883012
14.64,-20.76,-48.33,1.98,-1.23,0.40,1721228883022
16.11,-41.72,-29.20,-4.37,0.18,-2.09,1721228883032
29.99,23.29,78.45,-1.38,3.01,0.37,1721228883042
1.80,75.82,41.41,2.46,-2.86,2.05,1721228883052
7.47,41.89,57.87,0.80,3.99,1.54,1721228883062
8.03,-49.92,-47.40,-2.57,-2.68,-0.81,1721228883072
-6.76,43.85,-38.47,-4.37,3.00,0.49,1721228883082
-27.38,52.21,71.30,-0.67,-0.75,1.75,1721228883092
4.22,-13.07,29.63,0.38,0.95,0.49,1721228883102
-3.49,32.47,23.04,-0.17,-0.23,1.25,1721228883112
35.17,-63.97,13.95,-0.97,-0.02,-1.80,1721228883122
38.10,68.23,-9.36,4.00,-0.40,-1.33,1721228883132
-16.61,-34.76,-13.82,-2.10,-0.31,-0.58,1721228883142
-12.14,19.34,-1.72,-1.60,0.41,-0.48,1721228883152
0.39,2.81,4.97,0.08,1.10,-1.00,1721228883162
-8.24,-24.83,8.82,1.87,-1.43,-0.42,1721228883172
-13.83,-54.56,34.06,-2.15,-0.03,0.04,1721228883182
18.39,29.66,-19.90,0.44,2.62,1.07,1721228883192
-9.00,66.85,1.66,4.13,-0.23,0.99,1721228883202
9.47,12.52,-35.49,4.37,-0.46,0.87,1721228883212
-12.95,-64.59,-64.07,-0.51,0.41,0.31,1721228883222
5.29,-44.99,-21.28,-3.80,0.70,-0.58,1721228883232
-3.49,-13.57,78.45,-4.37,0.97,-0.57,1721228883242
18.91,78.45,78.45,-3.43,2.18,-2.90,1721228883252
-5.15,16.06,52.52,2.04,0.86,-0.53,1721228883262
-18.60,18.34,-22.79,3.26,0.99,0.83,1721228883272
12.50,-40.97,-68.85,-0.35,0.91,-0.16,1721228883282
26.69,46.72,-18.50,-4.37,-2.28,-1.15,1721228883292
-9.60,-26.81,36.78,-4.37,-0.11,-0.46,1721228883302
47.21,78.45,31.45,-0.76,-0.92,2.05,1721228883312
12.71,-41.85,-32.99,4.37,-0.18,0.55,1721228883322
11.59,-0.73,-67.58,2.96,-0.60,-0.04,1721228883332
15.49,-13.41,-15.57,-2.62,0.07,-0.51,1721228883342
6.03,-48.03,12.94,-4.37,-0.06,-1.64,1721228883352
8.71,-19.62,78.45,-0.89,1.37,-2.37,1721228883362
35.92,78.45,40.25,2.26,-1.30,0.02,1721228883372
-42.53,-78.45,-32.65,4.37,2.02,0.13,1721228883382
-11.88,-18.33,-34.82,1.11,-1.37,0.35,1721228883392
0.60,-0.79,-20.47,-1.33,-0.41,1.20,1721228883402
0.97,-1.95,6.17,-4.37,0.85,1.20,1721228883412
13.26,41.47,55.95,-1.50,1.99,-0.13,1721228883422
5.26,26.56,28.70,0.39,-1.30,0.58,1721228883432
-10.47,-78.45,-13.39,1.66,-1.46,-1.43,1721228883442
15.33,50.26,-4.74,-2.56,-0.83,-1.57,1721228883452
-2.53,2.26,1.84,-1.12,-0.41,-0.56,1721228883462
-7.36,7.30,8.25,2.11,0.30,0.28,1721228883472
-0.24,-14.94,-1.09,1.76,-1.37,0.14,1721228883482
-19.25,23.40,9.68,-0.49,1.14,1.79,1721228883492
-9.45,22.36,26.74,0.16,-0.26,1.40,1721228883502
-8.06,-78.45,0.34,2.05,-0.78,0.49,1721228883512
-7.44,-43.37,7.14,-4.37,-0.06,-0.72,1721228883522
29.39,78.45,78.45,2.09,-0.40,-0.29,1721228883532
16.42,-18.41,12.85,4.37,1.50,-0.56,1721228883542
9.06,9.27,-53.50,4.37,-1.15,-2.04,1721228883552
12.34,29.89,-36.93,-4.37,0.09,-1.31,1721228883562
-2.41,-10.07,23.37,-1.39,2.89,-0.66,1721228883572
8.52,-14.38,22.59,0.83,0.22,-1.24,1721228883582
0.90,-12.72,9.16,1.84,-2.13,-0.17,1721228883592
7.29,27.68,2.89,-0.81,1.30,0.79,1721228883602
14.07,39.89,4.92,3.17,0.12,1.00,1721228883612
-5.04,-50.12,-24.93,4.37,-0.75,0.58,1721228883622
-6.02,-58.02,-59.08,-0.61,-0.65,-0.20,1721228883632
2.99,-6.05,-13.06,-4.37,-0.61,-0.44,1721228883642
-64.25,78.45,78.45,0.39,-0.12,-0.74,1721228883652
13.04,-12.39,39.62,4.37,0.07,-1.40,1721228883662
-16.60,-23.70,-34.07,-0.07,-0.11,-0.57,1721228883672
33.68,78.45,14.20,0.95,-1.26,0.39,1721228883682
-2.97,-7.71,-9.62,-1.16,2.10,0.78,1721228883692
15.20,47.36,-5.72,-0.74,-1.05,-0.24,1721228883702
-5.93,43.26,50.00,-1.32,1.35,-0.83,1721228883712
-3.31,2.43,49.37,-1.25,-0.09,-0.30,1721228883722
-22.03,-78.45,-5.89,3.69,-0.36,0.68,1721228883732
1.00,0.06,-17.01,0.54,-1.32,-0.91,1721228883742
-9.58,15.13,-5.02,-2.10,0.31,-0.07,1721228883752
-16.09,-11.73,78.45,-2.22,1.29,-0.11,1721228883762
-26.34,51.02,32.29,-0.47,-0.39,0.72,1721228883772
26.30,-50.92,16.08,0.27,-1.18,-0.56,1721228883782
5.39,-6.29,24.67,-0.57,0.97,-0.10,1721228883792
-0.82,-2.60,-15.01,0.33,-0.21,-0.47,1721228883802
1.83,-1.19,-9.66,1.82,1.02,-1.02,1721228883812
4.96,-2.07,32.89,0.86,-1.83,-0.32,1721228883822
-22.89,37.73,18.22,0.48,1.45,0.16,1721228883832
0.09,-17.73,4.50,0.34,0.14,-0.48,1721228883842
30.91,44.87,6.57,-0.49,-0.32,0.13,1721228883852
5.18,-36.79,43.97,-0.91,0.54,0.01,1721228883862
-60.96,74.46,21.90,0.54,-0.04,1.23,1721228883872
2.56,-2.85,5.00,1.32,-0.13,-0.07,1721228883882
26.16,78.45,7.05,2.53,0.53,0.97,1721228883892
2.75,-8.23,-21.43,-0.09,1.00,-0.04,1721228883902
3.37,-78.45,39.20,-3.02,-0.38,-0.47,1721228883912
3.23,38.22,77.13,-0.12,0.35,-0.82,1721228883922
1.00,9.54,30.97,0.63,-0.90,0.42,1721228883932
-5.94,-45.62,-11.06,4.10,-0.25,-0.29,1721228883942
7.99,33.50,-62.82,1.12,-2.24,0.27,1721228883952
4.74,-10.04,1.30,-3.44,1.51,0.26,1721228883962
11.66,-43.98,20.43,-1.03,1.73,-0.49,1721228883972
7.64,12.61,16.97,0.60,-1.38,-0.23,1721228883982
7.21,-8.71,6.47,1.63,2.19,0.03,1721228883992
-0.92,-6.15,-4.10,-1.58,-0.85,-0.82,1721228884002
-0.57,-11.41,27.35,0.36,-0.15,-0.82,1721228884012
-14.19,53.05,-8.12,1.16,-0.91,0.33,1721228884022
6.29,-78.45,0.07,-1.91,3.52,0.40,1721228884032
-47.29,75.39,-0.78,-1.72,-3.16,1.60,1721228884042
16.55,27.84,39.61,-2.58,4.37,0.22,1721228884052
2.31,-18.71,23.60,1.05,-0.71,-0.01,1721228884062
4.28,-25.33,-16.23,4.37,-0.70,0.67,1721228884072
5.88,-11.60,-47.86,-1.64,1.31,0.14,1721228884082
4.84,-6.40,-14.79,-1.35,-0.52,-0.08,1721228884092
0.59,-27.93,78.45,-1.38,2.96,-0.74,1721228884102
-23.58,39.80,45.12,-1.39,-2.60,0.66,1721228884112
-1.31,-1.77,-0.09,0.36,1.30,-1.06,1721228884122
-17.28,14.46,0.37,1.38,0.20,0.63,1721228884132
-3.38,-22.62,-8.91,1.33,-0.81,0.55,1721228884142
-1.59,0.45,-5.25,-0.54,-0.03,0.89,1721228884152
1.56,0.35,-0.28,-0.41,-0.36,0.22,1721228884162
9.87,78.45,3.45,0.78,0.08,0.47,1721228884172
-2.66,-3.17,19.59,-1.38,0.01,-0.23,1721228884182
5.12,-18.13,6.73,1.45,-0.63,-0.56,1721228884192
7.19,8.39,-0.49,0.97,-0.33,-0.42,1721228884202
-4.82,-11.98,20.39,-2.86,1.70,-1.41,1721228884212
-2.39,-7.39,36.84,1.00,0.16,0.25,1721228884222
-8.35,21.12,37.97,0.28,0.41,0.89,1721228884232
-12.97,-35.26,-21.44,3.58,0.19,1.89,1721228884242
6.93,-19.35,-56.91,0.88,-1.18,-0.10,1721228884252
23.86,28.57,-8.94,-4.37,-0.01,-0.19,1721228884262
9.05,-33.00,62.23,-1.32,3.26,-0.01,1721228884272
-5.67,-1.13,29.93,0.99,-2.13,0.49,1721228884282
7.19,-63.17,-3.63,1.45,-0.34,-0.77,1721228884292
31.48,63.43,-5.78,-1.18,-0.46,-1.42,1721228884302
-6.06,15.97,57.28,-0.25,0.53,-0.19,1721228884312
-33.41,63.67,21.14,0.59,-0.06,-0.18,1721228884322
5.30,-21.08,20.15,0.64,-0.97,-0.84,1721228884332
-5.29,-6.51,25.66,-1.04,0.62,0.30,1721228884342
15.47,35.29,19.42,-0.09,0.04,-0.13,1721228884352
-6.41,-21.25,-4.38,1.06,-0.36,-0.10,1721228884362
-2.52,27.13,-14.46,2.18,0.14,0.73,1721228884372
2.33,-26.72,-5.83,-0.42,0.86,-0.39,1721228884382
6.33,1.59,2.63,-3.18,1.14,-0.46,1721228884392
28.05,67.21,58.06,0.87,0.37,-0.66,1721228884402
12.06,3.54,25.80,1.88,-0.82,-0.20,1721228884412
-8.15,-13.83,-12.74,3.12,-1.17,-0.13,1721228884422
-6.04,6.42,-5.88,1.16,0.31,1.14,1721228884432
-3.10,16.12,-11.66,0.06,0.39,0.63,1721228884442
2.79,-22.54,-3.73,-1.91,0.85,0.00,1721228884452
3.08,-8.03,2.58,-0.29,0.63,-0.14,1721228884462
4.69,-21.66,13.24,0.06,0.50,-0.85,1721228884472
-32.06,38.79,3.68,0.73,-0.03,-0.20,1721228884482
3.88,-32.82,-3.94,2.16,-0.66,-1.30,1721228884492
-18.58,78.45,12.41,-0.94,0.66,0.57,1721228884502
-6.89,-13.41,13.94,1.37,-0.11,1.21,1721228884512
15.01,-30.45,19.28,-1.54,0.07,-0.76,1721228884522
3.01,-17.97,28.20,-0.70,1.22,-0.50,1721228884532
-5.89,78.45,8.15,1.27,-0.36,0.38,1721228884542
-0.12,-16.02,-44.59,4.37,0.08,0.33,1721228884552
-16.12,-54.46,-25.56,0.69,0.54,0.29,1721228884562
1.38,-0.93,-31.85,-0.81,-2.00,-0.07,1721228884572
3.09,-12.13,-7.57,-3.97,3.18,-0.76,1721228884582
-10.99,-47.52,72.00,0.91,-0.72,0.49,1721228884592
10.91,78.45,78.45,1.56,0.32,0.28,1721228884602
21.94,42.38,-18.56,4.37,0.22,0.91,1721228884612
12.70,-57.32,-56.25,1.88,2.67,-0.90,1721228884622
-14.03,-30.64,-68.90,-2.76,-2.17,-0.27,1721228884632
-11.69,-13.91,16.21,-4.37,1.55,-0.28,1721228884642
-69.25,78.45,46.32,2.19,0.67,0.98,1721228884652
