AccX,AccY,AccZ,GyrX,GyrY,GyrZ,Time
-1.03,-12.15,26.93,-0.31,0.08,0.03,1721228700131
-1.57,-3.73,40.73,0.26,0.04,-0.02,1721228700136
-2.30,8.74,-0.59,0.61,-0.39,0.02,1721228700146
1.24,-1.84,-20.06,-0.30,-0.03,0.11,1721228700156
-6.83,-28.81,46.36,-1.98,0.74,0.23,1721228700166
-1.50,1.74,20.77,1.19,-1.40,-0.14,1721228700176
-11.04,11.22,1.78,0.92,-0.75,-0.17,1721228700186
-5.77,-4.90,-2.43,-0.64,0.14,0.10,1721228700196
-1.03,-14.56,16.07,-0.97,0.49,0.61,1721228700206
6.46,-3.17,18.05,0.14,0.23,0.42,1721228700216
8.89,0.74,3.32,0.18,0.04,-0.16,1721228700226
5.88,-4.43,4.58,-0.10,0.00,-0.58,1721228700236
0.93,-2.09,6.22,-0.05,0.09,-0.22,1721228700246
3.27,-9.25,-1.67,-0.32,0.26,0.11,1721228700256
0.80,-19.85,75.75,0.28,0.42,-0.93,1721228700266
-5.66,9.50,18.00,1.48,-0.66,-0.72,1721228700276
-13.73,-25.77,-42.72,-0.17,0.87,-0.21,1721228700286
-0.99,-0.18,22.53,-0.68,1.84,0.28,1721228700296
-0.89,-8.34,0.45,0.53,-0.12,-0.03,1721228700306
-3.26,13.32,8.99,-0.19,1.12,-0.49,1721228700316
-2.44,5.08,-6.48,-0.08,-0.53,-0.29,1721228700326
-21.04,-23.93,20.28,-0.80,1.59,0.20,1721228700336
-6.01,0.09,42.58,0.32,0.17,0.21,1721228700346
-5.90,4.99,-9.92,0.38,0.06,0.47,1721228700356
3.60,1.14,-12.84,-0.32,0.06,0.28,1721228700366
4.84,-26.53,28.90,-1.45,0.38,0.28,1721228700376
4.16,2.18,41.54,0.66,0.34,-0.44,1721228700386
2.77,15.35,-2.50,0.67,-0.48,-0.89,1721228700396
-5.03,-0.43,-20.11,-0.94,0.03,-0.66,1721228700406
-11.08,0.00,25.69,-0.23,0.70,-0.05,1721228700416
-3.50,-9.32,-2.09,0.88,-0.56,0.48,1721228700426
0.06,10.52,-5.34,-0.52,0.35,0.44,1721228700436
0.02,-3.06,-0.79,-0.77,0.10,0.18,1721228700446
-1.82,-11.34,50.52,0.42,0.22,-0.19,1721228700456
-4.55,11.68,13.52,1.34,-0.38,-0.05,1721228700466
5.58,15.24,-50.58,-0.36,-0.10,0.10,1721228700476
-6.61,-1.16,75.63,-0.76,1.73,0.34,1721228700486
6.90,-3.32,8.98,0.93,-0.16,0.47,1721228700496
6.59,0.87,-4.97,-0.14,0.03,0.25,1721228700506
5.28,8.27,1.86,-0.36,0.75,-0.39,1721228700516
0.86,-3.54,8.55,0.17,-0.60,-0.88,1721228700526
-8.09,-8.92,11.57,-0.38,-0.32,-0.60,1721228700536
-10.74,5.90,47.77,0.79,-0.03,0.33,1721228700546
-4.90,12.79,-5.84,0.63,-0.25,0.75,1721228700556
-3.83,5.37,7.44,-0.95,0.99,0.95,1721228700566
3.58,2.66,13.57,0.39,0.10,0.66,1721228700576
15.53,-6.90,6.67,0.88,0.07,0.14,1721228700586
2.73,-0.78,-3.97,-0.70,0.10,-0.17,1721228700596
0.96,-33.07,26.63,-0.31,0.33,-0.46,1721228700606
0.11,6.98,30.57,0.96,-0.17,-0.08,1721228700616
-0.29,-1.66,-9.55,0.33,-0.18,-0.15,1721228700626
-6.48,5.26,25.51,0.03,0.21,-0.10,1721228700636
-2.07,-4.19,1.97,0.49,0.27,0.34,1721228700646
5.40,0.91,-24.40,-0.47,0.59,0.60,1721228700656
7.68,5.80,37.16,-0.97,0.68,-0.11,1721228700666
0.27,-2.78,5.55,0.06,-0.87,-0.71,1721228700676
-15.75,-9.69,38.32,0.14,-0.12,-0.59,1721228700686
-11.74,-0.68,13.71,0.77,0.08,0.26,1721228700696
-9.17,-14.84,-2.76,-0.27,0.51,0.98,1721228700706
7.71,17.74,20.17,0.50,0.49,0.99,1721228700716
6.80,-8.10,-13.16,0.32,-0.39,0.18,1721228700726
0.66,-8.59,19.33,-0.58,-0.18,-0.83,1721228700736
-6.08,10.47,38.53,0.78,-0.31,-0.74,1721228700746
-7.07,0.71,-10.21,0.09,-0.87,-0.53,1721228700756
-8.18,15.00,8.30,-0.69,0.10,0.21,1721228700766
-5.69,9.60,4.97,0.26,-0.25,0.83,1721228700776
-1.27,-8.17,-10.09,0.35,-0.17,0.83,1721228700786
12.31,-0.16,18.77,-0.77,0.34,0.48,1721228700796
5.26,8.78,11.22,-0.19,-0.03,-0.59,1721228700806
-0.68,-3.00,-1.39,-0.15,-0.92,-0.95,1721228700816
-8.11,0.03,-2.14,-0.58,-0.39,-0.30,1721228700826
-15.78,-32.40,64.01,-0.40,-0.09,0.36,1721228700836
2.79,38.94,34.52,1.74,-0.46,1.00,1721228700846
10.36,-21.39,-69.94,0.45,-0.92,0.37,1721228700856
10.23,12.47,65.80,-1.51,1.80,-0.35,1721228700866
1.04,-1.32,-2.48,0.65,-0.88,-0.57,1721228700876
1.73,-18.79,-15.83,-0.17,-1.50,-1.24,1721228700886
-21.18,11.01,21.60,0.29,-0.06,0.17,1721228700896
-16.29,5.37,-1.37,0.99,0.01,0.76,1721228700906
-0.25,9.11,-3.39,-0.82,0.11,1.24,1721228700916
8.58,18.96,20.59,0.00,0.02,1.15,1721228700926
17.06,-34.96,-8.37,0.36,-0.76,0.26,1721228700936
8.43,-1.16,10.24,-0.17,-0.62,-0.52,1721228700946
0.67,1.06,2.04,0.06,-0.65,-0.51,1721228700956
-5.73,-9.78,4.98,-0.41,0.20,0.15,1721228700966
-1.55,-10.43,43.88,0.51,0.08,0.53,1721228700976
5.08,2.31,4.67,1.03,-0.11,0.64,1721228700986
21.81,27.11,-4.83,0.04,0.35,0.12,1721228700996
5.84,22.43,5.52,-0.37,-0.76,-0.65,1721228701006
5.05,-19.80,-23.85,-0.50,-0.20,-1.78,1721228701016
-19.31,-6.60,8.65,-0.32,-0.44,-0.91,1721228701026
-16.44,0.03,-9.46,-0.34,0.37,0.29,1721228701036
-20.00,-41.85,52.99,-1.36,0.32,0.94,1721228701046
2.38,29.82,71.76,1.86,0.02,1.72,1721228701056
9.41,-17.51,-24.05,1.86,0.05,1.33,1721228701066
17.64,37.66,-13.08,-1.40,0.48,-0.48,1721228701076
6.42,0.82,-8.23,-0.68,-0.40,-1.27,1721228701086
-21.51,-26.98,25.64,-0.59,-0.07,-1.35,1721228701096
-14.36,5.60,5.01,0.48,-1.03,-0.31,1721228701106
-15.48,1.00,-8.89,-0.27,0.43,1.45,1721228701116
4.81,12.23,11.79,-0.44,0.63,1.29,1721228701126
12.39,18.13,1.70,-0.53,0.14,0.56,1721228701136
17.26,-25.63,22.19,-1.44,0.35,-1.02,1721228701146
-4.56,-4.38,48.35,0.39,-1.10,-1.86,1721228701156
-4.23,-5.13,-12.99,0.44,-0.51,-1.87,1721228701166
-26.81,10.66,-3.04,-1.40,0.03,0.60,1721228701176
-5.13,1.44,17.81,0.22,0.54,1.60,1721228701186
7.74,-36.95,12.48,-0.45,0.13,1.52,1721228701196
13.77,22.30,38.05,0.44,0.22,0.60,1721228701206
9.79,16.01,-11.28,-0.35,-1.09,-0.15,1721228701216
13.39,2.05,34.74,-0.81,0.60,-1.00,1721228701226
2.15,-3.57,14.91,-0.19,-0.96,-1.30,1721228701236
-11.18,1.33,24.12,0.08,-0.23,-1.52,1721228701246
-12.59,3.39,14.86,0.28,-0.35,-0.58,1721228701256
-25.90,-1.47,11.76,0.08,-0.01,1.28,1721228701266
1.23,11.28,11.44,0.26,0.59,1.38,1721228701276
7.02,2.32,-0.54,0.01,-0.21,1.12,1721228701286
15.46,8.22,6.68,-0.22,0.55,-0.09,1721228701296
8.88,-2.81,3.57,0.10,-0.51,-0.42,1721228701306
1.72,0.73,6.07,-0.10,0.12,-0.62,1721228701316
-1.69,-5.49,23.73,-0.07,0.03,-0.42,1721228701326
-5.21,3.29,17.08,0.50,-0.33,0.10,1721228701336
-1.31,-1.71,-5.64,0.18,-0.68,0.28,1721228701346
1.52,-2.36,12.25,-0.63,0.77,0.35,1721228701356
3.65,1.01,26.86,-0.01,-0.03,0.17,1721228701366
3.51,0.17,4.81,0.44,-0.15,0.05,1721228701376
5.15,-3.97,-5.41,0.60,-0.54,-0.06,1721228701386
2.98,7.65,8.93,0.11,0.50,-0.27,1721228701396
0.35,-1.20,5.37,-0.02,-0.03,-0.35,1721228701406
-4.54,-0.52,11.76,-0.12,-0.11,-0.48,1721228701416
-5.95,-7.21,15.31,-0.04,-0.15,-0.16,1721228701426
-4.56,-2.42,9.68,0.05,-0.10,0.37,1721228701436
2.55,0.36,11.49,0.03,0.07,0.53,1721228701446
7.07,10.14,14.13,0.01,0.06,0.36,1721228701456
9.66,13.86,4.58,-0.03,0.09,-0.12,1721228701466
4.42,-9.01,0.84,-0.68,-0.07,-0.53,1721228701476
-7.56,-10.22,39.98,-0.37,-0.45,-1.34,1721228701486
-11.67,5.77,21.78,0.72,-0.22,-0.72,1721228701496
-10.88,-16.15,-14.79,-0.08,0.12,-0.15,1721228701506
-8.52,5.84,27.30,-0.31,-0.02,0.85,1721228701516
1.47,1.31,12.32,0.67,0.36,1.36,1721228701526
4.73,-7.74,-12.71,0.35,-0.14,0.83,1721228701536
10.40,16.42,19.71,-0.34,0.94,0.26,1721228701546
8.82,10.95,-1.13,0.08,-0.31,-0.30,1721228701556
5.49,-7.32,5.80,-0.14,0.03,-0.67,1721228701566
-0.42,-15.68,23.53,-0.60,-0.20,-0.91,1721228701576
-4.86,8.54,25.92,0.27,-0.26,-0.64,1721228701586
-4.71,-3.09,-5.81,0.41,-0.43,-0.27,1721228701596
-11.89,4.60,8.95,-0.38,0.25,-0.10,1721228701606
-1.80,23.27,39.30,0.70,-0.42,0.25,1721228701616
0.29,18.02,8.68,0.43,0.20,0.56,1721228701626
4.42,2.53,0.03,0.75,-0.31,0.46,1721228701636
10.43,-0.10,21.37,-0.52,0.27,-0.04,1721228701646
7.22,-15.77,-1.13,0.70,-0.41,-0.62,1721228701656
-0.39,-1.19,17.40,0.03,-0.08,-0.87,1721228701666
-4.49,4.93,15.25,0.52,-0.16,-0.65,1721228701676
-5.23,-1.97,5.15,0.09,-0.05,-0.19,1721228701686
-4.31,1.10,23.63,0.03,0.29,-0.05,1721228701696
-2.02,7.61,13.17,0.49,0.07,0.07,1721228701706
0.73,-2.15,-8.69,0.07,0.22,-0.17,1721228701716
1.63,1.30,12.15,-0.09,0.15,-0.35,1721228701726
0.30,-2.66,3.18,-0.00,-0.17,-0.25,1721228701736
-1.25,-10.46,5.76,-0.52,0.12,-0.27,1721228701746
-0.49,6.84,36.43,0.17,-0.04,-0.20,1721228701756
1.51,2.10,6.31,0.48,-0.05,-0.12,1721228701766
0.22,-4.87,-0.78,-0.14,0.18,-0.43,1721228701776
-2.73,5.32,21.97,0.32,-0.22,-0.48,1721228701786
-3.58,2.46,5.61,0.31,0.06,-0.33,1721228701796
-2.76,12.79,8.56,0.19,0.08,-0.11,1721228701806
0.17,2.66,4.14,-0.09,0.08,0.02,1721228701816
3.02,-4.03,6.91,-0.13,0.09,-0.07,1721228701826
4.29,-2.75,4.43,-0.03,0.16,-0.28,1721228701836
4.15,-11.76,11.80,-0.37,0.23,-0.62,1721228701846
-0.34,5.54,25.06,0.11,-0.10,-0.67,1721228701856
-1.38,0.79,1.54,0.25,0.01,-0.55,1721228701866
-3.45,3.84,6.46,-0.25,0.37,-0.25,1721228701876
-2.86,1.18,22.97,-0.13,0.18,-0.34,1721228701886
-0.87,-4.92,8.38,0.11,0.12,-0.35,1721228701896
-0.29,1.33,4.19,-0.04,0.19,-0.50,1721228701906
-1.59,2.50,8.50,0.02,0.09,-0.49,1721228701916
-2.21,-0.45,7.76,0.06,0.12,-0.40,1721228701926
-1.50,3.85,5.72,0.09,0.11,-0.16,1721228701936
0.27,-0.95,12.99,-0.31,0.26,-0.23,1721228701946
0.37,2.34,19.06,-0.15,0.05,-0.22,1721228701956
1.79,-4.31,6.65,-0.17,0.16,-0.41,1721228701966
0.09,-0.17,15.84,0.01,0.07,-0.42,1721228701976
0.56,1.07,3.96,0.19,0.12,-0.13,1721228701986
0.94,-8.68,2.12,-0.36,0.43,-0.25,1721228701996
-0.73,8.51,30.85,0.01,0.13,-0.37,1721228702006
-2.30,5.16,15.14,0.43,0.07,-0.31,1721228702016
-3.20,9.32,6.28,0.22,0.19,-0.08,1721228702026
-1.51,9.48,13.65,0.13,0.29,0.12,1721228702036
1.63,4.39,5.89,0.25,0.17,0.10,1721228702046
3.20,-8.74,-0.36,-0.03,0.26,-0.23,1721228702056
2.17,0.31,9.27,0.10,0.10,-0.41,1721228702066
-1.21,-2.17,5.83,0.13,0.08,-0.39,1721228702076
-5.07,-5.74,10.48,-0.25,0.04,-0.29,1721228702086
-7.50,14.39,32.43,0.31,0.02,-0.06,1721228702096
-2.17,7.13,0.59,0.47,-0.03,0.52,1721228702106
11.52,-22.64,11.81,-0.46,0.84,0.57,1721228702116
6.67,16.17,32.09,0.53,0.07,0.17,1721228702126
2.39,-11.34,-11.41,0.10,0.06,-0.55,1721228702141
1.69,-2.49,-2.09,-0.16,0.17,-0.60,1721228702145
-4.74,3.47,11.26,0.15,0.06,-0.45,1721228702155
-7.12,-4.21,-3.54,-0.35,0.19,-0.07,1721228702165
-4.78,1.21,8.32,-0.17,0.58,0.47,1721228702175
0.21,-5.30,1.62,-0.20,0.14,0.75,1721228702185
1.83,-13.03,32.25,-0.22,-0.07,0.10,1721228702195
-0.11,15.03,32.14,0.65,-0.18,0.31,1721228702205
3.02,-11.42,-5.90,0.07,0.21,0.16,1721228702215
0.54,7.28,13.79,-0.26,0.22,0.17,1721228702225
0.08,-8.31,-0.43,-0.21,0.17,0.25,1721228702235
1.18,-7.74,8.23,-0.44,0.24,0.12,1721228702245
-0.82,3.53,26.11,-0.09,0.14,-0.11,1721228702255
-2.53,13.44,11.11,0.40,-0.12,0.11,1721228702265
0.06,-3.19,0.76,-0.56,0.53,0.46,1721228702275
2.67,13.43,28.98,-0.36,0.47,0.44,1721228702285
5.78,2.36,5.96,0.19,-0.03,0.34,1721228702295
4.76,-12.55,-7.32,-0.50,0.68,-0.35,1721228702305
-10.47,12.90,10.82,-0.25,-0.52,-1.36,1721228702315
-16.85,-20.25,18.13,-0.62,-0.47,-0.49,1721228702325
-13.54,2.01,25.07,-0.00,0.57,1.26,1721228702335
-2.40,-6.17,-10.04,0.44,0.47,1.90,1721228702345
17.44,0.79,6.91,-0.40,0.98,1.05,1721228702355
13.56,11.43,26.87,-0.16,0.09,0.08,1721228702365
10.63,-2.55,0.03,0.10,-0.19,-0.78,1721228702375
-0.52,-11.04,-6.77,-0.55,0.07,-0.87,1721228702385
-6.47,-8.93,15.84,-0.31,-0.25,-0.97,1721228702395
-9.01,1.76,21.96,0.09,-0.10,-0.33,1721228702405
-11.43,2.38,5.64,0.29,-0.14,0.54,1721228702415
-5.64,-5.13,4.47,-0.32,0.80,0.97,1721228702425
4.90,3.52,22.89,-0.27,0.45,0.77,1721228702435
5.71,9.31,8.43,0.44,-0.10,0.31,1721228702445
7.80,0.72,-6.92,-0.05,0.31,-0.38,1721228702455
2.81,-10.17,19.05,-0.84,0.45,-0.67,1721228702465
-2.95,6.22,29.11,0.28,-0.09,-0.38,1721228702475
-5.48,1.65,2.73,0.22,0.02,0.11,1721228702485
-4.92,2.25,11.60,-0.08,0.10,0.28,1721228702495
-0.53,-2.13,16.57,0.28,0.18,0.38,1721228702505
-0.41,1.67,4.54,0.57,-0.01,0.36,1721228702515
2.08,-2.04,-1.82,0.21,0.43,0.26,1721228702525
3.45,-1.46,13.71,0.17,0.10,0.07,1721228702535
0.31,9.90,26.76,0.38,-0.06,-0.33,1721228702545
-4.11,4.30,5.81,0.26,-0.25,-0.26,1721228702555
-6.21,-15.28,-8.01,-0.24,0.41,-0.14,1721228702565
-2.85,-4.52,9.43,0.20,-0.10,0.13,1721228702575
-2.06,-13.53,17.01,-0.20,0.45,-0.07,1721228702585
-3.73,17.93,30.12,0.85,-0.36,-0.03,1721228702595
-0.09,9.27,-13.47,0.38,-0.47,0.37,1721228702605
-2.27,-11.56,-7.63,-1.01,0.67,0.40,1721228702615
-9.45,-34.31,26.35,-1.14,0.01,0.02,1721228702625
-0.42,-0.87,38.01,0.40,-0.46,-0.26,1721228702635
-1.79,4.73,-0.75,0.39,-0.01,-0.00,1721228702645
-7.18,-15.02,-4.83,-0.50,0.31,0.54,1721228702655
-1.98,16.96,30.84,0.13,-0.32,0.42,1721228702665
4.14,18.05,8.08,0.07,0.30,0.35,1721228702675
6.83,-2.65,-11.56,-0.36,-0.10,-0.05,1721228702685
5.27,-25.44,23.82,-0.87,0.17,-0.96,1721228702695
-3.34,-2.15,33.61,-0.09,-0.10,-0.33,1721228702705
-8.12,10.00,11.32,0.39,-0.17,0.18,1721228702715
-3.74,10.37,9.23,-0.01,0.38,0.29,1721228702725
-1.89,1.57,6.83,-0.01,-0.17,0.76,1721228702735
6.93,-25.74,-2.81,-0.90,0.61,0.47,1721228702745
5.65,1.47,25.45,-0.10,0.11,0.11,1721228702755
3.94,2.61,0.38,0.57,-0.21,-0.09,1721228702765
0.69,-10.44,0.34,-0.38,0.33,-0.24,1721228702775
-0.55,11.49,29.85,0.19,-0.07,-0.22,1721228702785
-0.48,9.81,4.50,0.65,-0.15,-0.13,1721228702795
-6.27,14.14,1.75,0.27,0.00,-0.16,1721228702805
-3.91,-2.86,20.88,-0.67,0.15,-0.44,1721228702815
-6.68,-0.65,16.13,0.27,-0.31,-0.47,1721228702825
-14.09,-14.81,-10.46,-0.16,-0.03,-0.80,1721228702835
-16.68,8.57,26.90,-0.40,-0.31,0.48,1721228702845
-5.54,16.38,11.65,0.51,0.42,1.25,1721228702855
5.10,-9.74,-3.03,0.68,-0.06,1.51,1721228702865
25.58,3.50,12.03,-0.45,1.21,0.61,1721228702875
12.92,-5.10,7.97,0.06,-0.41,-0.42,1721228702885
2.08,-15.10,8.66,-0.40,-0.40,-1.24,1721228702895
-4.11,8.10,29.45,0.13,-0.55,-1.27,1721228702905
-9.42,-10.18,2.58,0.32,-0.16,-0.51,1721228702915
-10.34,3.93,16.82,-0.45,0.58,0.30,1721228702925
-3.21,15.79,19.75,0.26,0.22,0.84,1721228702935
-2.17,-0.89,-2.54,-0.01,-0.04,0.76,1721228702945
3.07,-1.67,-3.57,-0.28,0.17,0.39,1721228702955
-0.98,-17.50,18.54,-0.82,-0.16,-0.12,1721228702965
-0.08,-0.30,38.06,-0.51,-0.30,-0.21,1721228702975
-3.59,-3.32,12.62,-0.01,-0.17,-0.18,1721228702985
-6.62,4.36,-0.70,0.03,-0.22,0.51,1721228702995
1.51,11.20,3.79,-0.09,0.32,0.65,1721228703005
3.75,6.87,0.80,0.04,0.29,0.53,1721228703015
6.35,-33.45,7.79,-1.11,0.07,-0.39,1721228703025
-0.58,4.75,30.96,-0.56,-0.60,-0.03,1721228703035
3.17,-0.79,13.72,0.06,-0.01,0.29,1721228703045
7.94,13.36,10.12,-0.24,0.04,0.36,1721228703055
-1.15,21.69,26.48,0.12,0.02,-0.16,1721228703065
-0.89,18.12,23.71,0.22,-0.27,-0.38,1721228703075
3.35,-23.54,-9.69,0.63,0.07,-1.38,1721228703085
-5.99,-15.94,3.33,-0.56,-0.23,-0.44,1721228703095
-20.55,28.18,26.51,1.53,-1.06,0.64,1721228703105
-6.92,-1.50,-11.72,1.15,0.51,1.63,1721228703115
8.64,-11.25,0.51,0.36,0.68,1.95,1721228703125
14.58,-10.53,28.32,-0.21,0.02,0.67,1721228703135
12.68,7.65,27.53,0.38,-0.26,-0.51,1721228703145
5.26,-0.20,-5.31,0.67,-0.84,-0.72,1721228703155
1.98,-0.29,14.16,0.08,0.19,-0.96,1721228703165
-4.03,6.45,17.85,0.76,-0.18,-0.39,1721228703175
-7.45,-13.80,-18.76,0.05,0.41,-0.79,1721228703185
-10.96,-17.24,11.71,-0.63,-0.31,0.07,1721228703195
-9.70,7.56,30.13,0.46,0.11,1.26,1721228703205
0.68,-0.06,-5.26,-0.08,0.62,1.44,1721228703215
9.39,0.94,19.88,0.21,0.13,0.59,1721228703225
4.55,9.07,3.49,0.56,-0.44,0.48,1721228703235
7.37,2.53,0.17,-0.41,0.53,0.04,1721228703245
4.65,21.26,17.49,0.20,-0.17,0.38,1721228703255
7.01,-9.22,-17.35,0.20,-0.16,0.24,1721228703265
6.16,-38.89,41.79,-0.78,0.18,-0.37,1721228703275
-2.01,-5.89,40.17,-0.02,-0.27,-0.53,1721228703285
-10.58,0.50,17.49,0.25,-0.04,-0.38,1721228703295
-5.81,1.49,1.14,0.31,-0.36,0.24,1721228703305
-5.93,-2.00,-4.71,-0.21,0.22,1.35,1721228703315
4.51,-4.90,35.25,-1.11,0.34,0.84,1721228703325
6.95,16.52,27.14,0.31,-0.09,0.75,1721228703335
6.26,-6.64,-2.98,-0.01,0.03,0.54,1721228703345
7.02,3.86,9.62,-0.51,0.74,-0.28,1721228703355
4.16,4.11,6.66,0.19,-0.26,-0.37,1721228703365
1.09,-4.03,-11.86,0.11,-0.14,-0.42,1721228703375
-1.88,-6.44,-4.01,-0.81,-0.01,0.07,1721228703385
-4.70,7.21,45.77,0.26,-0.51,-0.17,1721228703395
-4.72,17.29,17.81,0.37,-0.12,-0.05,1721228703405
-2.94,-6.14,0.03,-0.29,0.03,0.25,1721228703415
-2.74,4.83,3.84,-0.19,-0.08,0.41,1721228703425
2.43,-7.82,-13.99,0.38,-0.27,0.23,1721228703435
-0.68,-3.51,26.56,-0.06,-0.34,-0.28,1721228703445
-2.61,24.39,25.02,0.58,-0.25,-0.33,1721228703455
-4.51,-30.61,-3.99,-0.08,-0.14,-0.42,1721228703465
-0.41,3.39,17.93,0.07,0.12,0.15,1721228703475
-5.21,6.93,-6.36,1.22,-0.45,0.53,1721228703485
-4.02,-26.53,-12.77,-0.47,0.28,-0.03,1721228703495
4.83,-6.78,24.81,0.25,0.36,-0.05,1721228703505
-18.57,25.26,9.47,0.96,0.39,0.57,1721228703515
2.47,-17.21,7.70,0.28,-0.47,0.57,1721228703525
1.52,23.97,29.81,-0.10,0.42,0.06,1721228703535
0.73,-11.47,-12.88,0.51,-0.26,-0.47,1721228703545
-1.58,12.68,11.48,0.08,-0.07,-0.26,1721228703555
5.92,-14.61,17.67,0.18,-0.36,0.23,1721228703565
-2.59,2.12,27.82,0.34,0.07,-0.33,1721228703575
-5.26,2.70,5.21,0.40,-0.06,-0.41,1721228703585
-8.21,-6.40,4.90,0.05,0.11,-0.73,1721228703595
-11.89,3.02,17.15,0.42,-0.38,0.35,1721228703605
-3.88,-22.17,-3.19,-0.00,0.23,0.95,1721228703615
5.66,14.59,29.36,0.73,0.02,0.87,1721228703625
9.57,7.00,-4.17,0.34,-0.50,0.39,1721228703635
8.18,-9.46,14.56,-0.05,0.38,-0.82,1721228703645
-2.46,-0.45,18.00,0.86,-0.97,-1.08,1721228703655
-7.44,-7.88,-3.81,0.35,-0.26,-0.90,1721228703665
-12.10,19.54,16.76,0.48,0.01,0.27,1721228703675
-0.04,-5.52,-1.02,0.68,-0.40,0.52,1721228703685
0.74,-13.49,0.12,-0.81,0.64,1.04,1721228703695
10.23,13.95,46.60,0.54,0.04,0.06,1721228703705
3.32,-0.47,-5.42,0.15,-0.55,-0.75,1721228703715
-0.32,7.71,7.64,0.12,-0.31,-0.97,1721228703725
-1.13,-7.16,-4.49,0.01,-0.19,-0.80,1721228703735
-8.40,12.85,-0.02,-0.30,0.04,-0.01,1721228703745
-1.97,-1.03,26.13,-0.69,0.61,0.36,1721228703755
1.11,10.77,24.52,0.15,-0.25,0.05,1721228703765
0.75,-13.13,9.26,0.00,0.01,-0.44,1721228703775
-5.16,-6.03,15.32,-0.35,-0.29,-0.31,1721228703785
-10.60,1.29,4.23,0.00,-0.24,0.09,1721228703795
-5.76,-7.37,2.42,-0.10,0.19,0.47,1721228703805
2.26,14.94,8.88,0.38,-0.15,0.50,1721228703815
2.40,4.19,-15.55,0.86,-0.41,0.26,1721228703825
5.25,-4.35,-3.71,-0.80,0.13,-0.30,1721228703835
4.65,3.72,45.22,0.47,0.10,-0.72,1721228703845
-7.99,2.68,21.07,-0.17,0.57,-0.38,1721228703855
-5.84,18.89,6.66,-0.15,-0.41,-0.46,1721228703865
-3.91,-8.18,-4.52,-0.91,-0.52,0.32,1721228703875
-4.10,-11.29,21.33,0.42,-0.57,0.49,1721228703885
-0.14,-7.70,4.11,0.38,0.06,0.39,1721228703895
6.81,-1.47,0.33,0.04,-0.18,0.59,1721228703905
1.94,5.13,2.52,-0.38,0.16,-0.06,1721228703915
4.72,-6.77,31.03,0.22,-0.39,-0.23,1721228703925
-1.31,6.75,4.88,0.62,-0.07,-0.24,1721228703935
-5.54,-9.57,-14.46,-0.05,0.13,-0.34,1721228703945
-7.53,-11.88,23.37,-0.12,-0.21,0.35,1721228703955
-4.55,14.09,5.51,0.83,0.02,0.75,1721228703965
7.25,5.19,-28.90,-0.14,-0.20,0.39,1721228703975
23.94,-49.87,-34.58,-2.48,-0.16,-1.28,1721228703985
6.90,6.41,38.11,0.14,-0.10,-0.56,1721228703995
-3.22,-17.88,-20.76,-0.26,-0.75,-0.36,1721228704005
-3.07,-0.67,62.46,0.09,0.21,0.07,1721228704015
-6.73,-5.88,16.46,0.50,-0.55,0.06,1721228704025
-6.02,-3.51,-6.97,0.38,-0.20,-0.32,1721228704035
-9.35,10.90,14.62,-0.09,-0.40,0.26,1721228704045
-6.19,-7.62,26.16,-0.82,0.61,1.03,1721228704055
9.64,-45.37,2.02,-0.11,0.12,0.01,1721228704065
1.92,3.89,22.66,0.02,-0.05,-0.33,1721228704075
1.80,19.38,21.66,0.81,-0.30,0.06,1721228704085
7.80,7.13,-1.76,0.33,-0.08,0.14,1721228704095
10.29,1.53,-9.92,-0.79,1.04,-0.02,1721228704105
6.61,-14.61,-9.41,-0.43,-0.37,-1.15,1721228704115
-0.89,-0.17,-2.43,-1.10,-0.48,-1.07,1721228704125
-18.74,-1.12,27.02,0.33,-0.18,-0.39,1721228704135
-9.99,-11.92,36.35,-0.05,0.58,0.94,1721228704150
-7.85,14.19,49.33,0.90,0.08,1.30,1721228704154
7.25,14.03,8.08,0.34,0.56,1.29,1721228704164
20.50,-5.02,-13.58,-0.16,-0.17,0.72,1721228704174
17.57,14.12,1.13,0.13,0.04,-0.48,1721228704184
10.31,1.40,-25.24,0.14,-0.30,-0.94,1721228704194
2.76,-19.04,-2.42,-1.81,0.69,-1.53,1721228704204
-4.90,-15.31,57.70,1.67,-2.06,-1.62,1721228704214
-43.98,48.35,-2.17,1.42,0.18,-0.07,1721228704224
-11.36,-29.19,-32.23,-1.02,1.34,0.76,1721228704234
11.40,25.95,46.48,-0.39,0.76,0.94,1721228704244
0.65,-18.09,-16.33,0.57,-1.09,0.40,1721228704254
22.56,20.43,-2.04,0.19,0.59,-0.89,1721228704264
4.20,5.50,3.56,-0.32,0.03,-1.18,1721228704274
-5.56,-29.13,18.03,-0.44,-0.05,-1.52,1721228704284
-7.36,23.59,29.44,1.02,-0.42,-0.83,1721228704294
-19.33,-42.96,-26.59,-0.28,0.37,-0.35,1721228704304
-4.87,20.37,56.89,0.19,0.49,-0.03,1721228704314
-18.82,13.22,1.13,1.20,-0.28,0.53,1721228704324
7.69,5.30,-31.87,0.10,0.45,0.17,1721228704334
6.69,-19.15,-2.29,-1.02,0.78,0.02,1721228704344
14.81,-19.17,11.77,0.75,-0.25,-1.00,1721228704354
-7.26,3.42,49.68,0.36,0.27,-1.37,1721228704364
-8.09,-5.04,14.09,0.41,0.39,-1.06,1721228704374
-12.28,34.23,9.28,0.63,-0.23,-0.24,1721228704384
-14.56,-32.43,-9.94,-0.44,0.36,-0.34,1721228704394
5.99,20.25,25.33,0.31,0.52,0.29,1721228704404
4.52,-6.58,-7.42,0.79,-0.74,0.04,1721228704414
6.31,4.62,53.89,-1.95,1.63,-0.64,1721228704424
-1.93,-26.75,24.98,0.34,-1.23,-0.64,1721228704434
-14.82,15.84,4.86,0.80,0.37,0.64,1721228704444
-2.54,-10.85,-5.73,-0.65,-0.03,-0.28,1721228704454
-3.63,20.62,49.02,0.25,-0.80,0.15,1721228704464
5.61,-17.52,2.79,1.34,-0.16,-0.27,1721228704474
5.17,5.81,-8.84,-0.45,-0.26,-0.33,1721228704484
-4.78,0.72,38.16,-1.38,1.15,-1.06,1721228704494
-13.43,5.83,37.55,1.50,-1.57,-0.12,1721228704504
-19.71,1.72,-11.45,1.73,-0.27,0.23,1721228704514
-0.64,38.65,-11.77,-0.93,0.60,1.16,1721228704524
5.80,-20.67,-10.95,-3.34,1.26,0.33,1721228704534
7.47,-27.37,31.95,1.27,-1.06,-0.69,1721228704544
1.33,5.55,-10.65,1.20,-1.05,-1.28,1721228704554
-14.65,-30.27,-23.54,-1.24,0.43,0.08,1721228704564
-6.62,-7.18,54.92,-2.13,1.01,1.55,1721228704574
6.52,13.10,28.93,2.06,-0.60,1.32,1721228704584
18.62,28.78,-4.38,-0.13,-0.82,-0.49,1721228704594
-3.03,32.72,15.16,-0.51,-0.35,-1.08,1721228704604
5.06,-24.99,-14.09,0.41,-0.83,-1.92,1721228704614
-20.34,-29.31,-27.04,-0.87,-0.50,-0.03,1721228704624
-25.15,-53.72,49.36,-0.72,0.95,0.96,1721228704634
3.21,-16.86,63.30,0.89,-0.97,2.38,1721228704644
-1.95,2.05,-6.37,1.61,0.64,2.18,1721228704654
10.49,-25.94,-10.57,-2.18,0.97,0.52,1721228704664
28.42,59.25,61.72,0.45,-1.05,0.69,1721228704674
-19.75,45.11,-1.57,2.00,-0.55,-0.21,1721228704684
5.78,-28.91,-6.12,-1.35,0.34,-1.23,1721228704694
-9.07,-20.23,51.23,-1.07,-1.42,-0.45,1721228704704
-10.01,0.19,17.44,0.45,0.07,-0.27,1721228704714
-17.95,7.86,-66.04,2.25,-1.45,0.45,1721228704724
3.05,-8.66,-9.77,-1.29,0.43,0.59,1721228704734
12.50,17.55,70.19,0.45,0.22,-0.03,1721228704744
1.95,3.69,-1.98,0.80,-1.09,-0.44,1721228704754
-14.48,-59.92,-44.81,-1.88,1.18,-0.40,1721228704764
2.39,27.50,57.59,0.13,-0.24,-0.05,1721228704774
-0.80,17.01,26.70,1.89,1.44,-0.57,1721228704784
3.64,15.32,-78.45,2.74,-2.15,1.09,1721228704794
7.01,-9.68,-60.26,-1.32,0.61,0.49,1721228704804
19.83,-58.08,41.97,-1.72,-0.46,-0.36,1721228704814
0.66,-16.01,78.45,-2.12,3.21,-1.50,1721228704824
-49.27,-37.38,15.43,3.38,-1.67,-1.37,1721228704834
-12.27,3.44,-52.65,0.67,0.37,0.06,1721228704844
9.85,51.55,-2.11,-1.25,0.39,1.32,1721228704854
2.46,-1.52,-3.30,-0.80,1.41,1.20,1721228704864
11.80,-21.29,-45.42,0.79,-0.65,-0.53,1721228704874
6.11,-9.46,-37.59,0.27,-1.59,-1.39,1721228704884
0.55,3.70,32.70,-1.01,0.97,-2.32,1721228704894
-21.53,2.37,78.45,1.61,-1.96,-1.96,1721228704904
-25.93,8.12,17.70,1.02,-0.36,-0.35,1721228704914
-9.85,-13.75,9.06,-0.49,0.75,1.97,1721228704924
2.72,-7.77,-6.56,0.73,0.74,1.52,1721228704934
19.79,3.87,-15.26,-0.08,0.18,0.24,1721228704944
7.81,-3.93,38.17,-0.82,0.10,-1.94,1721228704954
0.86,-10.85,32.13,-0.44,-1.24,-2.40,1721228704964
-35.96,-36.18,23.84,0.16,0.77,-1.72,1721228704974
-13.49,17.89,27.36,0.29,0.46,-0.27,1721228704984
-21.87,-16.12,-16.24,0.77,-0.10,1.17,1721228704994
3.24,-0.13,-21.72,0.92,0.28,1.22,1721228705004
5.66,-13.63,-2.83,-0.90,1.03,0.88,1721228705014
9.65,50.16,65.86,0.23,-0.56,-0.42,1721228705024
3.75,1.57,-9.81,1.05,-0.81,-0.87,1721228705034
-19.78,-54.54,-32.36,-1.08,1.08,-0.72,1721228705044
-15.77,15.79,37.98,-0.75,0.56,-0.34,1721228705054
-35.98,68.36,34.11,2.21,0.20,0.75,1721228705064
3.04,12.40,-41.78,1.43,-1.63,0.98,1721228705074
15.07,4.30,-12.24,-1.18,0.79,-0.05,1721228705084
1.77,-1.88,22.44,-0.27,0.27,-1.02,1721228705094
4.61,-12.90,-14.95,0.67,-1.10,-1.87,1721228705104
4.55,22.32,5.37,-1.17,0.42,-1.91,1721228705114
-30.90,13.96,45.75,0.48,-0.13,-0.04,1721228705124
-17.34,27.31,12.70,0.68,1.33,1.51,1721228705134
2.39,-11.02,-30.62,-0.47,-0.57,1.28,1721228705144
13.91,-58.47,74.83,-2.81,0.12,0.42,1721228705154
-0.24,3.43,22.32,1.35,-1.55,-0.29,1721228705164
2.13,-14.60,-8.68,0.14,-0.97,-1.14,1721228705174
-14.76,-2.64,25.24,-0.29,-0.58,-0.11,1721228705184
-10.98,9.96,10.95,1.28,0.12,0.94,1721228705194
20.44,-2.27,-42.86,0.75,-0.58,1.00,1721228705204
4.42,-21.39,-9.80,-1.74,1.06,1.46,1721228705214
5.49,-10.87,40.93,1.04,-1.33,-0.44,1721228705224
-24.92,41.67,22.71,1.02,0.16,-0.03,1721228705234
7.14,1.61,-12.20,-1.43,-1.01,0.42,1721228705244
-20.30,-39.64,67.79,-1.91,-0.03,0.14,1721228705254
1.82,-6.71,4.50,1.26,0.97,-1.10,1721228705264
2.42,-12.28,-67.85,0.73,-1.09,-0.47,1721228705274
5.87,-33.15,1.42,-3.85,2.75,-0.55,1721228705284
20.78,41.91,78.45,3.95,-3.33,0.99,1721228705294
-3.60,-0.25,-18.87,0.55,0.85,0.79,1721228705304
18.23,23.97,-7.52,-0.88,0.87,0.23,1721228705314
19.40,63.91,10.29,0.52,0.85,0.23,1721228705324
15.37,-28.10,-27.65,0.97,-1.00,-0.54,1721228705334
9.28,-36.74,75.53,-1.21,0.28,-0.54,1721228705344
23.18,28.70,61.92,0.85,-0.42,-0.02,1721228705354
-1.86,-11.41,-10.76,0.44,-0.17,0.48,1721228705364
9.15,19.61,33.88,0.37,0.82,0.37,1721228705374
9.20,71.67,22.86,1.39,0.13,0.32,1721228705384
22.70,-24.85,-29.36,-0.58,-0.50,-0.64,1721228705394
-12.11,-33.84,45.53,-0.81,-0.40,-1.05,1721228705404
-9.77,15.50,13.95,1.54,0.23,-1.44,1721228705414
-3.18,-19.97,-63.65,1.90,-0.56,-0.64,1721228705424
-7.74,-3.04,-3.45,-2.87,2.82,-0.30,1721228705434
34.68,25.33,78.45,1.45,-1.89,0.51,1721228705444
0.08,21.35,31.38,2.27,0.49,1.08,1721228705454
19.54,-26.43,-42.89,3.30,-1.25,0.69,1721228705464
19.23,11.08,-20.30,-0.22,0.33,-0.80,1721228705474
13.13,-11.54,-52.81,-0.27,-0.80,-2.30,1721228705484
7.58,15.85,-40.58,-1.29,-0.23,-2.77,1721228705494
1.74,-78.45,-23.76,-4.37,2.91,-3.94,1721228705504
-36.79,78.45,78.45,1.97,-1.16,-1.48,1721228705514
-36.39,29.23,-23.00,3.82,4.37,-0.55,1721228705524
3.68,-31.33,-78.45,4.37,-3.36,3.54,1721228705534
-6.68,-52.98,-55.09,-0.09,0.44,0.33,1721228705544
23.90,-45.93,-18.97,0.63,4.37,-2.26,1721228705554
78.45,78.45,78.45,-0.10,-4.37,-0.01,1721228705564
18.52,-42.01,0.97,3.50,3.22,-3.34,1721228705574
-26.17,55.37,-73.08,3.46,-4.28,-3.07,1721228705584
-72.96,-78.45,9.56,-0.78,-0.16,0.54,1721228705594
-78.45,25.20,78.45,-1.71,-0.80,-2.12,1721228705604
-14.71,15.83,-11.87,2.97,0.29,-0.26,1721228705614
19.68,78.45,-78.45,1.15,-1.30,1.16,1721228705624
-1.30,-3.23,-32.03,-1.87,1.06,1.72,1721228705634
25.77,-35.27,-14.43,1.78,4.37,-3.13,1721228705644
44.21,3.48,-7.66,4.37,-3.97,0.45,1721228705654
-14.53,-24.85,-40.49,0.22,1.97,-0.35,1721228705664
2.44,-7.07,10.57,-1.02,0.56,0.50,1721228705674
4.96,45.54,14.30,1.03,-0.70,0.73,1721228705684
12.51,-14.31,-66.03,0.79,-0.30,-0.38,1721228705694
9.22,-74.51,71.67,-2.94,1.77,-2.96,1721228705704
-14.83,42.17,78.45,0.89,-2.36,-0.53,1721228705714
-8.98,-49.04,-31.15,1.75,1.58,0.47,1721228705724
-16.24,52.44,-66.86,0.84,-0.76,3.71,1721228705734
30.11,9.24,-9.19,-0.85,2.16,1.54,1721228705744
22.22,-36.33,58.74,-0.42,-0.36,-0.30,1721228705754
4.43,26.71,37.14,0.88,-0.68,-1.14,1721228705764
11.46,-19.14,0.23,2.09,-0.72,-0.87,1721228705774
-5.25,-16.80,-28.11,-3.49,0.43,1.13,1721228705784
0.10,70.28,78.45,-0.71,1.37,0.06,1721228705794
4.78,14.45,19.25,1.36,-0.05,1.34,1721228705804
2.78,-22.06,-53.69,2.24,1.51,1.85,1721228705814
13.06,-26.47,-50.81,-4.37,0.83,-0.78,1721228705824
30.82,-35.40,27.58,-4.37,4.37,-2.85,1721228705834
32.91,78.45,78.45,2.34,-4.37,0.44,1721228705844
-38.55,-78.45,-38.93,4.37,2.46,1.73,1721228705854
3.73,-33.65,-78.45,4.37,-4.37,2.69,1721228705864
53.94,31.37,-68.75,-0.15,0.74,0.35,1721228705874
-5.59,-78.45,78.45,-1.06,4.37,-2.23,1721228705884
10.65,78.45,78.45,0.09,-4.35,2.43,1721228705894
21.25,-31.34,19.34,-0.03,2.62,-2.47,1721228705904
0.24,-6.73,-53.65,-0.10,-1.83,-0.68,1721228705914
-50.97,-45.52,-9.52,-1.71,-3.13,-0.33,1721228705924
-24.84,36.81,15.91,-0.13,-0.07,0.77,1721228705934
-8.89,14.73,-16.92,1.43,-0.50,0.92,1721228705944
5.34,44.83,-30.20,1.45,-0.81,1.92,1721228705954
-0.87,36.72,19.57,-0.86,3.08,0.24,1721228705964
15.28,-16.90,15.17,-2.43,-0.19,-0.77,1721228705974
3.77,-51.58,-2.34,0.81,-0.81,-2.48,1721228705984
-14.77,-11.94,10.14,0.95,-1.25,-1.66,1721228705994
-26.71,31.24,9.46,-0.07,-0.20,0.16,1721228706004
1.61,-30.87,44.73,0.63,-0.45,1.63,1721228706014
-1.93,-5.44,2.27,2.00,0.42,1.94,1721228706024
24.32,20.24,-50.69,0.09,0.82,1.91,1721228706034
35.83,20.68,-25.14,-1.79,0.46,0.54,1721228706044
12.72,-78.45,65.00,-2.47,2.09,-1.44,1721228706054
-0.27,-2.64,77.91,0.46,-1.39,-1.88,1721228706064
-13.47,12.15,-13.60,1.87,-1.34,-2.03,1721228706074
-34.75,-19.10,-47.42,0.78,-4.37,0.32,1721228706084
-7.47,-34.11,39.76,-2.65,4.37,0.76,1721228706094
-4.11,40.30,36.58,-0.15,0.50,2.74,1721228706104
30.06,6.65,-0.54,3.24,1.60,1.42,1721228706114
23.18,-26.60,-51.44,0.36,-3.27,0.75,1721228706124
-4.24,4.37,-30.16,-3.79,3.81,-0.97,1721228706134
-9.60,26.63,78.45,-1.52,0.26,-1.43,1721228706144
5.47,-22.89,-10.95,1.84,0.31,-2.05,1721228706159
-47.52,-78.45,-48.54,1.05,0.17,-0.12,1721228706163
-24.93,-8.03,-51.86,-0.56,-1.75,-0.67,1721228706173
-21.44,17.18,37.62,-0.06,-0.05,1.02,1721228706183
-17.42,9.17,30.01,-0.22,0.86,1.46,1721228706193
11.73,-10.75,-18.44,0.55,-0.33,1.81,1721228706203
9.90,-5.13,20.72,-1.28,1.51,0.34,1721228706213
10.77,36.20,36.89,0.18,-0.66,-0.42,1721228706223
7.84,-2.67,-9.33,0.46,-0.58,-0.65,1721228706233
-4.63,-17.02,-3.03,-0.14,0.34,-1.12,1721228706243
-9.72,4.55,43.87,0.61,-0.55,-0.81,1721228706253
-2.05,-1.55,-8.64,0.57,-0.43,-0.30,1721228706263
-11.90,2.87,-24.05,0.00,0.42,1.57,1721228706273
-1.89,4.08,1.91,-1.37,1.07,1.24,1721228706283
4.32,12.45,19.37,-0.15,-0.16,1.48,1721228706293
20.94,-70.92,-24.62,-1.07,1.23,-0.80,1721228706303
-7.49,-19.99,75.19,0.15,-0.23,-1.90,1721228706313
-19.42,62.99,76.46,1.02,1.34,-2.48,1721228706323
-4.54,-4.35,-6.89,4.37,0.19,-1.82,1721228706333
5.09,36.69,-78.45,-0.56,0.28,1.98,1721228706343
-8.14,-23.57,-30.70,-1.27,2.98,2.51,1721228706353
-55.42,-51.35,-17.83,0.06,4.37,-2.49,1721228706363
33.69,78.45,22.50,1.93,-0.23,0.52,1721228706373
1.85,-64.36,-78.45,2.75,-0.21,0.01,1721228706383
3.14,-8.16,-42.96,-0.11,-1.41,0.17,1721228706393
-12.46,-45.08,2.30,-2.25,3.78,-1.24,1721228706403
42.69,78.45,78.45,-0.42,0.21,-0.08,1721228706413
-11.38,17.80,27.68,0.26,-0.33,0.40,1721228706423
-1.64,-64.28,-26.87,0.02,0.65,0.98,1721228706433
5.31,-17.73,-6.22,-1.79,0.63,0.83,1721228706443
9.39,29.15,30.33,0.14,-1.04,-0.70,1721228706453
-10.19,-78.37,-41.91,1.52,-1.47,-0.82,1721228706463
-8.01,3.58,65.38,-1.73,1.58,-0.29,1721228706473
-33.75,29.25,65.79,-0.44,-0.09,0.27,1721228706483
-41.69,-78.45,-25.58,0.36,-0.16,0.77,1721228706493
12.14,14.31,-15.22,-1.25,0.23,0.52,1721228706503
1.69,5.68,1.59,0.01,0.64,1.50,1721228706513
9.98,-14.18,-37.94,0.82,-0.81,0.45,1721228706523
8.29,-0.07,-23.43,-0.74,-0.03,-0.71,1721228706533
0.61,20.79,68.40,0.18,0.61,-1.13,1721228706543
-11.03,78.01,65.74,0.56,-0.01,-0.97,1721228706553
-37.72,-78.45,-65.58,3.06,0.10,0.64,1721228706563
-34.35,16.88,-63.93,-3.49,0.25,0.77,1721228706573
-33.29,78.45,73.64,0.39,0.80,2.33,1721228706583
1.81,-32.16,-49.53,1.59,-0.04,0.28,1721228706593
21.84,10.69,-67.53,0.09,-0.18,0.18,1721228706603
18.64,-40.85,-3.61,-3.86,4.37,-0.88,1721228706613
-33.74,0.59,78.45,-0.29,0.80,-0.19,1721228706623
-28.96,24.15,13.22,1.27,3.19,-0.68,1721228706633
-5.05,-48.93,-44.60,2.82,1.61,-1.14,1721228706643
9.00,47.60,-66.45,1.59,-2.46,0.02,1721228706653
-15.01,25.77,0.59,0.22,-3.77,1.24,1721228706663
15.28,55.78,6.60,-3.37,2.41,0.63,1721228706673
16.96,-55.76,15.22,-1.08,-1.27,-0.16,1721228706683
4.41,-32.48,32.89,0.00,-0.00,0.85,1721228706693
-11.91,60.45,52.96,-1.07,1.26,2.22,1721228706703
16.42,19.01,-15.48,2.45,-0.08,0.36,1721228706713
17.89,-47.13,-55.06,1.90,-1.00,-0.38,1721228706723
-4.32,28.90,-28.36,-3.40,0.76,-1.28,1721228706733
5.10,78.45,78.45,1.01,-1.92,-2.00,1721228706743
-17.28,-27.72,-2.33,-1.75,2.10,-0.64,1721228706753
-18.13,-26.62,-78.45,1.76,-0.76,0.83,1721228706763
19.97,-30.16,10.91,-4.37,3.37,-0.14,1721228706773
-14.31,78.45,39.76,1.05,-0.01,0.30,1721228706783
21.72,-35.08,-39.35,3.11,-0.37,0.53,1721228706793
11.14,-20.20,-41.81,-2.28,0.07,-0.73,1721228706803
-1.17,10.59,29.11,-1.05,-0.23,-1.48,1721228706813
23.25,-21.09,12.85,1.42,0.84,-1.77,1721228706823
-7.51,-6.19,-1.56,-0.46,-0.35,-0.19,1721228706833
-23.74,31.41,20.09,0.62,0.98,0.43,1721228706843
11.84,5.26,-78.45,1.10,-0.69,0.36,1721228706853
7.58,-28.59,-38.86,-1.77,0.63,0.43,1721228706863
-29.56,-33.56,78.45,-1.53,0.88,-1.22,1721228706873
2.18,1.88,7.60,-1.06,2.55,-2.04,1721228706883
-11.82,-1.27,-28.53,1.74,0.30,-1.12,1721228706893
-20.69,11.51,-32.25,0.81,-1.56,2.02,1721228706903
-3.75,43.68,43.78,-0.14,3.91,1.26,1721228706913
9.03,-14.69,-15.88,-0.35,-1.53,0.54,1721228706923
-0.63,-18.30,45.54,-0.70,0.66,-1.95,1721228706933
31.70,48.25,73.09,1.00,-2.06,-1.59,1721228706943
-2.73,-2.10,5.65,1.85,0.47,-1.72,1721228706953
-10.08,14.05,-16.55,0.32,-0.18,1.53,1721228706963
-12.98,34.00,39.00,0.01,1.18,1.92,1721228706973
9.18,-12.60,-2.83,-0.24,-0.26,0.81,1721228706983
26.46,32.04,28.74,-2.02,1.36,-1.40,1721228706993
12.88,-6.47,38.65,0.19,-0.67,-1.10,1721228707003
-10.46,-6.59,24.28,-0.54,-0.56,-1.58,1721228707013
-53.18,56.79,22.03,2.23,-0.05,-0.37,1721228707023
-15.39,7.44,-16.27,0.20,-0.55,0.63,1721228707033
-1.28,4.50,39.52,-1.02,1.13,1.67,1721228707043
13.75,0.77,22.05,0.41,0.23,1.65,1721228707053
5.60,-3.72,-4.90,-0.15,-0.04,0.64,1721228707063
5.32,-13.74,8.43,-0.83,0.18,-1.23,1721228707073
-1.51,3.84,40.11,0.98,-1.11,-1.03,1721228707083
-11.89,29.09,-2.92,1.43,-0.27,0.01,1721228707093
-4.61,18.01,-41.08,-0.19,1.20,0.53,1721228707103
-4.95,-42.91,-3.26,-4.37,1.22,0.63,1721228707113
-0.82,-14.45,60.23,3.13,-1.66,0.54,1721228707123
-45.72,36.77,-3.54,4.37,-0.28,1.79,1721228707133
-5.93,-21.09,-45.10,-1.11,0.04,0.72,1721228707143
-8.59,-51.54,-1.25,-4.37,1.27,0.49,1721228707153
-39.02,78.45,33.31,1.46,-2.39,-0.18,1721228707163
5.05,-12.48,-10.04,3.47,-0.41,-0.58,1721228707173
21.77,33.06,-16.56,-2.85,-0.81,0.08,1721228707183
-0.16,2.14,20.07,-0.66,2.45,0.33,1721228707193
3.43,-21.90,-1.17,2.00,-0.87,-0.44,1721228707203
4.13,6.04,-17.91,0.37,-1.34,-0.40,1721228707213
-0.72,29.02,43.41,0.21,0.90,0.29,1721228707223
7.91,-17.68,6.51,0.37,0.15,0.19,1721228707233
-0.72,-37.39,16.97,0.07,0.09,-0.55,1721228707243
-6.65,12.08,21.99,0.11,-0.10,-0.15,1721228707253
-1.18,7.53,21.21,0.20,0.08,0.87,1721228707263
-6.76,43.34,20.92,0.76,0.69,1.39,1721228707273
10.25,-2.25,-2.65,0.63,-0.17,1.14,1721228707283
7.81,-57.54,35.45,-1.32,0.17,-1.56,1721228707293
-3.55,34.91,34.08,1.10,-2.07,-1.07,1721228707303
-10.76,-12.59,23.54,0.41,0.46,0.04,1721228707313
-0.08,-2.83,16.14,0.69,-0.10,1.81,1721228707323
22.02,18.97,-8.99,0.80,0.62,0.51,1721228707333
17.10,23.25,13.90,0.55,0.57,-0.56,1721228707343
4.14,3.89,-8.94,-0.18,-0.71,-1.35,1721228707353
-12.03,-35.52,-20.71,0.51,-0.56,-2.22,1721228707363
-17.27,-29.02,-1.47,-0.49,-0.10,-0.04,1721228707373
-16.90,7.27,70.50,0.61,-0.18,0.37,1721228707383
1.29,37.47,33.34,1.29,0.78,1.03,1721228707393
26.94,47.97,-78.45,1.64,-0.44,0.64,1721228707403
15.81,-24.81,-43.23,-2.92,0.91,0.28,1721228707413
23.47,-69.11,78.45,-1.72,0.68,-1.17,1721228707423
18.98,53.96,78.45,1.94,-1.32,-1.74,1721228707433
-24.25,7.48,-45.05,4.37,0.81,-0.87,1721228707443
-12.22,38.98,-78.45,0.96,0.99,0.35,1721228707453
-68.38,-35.13,-78.45,-0.23,-4.37,2.72,1721228707463
45.71,-78.45,78.45,-4.37,4.37,1.87,1721228707473
33.79,78.45,78.45,2.76,-3.01,0.46,1721228707483
23.06,-47.91,-26.85,4.37,1.19,-1.43,1721228707493
-3.37,5.01,-57.24,0.20,-4.27,-0.25,1721228707503
28.83,-45.06,27.64,-4.30,4.37,-0.25,1721228707513
28.78,8.59,-7.34,1.05,-1.79,-1.03,1721228707523
4.64,-6.40,13.47,3.40,-0.73,-1.14,1721228707533
1.23,-0.99,-33.20,0.28,-0.15,0.16,1721228707543
5.01,-17.60,-3.25,-2.86,2.26,0.01,1721228707553
-3.64,20.10,78.45,2.33,-1.33,0.43,1721228707563
-5.72,72.83,10.73,1.40,-0.15,0.19,1721228707573
-15.48,-78.45,-30.70,0.52,-0.18,0.28,1721228707583
-12.12,-46.88,-32.26,-1.91,0.03,-0.11,1721228707593
-1.40,51.28,60.00,0.96,-1.11,-0.25,1721228707603
-1.78,-26.18,14.56,0.70,0.40,-0.36,1721228707613
5.04,43.38,-2.39,1.31,-0.24,0.86,1721228707623
-0.71,24.83,6.57,0.85,0.89,0.75,1721228707633
7.89,-12.07,25.14,-0.35,0.78,0.66,1721228707643
7.46,-21.71,41.10,-0.30,0.27,-1.31,1721228707653
-10.47,27.28,9.59,1.75,-0.86,-0.72,1721228707663
-11.77,-52.94,-35.54,1.31,-1.25,-0.37,1721228707673
-3.59,28.52,-7.09,-1.28,0.74,0.21,1721228707683
2.43,-27.76,21.65,-1.13,-0.47,-0.16,1721228707693
0.67,25.90,53.36,0.95,-0.26,-0.93,1721228707703
-0.81,17.19,-1.97,1.52,-0.53,-0.11,1721228707713
-14.89,-46.90,-26.52,-2.06,1.20,0.19,1721228707723
-4.54,-5.15,10.91,0.39,0.14,-0.08,1721228707733
-23.93,9.08,-24.31,2.68,-0.96,0.41,1721228707743
-7.01,-24.09,-34.61,-1.49,-0.21,0.86,1721228707753
0.62,18.98,61.03,-0.17,1.65,0.25,1721228707763
15.20,51.58,74.84,1.18,0.71,0.32,1721228707773
-19.83,-78.45,-78.45,3.57,0.15,1.43,1721228707783
-8.57,-5.96,-23.15,-3.02,-0.66,0.77,1721228707793
2.75,-2.78,21.31,0.80,1.79,0.87,1721228707803
-6.55,-35.74,10.29,0.16,0.92,0.82,1721228707813
17.71,48.03,-8.13,-1.15,0.87,-1.38,1721228707823
-10.72,21.47,0.22,-0.76,-0.56,0.12,1721228707833
-1.17,-78.45,-14.18,-2.73,0.22,-1.40,1721228707843
-10.42,1.21,39.23,0.50,-0.46,0.45,1721228707853
16.88,34.87,-11.50,1.61,-0.39,-0.03,1721228707863
-4.29,-11.12,-13.83,-0.71,0.81,0.71,1721228707873
0.41,44.85,31.89,1.43,0.12,0.91,1721228707883
17.51,9.77,-16.73,-0.42,-0.46,0.26,1721228707893
27.32,-59.66,63.47,-2.71,1.79,-1.69,1721228707903
-5.37,-12.12,78.45,1.85,-3.61,-2.24,1721228707913
-25.11,20.49,18.44,2.59,-1.45,-1.01,1721228707923
-31.41,13.16,-44.90,4.37,-1.41,3.81,1721228707933
19.15,-11.67,-67.87,-0.29,-0.34,3.67,1721228707943
48.60,-19.16,-27.70,-0.37,4.37,2.32,1721228707953
-5.33,-47.45,47.62,-3.21,2.75,-3.25,1721228707963
-49.95,22.56,-15.27,1.08,-3.52,-4.37,1721228707973
-11.73,8.47,-2.87,2.79,-1.22,-3.19,1721228707983
-37.55,37.37,-78.45,3.41,-2.54,1.55,1721228707993
-37.71,-15.91,-78.45,-0.52,4.37,3.79,1721228708003
-19.29,-32.58,-31.68,-4.37,4.37,1.77,1721228708013
-29.39,13.10,71.45,0.25,-3.68,1.76,1721228708023
33.78,48.00,69.86,1.14,0.08,1.09,1721228708033
2.21,10.61,-41.00,0.30,-0.65,2.35,1721228708043
11.32,9.89,-52.11,1.96,0.19,0.98,1721228708053
17.97,-11.21,-27.10,-0.60,0.07,0.49,1721228708063
11.88,-22.86,-1.81,-2.07,1.92,-1.17,1721228708073
2.35,17.80,53.91,0.39,-2.13,-1.67,1721228708083
-19.89,3.83,41.39,0.12,0.71,-1.11,1721228708093
-13.43,11.83,-4.64,0.86,-0.40,1.01,1721228708103
0.46,-1.35,2.52,0.17,0.67,1.43,1721228708113
13.36,-13.22,-6.44,0.34,0.90,0.47,1721228708123
6.29,7.82,0.11,0.35,-0.35,-0.41,1721228708133
-1.31,-11.33,13.13,-0.04,-0.51,-1.40,1721228708143
-9.88,-6.26,56.29,-0.11,-0.63,-0.61,1721228708153
-19.16,15.39,-11.97,1.91,-0.33,1.10,1721228708168
-6.49,2.22,-63.65,0.96,-0.50,0.96,1721228708172
-1.94,-28.91,-15.49,-0.58,0.30,1.19,1721228708182
8.06,-17.82,2.46,0.82,0.60,0.29,1721228708192
-12.60,13.19,-7.31,2.28,-1.16,-0.19,1721228708202
-1.57,-4.11,-1.68,-2.83,1.36,-0.47,1721228708212
-0.24,31.98,72.39,2.29,-1.52,-0.41,1721228708222
9.32,-27.38,-11.06,2.86,-0.24,-1.38,1721228708232
-19.75,-72.98,-78.45,-0.09,0.39,-1.00,1721228708242
-1.68,-64.13,27.28,-4.37,1.73,-0.90,1721228708252
35.07,78.45,78.45,2.64,-0.64,0.81,1721228708262
3.61,-12.73,-21.82,3.49,1.03,1.42,1721228708272
22.98,23.49,-78.45,2.09,-0.34,0.92,1721228708282
-21.10,-35.44,-14.02,-1.45,-4.37,-0.62,1721228708292
49.61,14.94,26.07,-4.31,4.37,-2.17,1721228708302
-78.45,53.55,78.45,-1.70,-3.05,0.48,1721228708312
-21.55,-78.45,-58.06,4.37,-1.96,-0.90,1721228708322
42.92,65.25,-35.40,-3.82,0.86,0.96,1721228708332
-29.15,-13.55,57.32,-1.18,0.09,1.36,1721228708342
-34.34,-21.72,57.30,0.71,0.66,0.87,1721228708352
-7.47,-78.45,-49.03,0.97,-0.88,0.72,1721228708362
15.54,-5.79,7.07,-1.69,0.02,-0.63,1721228708372
-14.85,66.81,59.95,-0.01,-0.91,0.08,1721228708382
13.13,-23.61,-23.49,2.38,-0.95,-0.21,1721228708392
10.62,-7.17,-16.49,-3.39,1.78,-0.69,1721228708402
-10.22,68.93,71.47,1.21,-2.40,-0.75,1721228708412
-16.02,36.31,0.36,0.76,-0.27,0.02,1721228708422
-19.42,-78.45,-30.86,-1.01,-0.32,0.75,1721228708432
15.70,-35.29,1.09,-3.55,1.48,-0.25,1721228708442
-6.94,7.17,71.79,0.82,-1.34,-0.31,1721228708452
-21.62,39.02,16.26,1.63,-0.30,-0.04,1721228708462
-7.29,8.86,-32.22,-0.04,0.41,0.05,1721228708472
-1.95,-8.87,-5.48,-1.55,1.25,0.32,1721228708482
17.62,25.50,13.51,0.56,0.16,0.97,1721228708492
0.99,-20.41,-16.30,0.72,-0.31,0.43,1721228708502
10.03,-45.76,47.72,-0.91,0.12,-0.84,1721228708512
7.96,28.86,62.03,2.17,0.26,-0.52,1721228708522
5.29,-9.22,4.17,4.21,-0.55,-1.81,1721228708532
-14.09,11.58,-69.18,-0.91,1.42,-1.90,1721228708542
-21.17,-39.67,-15.64,-3.40,1.23,0.61,1721228708552
78.45,78.45,78.45,2.15,0.11,-0.02,1721228708562
5.80,0.42,35.04,1.75,-0.32,1.50,1721228708572
20.56,-32.28,-33.84,3.17,0.52,1.05,1721228708582
26.94,8.35,-77.80,-1.27,0.54,-0.13,1721228708592
-17.16,13.49,-43.45,-0.14,-0.89,-0.32,1721228708602
3.08,-64.65,-14.05,-4.37,3.62,-3.65,1721228708612
78.45,78.45,19.47,-0.15,2.30,-4.37,1721228708622
-13.24,38.38,15.06,4.37,0.34,0.60,1721228708632
-34.99,3.51,-78.45,4.37,-1.87,1.52,1721228708642
-57.72,-65.70,-60.67,-0.15,0.85,1.20,1721228708652
37.79,-63.59,-13.15,-4.37,4.37,-1.12,1721228708662
-71.01,78.45,78.45,0.60,-4.37,1.74,1721228708672
-1.83,22.69,78.45,-0.30,0.73,-0.84,1721228708682
3.02,30.85,51.39,1.90,-1.65,1.04,1721228708692
-5.71,8.40,-3.31,0.89,-0.25,-0.31,1721228708702
5.50,-21.26,-42.39,2.52,-4.37,-0.62,1721228708712
-17.66,5.84,-68.74,-0.11,1.59,1.24,1721228708722
7.82,-46.46,-26.68,-4.37,2.36,0.82,1721228708732
21.24,-2.48,78.45,0.41,3.76,-0.35,1721228708742
6.48,53.61,65.30,2.32,0.43,-2.78,1721228708752
-13.81,39.94,3.00,1.38,-1.79,-0.52,1721228708762
-26.36,10.36,-78.45,3.43,-2.70,0.10,1721228708772
-6.41,-31.97,-25.90,-3.20,-1.48,-0.13,1721228708782
6.98,-35.93,0.84,-2.95,2.05,1.29,1721228708792
14.20,53.24,1.35,1.44,-0.78,-0.02,1721228708802
4.72,-61.42,-49.20,-0.51,1.48,0.54,1721228708812
-3.12,-30.04,75.14,-0.91,4.37,0.93,1721228708822
2.44,36.60,78.45,-2.08,0.27,0.13,1721228708832
36.65,-45.79,-36.83,0.67,1.19,-1.21,1721228708842
2.81,1.21,-10.53,-0.35,-2.51,-0.20,1721228708852
-29.88,25.05,54.63,-2.36,1.04,-1.12,1721228708862
-14.00,2.21,-5.65,1.90,0.09,-0.19,1721228708872
-15.61,-43.45,-29.06,1.89,-2.50,1.47,1721228708882
-15.45,15.21,78.45,-3.22,1.76,1.59,1721228708892
2.55,69.96,78.45,-0.37,0.45,1.97,1721228708902
6.81,-12.20,-10.95,1.60,0.07,1.06,1721228708912
38.78,39.88,-24.93,1.01,-0.59,-1.20,1721228708922
18.05,-23.71,-24.40,-0.90,0.81,-1.22,1721228708932
-22.72,-78.45,78.45,-2.26,-0.16,-3.12,1721228708942
-10.31,32.06,51.66,0.52,-1.12,-2.43,1721228708952
-20.49,23.32,13.68,1.49,0.18,-0.59,1721228708962
-5.09,-11.96,-12.68,-0.63,-0.55,2.21,1721228708972
-12.18,44.99,46.46,-0.17,1.45,2.37,1721228708982
-2.65,-8.98,-63.23,0.25,-0.16,1.27,1721228708992
0.95,-37.23,9.07,-2.00,2.72,-1.06,1721228709002
5.49,47.67,51.91,1.30,-2.01,-1.28,1721228709012
-2.45,-15.41,-23.65,1.74,-0.54,-1.82,1721228709022
-4.00,7.88,-2.21,-0.61,-0.48,0.29,1721228709032
-11.18,23.38,13.01,1.98,0.13,1.42,1721228709042
-6.99,-78.45,-11.13,-2.16,1.17,1.00,1721228709052
15.30,26.67,78.45,0.31,-0.29,-0.94,1721228709062
0.34,7.41,-7.59,2.34,-1.54,-0.31,1721228709072
-13.59,-40.46,-40.84,-0.44,1.27,0.55,1721228709082
20.80,-36.63,36.43,-3.84,4.37,0.51,1721228709092
-11.51,-17.64,78.45,0.60,-0.40,-0.62,1721228709102
-2.62,12.58,65.21,2.20,0.29,-1.56,1721228709112
2.78,35.36,-60.31,2.36,-0.36,-0.39,1721228709122
-9.67,-23.18,-38.24,-1.90,0.24,0.83,1721228709132
-4.75,12.20,29.56,-1.80,3.06,0.55,1721228709142
-5.58,-29.07,24.26,0.79,-0.05,0.04,1721228709152
7.33,30.26,43.72,0.98,-1.86,-0.67,1721228709162
3.21,22.51,-7.44,0.76,-0.25,-0.34,1721228709172
-9.74,-32.57,-19.15,-2.22,1.12,-0.04,1721228709182
-10.64,-4.52,78.45,-1.46,0.91,-0.08,1721228709192
-12.24,38.08,-1.49,0.82,-0.43,-0.07,1721228709202
-1.40,-23.87,-25.97,-0.08,-1.51,-0.36,1721228709212
9.05,-23.18,1.64,-3.61,1.63,-1.11,1721228709222
-7.95,-20.38,50.78,1.25,-1.74,-1.00,1721228709232
-6.20,24.81,18.58,3.62,-1.47,0.04,1721228709242
-7.31,8.37,-49.07,-0.77,1.96,0.84,1721228709252
5.46,-26.13,-15.41,-2.38,1.29,0.76,1721228709262
12.09,-19.22,3.77,-0.84,0.93,0.11,1721228709272
12.12,-7.64,35.10,0.65,1.19,-0.54,1721228709282
4.58,9.13,-14.61,1.95,-1.04,-0.86,1721228709292
4.68,39.53,-22.26,-0.32,-0.30,-0.42,1721228709302
-0.25,2.20,25.05,-2.20,1.72,-0.82,1721228709312
-1.27,-31.45,29.98,-0.00,0.80,-0.20,1721228709322
3.24,2.22,-4.20,2.72,-0.36,0.60,1721228709332
6.75,-19.55,-56.02,1.15,-1.11,-0.40,1721228709342
41.87,-78.45,69.04,-3.47,4.37,-4.07,1721228709352
13.97,78.45,78.45,3.00,-4.37,-0.80,1721228709362
-9.76,10.31,-7.95,3.72,1.39,0.57,1721228709372
9.47,-13.85,-78.32,1.44,-1.02,1.76,1721228709382
6.09,-20.99,-11.24,-3.89,1.37,0.99,1721228709392
-8.00,77.28,44.64,0.79,-0.31,-0.27,1721228709402
21.64,-25.74,-26.57,3.88,-1.94,-1.59,1721228709412
1.60,1.60,-28.02,-1.96,0.38,-2.69,1721228709422
-13.89,-68.12,-1.46,-3.08,3.75,-2.96,1721228709432
-21.97,15.89,78.45,2.37,-2.88,-1.00,1721228709442
-38.08,31.08,2.85,3.23,0.85,2.10,1721228709452
-9.00,14.30,-46.96,-0.56,1.35,2.15,1721228709462
15.05,-48.49,-27.06,-2.79,1.91,1.54,1721228709472
1.54,-27.15,59.67,0.71,0.00,-0.45,1721228709482
-0.95,43.36,49.28,1.42,-0.53,-0.48,1721228709492
-4.01,-27.05,-38.74,1.88,-0.02,-0.74,1721228709502
21.74,14.30,-45.65,0.50,-0.01,-0.15,1721228709512
7.68,37.66,-5.16,-0.13,-0.37,0.48,1721228709522
2.49,-26.55,34.66,-2.62,0.99,-0.58,1721228709532
-12.32,-2.77,34.62,0.30,-1.56,-1.04,1721228709542
-49.70,-78.45,-10.23,0.66,0.61,-0.13,1721228709552
3.22,8.67,-3.23,-0.58,-0.03,0.10,1721228709562
-3.01,11.59,46.77,0.10,0.25,0.99,1721228709572
4.40,-12.77,10.30,0.70,0.25,0.44,1721228709582
3.64,-6.97,-30.16,1.03,-1.14,-0.26,1721228709592
4.68,18.42,-8.17,-2.31,0.61,-0.28,1721228709602
0.23,23.19,34.97,0.56,-0.95,0.30,1721228709612
14.44,-26.45,-22.81,2.42,-0.78,-0.98,1721228709622
2.16,-4.80,-6.53,-2.25,0.89,-1.00,1721228709632
-14.86,45.16,78.45,-0.35,0.98,-0.65,1721228709642
-1.83,61.72,78.45,2.36,-1.16,-0.15,1721228709652
-7.26,15.04,-22.16,1.59,-1.51,0.94,1721228709662
-2.78,-29.43,-45.31,-0.34,0.16,0.48,1721228709672
3.16,-12.73,-44.11,-0.92,0.62,0.90,1721228709682
17.97,-46.41,-13.95,-4.37,1.20,-1.00,1721228709692
-6.33,19.39,78.45,0.56,0.04,0.06,1721228709702
5.83,41.59,20.83,2.52,-1.05,0.05,1721228709712
-31.13,20.48,-44.00,4.32,-1.88,1.70,1721228709722
12.50,-44.91,-48.40,-3.79,0.80,-0.71,1721228709732
19.35,-58.69,78.45,-3.43,4.37,-0.50,1721228709742
-58.38,78.45,-3.06,4.37,-4.37,0.85,1721228709752
8.17,-43.25,-25.34,4.05,0.78,-1.79,1721228709762
26.46,-14.09,-78.45,2.61,-3.26,1.03,1721228709772
28.07,-78.45,10.63,-2.15,4.37,1.52,1721228709782
-78.45,60.93,-13.37,-0.90,-1.66,1.97,1721228709792
-4.58,6.05,71.16,4.37,2.10,1.15,1721228709802
-9.67,5.77,-78.45,4.37,-1.84,0.83,1721228709812
-24.02,34.45,-53.24,-0.35,-4.37,2.41,1721228709822
78.45,-78.45,-42.73,-4.37,4.37,-1.76,1721228709832
-10.15,-78.45,78.45,0.09,-4.04,-2.05,1721228709842
51.12,78.45,78.45,-0.27,4.37,-1.12,1721228709852
-42.71,-78.45,-78.45,4.37,0.87,1.57,1721228709862
16.32,-6.51,-78.45,0.09,-0.97,1.67,1721228709872
28.34,-72.67,-78.45,-4.37,4.37,-1.63,1721228709882
-0.14,-35.61,12.94,-0.19,1.21,-2.92,1721228709892
-78.45,36.70,78.45,-0.67,3.57,0.22,1721228709902
0.02,-23.00,-32.37,4.37,-0.33,0.30,1721228709912
10.81,25.93,-78.45,4.37,-2.62,1.66,1721228709922
27.52,-77.02,-29.42,-1.32,-0.39,0.08,1721228709932
29.34,-31.00,34.67,1.13,4.37,-2.81,1721228709942
-11.26,78.45,78.45,-0.07,-2.78,-0.06,1721228709952
-39.14,-78.45,-51.43,4.37,2.68,0.26,1721228709962
-7.52,14.89,-74.32,-0.32,-2.10,0.13,1721228709972
7.73,-78.45,23.36,-4.28,4.37,-0.50,1721228709982
-60.63,-19.75,78.45,1.48,-2.24,-0.38,1721228709992
-7.95,-36.40,-72.36,1.54,0.26,-0.78,1721228710002
-0.71,-5.91,-34.80,0.56,-2.06,-0.29,1721228710012
-62.15,7.04,40.08,-1.96,0.62,0.59,1721228710022
6.27,12.66,24.23,0.97,-0.44,0.70,1721228710032
16.20,-78.45,-20.73,-1.48,1.17,1.02,1721228710042
64.00,78.45,73.42,-0.45,0.20,-0.86,1721228710052
5.33,2.72,2.33,0.81,-0.31,1.03,1721228710062
-6.45,-33.37,3.95,-0.59,0.21,-0.06,1721228710072
-30.51,78.45,59.92,1.62,-1.11,-0.60,1721228710082
4.77,-13.42,-31.24,3.14,0.92,-0.99,1721228710092
-4.98,-33.30,-53.26,-2.14,0.43,-0.73,1721228710102
-43.23,-78.45,78.45,-3.73,4.15,-0.99,1721228710112
-24.34,8.98,-38.70,1.19,-0.71,1.47,1721228710652
-7.11,13.87,-55.81,0.70,-0.62,0.65,1721228710657
-9.80,-27.20,-18.03,-2.84,0.77,1.07,1721228710666
-0.93,-2.19,57.70,0.73,0.74,-0.07,1721228710676
5.13,78.45,10.92,1.85,-0.92,-0.36,1721228710685
-24.79,-64.82,-33.08,-0.92,0.73,0.55,1721228710695
3.76,-16.79,0.25,-2.62,1.25,0.87,1721228710704
46.95,78.45,17.55,2.71,0.71,1.39,1721228710714
12.07,-32.52,-51.39,1.90,-1.17,0.59,1721228710723
20.44,-32.21,0.85,-4.07,2.93,-1.15,1721228710733
-31.82,39.94,78.45,0.76,-4.37,-0.00,1721228710742
-24.90,53.92,29.27,1.38,2.47,-1.00,1721228710752
-49.69,-78.45,-51.10,1.17,0.02,1.39,1721228710761
19.70,17.78,-24.02,-0.30,-0.27,0.77,1721228710771
-8.65,-1.10,-7.95,-3.07,0.98,1.62,1721228710780
2.97,-26.76,43.22,0.75,-0.46,0.24,1721228710790
2.35,-2.98,45.01,1.15,-1.10,-0.97,1721228710799
-0.85,15.02,2.94,0.50,-0.57,0.06,1721228710809
-9.12,8.09,-18.14,0.29,0.88,2.09,1721228710818
8.51,-18.34,-14.72,-0.40,1.03,0.44,1721228710828
8.73,-14.89,17.78,0.09,-1.15,-0.82,1721228710837
20.73,78.45,40.47,2.43,-0.83,-1.39,1721228710847
-0.28,19.41,-39.80,1.09,-0.26,0.43,1721228710856
-16.75,-78.45,-27.73,-2.88,1.55,0.80,1721228710866
-15.78,-78.45,78.45,0.52,-0.01,-0.95,1721228710875
-21.76,78.45,42.20,0.78,1.17,0.93,1721228710885
16.40,-60.58,-76.37,2.14,0.03,-0.19,1721228710894
22.78,-3.38,-16.69,-1.93,0.48,-0.61,1721228710904
23.93,59.85,14.10,0.04,0.18,-1.05,1721228710913
-20.52,40.27,-12.14,2.86,-0.11,0.10,1721228710923
-24.77,-78.45,-75.78,-2.30,0.93,-0.34,1721228710932
-34.06,-78.45,78.45,-1.98,1.49,-0.55,1721228710942
30.76,59.04,78.45,0.61,1.37,0.01,1721228710951
3.91,-2.65,7.35,2.39,1.46,0.66,1721228710961
14.36,12.46,-52.99,1.77,-0.99,1.49,1721228710970
10.53,-21.40,-50.11,-2.63,2.45,-0.45,1721228710980
10.45,-13.60,50.25,-1.88,2.58,-1.35,1721228710989
7.54,78.45,11.87,1.15,-0.11,-2.06,1721228710999
-20.62,-78.45,-68.66,1.23,-0.23,-2.43,1721228711008
3.69,-5.53,-78.45,1.03,-0.81,-0.71,1721228711018
-72.87,-78.45,33.80,0.54,-4.37,0.97,1721228711027
-43.43,43.13,-0.03,1.48,-1.34,-2.28,1721228711037
-24.10,-39.73,20.20,3.38,0.72,1.15,1721228711046
6.30,38.08,-73.43,3.26,-1.36,2.50,1721228711056
-69.31,-74.20,19.03,-0.38,-4.37,2.75,1721228711065
74.28,-1.08,78.45,-1.70,4.37,-0.97,1721228711075
16.83,78.45,24.02,2.97,2.30,-1.03,1721228711084
10.30,-74.68,-78.45,4.37,0.09,-1.38,1721228711094
4.63,-78.45,-78.45,-0.45,-2.39,-1.34,1721228711103
2.28,-78.45,-0.53,-4.37,4.37,-1.54,1721228711113
78.45,78.45,78.45,0.31,-0.68,0.50,1721228711122
-49.01,43.28,59.50,-1.12,4.37,0.25,1721228711132
22.52,-5.74,-78.45,4.37,1.57,0.33,1721228711141
-53.63,-21.35,-43.56,0.70,-4.37,1.10,1721228711151
31.92,-34.50,-67.97,-4.37,4.37,-0.11,1721228711160
-78.45,-57.90,78.45,-0.23,-2.09,-0.54,1721228711170
-0.70,78.45,78.45,-0.13,4.37,-0.47,1721228711179
-78.45,-78.45,-78.45,4.37,0.73,1.28,1721228711189
39.37,60.06,-56.42,1.90,-4.37,1.12,1721228711198
38.53,-72.90,11.67,-4.37,4.37,-1.72,1721228711208
-78.45,-78.45,78.45,-0.23,-4.37,-0.89,1721228711217
-63.07,14.90,78.45,-0.18,2.55,-0.13,1721228711227
-38.53,-78.45,-51.20,4.37,-1.96,0.65,1721228711237
-24.34,-24.65,-28.37,-0.96,-4.37,1.12,1721228711247
14.24,-18.35,78.45,-0.27,0.75,0.67,1721228711257
58.41,78.45,6.25,1.46,-0.72,0.56,1721228711267
11.65,-13.88,-78.45,4.37,-0.56,0.89,1721228711277
13.15,-2.78,-78.45,-2.81,-0.72,0.62,1721228711287
69.33,-4.86,64.78,-3.11,4.37,-2.09,1721228711297
4.78,-9.20,20.67,0.53,0.37,-1.13,1721228711307
-9.08,-15.81,-22.32,1.14,-1.76,-2.54,1721228711317
-11.25,36.05,22.04,-0.64,0.01,-0.32,1721228711327
-17.92,-15.54,25.79,-1.79,1.79,0.68,1721228711337
-5.32,-4.57,46.73,0.83,-0.57,1.73,1721228711347
8.38,-7.58,14.40,0.44,0.06,0.82,1721228711357
14.74,34.72,5.09,0.99,-0.32,-0.24,1721228711367
14.02,39.78,0.08,-0.25,-0.34,-0.02,1721228711377
4.39,16.93,57.43,-0.55,1.22,-0.48,1721228711387
1.68,-2.43,4.81,0.16,-0.37,-0.92,1721228711397
-9.49,-25.91,-35.04,2.00,-1.78,-0.15,1721228711407
-1.72,-25.05,-11.65,-2.23,0.11,-0.25,1721228711417
4.00,13.07,28.94,-0.35,0.17,0.95,1721228711427
-11.54,16.36,26.90,0.04,1.92,0.81,1721228711437
15.44,8.09,-22.10,0.85,0.12,0.13,1721228711447
0.95,-18.09,-9.93,-2.37,-0.00,-0.09,1721228711457
-8.92,29.55,78.45,-0.55,-0.50,-0.71,1721228711467
2.15,-21.27,-2.56,2.05,1.69,-1.23,1721228711477
-1.23,-15.57,-42.35,0.09,-0.75,0.10,1721228711487
-26.96,23.87,-17.74,-3.84,0.68,0.63,1721228711497
9.72,18.08,59.90,0.82,-0.60,0.52,1721228711507
3.61,3.58,7.50,0.35,0.40,0.26,1721228711517
4.22,-9.23,-78.45,2.12,-1.17,0.07,1721228711527
0.32,-21.35,-33.16,-1.91,0.41,-0.14,1721228711537
9.46,-61.70,42.28,-2.40,1.83,-1.85,1721228711547
-10.07,-20.06,25.71,0.92,-1.37,-1.12,1721228711557
-16.87,27.37,46.33,0.48,-0.41,0.47,1721228711567
2.21,7.00,21.00,0.35,1.69,0.91,1721228711577
16.38,18.82,-7.41,-0.52,-0.15,0.96,1721228711587
13.09,-7.87,-19.70,-0.08,0.46,-0.75,1721228711597
4.62,-45.26,-22.74,-0.23,-0.53,-1.59,1721228711607
-13.38,0.41,60.45,-0.43,-0.46,-1.16,1721228711617
-9.15,18.50,62.63,0.58,1.06,-0.69,1721228711627
-25.18,-39.38,-36.36,0.44,1.09,0.84,1721228711637
61.24,78.45,-50.76,1.20,-0.56,1.96,1721228711647
14.97,-11.14,10.13,-1.22,2.45,0.10,1721228711657
13.66,51.93,57.39,1.13,-1.88,-0.76,1721228711667
9.62,-16.53,6.43,0.09,-0.33,-1.55,1721228711677
0.07,-4.38,-0.25,-1.05,-0.12,-0.77,1721228711687
-27.62,28.53,19.17,-1.65,1.28,-0.20,1721228711697
-0.82,5.76,19.88,2.67,-0.83,0.65,1721228711707
21.98,56.66,-56.93,2.52,-0.74,1.12,1721228711717
8.39,12.23,-52.94,-0.49,1.36,0.94,1721228711727
2.62,-37.39,-8.00,-3.48,1.15,-0.45,1721228711737
-16.21,-9.21,78.45,2.74,-3.09,-1.04,1721228711747
-18.07,28.91,33.55,2.34,0.99,-0.49,1721228711757
-5.54,-11.10,-40.05,2.47,-0.20,2.29,1721228711767
19.02,26.32,-32.06,-4.37,2.04,1.19,1721228711777
30.54,14.55,77.88,-3.81,3.67,-0.06,1721228711787
11.44,36.27,-51.04,0.03,1.60,-3.37,1721228711797
-6.13,-17.63,-77.19,4.37,-1.55,0.17,1721228711807
7.08,-4.56,-78.45,0.33,1.30,0.36,1721228711817
10.69,-69.37,14.15,-1.53,2.82,-0.29,1721228711827
-36.48,-59.00,58.31,-0.40,4.37,-2.73,1721228711837
-0.10,45.87,78.45,-0.76,-0.81,2.01,1721228711847
-40.94,-40.96,-75.29,4.37,1.38,1.82,1721228711857
9.92,-78.45,-78.45,-4.12,-2.07,1.50,1721228711867
61.03,-71.18,26.42,-4.37,4.37,0.26,1721228711877
-78.45,72.40,78.45,-0.83,-2.64,-1.06,1721228711887
-20.08,-73.49,-29.33,4.37,-1.73,-0.75,1721228711897
-28.49,-45.29,-78.45,-3.60,2.12,-1.18,1721228711907
-16.33,-78.45,78.45,-3.00,4.37,1.64,1721228711917
18.74,78.45,47.27,-0.06,-0.27,1.93,1721228711927
1.15,-12.41,-18.90,2.60,-0.18,0.74,1721228711937
6.23,-19.75,-50.00,0.87,-1.53,-0.18,1721228711947
9.06,-33.32,13.26,-1.88,0.37,0.76,1721228711957
0.77,11.47,77.91,1.00,-0.04,-1.22,1721228711967
-39.11,46.20,29.90,0.89,0.35,-2.06,1721228711977
-16.72,66.53,-78.45,2.25,-1.47,0.20,1721228711987
-34.76,-78.45,-70.89,-0.61,0.47,1.16,1721228711997
-20.51,-50.88,40.93,-4.37,-0.49,1.41,1721228712007
68.02,78.45,6.81,4.30,-1.10,-2.76,1721228712017
8.14,-5.26,11.85,3.16,-0.91,-0.68,1721228712027
-6.49,-13.13,-28.69,-0.52,-0.41,-0.54,1721228712037
-10.56,-16.04,37.28,-0.09,3.43,0.60,1721228712047
0.55,-1.59,-9.67,-0.18,0.35,-0.70,1721228712057
6.78,-5.41,17.96,1.86,-0.09,0.01,1721228712067
-23.66,47.41,8.87,1.98,-0.63,0.50,1721228712077
-0.75,-34.62,-68.21,-1.35,0.50,-0.24,1721228712087
5.43,-64.73,68.22,-3.71,2.48,1.08,1721228712097
-60.78,29.07,78.45,0.57,-3.24,-0.28,1721228712107
40.11,54.32,-5.98,4.37,2.29,-0.19,1721228712117
4.18,-59.81,-78.45,4.33,-1.84,0.34,1721228712127
-25.26,5.74,-78.45,-0.01,-4.37,2.23,1721228712137
70.07,-15.03,78.45,-3.12,4.37,0.50,1721228712147
-28.69,43.43,78.45,0.84,-1.70,1.60,1721228712157
-28.71,33.52,-46.39,1.62,0.25,2.21,1721228712167
13.00,-27.99,33.66,-4.10,1.59,0.50,1721228712177
-10.41,-21.51,27.17,-1.31,0.80,-1.13,1721228712187
-7.19,-7.97,-24.83,1.72,-0.63,-0.64,1721228712197
-7.90,-17.63,-45.64,1.22,-2.94,0.74,1721228712207
4.13,-4.63,58.94,-0.50,0.91,1.62,1721228712217
47.45,67.60,42.39,-0.17,-0.59,1.46,1721228712227
2.10,-8.63,4.65,-0.28,0.36,-0.11,1721228712237
-0.35,1.08,6.44,0.82,-0.99,-0.74,1721228712247
-12.58,23.21,-60.44,0.87,-2.16,-0.29,1721228712257
-6.79,-37.47,-44.58,0.15,0.86,1.43,1721228712267
28.78,-22.37,18.90,-4.37,-0.13,0.54,1721228712277
36.06,78.45,6.15,1.31,-2.03,0.39,1721228712287
6.97,76.96,22.73,4.37,0.20,1.18,1721228712297
5.27,-24.61,-78.45,4.37,-1.69,1.80,1721228712307
-44.65,0.34,-32.40,-0.07,-4.37,3.08,1721228712317
67.78,-78.45,28.72,-4.37,4.37,-2.62,1721228712327
4.75,20.31,55.84,-0.50,-2.15,-4.00,1721228712337
13.25,61.19,40.68,2.83,-4.37,0.17,1721228712347
-43.12,-10.48,-78.45,1.60,1.85,2.22,1721228712357
0.45,-11.60,-29.68,0.89,-3.61,2.87,1721228712367
60.11,-78.45,21.41,-2.29,0.79,0.58,1721228712377
75.43,78.45,15.46,2.85,-0.37,-1.23,1721228712387
-13.11,1.75,-27.20,1.36,-2.84,-1.23,1721228712397
-6.90,-25.04,6.46,-1.37,0.57,-0.32,1721228712407
-11.85,41.12,32.24,0.96,-1.65,0.84,1721228712417
0.86,38.95,25.05,0.80,2.12,-0.66,1721228712427
12.07,-28.91,-65.80,4.02,-1.79,-0.52,1721228712437
-2.12,-41.55,-78.45,0.37,-0.22,0.22,1721228712447
-13.11,-64.80,-7.26,-1.20,-0.99,0.47,1721228712457
-45.01,53.84,-18.27,1.94,2.60,-2.39,1721228712467
1.38,-11.53,4.39,3.83,-1.05,0.92,1721228712477
0.70,58.71,-9.62,-2.92,-0.45,1.32,1721228712487
9.64,15.70,46.99,-2.46,3.90,-0.59,1721228712497
15.91,-56.70,15.60,1.17,-0.32,-2.00,1721228712507
-11.43,1.27,15.13,0.35,-2.18,-1.52,1721228712517
-16.60,38.59,34.84,0.26,1.10,-0.65,1721228712527
-11.71,16.59,-5.85,2.07,0.50,0.20,1721228712537
-7.86,9.17,-42.37,-0.33,-0.02,1.63,1721228712547
-4.14,-38.29,-17.00,-2.26,1.22,1.50,1721228712557
33.01,50.94,75.72,0.12,-0.43,-0.93,1721228712567
-4.91,-1.00,3.22,0.73,-1.49,-0.55,1721228712577
-10.86,-12.35,-47.16,-1.29,0.21,-1.39,1721228712587
-14.63,-0.04,60.15,-3.36,1.33,-1.04,1721228712597
12.62,43.19,62.88,2.61,-1.03,-0.16,1721228712607
-1.70,21.42,-44.81,1.23,-1.44,0.50,1721228712617
0.54,-24.76,-60.15,-0.29,2.37,0.60,1721228712627
8.09,-1.03,-46.05,-3.15,-0.67,-0.86,1721228712637
15.64,-20.88,78.45,-2.05,3.70,-1.21,1721228712647
-7.63,-8.60,68.35,-0.30,1.98,-0.36,1721228712662
-45.31,26.53,-18.54,2.98,0.74,0.94,1721228712666
-13.22,0.41,-52.04,1.90,-1.81,1.07,1721228712676
1.85,-33.92,17.63,-4.37,2.85,0.56,1721228712686
-13.36,47.57,10.71,1.13,0.25,0.56,1721228712696
4.70,-78.45,-27.74,1.56,-0.29,0.61,1721228712706
28.07,17.09,-78.45,-2.07,0.79,-2.23,1721228712716
27.24,35.20,17.57,-0.92,0.80,-1.83,1721228712726
5.69,-25.92,8.77,-1.17,-0.20,-2.90,1721228712736
-24.54,19.36,66.25,-0.98,-0.36,-1.35,1721228712746
-1.23,4.19,5.22,-1.67,2.75,-0.39,1721228712756
-21.76,-44.44,-20.71,-0.24,-0.42,0.27,1721228712766
-17.66,30.44,4.55,0.10,1.43,0.25,1721228712776
0.38,-13.78,-16.93,0.58,0.13,0.86,1721228712786
-1.25,-13.06,-7.50,0.92,-0.20,1.13,1721228712796
6.32,16.43,-8.56,0.77,-0.28,0.63,1721228712806
9.61,-12.20,-7.42,-0.67,-0.81,-0.52,1721228712816
-11.62,-0.67,70.91,-1.00,0.89,-2.15,1721228712826
-6.94,-5.06,15.31,1.47,-0.99,-1.96,1721228712836
-4.72,4.69,-2.63,0.35,-0.32,-0.42,1721228712846
-10.87,-20.10,23.37,-1.69,2.62,0.90,1721228712856
7.29,39.29,58.86,3.10,-1.09,2.26,1721228712866
6.34,13.26,-13.62,1.14,-0.20,1.50,1721228712876
13.96,-35.08,-44.21,-0.82,0.57,0.54,1721228712886
7.10,5.37,-0.90,-1.89,1.11,-0.37,1721228712896
-1.64,-45.15,33.20,-2.06,-0.24,-0.93,1721228712906
-7.27,21.60,16.22,2.23,-1.52,-1.00,1721228712916
-3.36,1.43,-14.23,1.38,-1.15,-0.11,1721228712926
-8.79,27.69,-11.11,-3.09,1.92,0.94,1721228712936
-3.59,62.93,48.00,0.13,-0.88,1.33,1721228712946
1.49,-78.45,-21.54,-0.44,-0.20,-0.64,1721228712956
34.25,63.31,-32.80,0.26,-0.63,-0.42,1721228712966
0.11,17.69,-4.22,-1.27,0.55,-0.31,1721228712976
19.59,-50.47,30.43,0.68,-0.34,-0.60,1721228712986
-0.75,2.15,45.12,0.66,-0.02,-0.45,1721228712996
1.09,68.40,26.75,1.30,-0.62,-0.23,1721228713006
-2.26,24.31,-34.71,1.27,-0.57,0.77,1721228713016
-4.37,-59.30,-50.23,-0.60,0.20,0.48,1721228713026
16.43,-59.89,78.45,-4.37,1.86,-3.03,1721228713036
-26.58,78.45,78.45,0.56,-0.85,-1.47,1721228713046
0.69,-4.59,-16.33,4.37,-0.22,-0.54,1721228713056
10.05,4.89,-78.45,1.82,-1.42,1.91,1721228713066
9.35,-8.77,-38.39,-1.72,-3.45,1.13,1721228713076
-47.12,42.04,-46.89,-1.68,2.75,-1.39,1721228713086
19.20,2.11,28.70,1.95,-1.03,0.76,1721228713096
9.02,6.37,-75.49,-3.37,1.31,-0.34,1721228713106
-10.92,-78.45,49.41,-3.77,0.34,-0.93,1721228713116
0.53,16.07,-20.31,-0.06,0.81,-1.01,1721228713126
15.17,25.34,-44.13,1.34,-0.83,-0.19,1721228713136
-8.50,-26.80,-21.34,-0.56,-1.50,1.27,1721228713146
-8.12,49.93,44.02,-0.03,-0.13,1.14,1721228713156
-0.30,21.74,16.69,0.89,0.98,-0.85,1721228713166
2.21,-1.54,-45.04,-1.16,-1.64,0.29,1721228713176
11.49,-30.97,-36.89,-4.37,0.82,-0.27,1721228713186
-2.58,34.65,27.80,1.09,-1.19,0.40,1721228713196
10.21,-1.85,-50.54,1.31,-1.97,-0.04,1721228713206
3.17,2.30,15.00,-4.37,0.77,-0.28,1721228713216
-45.77,78.45,78.45,0.10,-0.57,-1.24,1721228713226
-5.29,38.40,43.22,3.42,2.49,0.14,1721228713236
-0.42,-11.20,-29.62,4.37,0.53,2.80,1721228713246
-16.43,-78.45,-51.24,-1.29,-4.37,-0.32,1721228713256
33.14,2.01,-2.14,-4.37,4.37,-1.58,1721228713266
-15.84,-0.40,28.81,-2.64,-1.40,-1.67,1721228713276
-11.52,3.46,-12.72,0.63,1.82,0.39,1721228713286
10.48,-47.25,-34.49,0.17,0.12,0.49,1721228713296
0.80,-8.96,-8.31,-2.84,-1.90,0.31,1721228713306
-1.25,78.45,78.45,0.77,-2.46,-0.13,1721228713316
3.22,15.72,-2.72,2.16,-0.06,0.71,1721228713326
25.86,-61.28,-48.68,-4.37,2.22,-0.71,1721228713336
-9.17,-10.53,78.45,-0.23,0.12,-1.67,1721228713346
-9.91,78.45,42.69,3.20,-0.15,0.13,1721228713356
-21.99,-78.45,-54.12,4.37,1.87,1.09,1721228713366
30.80,67.59,-78.45,-2.04,-0.17,0.74,1721228713376
38.11,-9.99,-32.15,-1.49,4.28,-0.94,1721228713386
-78.45,9.85,-71.72,-4.37,-0.05,-1.23,1721228713396
78.45,78.45,-49.16,4.37,-4.23,-0.31,1721228713406
-7.94,-60.56,-78.45,4.37,1.24,1.33,1721228713416
-27.37,-8.95,-18.15,-0.09,-4.37,1.82,1721228713426
51.26,-41.95,-7.34,-2.30,4.37,-1.03,1721228713436
-78.45,78.45,78.45,0.07,-4.37,0.72,1721228713446
-52.18,-23.42,63.45,-2.58,4.37,-1.64,1721228713456
-32.11,-27.44,-42.41,3.62,-1.07,0.42,1721228713466
-1.55,2.37,-29.56,-0.74,-2.76,1.11,1721228713476
33.66,-14.82,-21.51,-2.10,1.38,0.97,1721228713486
-34.37,-41.91,78.45,-0.01,-0.08,-0.78,1721228713496
70.76,78.45,77.54,2.74,-0.89,-2.46,1721228713506
-16.24,-43.31,-43.63,4.37,1.10,1.19,1721228713516
-2.69,-47.04,-78.45,4.37,-4.37,-1.09,1721228713526
40.16,-9.74,-13.15,-1.71,4.37,1.33,1721228713536
-78.45,-78.45,-39.66,-0.53,-2.88,-3.49,1721228713546
76.24,78.45,78.45,0.34,2.73,-0.68,1721228713556
-45.70,-78.45,-39.66,4.37,-0.24,1.14,1721228713566
-0.69,8.84,-64.79,-0.17,-4.06,0.04,1721228713576
14.08,-47.90,-14.21,-3.88,4.37,-0.03,1721228713586
-2.57,-4.54,31.21,2.61,-3.14,1.49,1721228713596
-10.93,52.39,46.84,1.06,1.62,0.89,1721228713606
-2.01,-13.24,-59.82,1.38,0.03,1.15,1721228713616
17.59,-54.14,-37.40,-3.81,2.40,0.11,1721228713626
-0.27,53.81,78.45,-1.68,1.81,-0.41,1721228713636
19.11,-3.70,17.57,-0.61,2.28,-1.50,1721228713646
-18.16,7.23,-51.80,-0.07,0.16,1.06,1721228713656
-10.07,26.42,-4.92,0.50,0.63,0.35,1721228713666
1.67,1.93,0.27,-0.30,-0.85,0.91,1721228713676
-5.67,-12.82,16.18,-0.06,-0.33,0.79,1721228713686
-6.60,33.07,28.97,0.82,-0.07,1.10,1721228713696
5.49,-3.09,-2.19,0.23,-0.76,-0.37,1721228713706
13.05,-33.99,-26.48,-4.37,0.30,-1.33,1721228713716
9.02,21.81,59.74,0.50,0.64,-0.11,1721228713726
1.86,-3.20,30.88,2.97,-0.72,-0.77,1721228713736
28.38,78.45,-44.14,3.63,-1.57,-0.02,1721228713746
-19.63,3.98,-74.93,1.05,-0.84,1.32,1721228713756
42.30,22.37,-39.50,-0.28,1.52,2.21,1721228713766
-3.17,-63.38,62.31,-2.42,-1.25,-1.24,1721228713776
23.91,-34.35,78.45,3.03,-1.30,-0.21,1721228713786
-3.43,78.45,-30.37,4.37,-4.37,-0.45,1721228713796
-5.80,-50.16,-56.96,-0.08,0.51,0.04,1721228713806
-16.06,-12.42,-65.95,-4.37,1.88,0.45,1721228713816
-16.59,46.77,78.45,-0.27,-0.03,1.22,1721228713826
-16.02,-26.16,78.45,-0.77,-0.95,0.60,1721228713836
-24.53,-35.93,-15.30,-3.00,1.16,0.77,1721228713846
18.32,25.23,78.45,-0.68,0.73,1.32,1721228713856
9.77,-30.04,-11.08,0.35,-0.08,0.40,1721228713866
25.13,50.07,12.91,1.26,-0.47,-0.97,1721228713876
2.55,3.12,9.28,-0.38,-0.35,-0.63,1721228713886
-2.73,39.66,46.48,0.12,-0.38,0.47,1721228713896
5.00,20.71,-2.78,1.05,0.60,0.62,1721228713906
-6.40,-78.45,-39.54,-0.66,1.14,0.93,1721228713916
2.40,-17.23,10.28,-2.44,1.92,-1.22,1721228713926
-6.58,78.45,45.40,1.19,0.06,0.48,1721228713936
-9.06,-78.45,-11.96,-0.02,0.92,-0.56,1721228713946
9.51,20.42,73.04,-0.01,-1.34,0.58,1721228713956
4.31,70.18,25.91,0.99,0.41,1.02,1721228713966
12.77,-78.45,-35.94,-0.90,0.16,-0.29,1721228713976
9.29,-23.20,21.00,1.71,-2.70,-1.29,1721228713986
-0.77,-21.67,37.18,0.42,0.17,-1.38,1721228713996
-11.38,-16.18,-14.88,0.62,-0.70,-0.60,1721228714006
-7.03,12.12,-1.77,-0.13,0.04,0.25,1721228714016
-10.14,-16.61,26.67,-0.19,0.22,0.99,1721228714026
12.64,78.45,32.16,0.82,0.11,1.91,1721228714036
36.57,-59.99,-53.93,-0.16,0.84,-1.03,1721228714046
-19.43,-67.49,17.33,-2.09,-1.57,-2.43,1721228714056
-41.93,78.45,64.07,0.87,-3.31,-2.72,1721228714066
5.61,-10.25,3.44,3.83,1.16,-1.64,1721228714076
1.36,-15.76,-45.97,0.68,-0.87,-0.36,1721228714086
-2.54,-32.02,66.24,-2.36,-0.78,-0.12,1721228714096
5.65,-23.27,56.34,-0.78,0.83,-0.29,1721228714106
32.16,60.46,-2.08,2.54,-0.77,-0.17,1721228714116
4.94,-2.49,-60.90,1.02,-0.45,0.29,1721228714126
-14.70,-32.81,-14.06,-0.72,-3.12,-0.86,1721228714136
9.34,28.64,67.93,0.24,-0.89,-0.57,1721228714146
20.16,-49.05,-6.91,0.21,1.61,-1.08,1721228714156
20.71,59.84,-16.73,0.06,-0.47,-1.29,1721228714166
-1.75,30.91,10.99,2.65,0.86,0.89,1721228714176
1.30,-19.82,-43.51,0.52,-0.73,-0.12,1721228714186
33.70,-61.56,77.36,-3.64,4.37,-2.71,1721228714196
78.45,78.45,78.45,-2.32,-1.48,-1.64,1721228714206
-13.55,37.41,3.70,3.75,0.48,1.18,1721228714216
3.33,26.40,-78.45,3.32,0.23,2.00,1721228714226
-20.38,-59.44,-30.95,0.01,-4.37,2.03,1721228714236
8.91,2.74,-16.30,-4.32,4.37,-1.69,1721228714246
-29.46,36.16,43.86,0.82,-2.23,0.38,1721228714256
-10.86,-48.84,-31.67,0.38,2.42,0.04,1721228714266
-25.79,9.64,8.42,-2.13,-1.86,1.21,1721228714276
30.50,78.45,22.97,0.52,0.76,-0.16,1721228714286
3.18,-45.35,-37.22,2.87,0.51,1.06,1721228714296
-12.63,-56.45,-78.45,-4.37,-2.70,-1.83,1721228714306
27.94,78.45,-2.32,3.32,-2.68,1.03,1721228714316
38.76,52.71,23.00,4.05,2.23,-1.62,1721228714326
-6.23,12.02,-55.25,2.64,-1.12,-1.56,1721228714336
-15.41,-28.59,-78.45,-2.77,2.71,-0.55,1721228714346
-2.65,-76.74,52.75,-0.52,4.37,0.85,1721228714356
-5.24,10.14,68.93,0.93,0.25,0.17,1721228714366
41.00,49.74,12.16,0.68,1.09,0.01,1721228714376
6.15,-4.08,-33.31,1.22,-1.87,0.50,1721228714386
17.35,-24.43,-28.17,-1.66,3.25,-0.40,1721228714396
8.18,-11.04,78.45,0.44,-0.15,0.61,1721228714406
-2.93,35.22,-7.08,-0.87,0.45,-0.94,1721228714416
-23.94,-52.63,-19.59,0.78,-0.25,-0.49,1721228714426
4.92,-16.92,18.87,-2.59,1.72,-0.30,1721228714436
1.56,-5.73,19.33,1.65,0.39,0.59,1721228714446
-0.78,-0.48,3.28,1.36,-0.71,0.73,1721228714456
8.28,17.50,-29.60,0.90,-0.24,0.47,1721228714466
4.00,14.40,-2.88,0.08,0.52,0.45,1721228714476
0.96,-1.55,1.75,-0.63,0.87,-0.29,1721228714486
-1.94,-15.97,-13.43,-0.60,-0.11,-0.85,1721228714496
-10.77,-6.80,73.40,0.55,-1.81,-0.56,1721228714506
5.96,78.45,42.23,2.08,-0.20,0.94,1721228714516
3.94,-61.82,-75.10,4.37,0.23,-0.43,1721228714526
-14.26,-64.54,-78.45,-4.37,0.92,0.40,1721228714536
26.22,-78.45,78.45,-4.37,4.37,-1.27,1721228714546
-78.45,78.45,78.45,-1.39,-4.37,2.51,1721228714556
3.04,-78.45,-78.45,4.37,-1.56,0.74,1721228714566
-2.83,-28.86,-78.45,-3.49,-4.37,2.10,1721228714576
64.00,-15.55,39.31,-4.37,4.37,0.47,1721228714586
-17.17,78.45,58.60,0.85,-2.99,-0.78,1721228714596
-46.96,-78.45,15.12,2.92,-2.23,0.14,1721228714606
5.11,-6.28,-78.45,0.13,-0.48,1.76,1721228714616
-37.33,-78.45,65.14,-0.19,-2.19,2.44,1721228714626
4.72,71.24,55.82,-0.16,-0.46,-0.32,1721228714636
0.58,-3.57,-7.22,2.59,-0.42,-0.74,1721228714646
-7.67,-18.78,-61.97,0.02,-1.08,-0.34,1721228714656
-19.08,-78.45,69.26,-2.48,1.97,0.35,1721228714671
5.38,20.46,78.45,1.93,-1.93,1.01,1721228714675
-7.41,37.75,78.45,0.98,1.07,1.74,1721228714685
6.95,12.06,-70.77,4.37,-0.56,1.15,1721228714695
-6.89,-78.45,-78.45,-1.82,0.32,-0.21,1721228714705
7.14,-36.24,-10.92,0.68,-1.85,-1.12,1721228714715
8.72,78.45,41.96,3.53,0.68,-2.40,1721228714725
39.79,57.57,-2.73,2.33,-1.17,-0.12,1721228714735
-2.20,-23.49,-26.83,-4.16,2.09,0.06,1721228714745
11.76,3.50,78.45,0.06,-1.75,-1.14,1721228714755
-15.44,37.93,57.38,1.55,-0.30,0.68,1721228714765
-4.89,6.24,-73.11,3.91,-0.58,1.96,1721228714775
8.66,-54.09,-59.65,-4.36,1.12,0.24,1721228714785
50.76,-78.45,78.45,-4.37,4.37,-2.51,1721228714795
-69.28,54.79,67.19,1.66,-4.37,-1.16,1721228714805
5.89,-11.46,22.61,2.09,0.48,-0.25,1721228714815
-11.23,-4.16,-18.50,-0.75,0.19,1.53,1721228714825
-3.33,-29.47,-12.83,0.05,1.18,0.29,1721228714835
4.11,-14.02,6.44,-0.22,0.18,0.18,1721228714845
1.02,-12.60,50.87,-1.20,0.90,-0.47,1721228714855
1.64,55.05,69.26,0.75,0.07,0.27,1721228714865
6.58,-0.02,-48.96,3.03,-0.92,0.56,1721228714875
10.64,-16.82,-56.61,-1.87,0.12,0.03,1721228714885
4.90,-26.27,12.71,-3.28,0.89,-1.00,1721228714895
7.48,36.66,36.44,1.12,-2.05,-0.72,1721228714905
-8.18,-37.66,-15.64,1.18,-0.18,-0.92,1721228714915
-5.04,12.78,47.54,-0.93,0.28,0.57,1721228714925
5.74,37.72,39.35,-0.12,0.12,0.68,1721228714935
-4.22,-75.58,-73.24,1.54,0.27,-0.10,1721228714945
6.49,-15.94,-37.82,-1.96,-0.92,-0.46,1721228714955
2.82,-12.73,78.45,-1.44,0.85,-0.01,1721228714965
-18.35,26.06,6.47,1.78,-0.46,-0.44,1721228714975
-14.48,-23.54,-35.31,2.30,-0.26,0.63,1721228714985
7.70,13.99,0.19,-4.21,1.69,-0.16,1721228714995
-2.18,-10.36,38.80,-1.16,-0.30,0.65,1721228715005
7.03,1.84,18.98,0.85,-0.51,0.69,1721228715015
5.18,-6.12,-10.69,0.61,-0.50,0.31,1721228715025
3.54,-17.11,-7.10,-0.29,0.16,-0.51,1721228715035
-1.00,4.21,29.70,-0.58,0.01,-1.55,1721228715045
-15.56,8.89,49.42,-0.24,-0.95,-1.86,1721228715055
-30.30,29.56,5.42,1.56,-0.23,0.10,1721228715065
-19.36,-28.69,-24.59,-0.51,-0.55,0.47,1721228715075
-0.51,4.66,56.53,-2.43,1.56,1.19,1721228715085
4.48,20.26,9.60,0.61,-0.44,1.14,1721228715095
-0.31,-47.62,-28.27,1.09,-1.24,0.10,1721228715105
-8.34,-10.08,77.21,-2.65,0.64,-0.68,1721228715115
6.35,78.45,41.86,1.13,-1.75,-1.75,1721228715125
-6.49,-41.68,-35.80,2.18,-1.50,-1.59,1721228715135
6.87,-0.23,-9.61,-1.88,0.57,-0.01,1721228715145
-9.36,27.04,32.18,1.07,-0.21,1.42,1721228715155
-28.40,29.93,-0.43,-0.60,0.75,0.70,1721228715165
-0.03,-9.47,-21.10,0.41,-0.23,0.33,1721228715175
3.82,-30.28,48.60,-1.97,1.33,-0.07,1721228715185
-12.49,78.45,43.68,1.68,-1.03,-0.27,1721228715195
1.53,0.93,-20.50,1.16,-2.01,-0.77,1721228715205
-18.02,-36.30,-49.47,-3.74,0.89,0.39,1721228715215
-6.34,-8.01,11.99,-0.17,-2.45,1.75,1721228715225
17.36,78.45,77.59,0.42,-0.99,0.45,1721228715235
-0.27,-6.90,-4.90,3.41,-1.46,-1.53,1721228715245
-9.03,-0.39,-25.56,1.86,-0.44,0.64,1721228715255
5.63,-15.61,9.94,-3.29,0.74,0.80,1721228715265
10.74,71.01,74.69,0.67,-0.84,1.60,1721228715275
1.68,-15.66,10.97,1.12,-1.21,-0.09,1721228715285
1.84,-2.88,-28.28,2.97,-2.00,-0.51,1721228715295
-18.36,-1.26,-25.83,-1.66,-0.17,-1.16,1721228715305
-2.40,22.73,-15.35,-0.55,-0.77,-0.96,1721228715315
-22.21,-78.45,11.76,-3.50,2.36,0.16,1721228715325
-30.58,-3.47,78.45,-1.52,0.84,-0.18,1721228715335
-7.63,57.79,47.79,3.71,0.62,0.43,1721228715345
-0.63,-54.80,-50.17,4.37,-1.81,0.60,1721228715355
-16.28,-6.87,-37.98,-0.92,-4.37,1.29,1721228715365
41.07,-78.45,40.53,-4.37,4.37,-0.65,1721228715375
-78.45,78.45,69.65,0.69,-4.37,3.52,1721228715385
54.82,45.49,-78.45,4.37,0.87,-2.48,1721228715395
8.66,29.90,-78.45,4.37,-3.74,-0.67,1721228715405
-22.77,-0.05,-76.21,-0.12,1.46,-0.54,1721228715415
27.81,-24.37,78.45,0.20,4.37,-1.63,1721228715425
-66.00,78.45,5.89,-1.35,-1.84,2.43,1721228715435
-29.73,-78.45,-78.45,2.56,1.46,2.17,1721228715445
5.14,-78.45,-5.77,-4.37,3.65,-0.70,1721228715455
52.47,78.45,61.77,-0.09,-0.68,-1.31,1721228715465
-0.79,41.73,13.72,4.37,0.11,1.72,1721228715475
-31.44,-78.45,-78.45,4.37,-0.59,0.64,1721228715485
-33.86,43.46,78.45,-3.39,-4.37,0.65,1721228715495
-6.33,-9.22,-73.45,-2.52,4.37,-1.47,1721228715505
-78.45,76.05,41.37,0.30,-2.94,-3.70,1721228715515
24.00,30.80,20.59,4.37,0.80,-0.85,1721228715525
-13.10,5.61,-77.49,3.95,0.21,1.10,1721228715535
12.93,-61.22,-37.50,-4.37,1.61,-0.19,1721228715545
31.34,-67.19,78.45,-2.49,4.37,-0.50,1721228715555
-66.64,58.77,-26.09,0.26,-0.93,-0.95,1721228715565
-22.14,-40.97,-18.46,0.42,1.16,-1.57,1721228715575
-6.87,-3.63,6.17,0.51,-0.16,-0.31,1721228715585
-15.80,12.91,5.04,0.17,0.43,1.11,1721228715595
4.38,16.96,8.96,-0.36,0.71,1.36,1721228715605
10.97,-31.54,19.64,-0.81,0.23,0.71,1721228715615
14.76,17.83,18.16,0.95,0.97,0.55,1721228715625
21.43,30.97,-15.88,2.72,-1.71,-0.13,1721228715635
12.19,5.88,-42.09,0.10,0.44,-0.81,1721228715645
-6.27,-78.45,69.32,-4.13,-0.82,-2.77,1721228715655
21.38,61.95,78.45,3.27,-4.37,-1.40,1721228715665
8.50,-11.16,-4.14,4.37,2.54,-1.22,1721228715675
-6.30,-16.92,-78.45,4.37,-0.81,2.64,1721228715685
-1.24,-71.56,-78.45,-0.02,1.77,0.11,1721228715695
17.35,-30.95,-14.10,-2.59,4.37,-3.21,1721228715705
28.02,44.95,78.45,1.73,-3.49,-1.76,1721228715715
-0.84,-63.24,-78.45,4.37,3.44,-2.87,1721228715725
-15.53,7.64,-78.45,4.37,-4.37,0.84,1721228715735
24.32,-39.98,-34.11,-3.97,4.37,0.25,1721228715745
-78.45,-78.45,78.45,-0.46,1.16,-2.66,1721228715755
11.38,7.69,78.45,2.13,-4.37,0.74,1721228715765
-23.54,-53.96,-34.41,3.58,0.57,-0.61,1721228715775
-1.39,22.75,-56.22,-2.37,0.40,-0.06,1721228715785
-19.73,-38.42,14.59,-0.08,1.03,0.68,1721228715795
15.98,-9.25,78.45,-2.57,2.05,0.38,1721228715805
-17.28,-0.83,78.45,0.64,-1.35,-0.68,1721228715815
22.79,78.45,19.40,1.99,0.81,-0.50,1721228715825
-3.02,-9.08,-46.60,1.88,-0.91,0.49,1721228715835
-2.09,-31.70,-34.07,-2.82,1.09,-0.66,1721228715845
-10.98,-57.78,78.45,-1.49,2.07,-1.62,1721228715855
-4.62,78.45,78.45,0.01,-1.96,-0.71,1721228715865
-12.88,17.39,-34.18,2.01,-0.55,0.58,1721228715875
-6.06,-11.88,-52.92,-1.25,2.06,0.77,1721228715885
-9.14,-61.32,-6.88,-4.37,1.59,1.29,1721228715895
-16.99,48.05,78.45,2.95,-2.16,0.51,1721228715905
-16.97,36.65,30.26,2.49,0.86,-0.52,1721228715915
52.18,78.45,-34.94,4.37,-0.24,-1.59,1721228715925
-20.43,-55.32,-28.95,-4.37,-2.32,-0.18,1721228715935
78.45,78.45,78.45,-1.28,0.36,-0.87,1721228715945
-19.13,48.19,8.54,3.48,-2.73,0.52,1721228715955
4.24,-69.38,-36.01,2.10,1.83,0.69,1721228715965
10.26,-63.70,-69.98,-4.37,2.07,-0.67,1721228715975
-30.33,78.45,78.45,-1.65,3.83,0.41,1721228715985
4.80,-18.76,18.93,4.37,-0.83,-1.48,1721228715995
2.01,17.93,-55.23,2.30,-2.42,-0.31,1721228716005
11.98,1.75,45.04,-1.43,-1.03,0.30,1721228716015
-23.73,10.69,39.81,-3.00,2.33,0.73,1721228716025
4.37,-57.32,-39.62,3.54,-1.02,0.22,1721228716035
-7.14,19.72,78.45,-2.60,3.99,-0.99,1721228716045
-11.23,35.40,78.45,-1.06,-1.84,0.10,1721228716055
-40.06,39.82,-9.53,3.60,-1.02,2.35,1721228716065
12.07,9.59,-42.60,0.73,-0.71,1.52,1721228716075
6.78,-29.98,-6.39,-3.30,1.28,0.32,1721228716085
-0.71,40.78,37.50,0.87,-0.23,-0.27,1721228716095
15.09,-0.40,-8.48,2.82,-2.82,-0.59,1721228716105
-7.42,-17.94,-33.73,-3.27,1.32,-0.52,1721228716115
5.77,-11.26,41.17,-0.51,1.74,-1.25,1721228716125
-2.32,17.31,78.45,2.64,-3.08,0.37,1721228716135
-6.95,29.79,-78.45,2.10,-0.02,1.71,1721228716145
4.96,-4.52,-39.68,-2.03,0.55,0.65,1721228716155
2.30,-13.63,1.01,-3.17,1.65,0.17,1721228716165
0.95,-52.17,78.45,-0.05,-2.11,-0.25,1721228716175
3.13,78.45,28.66,0.92,-0.62,-0.55,1721228716185
-27.57,-78.45,-50.65,4.37,-1.28,0.66,1721228716195
-16.11,2.62,-58.19,-2.69,-0.75,2.24,1721228716205
13.93,14.63,78.45,-1.13,4.37,0.67,1721228716215
12.35,22.81,44.14,-0.82,-1.95,0.30,1721228716225
-0.58,-12.75,9.52,-0.82,-0.46,-1.35,1721228716235
-10.45,-12.70,17.03,-0.61,-0.53,-1.50,1721228716245
-16.25,6.30,-71.36,1.28,-1.04,-1.21,1721228716255
-6.97,-50.36,2.13,-4.03,1.22,0.20,1721228716265
-4.34,57.14,78.45,0.44,0.81,2.24,1721228716275
4.12,-0.54,6.39,1.93,0.19,1.26,1721228716285
10.12,30.91,-55.78,1.27,-0.55,0.68,1721228716295
-3.75,-73.48,-37.27,-1.17,-0.18,-0.47,1721228716305
8.40,-63.47,78.45,0.50,0.08,-1.26,1721228716315
38.61,72.16,15.08,0.61,-0.85,-0.34,1721228716325
-22.81,38.06,27.76,0.61,0.66,0.18,1721228716335
-10.92,46.09,28.51,-0.04,0.34,2.08,1721228716345
15.99,-68.70,-67.67,0.85,0.46,0.01,1721228716355
20.24,-45.62,-28.46,0.76,-0.56,0.01,1721228716365
-14.81,-5.18,-21.61,-2.48,0.81,-1.54,1721228716375
10.13,1.86,55.08,-0.73,-0.96,-1.46,1721228716385
-28.81,73.91,39.57,3.70,-3.13,0.28,1721228716395
5.08,-11.72,8.61,0.93,0.73,-0.84,1721228716405
11.82,-13.88,-16.63,-0.05,-0.62,1.36,1721228716415
1.78,0.79,11.85,-0.53,3.03,1.54,1721228716425
4.38,-2.84,29.81,-0.13,-0.61,1.29,1721228716435
6.39,-9.99,12.16,-0.91,0.97,-0.34,1721228716445
2.52,2.33,2.89,0.33,-0.67,-1.71,1721228716455
0.87,-15.48,-15.61,1.03,-0.80,-0.82,1721228716465
-9.93,-2.82,8.87,-0.07,0.86,1.09,1721228716475
13.77,6.06,-5.71,1.52,0.65,0.34,1721228716485
3.65,23.95,-13.31,-0.50,0.56,-0.06,1721228716495
-10.43,11.37,57.47,-2.07,-1.08,-1.07,1721228716505
-13.94,-54.98,78.45,0.23,-1.03,-1.22,1721228716515
-21.78,37.83,24.76,3.25,0.88,1.16,1721228716525
-0.37,28.28,-72.24,1.43,1.53,2.02,1721228716535
-3.61,-78.45,-51.11,-2.26,0.24,0.64,1721228716545
29.31,-78.45,78.45,-0.35,4.37,-1.02,1721228716555
-4.77,78.45,27.75,0.34,-2.68,0.24,1721228716565
-1.59,-52.40,-78.45,1.65,0.49,-1.19,1721228716575
-21.87,10.94,-54.42,1.61,-2.27,0.75,1721228716585
2.85,-48.04,42.25,-2.34,1.56,-0.19,1721228716595
10.83,20.23,61.89,1.86,0.04,-0.61,1721228716605
-16.64,1.62,18.52,-0.64,1.28,-0.38,1721228716615
-9.02,-51.99,-46.71,0.56,-0.58,1.06,1721228716625
20.69,-3.26,78.45,-2.20,4.37,1.27,1721228716635
11.69,60.49,14.26,1.16,-1.33,1.62,1721228716645
14.36,-42.66,-46.08,4.37,-1.91,0.45,1721228716655
5.41,-55.19,-24.65,-4.37,1.05,-0.72,1721228716665
31.69,78.45,41.95,-2.98,4.37,-0.29,1721228716680
-6.68,78.45,78.45,4.37,-1.46,0.37,1721228716684
-39.57,-64.66,-52.69,4.37,-2.06,1.08,1721228716694
-54.77,-52.86,-46.27,2.36,-2.24,1.71,1721228716704
29.02,-70.13,-38.22,-4.37,4.37,0.93,1721228716714
-24.26,-39.72,78.45,-0.01,2.20,0.20,1721228716724
-35.82,-14.86,78.45,-0.08,-3.74,0.71,1721228716734
-9.94,-14.17,-6.86,4.37,-1.15,0.79,1721228716744
-23.47,9.29,-15.13,-1.82,3.36,1.19,1721228716754
37.26,-33.03,53.77,-3.11,2.14,-1.16,1721228716764
1.08,-27.66,28.28,0.99,-1.77,1.18,1721228716774
22.37,73.44,1.57,1.22,-0.13,1.32,1721228716784
3.00,-28.80,-24.68,1.33,-0.68,0.21,1721228716794
-8.16,-7.37,-18.76,-0.80,-2.08,-0.16,1721228716804
-9.47,4.44,4.29,-3.61,4.37,-1.93,1721228716814
31.14,78.45,25.58,0.61,-2.25,-1.05,1721228716824
-17.27,-32.10,-60.62,2.05,-0.82,-0.96,1721228716834
-20.60,-30.14,-37.06,-2.14,1.55,0.20,1721228716844
-0.72,-41.46,78.45,-0.98,1.82,0.37,1721228716854
-2.40,17.90,66.10,1.74,-0.56,1.05,1721228716864
-18.25,52.58,-5.39,2.08,-0.82,0.70,1721228716874
7.60,17.35,-52.11,-0.31,0.10,0.81,1721228716884
3.30,-78.45,-16.96,-3.23,2.90,0.52,1721228716894
-3.91,-20.81,38.64,1.11,0.31,-1.05,1721228716904
3.50,-8.92,59.40,0.01,-0.80,-1.35,1721228716914
-17.21,-6.70,75.23,1.17,-0.83,-0.17,1721228716924
-6.95,28.94,4.44,1.44,0.43,0.05,1721228716934
-27.41,19.24,-17.69,2.32,-0.18,2.06,1721228716944
-5.70,13.07,-33.38,-0.62,0.33,1.57,1721228716954
24.80,-11.82,1.44,-1.73,0.34,1.45,1721228716964
-5.66,-74.90,78.17,-1.32,1.36,0.78,1721228716974
-14.02,36.71,55.14,1.29,-1.52,-0.50,1721228716984
-9.14,17.67,-4.32,0.55,-0.52,-1.04,1721228716994
21.06,33.49,-35.72,1.21,-0.96,-0.73,1721228717004
-5.27,-14.13,-5.16,-4.16,0.90,-0.21,1721228717014
37.22,78.45,37.56,0.83,-1.06,0.32,1721228717024
-16.88,-78.45,-12.93,0.69,0.58,-0.79,1721228717034
-41.09,26.85,-2.64,-2.52,-0.35,0.56,1721228717044
-14.34,9.92,71.01,1.58,-2.24,1.13,1721228717054
-21.55,53.88,53.70,0.46,-0.63,1.97,1721228717064
-1.00,32.23,-46.64,2.27,-1.18,1.89,1721228717074
16.91,6.72,-55.23,0.94,0.20,0.55,1721228717084
-6.51,-78.45,-48.74,-3.73,-0.45,-1.25,1721228717094
20.28,-8.69,78.45,0.90,1.75,-3.18,1721228717104
8.60,38.64,78.45,1.06,-2.04,-0.31,1721228717114
-16.68,-22.06,-48.17,0.75,2.33,0.48,1721228717124
24.48,78.45,-10.25,-2.53,-1.00,1.46,1721228717134
-16.57,31.81,-15.16,-1.23,0.70,2.17,1721228717144
12.91,-19.58,8.90,0.33,1.25,1.67,1721228717154
6.76,-37.83,-41.19,1.52,-0.80,0.99,1721228717164
15.84,-4.09,-19.75,-1.03,-1.68,-0.82,1721228717174
2.27,6.45,31.57,-1.37,1.50,-1.93,1721228717184
6.25,-19.43,10.02,2.14,-2.03,-1.98,1721228717194
-19.78,10.19,43.66,-1.91,0.29,-0.85,1721228717204
-21.18,52.32,69.19,1.49,-2.42,0.09,1721228717214
-16.22,13.07,-1.93,1.68,1.63,2.78,1721228717224
16.56,-13.42,-51.49,2.76,-0.07,4.06,1721228717234
39.28,-78.45,-39.37,-4.06,2.08,0.52,1721228717244
15.11,-24.16,78.45,-1.98,3.45,-2.51,1721228717254
43.63,44.96,78.45,1.03,-2.82,0.15,1721228717264
-6.62,-54.56,-34.53,4.37,0.36,-0.38,1721228717274
-12.20,17.40,-49.24,-1.57,-1.89,-1.43,1721228717284
-26.78,-49.36,15.68,-2.95,-1.37,-0.78,1721228717294
14.74,78.45,-43.75,1.76,-0.71,0.94,1721228717304
-23.28,-62.01,-27.94,0.83,1.50,3.21,1721228717314
18.03,12.03,55.12,-0.26,3.05,0.76,1721228717324
-9.93,66.71,17.66,0.32,-0.75,1.62,1721228717334
18.21,-78.45,-59.20,2.30,-0.47,-0.38,1721228717344
-2.81,-65.09,-56.16,-1.56,-1.57,-1.37,1721228717354
-10.86,54.00,78.45,0.34,-2.35,-3.09,1721228717364
-2.07,-26.07,42.63,0.58,0.44,-2.36,1721228717374
-38.04,36.89,-19.03,-0.27,-1.58,1.31,1721228717384
-4.92,-3.78,-22.02,-0.03,-0.37,1.36,1721228717394
0.15,-63.13,-29.88,-1.49,0.45,1.81,1721228717404
-1.26,25.70,38.99,0.28,0.71,0.77,1721228717414
3.45,-3.48,-1.34,0.78,-0.90,-0.72,1721228717424
3.34,-10.23,-0.25,-0.64,1.06,-0.28,1721228717434
-1.70,66.08,23.64,1.84,-1.09,-0.09,1721228717444
-4.55,-7.18,-42.90,-0.88,-0.40,0.25,1721228717454
11.46,-58.78,78.45,-3.38,2.62,-0.80,1721228717464
13.01,16.86,59.30,2.53,-1.94,0.35,1721228717474
2.10,0.74,-15.44,1.37,-0.38,-0.61,1721228717484
1.88,21.81,-37.74,0.32,-0.35,-1.57,1721228717494
-11.06,-14.10,64.18,-1.23,1.64,-1.69,1721228717504
0.97,33.12,68.08,1.66,-1.94,0.28,1721228717514
-4.64,1.31,-22.13,1.84,1.33,0.96,1721228717524
6.90,-59.44,-41.96,1.51,-0.98,1.16,1721228717534
15.35,-31.62,11.20,-2.78,1.05,0.13,1721228717544
-38.49,32.70,14.37,0.47,-0.44,-0.14,1721228717554
14.73,-45.62,-7.14,1.91,-1.41,-1.79,1721228717564
18.58,36.43,-1.47,-1.40,1.35,-0.52,1721228717574
-13.29,11.09,-23.45,0.37,-0.88,0.04,1721228717584
-3.67,-34.78,-14.86,1.55,-1.19,1.23,1721228717594
-28.67,-17.07,65.40,-0.30,0.81,0.63,1721228717604
6.51,-40.54,57.96,0.31,-0.58,-0.41,1721228717614
-1.51,10.83,36.02,0.24,-0.31,-0.19,1721228717624
-1.41,25.10,30.68,0.61,-0.10,0.17,1721228717634
-8.50,27.25,11.43,0.92,-0.37,-0.12,1721228717644
-1.97,9.23,-60.51,1.14,-1.72,0.04,1721228717654
3.70,-55.45,-30.35,-1.57,2.46,0.25,1721228717664
-9.50,2.54,76.77,-0.45,-1.73,0.91,1721228717674
4.91,50.48,64.40,1.22,-1.33,-0.07,1721228717684
-24.84,-78.45,-53.91,3.09,-0.64,-0.37,1721228717694
-16.99,24.52,-36.11,-2.27,0.63,1.57,1721228717704
24.08,14.48,21.72,-1.30,3.36,0.20,1721228717714
24.33,-60.30,48.20,-1.71,0.06,-1.48,1721228717724
-1.75,13.30,32.74,0.14,1.48,0.07,1721228717734
2.66,-12.58,-10.41,0.98,-3.12,-0.43,1721228717744
-5.06,23.12,78.45,-2.09,2.83,-0.79,1721228717754
-5.02,57.89,55.09,-0.02,-1.12,-0.45,1721228717764
-36.79,-57.89,-45.79,1.86,-1.33,-0.18,1721228717774
-2.10,15.64,-21.91,-1.51,2.17,0.44,1721228717784
-17.11,-66.34,-31.01,-1.20,-0.59,0.95,1721228717794
-30.03,-33.70,57.13,-1.94,0.65,-0.21,1721228717804
-18.57,58.70,78.45,-0.65,-3.02,-0.47,1721228717814
-15.50,-4.95,-8.25,1.20,0.81,0.77,1721228717824
12.86,50.15,-29.08,-0.29,0.13,2.17,1721228717834
28.89,-78.45,-42.43,-2.25,-1.53,-0.57,1721228717844
-14.25,-0.64,57.69,0.29,-1.99,-0.83,1721228717854
1.83,68.62,-20.68,3.02,-1.60,-0.71,1721228717864
-19.73,-25.23,-50.63,3.19,0.19,0.19,1721228717874
-27.18,-78.45,-32.83,-4.37,-0.24,0.56,1721228717884
-1.59,-3.30,78.45,-1.37,2.47,1.18,1721228717894
-8.04,78.45,40.19,1.85,-0.29,0.74,1721228717904
4.75,-78.45,-64.97,4.37,0.94,0.42,1721228717914
27.71,25.68,-66.76,-3.73,-0.23,-0.01,1721228717924
35.61,-9.54,-22.59,-1.96,4.37,-0.70,1721228717934
-30.87,-78.45,78.45,1.08,1.02,-1.02,1721228717944
21.54,50.50,69.07,0.41,0.53,0.73,1721228717954
-7.16,-37.86,-22.70,4.37,0.49,-0.79,1721228717964
-15.87,37.06,-78.45,0.35,-4.37,2.32,1721228717974
3.45,-78.45,-69.45,-2.42,2.15,-0.41,1721228717984
20.40,-55.92,15.15,-4.37,1.54,-0.57,1721228717994
5.21,78.45,-6.14,0.80,-4.30,-1.53,1721228718004
-76.12,48.62,-44.47,3.55,0.38,1.01,1721228718014
0.34,16.22,-72.86,3.01,-0.09,0.64,1721228718024
6.11,-62.37,-54.50,-0.85,1.47,0.76,1721228718034
1.76,-38.24,-13.26,-3.14,-0.54,-0.59,1721228718044
-20.41,78.45,42.20,-0.44,-1.15,-1.26,1721228718054
8.96,-8.66,73.95,1.25,-0.98,0.16,1721228718064
1.93,41.13,-36.17,0.43,-0.63,-0.14,1721228718074
1.66,-12.03,-17.26,-0.93,0.53,-0.32,1721228718084
7.01,-68.10,-17.35,-0.70,-0.89,-0.60,1721228718094
-22.44,29.33,43.35,-0.72,-0.55,0.26,1721228718104
-4.91,4.38,19.18,0.65,-0.17,-0.23,1721228718114
-0.64,0.51,-16.96,-0.49,0.51,1.11,1721228718124
3.95,76.13,1.85,0.79,0.86,1.02,1721228718134
26.14,-78.45,-42.93,-3.26,-0.06,-1.55,1721228718144
-26.66,-3.31,78.45,0.94,-1.98,-1.46,1721228718154
-41.93,28.02,-19.34,2.09,0.55,-0.15,1721228718164
-18.23,-52.62,-38.33,-0.03,2.47,1.70,1721228718174
50.97,52.56,78.45,-2.56,3.98,0.22,1721228718184
-13.96,41.55,78.45,0.75,-1.25,0.56,1721228718194
8.36,-26.03,-18.84,1.96,-0.85,0.47,1721228718204
8.93,-27.08,-12.35,-0.26,0.84,1.14,1721228718214
11.41,21.51,14.33,-0.16,0.55,-0.95,1721228718224
-14.82,70.27,18.52,1.84,-0.81,-1.17,1721228718234
-2.41,-49.41,-45.32,0.15,-1.32,-2.06,1721228718244
-10.54,-53.82,46.49,-2.31,1.08,-1.75,1721228718254
-3.66,67.66,64.92,1.58,-1.59,0.98,1721228718264
-4.56,-11.11,-66.62,2.36,-0.32,0.64,1721228718274
17.23,-10.22,-78.45,0.34,0.30,-0.31,1721228718284
15.88,-41.05,16.98,-4.37,0.65,-1.18,1721228718294
-4.67,20.36,57.73,3.93,-3.37,-1.82,1721228718304
0.53,-4.71,16.76,1.60,0.12,-1.20,1721228718314
-15.13,3.53,-32.51,2.35,-0.82,1.74,1721228718324
2.48,-25.57,-29.14,-1.00,0.77,1.10,1721228718334
9.43,-26.95,7.13,-2.12,2.80,0.45,1721228718344
-8.93,8.90,44.98,-0.08,-1.25,-0.41,1721228718354
6.78,-40.75,23.31,1.20,-1.73,-0.46,1721228718364
1.47,12.45,12.19,0.35,0.99,0.81,1721228718374
5.95,51.50,-21.75,1.71,-0.19,0.48,1721228718384
6.99,-19.72,-27.31,-1.97,-0.43,-0.58,1721228718394
-0.17,-78.45,78.45,-2.76,1.05,-0.58,1721228718404
8.92,43.07,78.45,1.99,-0.96,0.25,1721228718414
-4.37,-2.20,-78.45,3.31,-1.13,-0.18,1721228718424
14.12,5.99,-78.45,4.37,-2.72,-0.06,1721228718434
-33.14,-65.24,-10.38,-3.82,-4.37,0.21,1721228718444
51.05,36.88,11.07,-3.39,4.37,-0.71,1721228718454
32.02,77.97,64.93,1.13,-3.88,1.40,1721228718464
-11.98,-78.45,-42.83,0.81,1.03,0.16,1721228718474
1.58,-0.36,-18.69,-0.12,-1.63,1.36,1721228718484
-7.35,-61.53,-13.90,-2.77,-0.04,-0.30,1721228718494
6.38,73.21,78.45,-0.71,2.38,0.62,1721228718504
13.17,21.27,-9.32,1.36,-0.53,0.75,1721228718514
0.88,-38.75,-16.23,-0.77,-0.92,1.01,1721228718524
-17.57,31.25,78.45,-1.00,0.88,0.55,1721228718534
-10.10,9.33,72.28,-0.25,-1.87,-0.80,1721228718544
-32.66,16.14,-16.90,2.99,-1.03,0.40,1721228718554
-18.28,-68.31,-26.72,-2.53,0.57,0.50,1721228718564
-16.00,66.92,68.58,-0.75,0.81,0.42,1721228718574
3.19,47.84,-13.65,1.65,-0.51,-0.02,1721228718584
0.60,-78.45,4.19,-0.42,2.47,-0.17,1721228718594
-0.18,-48.46,-32.67,-2.75,-0.57,2.04,1721228718604
4.64,78.45,52.16,-0.73,-0.73,1.55,1721228718614
19.99,-78.45,-18.79,1.40,-1.44,-2.21,1721228718624
-15.80,78.45,-40.73,-1.18,-0.74,-1.69,1721228718634
-0.83,66.88,-11.96,-0.41,-0.93,-1.24,1721228718644
-53.12,-78.45,-16.49,0.52,-0.61,-0.12,1721228718654
-23.14,-34.21,-0.40,-0.98,0.46,0.96,1721228718664
10.08,29.30,13.88,-0.35,-0.54,1.36,1721228718674
9.53,2.64,26.65,0.42,0.34,1.58,1721228718689
7.85,1.58,15.10,0.84,0.06,2.24,1721228718693
25.10,-8.73,-27.63,0.98,-0.52,0.16,1721228718703
21.16,9.37,5.99,-1.06,0.94,-1.65,1721228718713
36.21,78.45,53.65,-0.80,-1.58,-1.57,1721228718723
-6.10,-10.62,16.90,-0.35,0.25,-1.32,1721228718733
1.52,-15.27,-13.73,0.83,-0.62,-0.42,1721228718743
-9.55,-2.20,-25.16,0.25,-0.20,-0.16,1721228718753
-1.15,-18.39,1.73,-1.61,1.00,0.45,1721228718763
-0.72,72.03,50.82,1.55,-1.23,1.87,1721228718773
3.44,-12.37,33.01,-0.16,0.84,0.81,1721228718783
20.38,-30.26,13.30,-0.30,-0.46,-0.23,1721228718793
7.53,36.26,-0.70,1.31,-1.24,0.13,1721228718803
18.59,-78.45,6.37,0.25,0.96,-0.44,1721228718813
47.56,76.30,-21.48,-0.38,-0.69,-0.54,1721228718823
23.91,78.45,55.04,-1.98,-0.41,0.29,1721228718833
-13.73,-78.45,18.96,-0.85,-0.08,-1.51,1721228718843
-53.37,45.74,19.69,1.14,0.26,1.70,1721228718853
10.93,-15.76,-48.27,2.29,-0.31,0.54,1721228718863
13.94,-39.42,-62.94,1.34,0.22,-1.36,1721228718873
13.58,15.45,6.56,-4.37,-1.68,-2.60,1721228718883
50.07,78.45,45.36,2.03,-1.35,-1.60,1721228718893
-7.94,34.19,28.40,4.37,2.79,0.72,1721228718903
13.55,6.54,-78.45,4.37,0.01,1.87,1721228718913
25.76,-7.80,-78.45,0.04,-4.37,-0.31,1721228718923
36.96,-30.10,-22.01,-4.37,4.37,-0.59,1721228718933
-44.66,-78.45,-40.12,-0.17,-2.97,-2.09,1721228718943
-42.06,78.45,78.45,-0.04,-4.37,-0.92,1721228718953
29.91,-11.27,-47.58,2.67,4.37,0.87,1721228718963
2.72,-32.85,-78.45,4.37,-0.70,3.85,1721228718973
-78.45,-78.45,-78.45,-2.84,-2.06,-0.31,1721228718983
30.90,-12.71,-33.69,-0.13,4.37,-1.47,1721228718993
-15.89,7.50,78.45,-0.02,-4.37,0.88,1721228719003
-67.98,78.45,78.45,0.10,1.95,0.99,1721228719013
6.61,-8.02,-78.45,1.49,2.17,3.18,1721228719023
22.25,5.85,-77.66,3.37,-2.54,0.86,1721228719033
32.15,-31.88,-6.64,-0.32,-4.37,-0.93,1721228719043
-21.77,78.45,78.45,0.01,3.63,-1.10,1721228719053
0.47,-47.95,-3.58,-1.44,-2.21,-2.55,1721228719063
5.97,-46.46,59.80,0.25,0.42,-0.83,1721228719073
-8.13,78.45,78.45,0.31,0.06,0.44,1721228719083
8.61,-14.56,2.73,2.58,1.29,0.06,1721228719093
24.21,45.72,-39.47,2.75,-0.69,1.27,1721228719103
13.25,-19.78,-36.59,-4.35,1.60,-0.57,1721228719113
-0.89,13.88,55.78,0.23,-1.19,0.07,1721228719123
4.66,9.94,7.22,1.81,0.55,-1.49,1721228719133
3.99,-76.41,-28.90,1.06,0.13,-0.78,1721228719143
19.53,52.42,-50.23,0.24,1.23,-0.88,1721228719153
-28.59,-13.21,9.51,-0.27,-0.16,0.36,1721228719163
-12.43,9.97,-15.58,1.99,0.30,0.09,1721228719173
-13.05,-62.09,-4.51,-4.17,1.33,0.11,1721228719183
11.12,-11.47,78.45,0.48,-0.94,1.16,1721228719193
-22.09,78.45,62.78,0.90,0.53,2.57,1721228719203
20.82,15.26,-44.42,2.66,0.52,-0.11,1721228719213
4.79,-16.20,-32.24,-0.76,0.03,0.10,1721228719223
30.02,-57.54,-18.75,-4.37,0.02,-2.10,1721228719233
-18.32,23.66,54.30,0.74,1.14,-0.94,1721228719243
1.99,-2.57,-14.45,0.74,-0.74,-1.07,1721228719253
-16.38,-55.51,-36.91,0.91,0.19,-0.64,1721228719263
8.73,21.40,-0.40,-4.37,1.53,-0.23,1721228719273
4.74,59.07,78.45,1.42,1.09,1.23,1721228719283
-31.91,-78.45,-20.44,-0.38,-0.92,1.14,1721228719293
16.85,-45.29,56.64,-1.63,1.42,0.30,1721228719303
9.84,60.99,78.45,0.12,-0.06,0.29,1721228719313
11.28,8.43,-30.43,4.37,-2.05,-0.44,1721228719323
3.60,-4.02,-72.48,3.20,0.03,-0.38,1721228719333
3.28,-32.60,-67.72,-4.37,0.69,-0.68,1721228719343
42.08,-60.54,78.45,-4.37,4.37,-0.86,1721228719353
-31.04,59.03,78.45,-0.89,-0.66,0.39,1721228719363
-3.75,-39.74,-25.48,1.95,1.44,-0.64,1721228719373
61.51,78.45,-78.45,3.67,-3.73,-0.32,1721228719383
-49.22,-31.71,-34.49,-0.72,-2.67,1.35,1721228719393
51.13,-22.20,74.60,-3.96,2.84,-1.06,1721228719403
-0.66,23.39,65.94,0.96,-3.02,-0.13,1721228719413
2.38,-15.67,-13.36,1.22,1.60,0.28,1721228719423
1.31,8.60,-0.27,0.27,-0.09,1.05,1721228719433
-12.92,18.39,-0.63,2.16,-0.76,0.46,1721228719443
3.68,-19.24,-6.82,0.69,-0.02,-0.71,1721228719453
-3.77,8.10,12.17,-2.25,0.94,-0.77,1721228719463
0.08,78.45,51.61,0.47,0.40,-0.13,1721228719473
-1.89,-37.84,-59.24,3.70,0.74,-1.69,1721228719483
-12.12,-70.00,-64.80,2.74,-1.94,-0.49,1721228719493
-26.59,-51.83,6.65,-2.91,-4.37,0.42,1721228719503
78.45,78.45,38.83,-0.27,-0.14,-0.76,1721228719513
-1.92,-11.00,51.26,0.20,1.67,-1.04,1721228719523
12.30,39.88,-34.32,1.89,-1.00,-0.95,1721228719533
-5.51,-10.31,-57.51,-0.53,-0.86,-0.73,1721228719543
-10.56,-78.45,-43.24,-3.06,0.27,-0.24,1721228719553
10.71,25.35,15.01,-1.93,2.86,0.18,1721228719563
-9.52,9.26,78.45,1.01,-1.02,-0.50,1721228719573
-78.45,78.45,34.67,-1.63,2.55,-1.76,1721228719583
-1.32,47.31,-46.54,2.37,-0.80,1.19,1721228719593
2.17,-7.45,-45.95,-0.54,-0.53,1.56,1721228719603
41.51,-78.45,-26.29,-4.37,1.14,-0.31,1721228719613
-1.77,43.93,58.65,2.71,-1.17,0.93,1721228719623
-29.67,63.73,13.12,1.39,-1.57,-0.95,1721228719633
-8.15,-7.76,-44.82,-1.39,1.70,-0.86,1721228719643
-62.32,10.96,78.45,-2.91,2.45,-0.15,1721228719653
11.91,-44.00,36.54,-2.34,2.39,-0.64,1721228719663
-26.94,-30.75,-21.21,4.37,-2.27,1.12,1721228719673
-3.63,-0.65,-4.63,-4.22,4.13,1.89,1721228719683
3.11,-32.57,-26.86,1.05,0.04,0.52,1721228719693
12.91,-16.12,-9.83,2.53,-1.48,0.84,1721228719703
10.21,40.32,37.45,-1.15,0.36,-0.04,1721228719713
-2.48,49.64,62.46,-0.08,-0.58,0.11,1721228719723
11.15,48.95,34.11,1.16,-0.48,0.29,1721228719733
5.20,-78.45,-73.41,2.07,0.03,-1.20,1721228719743
0.04,-37.40,1.49,-1.21,-0.37,-1.50,1721228719753
-2.04,-8.99,7.34,-2.96,1.16,-1.48,1721228719763
-7.54,-1.92,-23.67,1.09,-0.83,0.25,1721228719773
-14.67,-74.21,-14.84,0.39,-1.55,1.40,1721228719783
-3.69,23.70,78.45,-1.18,0.47,1.98,1721228719793
20.31,55.02,29.95,0.50,0.97,1.32,1721228719803
19.49,-78.45,-40.57,1.53,-0.32,0.60,1721228719813
6.44,-1.19,-56.86,-3.55,-0.15,-1.98,1721228719823
-50.03,-78.45,78.45,-2.96,-1.02,-1.39,1721228719833
-25.82,65.58,78.45,0.36,0.87,-0.37,1721228719843
-4.55,1.90,-31.83,4.37,-0.29,1.01,1721228719853
-15.72,30.35,-78.45,1.93,-0.45,1.98,1721228719863
-22.29,10.42,-17.19,0.14,-4.37,2.25,1721228719873
54.83,-63.70,22.49,-4.37,4.37,-0.07,1721228719883
-69.04,32.86,68.57,-1.72,-3.86,-1.03,1721228719893
12.98,42.83,67.57,1.92,-0.12,-0.40,1721228719903
-4.92,1.24,-49.96,4.37,-1.14,1.14,1721228719913
7.14,17.88,-36.44,-0.18,-1.07,1.07,1721228719923
15.03,29.00,-49.78,-3.03,2.71,0.50,1721228719933
9.43,-9.31,17.95,-4.10,1.78,1.07,1721228719943
-13.03,44.23,32.46,1.98,-1.01,-0.68,1721228719953
3.57,-13.95,-2.66,1.88,0.12,-0.63,1721228719963
5.66,-20.60,-78.45,-0.65,-0.16,-0.84,1721228719973
14.38,31.80,10.97,-2.51,0.70,-0.50,1721228719983
-5.57,58.46,20.17,0.16,-1.30,-0.48,1721228719993
2.72,-8.33,8.09,0.44,-0.55,-0.95,1721228720003
-7.05,-8.92,-5.08,0.00,-0.32,0.03,1721228720013
-7.69,-41.96,-25.38,1.16,-0.30,-0.72,1721228720023
4.87,-2.09,-17.50,-0.86,-0.44,-0.50,1721228720033
-43.03,20.07,36.47,1.44,-0.21,1.27,1721228720043
-9.44,-1.68,39.72,-0.55,0.21,0.26,1721228720053
-13.97,-15.20,15.20,0.44,-0.28,0.86,1721228720063
8.82,-11.20,-2.04,0.30,0.20,0.25,1721228720073
3.97,-0.88,34.33,-0.52,0.30,-0.29,1721228720083
4.48,28.27,25.18,1.20,0.07,-0.83,1721228720093
-0.57,-14.59,-43.10,0.83,-1.11,-1.82,1721228720103
-7.37,51.75,64.25,-2.14,0.03,-0.62,1721228720113
-17.03,50.25,15.04,0.60,1.05,0.42,1721228720123
-38.00,-78.45,-59.85,2.32,0.58,2.29,1721228720133
-6.23,-32.11,8.83,-4.37,-2.44,-0.78,1721228720143
-28.87,48.51,78.45,4.00,-3.07,1.03,1721228720153
1.23,52.73,2.70,3.06,1.09,0.76,1721228720163
-3.33,-78.45,-78.32,4.37,-0.87,-1.11,1721228720173
0.30,-38.67,-78.45,-4.32,0.59,-1.31,1721228720183
5.50,-70.84,78.17,-1.18,4.37,0.07,1721228720193
15.64,78.45,11.26,1.36,0.79,-0.73,1721228720203
-36.43,-66.73,-45.63,1.10,-0.00,1.93,1721228720213
18.77,-29.18,-29.24,-2.05,0.61,0.04,1721228720223
-25.23,-3.33,56.77,-1.22,0.60,-0.31,1721228720233
5.37,-9.26,50.91,-0.65,0.29,0.46,1721228720243
11.93,36.50,7.10,1.24,-0.02,-0.18,1721228720253
9.10,30.10,-7.53,0.39,-0.18,0.11,1721228720263
0.99,-3.14,-5.10,-2.32,0.95,-0.53,1721228720273
7.48,-39.59,-12.69,-1.28,0.34,-1.16,1721228720283
3.68,0.64,16.34,-0.47,-0.72,0.12,1721228720293
-13.14,6.69,71.89,-0.44,-0.48,-1.05,1721228720303
-4.40,13.60,42.61,0.94,0.04,0.21,1721228720313
-19.47,-30.04,-37.43,1.58,0.14,0.81,1721228720323
10.60,42.57,-17.19,-0.84,2.21,0.27,1721228720333
6.97,17.44,-19.51,0.31,-1.31,0.22,1721228720343
5.79,-78.45,-57.26,-4.37,1.94,-1.57,1721228720353
-8.05,-5.66,51.23,1.86,-1.58,-0.65,1721228720363
3.14,21.63,9.89,1.44,0.81,0.09,1721228720373
-13.16,-10.56,-29.58,1.03,-0.54,2.12,1721228720383
-0.51,-4.99,-0.18,-4.09,1.53,-0.06,1721228720393
9.41,-6.64,37.23,0.26,-0.84,-0.46,1721228720403
-23.35,-53.06,-10.21,1.05,0.17,0.34,1721228720413
-0.32,-14.69,-10.96,-0.52,-0.33,-0.34,1721228720423
-1.38,-0.16,32.15,-1.61,0.87,-1.11,1721228720433
-13.67,18.63,-26.34,2.74,-1.25,-1.01,1721228720443
-6.21,-11.56,-25.70,1.30,-1.81,-0.20,1721228720453
17.54,-57.86,78.45,-4.37,4.37,-0.03,1721228720463
8.46,30.75,78.45,-1.20,2.06,1.41,1721228720473
8.96,-16.35,-10.16,1.19,1.47,-0.95,1721228720483
5.24,78.45,-38.74,2.94,-1.25,-0.85,1721228720493
-27.19,20.98,-59.72,-0.47,-1.89,-0.45,1721228720503
-0.53,-64.07,-34.41,-0.07,-2.59,-0.64,1721228720513
4.13,-78.45,-13.77,-2.47,4.37,-2.07,1721228720523
-73.75,-26.84,78.45,-1.37,-0.05,-0.36,1721228720533
4.59,37.22,20.52,0.08,4.37,-0.24,1721228720543
-8.40,-23.77,-17.50,4.37,-1.87,0.16,1721228720553
-2.51,-11.45,-78.45,2.60,-4.37,0.39,1721228720563
-30.04,-5.11,-42.94,0.08,2.78,1.51,1721228720573
1.87,27.91,77.69,-1.51,0.83,-0.78,1721228720583
12.85,39.05,-3.25,1.42,-1.12,-0.07,1721228720593
2.09,-27.32,-32.91,0.45,1.82,1.67,1721228720603
-6.05,27.58,6.51,-0.33,-0.12,1.53,1721228721149
-1.01,41.75,20.15,0.58,-0.18,1.53,1721228721154
7.29,20.21,0.21,0.63,0.92,1.69,1721228721164
-13.59,-78.45,-38.60,2.61,0.14,1.18,1721228721174
-4.98,-61.24,-47.60,-1.54,-1.31,-0.85,1721228721184
9.64,-0.28,78.45,0.63,0.40,-1.49,1721228721194
-0.98,26.02,78.45,1.20,-1.10,-1.26,1721228721204
-45.58,-12.82,-77.69,4.37,0.69,-0.37,1721228721214
3.44,-5.12,-57.60,-2.81,0.72,0.83,1721228721224
-6.88,-77.74,32.38,-1.99,4.37,1.16,1721228721234
11.74,17.80,-9.64,1.05,0.51,0.90,1721228721244
3.57,-47.72,-26.58,1.11,-0.63,1.74,1721228721254
-3.22,-16.80,74.81,-2.06,1.94,0.04,1721228721264
-16.45,40.74,78.45,-1.70,0.22,-1.16,1721228721274
-28.53,1.00,1.50,3.15,2.56,0.95,1721228721284
-12.67,7.26,-74.41,4.14,-0.04,1.00,1721228721294
1.22,1.38,-78.45,-1.88,1.39,1.42,1721228721304
26.81,-25.80,-16.87,-3.71,4.37,-0.89,1721228721314
-45.41,-78.45,78.45,-0.58,1.40,-2.78,1721228721324
65.14,78.45,78.45,2.35,1.96,-1.58,1721228721334
-9.74,-47.25,-70.12,2.67,2.08,0.66,1721228721344
37.51,-11.68,-78.45,4.37,-4.37,-1.21,1721228721354
8.33,12.48,-65.22,-0.59,4.37,0.19,1721228721364
-48.46,-6.01,-11.37,-4.37,2.01,-1.76,1721228721374
-35.62,78.45,46.79,-0.70,-3.74,-1.19,1721228721384
-3.12,-14.35,33.10,4.37,0.02,-1.86,1721228721394
-23.48,27.50,-20.32,0.97,-2.50,0.35,1721228721404
12.74,-1.32,-11.92,-3.51,2.09,0.69,1721228721414
-38.54,54.82,-7.34,-1.35,0.81,0.35,1721228721424
1.50,45.92,23.27,2.04,-0.68,0.17,1721228721434
-9.04,8.03,-46.45,1.21,-0.02,0.16,1721228721444
10.17,-37.81,-23.81,-1.53,0.16,-0.75,1721228721454
-2.96,-31.00,-7.04,-3.32,2.42,-3.03,1721228721464
78.45,78.45,29.41,1.42,-1.20,-1.38,1721228721474
-0.50,-32.87,-36.42,1.79,1.61,-2.17,1721228721484
5.08,46.75,-50.62,-0.52,-1.77,-0.44,1721228721494
4.36,32.39,78.45,-1.60,-0.85,0.72,1721228721504
-23.65,-40.59,52.87,-0.84,1.10,-0.55,1721228721514
-10.64,27.28,-71.59,2.52,-1.28,0.49,1721228721524
-3.13,-20.71,-46.24,0.71,0.12,-0.25,1721228721534
8.13,-38.55,4.31,-2.22,1.04,-0.17,1721228721544
-78.45,76.20,45.86,2.04,-2.81,-0.40,1721228721554
2.19,-8.60,4.56,-0.22,1.10,-0.46,1721228721564
3.15,-18.22,-18.50,0.12,-1.19,-0.27,1721228721574
0.95,-56.74,78.45,-2.54,2.85,-1.14,1721228721584
-1.52,7.84,26.62,2.00,-1.64,-0.26,1721228721594
21.37,16.78,-54.46,1.58,-1.26,0.32,1721228721604
-0.00,-10.17,-20.41,-0.77,0.79,1.00,1721228721614
27.97,-58.03,40.93,-3.44,2.46,-1.32,1721228721624
14.76,78.45,78.45,-0.22,-0.19,-0.76,1721228721634
-14.98,22.64,13.11,2.09,-0.68,-0.40,1721228721644
-15.55,-7.09,-41.51,4.37,-0.96,-0.08,1721228721654
-23.03,-71.62,-56.18,-1.82,-0.00,0.06,1721228721664
15.98,-42.20,8.34,-4.37,0.47,-0.21,1721228721674
78.45,78.45,-17.84,0.04,0.24,-0.52,1721228721684
7.50,-27.03,-37.18,4.37,1.16,-1.60,1721228721694
31.67,47.79,-53.07,3.52,-2.54,-0.08,1721228721704
8.42,-5.11,-34.08,-3.20,-2.16,0.52,1721228721714
29.98,-5.45,77.17,-3.56,4.37,-0.63,1721228721724
-26.13,-7.40,78.45,-1.30,-1.11,-0.70,1721228721734
3.22,-13.82,15.35,0.65,2.32,-0.29,1721228721744
1.45,-8.23,3.04,0.03,0.24,0.26,1721228721754
1.79,27.54,24.43,-0.14,0.11,0.82,1721228721764
-4.19,-21.14,-6.34,1.33,-0.03,0.19,1721228721774
12.81,1.55,-27.35,1.16,-0.79,0.70,1721228721784
4.41,-2.03,-3.97,-2.14,1.61,0.48,1721228721794
13.40,55.13,35.54,0.89,-0.53,-0.24,1721228721804
-11.59,51.08,8.61,1.21,-0.81,-0.22,1721228721814
-19.46,-78.45,-39.84,1.74,-1.49,0.58,1721228721824
17.07,-78.45,-5.00,-1.17,0.14,-0.81,1721228721834
22.18,62.09,63.53,-1.18,0.18,0.16,1721228721844
7.14,-8.97,20.20,0.59,-0.05,-0.49,1721228721854
3.07,-11.97,-5.78,0.62,-0.50,-1.21,1721228721864
-1.78,7.42,-2.44,-0.68,0.11,-1.01,1721228721874
-8.74,19.03,40.66,-0.53,0.29,-0.15,1721228721884
-3.15,5.17,28.87,0.11,0.72,0.35,1721228721894
0.24,-10.78,-3.94,-0.29,0.07,0.21,1721228721904
-1.47,38.19,15.40,0.72,0.54,0.31,1721228721914
4.19,-11.54,-44.60,0.53,-1.08,0.16,1721228721924
24.24,-40.39,-13.82,-3.59,1.12,-0.94,1721228721934
-2.58,19.41,30.66,1.23,-1.02,0.60,1721228721944
-1.04,4.57,-17.72,1.22,-0.83,0.27,1721228721954
4.34,2.14,-52.18,-0.47,-0.02,-0.39,1721228721964
4.76,-33.18,3.95,-4.37,3.36,-0.82,1721228721974
52.97,78.45,77.88,3.20,-1.38,0.07,1721228721984
2.88,-13.81,-15.02,0.76,0.54,-1.70,1721228721994
14.43,48.76,-36.51,-0.48,-1.24,-1.50,1721228722004
-10.78,-56.47,23.55,-2.52,1.53,-0.27,1721228722014
24.53,-10.89,78.45,-1.08,3.39,1.65,1721228722024
-12.04,-11.27,-9.11,1.86,-0.65,1.99,1721228722034
5.16,-3.19,-28.37,1.08,-0.77,0.84,1721228722044
12.82,36.66,18.92,0.55,0.38,0.33,1721228722054
5.84,-7.12,8.33,-0.27,-0.65,-0.35,1721228722064
1.94,-56.31,-9.87,0.04,0.38,-1.36,1721228722074
-4.66,34.27,0.40,-0.69,-0.89,-0.72,1721228722084
-0.65,-1.73,-4.31,-0.38,0.52,0.03,1721228722094
-5.09,-13.32,44.24,-0.13,-0.73,0.57,1721228722104
61.87,78.45,61.25,0.10,0.63,1.15,1721228722114
11.31,-15.30,14.69,0.54,1.13,-0.88,1721228722124
4.32,-5.71,-11.18,2.70,-0.61,0.55,1721228722134
-0.24,-37.70,-46.65,0.90,0.45,-1.00,1721228722144
3.83,3.77,-26.88,-0.42,0.19,-0.29,1721228722154
7.92,-50.42,40.74,-3.90,2.47,-1.96,1721228722164
33.29,62.78,78.45,2.94,-3.18,0.96,1721228722174
-8.38,30.16,27.22,1.40,2.22,-0.02,1721228722184
-1.32,-23.81,-47.58,3.61,1.12,2.26,1721228722194
18.95,-45.94,-52.96,-1.60,-2.54,0.83,1721228722204
10.96,-30.02,4.27,-3.75,0.85,-0.55,1721228722214
20.28,78.45,31.13,0.98,-0.99,-2.62,1721228722224
-1.99,-21.20,-8.42,2.04,-0.45,-1.23,1721228722234
-8.88,19.12,2.25,-1.58,-0.34,0.18,1721228722244
-0.30,30.77,34.60,0.01,0.19,1.09,1721228722254
-19.33,-78.45,-27.93,1.18,-0.60,0.98,1721228722264
30.27,-13.90,-78.45,1.12,0.40,-1.56,1721228722274
9.73,-42.05,10.78,-1.94,0.06,-0.26,1721228722284
-33.30,-0.32,45.02,-0.54,-0.95,-1.46,1721228722294
-2.75,52.11,41.08,0.04,1.18,-0.05,1721228722304
-0.26,-9.77,-24.02,-0.37,0.30,0.91,1721228722314
12.15,-31.33,-29.12,-1.48,0.27,0.15,1721228722324
2.78,4.06,0.91,-0.64,0.04,0.79,1721228722334
-4.55,-4.80,39.04,0.96,-0.23,0.02,1721228722344
2.27,-38.79,1.36,0.81,-0.75,-1.44,1721228722354
-8.30,10.91,45.35,0.26,-0.59,-0.51,1721228722364
-2.77,78.45,44.41,0.20,-0.49,0.22,1721228722374
-4.22,5.00,-1.45,1.04,0.10,0.76,1721228722384
-7.48,-78.45,-35.20,-2.03,1.84,0.98,1721228722394
-9.00,-42.14,-35.80,-0.63,-1.15,0.62,1721228722404
28.25,33.09,78.45,-1.86,2.22,-0.50,1721228722414
-5.97,18.39,18.62,0.63,-1.00,-0.99,1721228722424
-26.21,-75.31,-15.86,2.62,-0.96,-0.01,1721228722434
1.72,4.42,-9.21,-3.31,-0.04,0.13,1721228722444
55.81,78.45,56.75,0.39,-0.44,0.80,1721228722454
0.59,-7.44,4.00,0.76,-0.41,0.45,1721228722464
10.81,-19.91,-17.33,-0.06,-1.40,0.46,1721228722474
-3.07,-18.87,24.21,-0.32,1.41,-0.91,1721228722484
-0.42,-2.74,13.12,-0.04,-1.50,-1.81,1721228722494
-26.12,-6.72,-8.64,-0.10,0.28,-0.51,1721228722504
-18.56,20.68,23.23,1.43,-0.12,1.50,1721228722514
2.30,36.75,-20.89,1.40,-0.16,1.94,1721228722524
9.80,-18.42,-35.38,0.57,0.01,1.61,1721228722534
28.40,-41.20,4.32,-4.37,1.10,-0.82,1721228722544
-5.04,49.59,36.92,-3.61,2.28,-0.89,1721228722554
4.64,13.57,76.41,0.86,-0.29,-2.34,1721228722564
-32.60,27.41,-3.53,3.02,-0.54,-1.83,1721228722574
-12.15,8.87,-34.28,-1.26,0.94,-0.08,1721228722584
-15.78,-78.45,-5.00,-4.37,1.42,1.01,1721228722594
-1.09,6.68,36.94,-0.42,1.64,2.76,1721228722604
2.35,39.15,22.43,2.60,-0.64,1.02,1721228722614
5.41,-64.64,-34.98,3.38,-1.46,1.13,1721228722624
23.78,9.30,-17.59,-4.37,1.48,-0.49,1721228722634
17.06,16.97,0.96,0.62,1.23,-2.05,1721228722644
3.80,-9.56,13.42,1.40,-1.47,-1.80,1721228722654
-16.84,-20.66,-31.33,-2.10,1.63,-0.70,1721228722664
-20.01,-12.87,56.26,-0.48,-0.11,0.83,1721228722674
-8.32,22.01,19.79,0.24,1.34,1.22,1721228722684
-30.28,-68.17,-29.68,2.45,-1.11,2.28,1721228722694
4.25,-11.91,-19.63,-1.65,-0.42,-0.72,1721228722704
2.92,0.07,34.08,-0.16,1.27,-0.44,1721228722714
-1.58,24.46,45.57,0.51,-0.25,-0.50,1721228722724
-12.28,27.66,-17.58,3.68,-0.02,0.34,1721228722734
3.01,-17.81,-23.95,0.47,-1.14,-0.04,1721228722744
21.40,-62.55,11.74,-2.45,1.55,-0.60,1721228722754
-36.78,43.46,20.54,0.63,-0.30,1.53,1721228722764
2.02,-6.42,-0.16,2.03,-0.08,-1.42,1721228722774
51.10,78.45,4.32,0.21,0.24,-0.38,1721228722784
25.60,78.45,-1.47,1.24,-0.73,0.77,1721228722794
-3.09,-43.37,-16.22,-2.24,0.25,0.02,1721228722804
-1.46,-38.93,74.29,-1.00,1.37,-0.45,1721228722814
34.28,39.69,21.51,0.69,-0.50,-0.34,1721228722824
-4.97,-78.45,-57.41,2.75,-0.24,-1.97,1721228722834
-0.78,-0.35,-65.41,0.50,-2.13,0.40,1721228722844
18.39,26.22,-2.94,-2.69,1.38,0.51,1721228722854
-8.43,4.07,78.45,0.63,-0.84,-0.40,1721228722864
-4.62,-78.45,48.88,1.33,-0.63,-0.62,1721228722874
-29.75,26.71,-45.15,2.47,-1.44,-0.56,1721228722884
0.37,13.27,-16.05,-0.53,-0.24,-0.39,1721228722894
-20.43,9.44,-10.40,-1.15,0.62,0.05,1721228722904
-2.11,-2.39,-13.27,0.59,-0.76,-0.02,1721228722914
-4.00,-7.52,71.43,-3.27,3.06,0.39,1721228722924
1.39,22.03,78.45,0.41,-1.09,0.40,1721228722934
3.51,-1.02,8.74,0.57,-0.89,-0.75,1721228722944
4.73,4.96,-3.81,2.18,0.06,0.11,1721228722954
-13.75,-55.98,-29.55,-2.72,-0.05,-0.95,1721228722964
-17.30,32.21,74.93,-2.36,0.76,0.69,1721228722974
-0.03,4.22,7.21,1.94,-0.26,0.43,1721228722984
4.33,-29.89,-31.09,-0.17,0.75,1.35,1721228722994
7.17,-19.96,2.35,-2.20,2.32,0.70,1721228723004
12.37,52.39,6.90,0.77,-0.86,0.63,1721228723014
15.64,-29.44,-42.86,1.62,-0.23,-0.66,1721228723024
15.65,-9.79,-7.23,-2.59,1.53,-1.32,1721228723034
-6.93,25.62,34.35,-1.04,-1.05,-1.39,1721228723044
-3.65,-28.03,12.35,2.08,-1.34,-1.27,1721228723054
-17.36,9.96,33.13,-0.63,-1.19,0.57,1721228723064
-1.82,40.44,62.65,-1.40,3.03,1.49,1721228723074
1.11,33.61,0.61,0.95,0.11,0.77,1721228723084
7.01,-63.84,-37.80,3.12,-0.79,-0.11,1721228723094
-7.88,-78.45,-64.59,0.97,0.75,-0.32,1721228723104
-4.17,-15.91,-21.59,-3.21,-2.53,-1.10,1721228723114
-9.17,-16.73,39.51,0.58,-0.53,0.07,1721228723124
-9.83,21.82,78.45,-0.11,-1.05,0.92,1721228723134
1.27,32.56,-6.15,3.08,-0.25,0.56,1721228723144
-4.17,-52.35,-34.32,1.47,0.39,0.10,1721228723159
8.21,-30.48,-32.14,-1.39,0.80,-0.35,1721228723163
18.44,-12.49,44.70,-1.36,2.34,-0.81,1721228723173
18.90,62.68,3.91,0.43,0.62,-0.29,1721228723183
-16.47,-78.45,-15.48,0.56,-1.20,-0.51,1721228723193
11.35,-27.91,-13.14,-3.62,0.52,-1.64,1721228723203
-25.95,28.92,15.88,1.95,-0.92,1.02,1721228723213
-5.32,-41.81,-11.46,1.41,0.00,-0.36,1721228723223
-14.06,39.56,53.44,0.20,-0.57,1.25,1721228723233
11.86,62.21,29.13,-0.16,1.56,1.14,1721228723243
-0.50,-78.45,-47.79,0.83,0.64,0.90,1721228723253
5.84,-35.88,-37.41,-2.43,1.56,-1.60,1721228723263
14.77,58.14,41.54,0.15,0.31,-1.57,1721228723273
-4.05,-16.22,13.74,0.81,-1.12,-1.24,1721228723283
34.70,78.45,16.85,0.10,0.92,-0.37,1721228723293
-6.44,16.19,6.11,-0.57,0.14,0.48,1721228723303
-20.62,-68.06,4.68,-0.57,0.59,0.33,1721228723313
1.94,16.29,8.55,-0.14,0.38,0.46,1721228723323
11.30,-8.00,4.95,1.05,0.14,-0.11,1721228723333
0.63,23.42,28.04,0.07,-0.31,-0.47,1721228723343
-3.96,6.74,-4.71,-0.26,-0.48,0.11,1721228723353
14.48,-56.30,-7.19,-2.42,0.95,-1.52,1721228723363
-10.38,4.13,47.85,-0.40,0.21,-1.14,1721228723373
-7.71,17.16,46.47,-0.47,1.04,-0.61,1721228723383
22.50,72.93,-26.17,3.10,-0.75,1.04,1721228723393
6.85,1.82,-39.35,1.36,0.56,1.62,1721228723403
9.68,-78.45,-61.33,-4.37,1.51,-0.94,1721228723413
7.08,-15.30,78.45,-0.30,0.65,-1.24,1721228723423
10.71,78.45,71.14,-0.39,-0.15,-0.17,1721228723433
-27.70,-78.45,-51.47,4.37,0.62,1.05,1721228723443
8.90,35.18,-25.28,-2.77,1.53,0.64,1721228723453
4.13,-2.66,13.09,-2.88,-0.10,0.78,1721228723463
0.91,-33.13,-33.88,-0.19,-0.04,0.26,1721228723473
20.97,70.54,26.32,0.67,-0.91,-0.34,1721228723483
-6.30,26.89,-2.15,1.13,0.39,0.25,1721228723493
0.95,10.74,6.30,-0.37,0.15,0.27,1721228723503
-26.17,-78.45,-17.34,0.17,-1.08,-0.27,1721228723513
15.83,2.86,28.26,-0.03,0.88,-0.21,1721228723523
-7.65,10.04,4.97,0.50,-0.94,-0.27,1721228723533
-22.09,-78.45,-4.58,-0.37,1.07,-1.49,1721228723543
-11.98,34.24,62.99,-0.34,-1.54,-0.02,1721228723553
7.61,78.45,22.97,1.09,1.40,0.04,1721228723563
-33.18,-78.45,-66.26,0.67,-0.03,0.93,1721228723573
-8.53,-78.45,-78.45,-2.47,0.85,-0.62,1721228723583
-31.07,27.91,78.45,-0.53,0.09,-0.77,1721228723593
-17.00,24.11,37.23,1.45,-1.76,-0.75,1721228723603
-22.34,-47.07,-47.07,4.37,-1.08,-0.08,1721228723613
-17.72,4.48,-18.61,-4.37,0.95,0.33,1721228723623
-17.96,19.39,46.94,-0.85,2.10,0.59,1721228723633
4.01,-12.65,10.58,0.89,-0.68,-0.43,1721228723643
3.77,-3.66,10.82,3.15,-1.85,0.49,1721228723653
36.03,17.22,-10.70,-1.93,-0.37,-0.28,1721228723663
6.43,67.98,32.65,-1.45,1.91,-0.70,1721228723673
13.11,-78.45,50.29,-1.70,-2.11,-2.37,1721228723683
-31.77,39.50,78.45,-2.80,1.07,-1.48,1721228723693
-2.64,71.40,70.17,-1.07,0.42,-0.30,1721228723703
-40.90,2.36,-45.68,4.37,0.34,2.06,1721228723713
12.72,-55.29,-70.33,4.37,-2.32,0.67,1721228723723
7.56,-71.46,-64.05,-3.51,-1.85,0.60,1721228723733
14.64,-11.20,28.92,-4.37,3.03,-1.79,1721228723743
-73.66,78.45,3.17,-4.37,4.37,-0.28,1721228723753
-43.36,-78.45,-37.96,4.37,-0.63,0.52,1721228723763
-65.65,-6.81,-61.92,3.13,0.46,3.89,1721228723773
-59.03,-54.74,-78.45,-0.32,-0.57,2.85,1721228723783
13.81,6.44,-17.60,0.15,4.37,-0.26,1721228723793
3.46,38.98,78.45,-0.28,-3.61,-0.63,1721228723803
-0.34,60.10,78.45,0.78,0.71,-0.60,1721228723813
-78.45,-36.49,-52.30,2.99,0.64,1.04,1721228723823
5.19,-17.51,-22.65,-2.16,0.16,-1.08,1721228723833
10.99,-78.45,33.85,-4.32,4.37,0.13,1721228723843
-51.63,30.70,40.22,1.49,-0.26,3.09,1721228723853
3.87,14.07,21.22,0.39,-0.22,1.12,1721228723863
6.92,-21.32,-15.37,-0.26,-0.04,0.40,1721228723873
-5.58,54.26,18.76,2.04,1.05,-0.26,1721228723883
14.29,26.60,-21.40,-0.41,-1.04,-0.90,1721228723893
-11.67,-78.45,-9.22,-3.25,1.17,-0.84,1721228723903
-37.73,14.68,59.48,-0.58,1.10,1.43,1721228723913
-6.05,2.75,66.95,-1.00,1.98,0.77,1721228723923
-10.87,-64.16,-39.90,2.66,0.46,1.17,1721228723933
-2.18,-14.64,-12.85,-4.13,-2.95,0.59,1721228723943
-2.72,78.45,54.65,0.89,-1.02,0.01,1721228723953
-3.10,7.21,-20.57,3.89,-1.13,0.13,1721228723963
8.37,-58.44,-73.50,-0.71,-0.57,-0.05,1721228723973
-37.62,-47.89,-38.98,-2.73,-2.62,0.77,1721228723983
39.47,78.45,78.45,-0.03,4.37,-0.02,1721228723993
2.62,2.73,9.24,-1.41,-2.38,-0.03,1721228724003
2.93,-1.98,2.31,-1.54,2.73,0.59,1721228724013
6.49,78.45,10.63,0.16,-0.44,0.83,1721228724023
8.43,-72.03,-10.45,-0.03,0.34,-1.00,1721228724033
3.47,-4.72,2.12,2.87,0.66,-0.98,1721228724043
-27.68,38.44,-7.93,-0.58,-1.66,0.15,1721228724053
-17.00,-45.00,-27.80,-1.98,0.74,0.26,1721228724063
-4.92,-31.11,57.20,-0.82,-0.06,0.88,1721228724073
27.84,56.56,75.13,1.55,0.71,0.69,1721228724083
-3.61,41.81,40.32,1.21,-0.01,0.12,1721228724093
13.13,24.41,-26.42,3.15,-1.11,0.61,1721228724103
14.00,-36.94,-68.72,0.88,-0.39,-0.58,1721228724113
-3.80,-42.63,-35.45,-3.78,-1.26,-1.09,1721228724123
13.56,-66.84,56.11,-2.46,4.37,-0.39,1721228724133
1.24,9.11,49.14,0.34,-1.44,-0.10,1721228724143
-6.66,-15.25,-1.71,-0.36,-0.35,0.22,1721228724153
-5.17,17.60,25.47,-0.94,-0.14,1.28,1721228724163
7.48,-40.39,-12.22,0.17,0.47,0.22,1721228724173
8.31,-12.08,-17.13,0.33,-0.18,0.31,1721228724183
-11.90,15.80,-13.14,1.30,-0.79,-0.73,1721228724193
3.81,-21.18,-17.81,-0.78,-0.03,-0.52,1721228724203
-16.60,-44.29,78.45,-3.09,-0.18,-0.32,1721228724213
-21.03,78.45,78.45,-1.30,1.12,0.24,1721228724223
12.80,-61.28,-32.79,4.37,2.83,-1.39,1721228724233
19.46,-16.82,-78.45,4.37,0.98,-1.51,1721228724243
-47.01,-16.88,-69.28,0.63,-4.37,0.53,1721228724253
60.79,59.48,-1.57,-3.62,4.37,-0.92,1721228724263
-34.03,1.27,69.65,2.40,-4.01,0.35,1721228724273
5.08,-10.56,78.45,0.19,0.02,-1.28,1721228724283
2.79,64.00,-4.79,-1.85,-1.30,0.27,1721228724293
-3.37,0.22,-4.55,-0.04,1.77,0.40,1721228724303
20.42,-78.45,-24.25,1.43,0.73,0.92,1721228724313
7.87,21.62,-78.45,1.84,-1.48,-0.74,1721228724323
-1.90,-1.62,-13.72,-2.14,-1.02,-0.52,1721228724333
9.78,-37.48,-10.30,-1.75,1.85,-1.57,1721228724343
11.13,39.44,45.15,1.00,-0.77,-0.04,1721228724353
-1.55,14.00,8.97,-0.01,0.03,0.10,1721228724363
-0.02,-6.73,9.12,-0.29,0.15,-0.18,1721228724373
-4.50,1.76,-11.87,0.54,-0.65,0.27,1721228724383
-0.90,-21.90,-8.92,-0.90,1.03,0.16,1721228724393
1.83,7.88,51.39,-0.49,0.11,-0.29,1721228724403
0.52,-15.91,38.66,0.30,0.03,-0.55,1721228724413
-4.06,5.54,-12.77,0.36,-0.65,0.59,1721228724423
2.58,46.80,20.13,0.77,0.87,0.29,1721228724433
8.17,-8.39,-8.77,-0.12,-0.77,-0.38,1721228724443
-29.41,-36.36,-22.18,-1.21,0.14,-0.86,1721228724453
5.80,45.11,60.09,-1.66,2.46,-0.52,1721228724463
-15.10,22.51,6.79,0.34,-0.01,0.28,1721228724473
-24.26,-73.18,-16.80,1.41,-0.05,2.28,1721228724483
7.40,17.81,68.91,-1.45,1.46,0.33,1721228724493
-2.58,78.45,75.19,-0.70,-0.95,0.10,1721228724503
-18.82,-78.45,-39.60,1.17,-0.26,0.32,1721228724513
-15.24,1.21,-78.45,1.54,-2.31,1.15,1721228724523
23.78,21.70,-8.26,-1.81,0.90,-0.02,1721228724533
10.50,-49.08,64.54,-0.56,-0.03,-1.47,1721228724543
-0.65,21.09,26.95,1.51,-1.24,-0.44,1721228724553
-10.44,-10.11,-25.68,-0.25,0.26,-0.07,1721228724563
-5.19,-8.08,49.61,-1.43,2.10,-0.31,1721228724573
15.67,38.39,28.08,0.73,0.19,0.33,1721228724583
0.33,-8.28,-4.62,0.79,-0.66,0.13,1721228724593
5.85,-7.00,-0.79,-1.80,1.41,-0.73,1721228724603
1.30,18.31,40.09,0.06,-0.88,-1.09,1721228724613
-5.87,-3.94,18.65,0.27,-0.07,-0.36,1721228724623
-13.40,13.45,0.78,0.88,0.11,0.69,1721228724633
-6.66,0.15,16.37,0.55,-0.06,0.76,1721228724643
11.30,23.33,0.51,1.07,0.86,0.61,1721228724653
7.47,-14.08,-33.02,1.69,-0.35,0.53,1721228724663
5.64,-19.31,-16.79,-1.34,0.80,-0.46,1721228724673
0.85,-2.87,53.52,-0.63,0.63,-1.74,1721228724683
-20.25,4.69,32.40,1.48,-1.80,-1.50,1721228724693
-34.41,-21.62,-24.85,-0.14,0.00,0.22,1721228724703
-18.92,-35.62,5.12,-1.77,1.24,1.05,1721228724713
-8.70,-22.99,19.86,-0.33,-0.57,0.56,1721228724723
0.99,-27.25,31.89,0.74,0.63,0.23,1721228724733
52.35,78.45,2.82,0.57,0.15,-0.40,1721228724743
4.83,7.21,-26.36,0.30,-1.54,-0.31,1721228724753
-9.15,-48.27,-18.66,-2.15,1.27,-0.63,1721228724763
-3.17,-10.64,69.29,0.33,-1.78,-0.16,1721228724773
1.82,56.28,38.13,0.80,0.71,-0.16,1721228724783
-19.80,3.12,-63.46,1.71,-0.73,-0.34,1721228724793
-3.95,7.56,-22.29,0.59,-0.39,0.36,1721228724803
2.50,-6.21,-2.72,-2.58,1.27,0.68,1721228724813
-0.98,29.67,78.45,-0.71,0.59,-0.96,1721228724823
1.85,-46.78,30.57,0.89,-1.98,-1.64,1721228724833
-5.64,-6.50,-14.54,-1.62,0.63,0.26,1721228724843
-29.01,34.89,16.27,0.48,0.88,1.79,1721228724853
0.79,0.55,5.00,0.33,-0.05,0.90,1721228724863
5.24,7.51,-0.76,1.32,-1.13,1.87,1721228724873
0.84,-0.58,2.59,-0.35,0.84,0.03,1721228724883
8.85,-24.87,56.96,-0.37,-0.68,-0.41,1721228724893
-1.66,9.49,30.22,-0.06,-0.20,-0.41,1721228724903
-8.11,51.26,5.23,1.14,-0.53,-0.29,1721228724913
0.03,-10.73,-0.21,-0.05,-0.89,-0.16,1721228724923
0.03,-36.38,42.06,-2.04,0.80,0.42,1721228724933
1.05,-6.18,20.17,1.04,-1.03,1.54,1721228724943
16.01,19.82,15.01,-0.21,0.33,0.99,1721228724953
19.82,38.95,14.54,0.73,0.00,-0.05,1721228724963
10.52,22.73,7.89,0.23,-0.40,0.09,1721228724973
9.10,-38.35,11.33,-1.09,-0.61,-1.47,1721228724983
-4.31,-11.29,13.02,0.64,-0.22,-0.49,1721228724993
0.43,12.36,-5.60,1.73,-1.36,0.54,1721228725003
-4.18,-26.11,-13.31,-1.11,0.59,0.85,1721228725013
-3.20,17.00,49.80,0.20,0.31,0.30,1721228725023
-1.27,66.60,78.45,-0.99,1.08,0.54,1721228725033
-27.82,-78.45,-22.34,1.00,-1.18,1.18,1721228725043
-10.30,40.79,-58.39,0.43,-0.76,0.43,1721228725053
11.54,-19.07,23.60,-1.42,0.84,0.17,1721228725063
-11.89,-15.49,28.00,-0.68,0.30,-0.87,1721228725073
-39.30,50.99,19.73,1.86,-0.56,-1.16,1721228725083
-5.09,-12.76,-16.46,-0.29,-1.79,-1.10,1721228725093
-33.10,-78.45,78.45,-2.81,1.25,-0.06,1721228725103
-17.34,27.81,23.09,1.03,-0.70,1.92,1721228725113
1.90,-24.60,-38.84,0.55,-0.20,0.03,1721228725123
2.10,-11.50,-15.39,-2.09,0.00,0.38,1721228725133
-2.43,33.46,30.06,0.44,-1.59,-0.11,1721228725143
2.58,4.44,14.24,0.07,-0.42,-0.42,1721228725153
1.94,30.85,2.04,0.67,0.12,-0.33,1721228725168
2.50,4.12,-14.26,-0.39,-0.77,-0.46,1721228725172
-1.09,-55.46,-11.35,0.08,0.91,-1.12,1721228725182
-7.28,27.33,34.71,-0.01,-0.80,0.08,1721228725192
10.31,22.85,-5.66,0.03,-0.12,-0.16,1721228725202
-0.88,-48.98,-17.79,-1.10,1.25,0.49,1721228725212
-5.66,15.91,49.30,0.84,-1.05,0.78,1721228725222
6.26,38.25,47.53,-1.57,1.49,0.56,1721228725232
11.37,-53.67,7.08,0.22,-0.52,-0.46,1721228725242
33.51,55.97,-5.26,-0.35,0.58,0.08,1721228725252
10.81,-1.25,-8.41,0.17,0.21,-0.69,1721228725262
2.56,-11.20,2.25,0.39,-0.24,-1.39,1721228725272
-3.82,14.37,0.46,-0.33,0.18,-1.40,1721228725282
-15.24,20.71,18.44,-0.18,0.04,-0.80,1721228725292
-11.51,-16.18,27.33,0.21,0.14,-0.16,1721228725302
-2.00,-3.94,-14.46,-0.15,-0.03,1.10,1721228725312
1.55,-10.66,-9.65,-0.62,1.07,1.47,1721228725322
2.65,1.40,28.21,0.14,0.49,0.04,1721228725332
2.79,34.17,14.90,0.49,-0.01,0.18,1721228725342
12.32,-40.01,-15.90,0.48,-0.55,-0.71,1721228725352
-5.45,-3.34,27.73,-0.72,0.20,-1.22,1721228725362
-11.73,-0.03,20.43,1.36,-1.30,-1.01,1721228725372
-12.62,-4.32,8.77,0.36,0.33,0.19,1721228725382
-7.25,22.71,-12.67,1.30,-0.07,1.20,1721228725392
0.90,-41.75,-24.39,-0.01,0.77,0.60,1721228725402
21.45,-1.80,-1.19,-1.41,0.98,-0.03,1721228725412
12.34,1.95,54.82,0.53,-0.44,-0.89,1721228725422
-17.30,61.39,78.45,0.25,-0.25,-0.03,1721228725432
9.81,-22.71,-9.41,2.00,0.58,-0.65,1721228725442
1.69,-3.87,-27.97,-1.60,0.10,-0.71,1721228725452
-13.18,-31.63,-14.71,-1.42,0.44,-1.11,1721228725462
4.36,-1.02,10.32,-0.10,1.10,-0.28,1721228725472
-15.24,19.28,-8.79,2.03,0.60,0.98,1721228725482
-6.73,-26.21,-14.33,-0.91,-1.08,0.34,1721228725492
7.18,11.55,78.45,-0.35,-1.66,0.96,1721228725502
13.97,48.97,12.83,0.56,0.44,1.65,1721228725512
17.17,-44.29,-45.96,2.11,-0.18,0.40,1721228725522
15.11,-27.54,-32.13,-2.47,0.95,-0.78,1721228725532
4.85,-0.47,39.94,0.11,-0.89,-1.49,1721228725542
20.06,29.81,56.09,0.32,-1.52,-1.59,1721228725552
-47.84,-69.28,5.40,-0.28,1.03,-1.36,1721228725562
3.31,63.04,0.68,2.33,-0.83,1.28,1721228725572
-12.70,-6.51,-13.55,-1.22,1.84,1.45,1721228725582
1.52,-2.56,2.51,-0.83,1.52,0.92,1721228725592
2.01,-0.43,-9.18,1.93,-0.67,0.26,1721228725602
7.02,-12.39,-27.04,0.14,0.81,0.27,1721228725612
5.52,-12.75,2.86,-2.97,2.82,-0.87,1721228725622
0.97,12.28,-1.94,0.97,-1.43,-0.85,1721228725632
1.11,-24.76,-24.68,2.69,-1.81,-2.57,1721228725642
18.48,50.68,63.09,-1.46,1.70,-0.29,1721228725652
37.41,78.45,44.78,1.54,-0.18,1.42,1721228725662
-17.07,-77.89,-58.60,1.06,-0.22,0.72,1721228725672
