AccX,AccY,AccZ,GyrX,GyrY,GyrZ,Time
1.54,-5.48,12.65,-0.08,0.21,-0.18,1721206053125
-1.03,2.38,15.85,0.03,0.10,-0.24,1721206053130
-0.48,5.92,11.14,0.24,0.03,-0.16,1721206053140
-0.05,-6.03,2.04,-0.20,0.07,-0.01,1721206053150
-0.69,-0.98,13.10,0.01,0.23,0.06,1721206053160
1.11,-3.69,11.58,0.04,0.09,-0.07,1721206053170
-0.51,3.44,17.66,0.09,-0.04,0.00,1721206053180
-0.51,5.17,6.33,0.09,0.11,0.04,1721206053190
0.69,-1.04,8.45,-0.17,0.22,-0.01,1721206053200
-0.32,-3.34,12.39,0.03,-0.02,-0.07,1721206053210
-1.46,-0.17,10.34,0.05,0.12,-0.11,1721206053220
-1.99,3.34,11.09,0.13,0.06,0.01,1721206053230
-1.01,2.59,8.61,0.13,0.06,0.21,1721206053240
0.26,0.53,6.99,0.08,0.11,0.18,1721206053250
1.50,2.60,11.59,0.01,0.16,-0.05,1721206053260
1.24,-0.06,9.46,-0.07,-0.02,-0.11,1721206053270
-2.36,1.00,11.13,-0.15,-0.01,-0.06,1721206053280
-1.52,3.47,10.70,0.02,0.11,0.05,1721206053290
2.59,-1.39,8.88,-0.19,0.16,0.09,1721206053300
1.40,2.32,14.30,-0.02,0.02,-0.08,1721206053310
-0.07,-1.72,6.16,-0.18,0.04,-0.24,1721206053320
-3.06,1.26,14.28,-0.13,-0.05,-0.14,1721206053330
-1.56,-0.12,8.02,0.10,0.02,0.10,1721206053340
0.55,-1.66,8.85,-0.15,0.12,0.14,1721206053350
1.30,3.97,12.87,0.06,-0.04,0.07,1721206053360
2.26,-0.76,6.32,-0.14,0.05,-0.08,1721206053370
0.61,-0.65,13.30,-0.21,0.06,-0.18,1721206053380
0.21,-2.13,10.66,-0.08,0.03,-0.14,1721206053390
-0.96,0.66,9.30,-0.04,0.08,-0.07,1721206053400
-1.59,0.06,9.29,-0.11,0.04,-0.04,1721206053410
-0.40,-0.64,11.30,-0.10,0.05,0.01,1721206053420
0.72,1.05,10.30,0.04,0.04,0.03,1721206053430
0.47,-1.32,6.65,-0.11,-0.02,0.01,1721206053440
-0.37,0.80,10.65,-0.08,0.09,-0.06,1721206053450
0.22,-0.80,11.05,-0.07,0.01,-0.06,1721206053460
-1.46,0.06,11.13,-0.13,-0.04,-0.05,1721206053470
0.15,-0.89,5.77,-0.07,-0.02,0.04,1721206053480
1.56,0.14,13.08,-0.21,0.19,-0.01,1721206053490
0.16,0.26,15.82,-0.11,-0.11,-0.08,1721206053500
-1.45,1.39,12.22,-0.08,-0.00,-0.15,1721206053510
-2.63,1.16,10.62,-0.03,0.02,-0.12,1721206053520
-1.92,0.40,7.47,0.01,0.01,0.09,1721206053530
-0.17,0.50,11.45,0.00,0.08,0.17,1721206053540
1.05,-0.20,10.01,0.11,-0.05,0.07,1721206053550
0.99,4.34,9.87,0.12,0.08,-0.11,1721206053560
0.17,1.28,9.07,0.18,-0.15,-0.04,1721206053570
-1.22,0.58,9.93,0.05,0.07,0.08,1721206053580
-0.53,2.43,9.70,0.22,-0.07,0.06,1721206053590
1.13,-3.22,7.99,0.00,0.08,-0.03,1721206053600
-1.00,-2.23,11.32,0.05,-0.02,-0.09,1721206053610
-0.23,2.01,10.20,0.12,0.09,-0.10,1721206053620
-0.27,-0.00,8.79,0.09,0.04,0.02,1721206053630
-0.41,-2.29,8.34,0.02,0.06,-0.01,1721206053640
0.20,-0.68,11.83,0.07,0.04,-0.05,1721206053650
1.41,0.61,11.73,0.05,0.05,-0.03,1721206053660
0.81,-0.33,9.52,0.03,0.02,-0.16,1721206053670
0.39,-1.85,10.83,-0.00,0.03,-0.20,1721206053680
-2.13,-1.02,10.22,0.02,0.03,-0.19,1721206053690
-3.21,1.58,11.95,0.01,0.08,-0.22,1721206053700
-2.57,-3.61,9.20,-0.03,-0.06,-0.06,1721206053710
-1.91,-1.08,11.02,-0.03,0.10,0.08,1721206053720
0.24,0.51,10.32,0.07,0.06,0.02,1721206053730
0.13,2.60,8.87,0.08,-0.05,-0.06,1721206053740
0.17,0.94,11.51,0.08,0.07,-0.08,1721206053750
-0.62,-2.09,10.62,0.06,-0.10,0.02,1721206053760
-0.85,2.40,13.08,0.09,0.02,0.05,1721206053770
2.13,6.07,9.97,0.25,0.01,0.01,1721206053780
0.43,-3.06,4.92,-0.11,-0.12,-0.02,1721206053790
-2.40,-0.95,8.72,0.07,-0.09,-0.04,1721206053800
1.86,-2.49,11.24,0.00,0.27,-0.01,1721206053810
-0.21,3.82,14.46,0.15,-0.20,0.06,1721206053820
-0.24,5.07,11.12,0.08,0.08,-0.03,1721206053830
0.11,1.01,12.27,0.11,-0.03,-0.01,1721206053840
-0.71,-1.77,8.47,-0.00,-0.04,0.07,1721206053850
0.32,0.88,13.35,0.01,0.10,-0.04,1721206053860
-1.02,4.15,7.94,0.16,-0.14,-0.10,1721206053870
-1.98,1.09,6.95,-0.04,0.05,-0.04,1721206053880
-1.28,-3.97,9.36,0.04,-0.04,0.17,1721206053890
0.07,-0.95,13.31,0.01,0.08,0.16,1721206053900
1.41,7.94,12.44,0.27,-0.01,0.02,1721206053910
1.09,0.77,2.32,-0.05,-0.13,-0.05,1721206053920
-2.74,1.12,11.38,-0.03,0.01,-0.06,1721206053930
-0.17,-7.74,7.28,-0.12,0.05,0.01,1721206053940
-1.78,2.74,14.52,0.03,-0.08,0.08,1721206053950
-0.65,2.09,6.09,0.03,-0.09,0.06,1721206053960
0.54,-1.00,8.18,-0.23,0.05,0.07,1721206053970
0.07,-3.05,7.75,-0.09,-0.15,0.00,1721206053980
-0.99,-3.11,11.93,-0.25,0.08,-0.12,1721206053990
-1.66,2.38,13.80,-0.03,-0.17,-0.02,1721206054000
-1.05,1.45,8.36,-0.18,-0.01,0.15,1721206054010
-1.44,-0.43,10.76,-0.11,-0.16,0.22,1721206054020
2.01,-2.81,6.06,-0.17,0.01,0.11,1721206054030
1.36,0.81,10.71,-0.13,-0.05,-0.08,1721206054040
0.17,-1.47,6.34,-0.09,-0.14,-0.07,1721206054050
-1.84,3.51,13.26,-0.07,-0.02,-0.04,1721206054060
0.36,4.01,11.92,-0.03,-0.05,0.13,1721206054070
1.92,-1.37,9.04,-0.18,-0.07,0.25,1721206054080
2.67,-5.59,8.51,-0.16,-0.04,-0.01,1721206054090
0.85,2.98,12.98,0.02,-0.05,-0.23,1721206054100
0.66,2.51,11.05,0.15,-0.05,-0.11,1721206054110
-1.58,-0.91,9.61,0.06,-0.08,-0.00,1721206054120
0.16,5.42,9.13,0.26,0.07,0.09,1721206054130
1.29,-1.28,5.42,-0.00,-0.07,-0.06,1721206054140
-0.74,-0.40,14.75,-0.04,-0.03,-0.09,1721206054150
-0.67,2.12,13.22,0.21,-0.04,-0.05,1721206054160
1.52,2.43,7.36,0.11,0.01,0.00,1721206054170
0.86,-3.84,8.63,-0.11,-0.08,-0.11,1721206054180
-1.34,0.20,10.91,0.12,-0.05,-0.13,1721206054190
-0.24,-3.39,11.20,-0.02,0.12,-0.10,1721206054200
-0.27,4.33,14.49,0.19,-0.08,0.20,1721206054210
2.11,1.30,4.84,0.02,0.02,0.12,1721206054220
1.64,3.79,14.07,-0.06,0.07,-0.20,1721206054230
0.29,-3.93,8.75,-0.14,-0.18,-0.24,1721206054240
-2.09,1.07,15.11,-0.08,0.04,0.01,1721206054250
0.05,-8.31,4.94,-0.08,-0.03,0.10,1721206054260
0.24,-0.16,13.72,-0.00,0.10,0.03,1721206054270
1.70,2.57,3.08,0.31,-0.13,-0.02,1721206054280
1.09,-2.32,8.04,0.01,0.18,-0.21,1721206054290
-1.18,2.98,17.50,0.37,-0.07,-0.23,1721206054300
-2.70,4.06,7.85,0.35,-0.03,-0.04,1721206054310
-2.65,4.07,10.11,0.06,0.04,0.08,1721206054320
0.87,-1.77,8.00,0.01,0.00,0.21,1721206054330
2.58,1.34,11.86,0.06,0.07,0.08,1721206054340
3.42,2.54,3.33,0.20,-0.06,-0.23,1721206054350
0.31,-3.02,6.15,-0.15,0.02,-0.40,1721206054360
-2.72,0.14,16.96,-0.03,-0.01,-0.27,1721206054370
-3.44,2.27,11.85,0.08,-0.06,-0.06,1721206054380
-0.40,4.30,10.58,-0.06,0.12,0.16,1721206054390
2.52,0.48,9.88,-0.20,0.02,0.05,1721206054400
1.98,-0.46,13.06,-0.14,-0.03,-0.25,1721206054410
0.10,1.17,9.66,-0.01,-0.05,-0.34,1721206054420
-2.61,4.01,5.85,-0.08,-0.09,-0.29,1721206054430
-1.90,-0.57,14.20,-0.20,0.08,-0.04,1721206054440
-0.17,-0.31,20.09,-0.09,0.05,-0.01,1721206054450
1.00,2.55,14.92,0.02,-0.10,0.01,1721206054460
3.40,2.57,13.42,-0.11,0.28,-0.19,1721206054470
1.19,-0.11,10.18,0.10,-0.26,-0.33,1721206054480
-0.64,7.69,8.07,0.39,0.13,-0.35,1721206054490
0.26,0.41,0.17,0.40,-0.01,-0.24,1721206054500
-3.00,-0.36,2.81,0.13,0.01,-0.27,1721206054510
-1.49,1.76,-0.07,0.34,-0.07,-0.05,1721206054520
2.65,-2.11,5.33,-0.22,0.37,-0.14,1721206054530
0.09,-2.05,12.15,-0.08,-0.36,-0.18,1721206054540
0.19,-5.95,10.01,-0.30,0.28,-0.34,1721206054550
-0.56,-4.94,16.55,-0.18,0.02,-0.24,1721206054560
0.62,4.40,12.92,-0.08,0.10,-0.14,1721206054570
3.24,1.49,9.08,-0.11,0.10,-0.21,1721206054580
0.64,-1.19,7.88,-0.29,0.06,-0.53,1721206054590
-2.09,-4.74,9.61,-0.26,0.07,-0.47,1721206054600
-3.20,0.17,11.89,-0.30,0.20,-0.32,1721206054610
-1.87,7.82,16.58,-0.21,0.09,-0.21,1721206054620
-1.22,2.14,10.67,-0.31,0.06,-0.21,1721206054630
-0.84,-5.54,7.18,-0.29,0.06,-0.18,1721206054640
0.39,-1.99,9.18,-0.27,0.21,-0.12,1721206054650
1.53,-0.11,14.79,-0.25,0.19,-0.34,1721206054660
-1.80,3.70,12.52,-0.03,-0.08,-0.46,1721206054670
-2.57,-4.97,7.42,-0.20,0.19,-0.32,1721206054680
-2.88,0.52,16.06,0.11,0.08,0.05,1721206054690
1.42,5.03,5.70,0.23,0.17,0.07,1721206054700
2.35,-0.62,7.15,-0.00,0.07,-0.25,1721206054710
-0.30,0.92,12.27,0.18,0.18,-0.40,1721206054720
-1.67,-1.74,12.79,0.08,0.16,-0.32,1721206054730
-3.45,2.30,12.98,0.20,-0.05,-0.08,1721206054740
-1.59,-0.83,5.22,0.07,0.18,0.03,1721206054750
0.06,-0.36,14.95,0.06,0.26,-0.11,1721206054760
0.28,-0.03,12.52,0.28,-0.04,-0.16,1721206054770
-0.99,1.29,6.63,0.25,0.09,-0.09,1721206054780
-1.24,4.22,8.76,0.31,0.15,-0.17,1721206054790
1.09,0.17,12.39,0.09,0.23,-0.19,1721206054800
-0.44,-0.99,13.76,0.15,-0.09,-0.11,1721206054810
-1.03,1.48,7.18,0.28,0.14,-0.11,1721206054820
0.77,-0.08,8.23,0.13,0.21,-0.15,1721206054830
-0.27,0.82,15.77,0.11,0.08,-0.22,1721206054840
-1.09,-1.67,16.49,0.17,0.01,-0.17,1721206054850
-2.69,3.63,14.51,0.32,0.03,-0.04,1721206054860
0.79,7.45,11.72,0.32,0.25,-0.01,1721206054870
1.31,2.04,8.40,0.25,0.00,-0.10,1721206054880
-1.64,0.22,8.47,0.16,0.05,-0.23,1721206054890
-1.76,4.38,9.53,0.40,0.10,-0.12,1721206054900
-0.90,2.98,6.34,0.23,0.15,0.02,1721206054910
-2.02,1.81,6.87,0.20,-0.08,0.01,1721206054920
0.14,-2.21,8.45,0.13,0.19,0.05,1721206054930
-0.29,-0.37,5.72,0.25,-0.03,0.07,1721206054940
-0.44,0.92,6.03,0.09,0.21,-0.10,1721206054950
-1.02,2.62,7.56,0.28,-0.02,-0.06,1721206054960
-0.52,-3.30,6.79,-0.11,0.21,0.06,1721206054970
-2.17,1.03,13.98,0.02,-0.03,0.07,1721206054980
0.31,1.03,6.67,-0.04,0.08,-0.01,1721206054990
-0.41,-2.50,4.15,-0.23,-0.09,-0.06,1721206055000
-3.48,-1.79,6.15,-0.15,0.06,0.04,1721206055010
-0.70,-6.75,6.61,-0.34,0.10,0.16,1721206055020
0.21,-3.29,16.75,-0.19,-0.01,0.17,1721206055030
1.08,-0.96,10.68,-0.10,-0.08,0.08,1721206055040
-1.38,3.12,9.77,-0.25,-0.00,-0.08,1721206055050
-1.74,-1.69,10.34,-0.40,-0.06,-0.00,1721206055060
-1.76,-4.49,9.71,-0.36,-0.16,0.24,1721206055070
-0.00,0.91,10.02,-0.32,0.07,0.28,1721206055080
1.55,5.22,10.55,-0.21,-0.05,0.26,1721206055090
2.50,-2.38,7.97,-0.48,-0.05,0.06,1721206055100
0.46,0.72,15.90,-0.33,-0.14,0.01,1721206055110
0.19,0.36,12.94,-0.20,-0.10,0.06,1721206055120
-1.31,-1.15,13.03,-0.30,-0.04,0.09,1721206055135
-1.28,-0.29,13.37,-0.22,-0.15,0.11,1721206055139
-0.58,1.97,11.66,0.04,-0.02,0.20,1721206055149
1.09,-0.42,7.19,-0.03,-0.07,0.20,1721206055159
1.62,7.25,10.74,0.29,-0.00,0.24,1721206055169
2.63,-1.99,7.94,0.06,-0.04,0.10,1721206055179
0.97,3.92,17.69,0.13,-0.07,0.04,1721206055189
1.70,-2.66,9.65,0.04,-0.07,-0.02,1721206055199
-0.14,3.25,16.28,0.06,-0.05,-0.05,1721206055209
0.07,1.69,11.15,0.20,-0.14,0.07,1721206055219
0.38,-3.34,10.10,-0.01,0.05,-0.02,1721206055229
0.62,3.51,13.58,0.31,-0.09,-0.04,1721206055239
0.93,-1.52,5.88,0.13,-0.02,-0.09,1721206055249
-0.00,-4.61,9.15,0.01,-0.02,-0.12,1721206055259
-1.01,-0.62,11.73,0.22,0.00,-0.10,1721206055269
0.33,-1.08,3.75,0.19,-0.05,0.05,1721206055279
-0.53,1.24,9.60,0.11,0.02,-0.00,1721206055289
1.13,-4.64,10.96,0.14,0.02,-0.01,1721206055299
-0.29,-0.27,12.49,0.17,-0.06,-0.09,1721206055309
0.90,3.70,9.81,0.21,0.06,-0.01,1721206055319
0.59,0.30,5.68,0.07,-0.02,0.03,1721206055329
0.44,-1.62,11.75,-0.13,0.05,-0.01,1721206055339
0.79,0.05,13.87,0.08,0.07,-0.12,1721206055349
0.31,-0.19,7.09,0.04,-0.04,-0.12,1721206055359
-1.68,1.64,8.72,-0.09,-0.01,-0.00,1721206055369
-0.80,0.05,13.92,-0.08,0.11,-0.05,1721206055379
-0.27,-0.14,11.79,0.07,-0.03,-0.04,1721206055389
0.49,-1.62,7.09,-0.09,-0.02,0.12,1721206055399
0.23,2.17,10.02,-0.12,0.04,0.06,1721206055409
0.91,-0.98,12.37,-0.15,0.04,-0.09,1721206055419
-0.39,2.94,11.99,0.12,-0.08,-0.08,1721206055429
0.82,3.46,7.67,-0.03,0.07,-0.04,1721206055439
0.14,2.68,11.46,-0.08,-0.06,-0.04,1721206055449
0.51,-0.41,14.47,-0.35,0.08,-0.17,1721206055459
0.21,4.94,18.75,0.03,-0.09,-0.11,1721206055469
1.34,5.20,2.76,0.15,0.02,-0.15,1721206055479
0.70,-0.97,1.76,-0.05,-0.03,-0.17,1721206055489
0.66,-1.09,9.11,-0.06,0.26,-0.22,1721206055499
-0.03,1.94,8.67,0.13,-0.05,-0.31,1721206055509
-0.77,-0.48,5.95,-0.03,0.02,-0.22,1721206055519
-0.03,-0.98,8.62,-0.08,0.10,-0.11,1721206055529
1.55,0.62,13.13,-0.18,0.17,-0.20,1721206055539
1.77,-5.15,11.68,-0.17,-0.06,-0.17,1721206055549
0.59,0.84,14.88,-0.13,0.20,-0.36,1721206055559
-1.00,4.72,11.09,0.05,-0.01,-0.44,1721206055569
-2.13,-1.15,8.70,-0.31,0.12,-0.28,1721206055579
-3.06,-7.45,11.52,-0.29,-0.01,-0.04,1721206055589
-0.38,0.38,13.43,-0.11,0.24,0.02,1721206055599
2.34,3.32,9.83,0.00,0.09,-0.12,1721206055609
-0.06,2.93,6.22,0.00,-0.07,-0.29,1721206055619
-0.18,-3.86,9.07,-0.06,0.17,-0.24,1721206055629
-0.44,1.56,11.97,0.10,0.04,-0.05,1721206055639
0.51,7.22,7.45,0.26,0.05,-0.01,1721206055649
0.54,-1.76,7.33,-0.11,0.04,-0.22,1721206055659
-2.32,-4.06,12.87,-0.09,0.07,-0.29,1721206055669
-1.85,-2.46,14.28,0.01,0.13,-0.08,1721206055679
-2.44,3.24,11.27,0.12,-0.03,-0.00,1721206055689
-1.32,3.90,10.98,0.13,0.02,0.02,1721206055699
-0.57,0.29,10.94,0.08,0.09,0.01,1721206055709
-0.15,-1.36,11.67,0.14,-0.07,0.05,1721206055719
0.22,0.14,9.52,0.13,0.11,0.03,1721206055729
-0.65,5.03,10.05,0.23,-0.07,-0.06,1721206055739
-0.85,-1.86,7.59,0.05,-0.02,-0.08,1721206055749
-2.80,-3.70,11.77,0.12,-0.06,0.03,1721206055759
0.58,-0.19,11.81,0.24,0.13,0.19,1721206055769
0.84,2.08,7.01,0.16,-0.14,0.12,1721206055779
2.54,4.07,14.37,0.07,0.26,-0.17,1721206055789
1.15,-4.02,10.39,0.19,-0.25,-0.19,1721206055799
-2.68,-0.48,6.56,0.16,-0.01,-0.13,1721206055809
-0.25,1.14,9.64,0.20,0.22,0.01,1721206055819
-0.32,3.73,11.52,0.03,-0.04,-0.01,1721206055829
-1.03,3.84,11.72,0.11,-0.17,-0.13,1721206055839
-0.46,-2.99,5.32,0.00,0.01,-0.13,1721206055849
-0.91,0.38,8.79,-0.08,0.06,-0.05,1721206055859
-0.74,-0.03,9.49,-0.20,-0.06,-0.05,1721206055869
-1.81,-2.08,10.02,-0.14,-0.15,-0.11,1721206055879
0.09,-3.39,9.17,0.00,0.02,0.02,1721206055889
1.38,1.54,8.12,0.05,-0.04,0.04,1721206055899
2.20,0.15,7.22,-0.23,-0.00,-0.10,1721206055909
0.83,-1.34,14.74,-0.14,-0.04,-0.22,1721206055919
0.29,-5.01,8.77,-0.02,-0.10,-0.22,1721206055929
-1.69,2.80,9.99,0.07,0.04,-0.19,1721206055939
-0.39,-1.13,5.05,-0.09,-0.07,0.03,1721206055949
-1.34,-1.19,12.56,-0.20,0.01,0.06,1721206055959
1.47,2.70,15.23,0.15,0.07,-0.07,1721206055969
2.09,5.03,8.41,0.10,-0.05,-0.14,1721206055979
-0.70,1.29,7.35,-0.17,-0.11,-0.12,1721206055989
-1.78,-1.40,13.92,-0.16,0.07,-0.07,1721206055999
-0.79,2.51,13.50,0.00,-0.03,-0.12,1721206056009
0.04,6.55,9.80,0.13,-0.10,-0.03,1721206056019
-0.95,-1.43,6.09,-0.21,-0.05,-0.05,1721206056029
-2.33,1.01,16.17,-0.06,-0.01,-0.03,1721206056039
0.99,-3.17,11.65,-0.13,0.08,0.03,1721206056049
-0.47,4.26,16.48,0.06,-0.15,-0.09,1721206056059
0.12,1.88,10.91,0.07,0.03,-0.14,1721206056069
-0.89,2.20,15.21,0.03,-0.08,-0.15,1721206056079
-1.36,1.16,11.10,0.20,-0.11,-0.11,1721206056089
-0.49,2.35,11.52,0.20,0.07,-0.09,1721206056099
-0.72,4.06,9.66,0.41,-0.16,0.01,1721206056109
-1.54,3.41,6.21,0.29,0.05,-0.06,1721206056119
-0.36,-4.91,8.70,0.19,-0.04,-0.08,1721206056129
-0.74,0.12,11.41,0.23,0.02,-0.08,1721206056139
0.53,3.77,4.09,0.43,-0.08,0.03,1721206056149
1.28,-3.77,2.80,0.13,0.05,-0.01,1721206056159
1.20,1.57,9.37,0.28,0.03,-0.08,1721206056169
2.91,-3.36,0.41,0.16,-0.01,-0.18,1721206056179
-0.08,-0.04,7.70,-0.03,0.00,-0.31,1721206056189
-0.94,-0.48,6.39,-0.08,-0.02,-0.28,1721206056199
-1.44,-4.69,17.28,-0.38,0.06,-0.19,1721206056209
-0.46,0.88,16.31,0.27,-0.05,-0.06,1721206056219
2.62,-6.37,-2.08,-0.20,-0.03,-0.12,1721206056229
-3.56,-1.70,16.05,-0.32,0.06,-0.21,1721206056239
-2.34,-1.87,15.03,-0.05,0.02,-0.48,1721206056249
-2.53,-4.42,10.88,-0.08,0.00,-0.24,1721206056259
-2.55,-1.35,5.38,-0.11,-0.02,0.09,1721206056269
1.64,2.76,11.84,-0.25,0.25,0.16,1721206056279
4.01,-1.16,12.01,-0.23,0.06,0.00,1721206056289
3.46,-0.14,11.61,-0.19,0.16,-0.31,1721206056299
2.96,0.24,9.23,-0.07,0.06,-0.42,1721206056309
-0.47,2.52,8.22,-0.13,0.06,-0.42,1721206056319
-1.68,1.65,12.84,-0.18,0.24,-0.29,1721206056329
-2.29,-0.45,14.08,0.01,0.06,-0.10,1721206056339
-0.71,3.47,12.70,0.04,0.25,-0.01,1721206056349
2.14,-0.18,11.43,-0.04,0.16,-0.10,1721206056359
1.32,3.39,15.29,0.10,0.17,-0.19,1721206056369
1.27,2.99,10.67,0.27,0.18,-0.27,1721206056379
0.05,3.26,6.93,0.28,0.21,-0.26,1721206056389
-0.56,-1.36,7.31,0.22,0.20,-0.21,1721206056399
-1.46,1.88,11.79,0.17,0.26,-0.24,1721206056409
-1.34,1.10,11.78,0.22,0.15,-0.14,1721206056419
-0.71,1.53,12.72,0.20,0.25,-0.06,1721206056429
0.18,-0.49,7.72,0.30,0.11,-0.08,1721206056439
0.79,1.25,9.21,0.16,0.33,-0.19,1721206056449
-0.58,1.50,12.27,0.23,0.11,-0.22,1721206056459
-2.17,0.72,9.62,0.16,0.18,-0.20,1721206056469
-1.48,0.84,5.55,0.18,0.17,-0.08,1721206056479
-0.06,-1.02,7.04,-0.06,0.29,-0.08,1721206056489
-0.43,0.45,13.86,0.00,0.12,-0.10,1721206056499
-0.88,0.15,9.14,0.08,0.09,-0.14,1721206056509
-0.29,2.35,6.77,0.04,0.26,-0.10,1721206056519
0.55,-2.42,4.76,-0.21,0.12,-0.05,1721206056529
-0.62,-3.16,12.93,-0.18,0.11,-0.14,1721206056539
0.01,-0.28,13.30,0.04,0.18,-0.24,1721206056549
-1.40,1.89,10.76,-0.06,0.11,-0.24,1721206056559
-3.75,1.30,11.49,-0.21,0.05,-0.13,1721206056569
-2.15,-3.97,11.86,-0.22,0.15,0.07,1721206056579
0.15,-3.46,9.59,-0.14,0.11,0.11,1721206056589
1.70,0.09,8.25,-0.13,0.13,-0.09,1721206056599
-0.72,1.68,10.22,-0.08,0.02,-0.31,1721206056609
-3.18,-0.17,11.36,-0.16,0.02,-0.14,1721206056619
-3.75,0.97,11.43,-0.10,0.05,0.20,1721206056629
1.37,-0.77,8.84,-0.21,0.18,0.38,1721206056639
2.61,1.70,7.66,-0.10,-0.04,0.17,1721206056649
2.95,3.32,10.48,-0.09,0.20,-0.21,1721206056659
-1.09,-0.15,10.17,-0.09,-0.19,-0.21,1721206056669
-4.21,-1.23,9.88,-0.16,0.03,0.03,1721206056679
-1.71,2.64,13.34,-0.04,0.12,0.26,1721206056689
1.54,3.47,8.59,-0.05,-0.04,0.26,1721206056699
1.92,-0.39,9.28,-0.15,0.05,0.03,1721206056709
0.40,-4.38,8.45,0.03,-0.12,-0.01,1721206056719
0.40,-2.79,13.20,-0.13,0.25,-0.02,1721206056729
-1.03,7.24,18.99,0.07,-0.13,0.04,1721206056739
-1.94,7.13,9.42,0.10,-0.07,0.06,1721206056749
-0.49,-5.48,4.91,-0.02,-0.09,0.18,1721206056759
1.28,-6.35,7.65,-0.07,0.15,0.26,1721206056769
2.18,3.98,14.27,0.03,0.06,0.06,1721206056779
0.43,5.90,13.11,0.07,-0.03,-0.28,1721206056789
-3.15,-1.64,7.99,0.05,-0.20,-0.13,1721206056799
-2.92,-3.95,4.98,-0.04,0.01,0.27,1721206056809
1.81,1.53,14.00,-0.07,0.25,0.35,1721206056819
3.87,6.79,15.38,-0.02,-0.06,-0.09,1721206056829
0.06,-1.17,4.04,0.00,-0.28,-0.39,1721206056839
-3.59,-6.01,4.70,-0.22,0.10,-0.26,1721206056849
-2.89,-2.06,15.27,-0.18,0.08,0.09,1721206056859
-0.58,1.83,16.05,-0.04,0.01,0.17,1721206056869
1.30,3.51,8.58,0.11,-0.15,0.01,1721206056879
2.23,-4.41,6.09,-0.12,0.04,-0.11,1721206056889
0.09,-4.35,14.02,-0.06,0.01,-0.10,1721206056899
0.14,5.37,15.12,0.23,0.02,-0.12,1721206056909
0.29,5.66,9.23,0.23,-0.07,-0.07,1721206056919
-1.26,-1.08,7.57,0.05,-0.04,-0.02,1721206056929
-0.06,0.39,10.49,0.18,0.05,0.06,1721206056939
2.02,3.33,11.82,0.01,0.11,-0.06,1721206056949
-0.92,8.09,11.05,0.15,-0.22,-0.13,1721206056959
-0.53,-3.31,6.19,-0.10,0.10,-0.12,1721206056969
-2.08,-2.33,12.17,-0.05,-0.06,-0.02,1721206056979
-0.40,2.38,9.84,0.08,0.05,0.10,1721206056989
1.28,4.71,9.99,0.05,0.04,0.06,1721206056999
1.72,-2.50,9.40,-0.04,-0.07,-0.03,1721206057009
0.94,-3.56,15.51,0.04,0.13,-0.06,1721206057019
-0.10,3.31,10.74,0.28,-0.07,-0.16,1721206057029
-0.12,-1.23,8.59,-0.03,0.12,-0.20,1721206057039
-2.43,0.35,14.68,0.22,-0.16,-0.13,1721206057049
-2.32,-0.61,7.99,0.36,0.08,-0.06,1721206057059
-2.15,5.27,11.24,0.32,0.08,0.06,1721206057069
-0.70,5.87,9.30,0.32,-0.04,0.09,1721206057079
0.40,-3.13,7.18,-0.02,0.03,0.05,1721206057089
-0.66,1.09,11.63,0.12,-0.03,-0.05,1721206057099
0.51,2.63,9.70,0.18,0.05,0.02,1721206057109
-0.18,-2.93,5.44,0.04,-0.12,0.10,1721206057119
0.20,3.81,1.88,0.34,0.05,0.03,1721206057129
1.28,-0.10,10.00,-0.14,0.44,-0.09,1721206057144
-5.66,-3.30,16.66,-0.18,-0.08,-0.12,1721206057148
-0.34,3.72,22.79,0.30,0.05,-0.15,1721206057158
0.73,5.67,6.09,0.33,-0.18,0.03,1721206057168
-3.21,-4.77,-2.23,-0.36,-0.16,-0.03,1721206057178
-4.72,6.63,26.02,-0.37,0.14,-0.05,1721206057188
-0.71,1.19,11.61,0.14,-0.20,0.18,1721206057198
0.65,-8.24,-4.42,-0.50,0.03,0.16,1721206057208
-0.95,-5.68,25.58,-0.63,0.19,-0.14,1721206057218
1.07,8.06,18.44,0.52,-0.30,0.22,1721206057228
4.00,-9.57,-15.74,-0.01,-0.07,0.23,1721206057238
2.46,4.20,15.96,0.19,0.48,-0.09,1721206057248
0.15,5.25,8.77,0.40,-0.22,-0.38,1721206057258
-1.89,11.72,8.79,-0.01,-0.03,-0.30,1721206057268
-2.87,0.68,0.82,-0.09,-0.18,-0.05,1721206057278
-1.48,-16.13,4.11,-0.75,0.11,0.03,1721206057288
1.38,-3.53,19.76,-0.04,-0.12,0.25,1721206057298
1.46,-3.45,7.62,0.02,-0.02,0.13,1721206057308
1.51,0.45,13.40,-0.13,-0.02,-0.05,1721206057318
1.24,13.02,27.65,-0.17,-0.04,-0.12,1721206057328
0.98,8.84,15.43,0.11,-0.13,0.01,1721206057338
2.60,-17.08,-4.77,-0.22,-0.07,-0.29,1721206057348
-4.48,-9.48,-2.39,-0.13,-0.19,0.01,1721206057358
-4.09,4.61,20.04,-0.44,0.49,-0.05,1721206057368
2.20,7.02,29.75,0.23,-0.16,0.27,1721206057378
4.34,0.24,-5.54,0.39,-0.28,0.30,1721206057388
4.78,-8.06,2.38,-0.67,0.29,-0.23,1721206057398
-2.33,-0.17,48.88,-0.47,-0.18,-0.60,1721206057408
-6.15,2.68,17.13,0.86,-0.30,-0.17,1721206057418
-1.70,1.08,-19.86,0.29,0.06,0.48,1721206057428
0.68,-0.17,18.36,-0.00,0.70,0.46,1721206057438
4.35,22.10,17.29,0.89,-0.33,0.20,1721206057448
5.56,-1.37,-14.67,0.49,-0.05,-0.25,1721206057458
0.93,-11.41,3.92,-0.27,0.34,-0.40,1721206057468
-4.63,-3.03,22.60,0.27,-0.35,-0.16,1721206057478
-2.20,-1.49,15.40,0.26,-0.04,-0.01,1721206057488
-2.28,8.57,22.08,0.59,-0.06,-0.15,1721206057498
-1.19,10.94,1.19,0.74,-0.19,-0.08,1721206057508
0.37,-0.02,-2.62,-0.13,0.14,0.07,1721206057518
1.01,-3.54,12.57,-0.17,0.14,-0.02,1721206057528
2.12,-3.55,7.44,-0.02,-0.02,-0.23,1721206057538
-1.58,-5.92,23.58,-0.31,-0.03,-0.33,1721206057548
-2.61,8.22,21.63,0.59,-0.14,-0.05,1721206057558
1.47,7.27,-4.21,0.15,0.03,0.17,1721206057568
2.65,1.73,6.55,-0.28,0.04,0.23,1721206057578
6.56,2.68,16.86,0.03,0.27,-0.27,1721206057588
1.57,0.14,6.33,0.40,-0.27,-0.67,1721206057598
-5.49,-2.82,-0.19,-0.02,0.04,-0.64,1721206057608
-7.33,-0.61,14.87,-0.10,-0.02,-0.04,1721206057618
-2.64,3.45,15.99,0.08,0.14,0.51,1721206057628
4.83,4.77,4.19,0.44,-0.00,0.43,1721206057638
7.95,0.16,-6.01,0.24,0.05,-0.20,1721206057648
3.67,-0.74,-0.17,-0.05,0.08,-0.68,1721206057658
-2.12,-6.31,19.80,-0.43,0.14,-0.70,1721206057668
-6.56,0.09,28.70,0.16,-0.17,-0.30,1721206057678
-6.00,3.36,-3.74,0.43,-0.21,0.09,1721206057688
1.22,1.06,-2.10,-0.25,0.37,0.28,1721206057698
0.83,1.19,0.17,-0.20,-0.23,0.11,1721206057708
9.01,-8.25,14.87,-0.47,0.64,-0.61,1721206057718
-1.91,-5.97,23.19,-0.09,-0.49,-0.79,1721206057728
-9.97,-1.36,7.04,-0.03,-0.02,-0.47,1721206057738
-5.16,3.49,17.19,-0.07,0.36,0.22,1721206057748
1.06,-7.69,5.66,-0.39,-0.14,0.39,1721206057758
2.37,0.46,15.93,-0.28,0.27,-0.22,1721206057768
6.83,-0.00,18.94,-0.02,0.07,-0.57,1721206057778
-2.89,0.88,5.41,-0.21,-0.35,-0.59,1721206057788
-6.94,1.33,14.69,-0.33,0.29,-0.37,1721206057798
-3.83,-1.16,17.49,-0.11,0.01,0.10,1721206057808
-0.08,4.63,12.35,-0.03,0.06,0.26,1721206057818
4.15,1.67,10.23,-0.03,0.06,0.02,1721206057828
2.59,5.18,13.11,0.03,0.07,-0.41,1721206057838
0.24,0.00,7.29,0.07,-0.08,-0.51,1721206057848
-4.75,1.17,8.38,0.14,0.02,-0.32,1721206057858
-3.39,1.62,7.12,0.20,0.11,-0.07,1721206057868
-0.40,-1.20,11.53,-0.00,0.11,0.16,1721206057878
2.29,2.20,12.14,0.24,0.05,0.04,1721206057888
2.93,2.27,5.18,0.14,0.06,-0.31,1721206057898
-0.00,2.95,10.28,0.05,0.03,-0.45,1721206057908
-1.52,-0.74,12.41,0.07,0.10,-0.25,1721206057918
-2.51,-1.14,10.01,0.02,-0.05,0.01,1721206057928
0.29,3.53,4.43,0.10,0.11,-0.00,1721206057938
4.48,-1.99,7.63,-0.15,0.24,-0.17,1721206057948
0.40,-1.64,11.22,-0.07,-0.11,-0.33,1721206057958
-1.97,3.63,10.51,0.08,0.17,-0.40,1721206057968
-2.06,3.41,5.44,0.01,0.01,-0.24,1721206057978
-0.03,-2.66,8.08,-0.38,0.25,0.00,1721206057988
0.92,0.36,18.50,-0.33,0.19,-0.06,1721206057998
1.29,-2.94,8.69,-0.08,-0.11,-0.21,1721206058008
0.26,-4.53,7.52,-0.31,0.28,-0.33,1721206058018
-1.72,3.76,15.88,-0.09,0.09,-0.17,1721206058028
-1.08,4.20,11.63,-0.17,0.17,-0.10,1721206058038
-0.18,-6.17,11.69,-0.27,0.11,-0.13,1721206058048
-1.22,-2.39,12.18,-0.12,0.20,-0.28,1721206058058
-1.65,3.28,8.48,-0.01,0.10,-0.18,1721206058068
-1.94,1.73,10.71,-0.09,0.21,-0.10,1721206058078
-0.14,0.35,12.48,0.12,0.15,0.00,1721206058088
-0.61,1.53,2.68,0.05,-0.01,-0.04,1721206058098
0.37,-0.20,11.33,-0.14,0.36,-0.17,1721206058108
-1.27,-4.30,10.60,0.01,-0.06,-0.21,1721206058118
-2.46,1.14,14.51,0.03,0.24,-0.07,1721206058128
-1.62,11.96,16.29,0.25,0.13,-0.09,1721206058138
0.06,-2.68,7.44,0.01,0.01,-0.07,1721206058148
-1.11,-7.65,11.43,-0.19,0.19,-0.08,1721206058158
-2.18,4.95,10.83,0.28,0.00,-0.00,1721206058168
0.70,2.99,9.22,0.15,0.23,-0.01,1721206058178
-1.72,-1.39,12.19,0.25,-0.12,-0.00,1721206058188
-1.30,1.40,8.55,0.20,0.24,0.03,1721206058198
-0.01,0.24,17.20,-0.07,0.09,-0.00,1721206058208
-1.94,8.25,16.72,0.21,-0.12,0.14,1721206058218
1.86,6.06,5.02,0.50,0.20,0.25,1721206058228
1.88,-9.01,0.49,0.15,0.07,0.18,1721206058238
-1.49,-3.25,15.72,-0.04,0.04,-0.10,1721206058248
0.06,9.33,17.43,0.46,0.09,-0.06,1721206058258
-0.61,5.24,0.43,0.43,-0.22,0.10,1721206058268
-1.62,-8.89,-0.77,-0.03,0.08,0.26,1721206058278
0.74,1.72,16.17,0.20,0.29,0.23,1721206058288
2.07,2.27,-1.95,0.32,-0.25,0.13,1721206058298
0.81,-2.77,6.80,-0.40,0.29,-0.06,1721206058308
0.04,-6.66,21.85,-0.02,-0.11,0.09,1721206058318
-0.40,0.93,10.25,0.20,-0.06,0.29,1721206058328
1.93,4.19,-7.00,0.06,-0.01,0.27,1721206058338
3.66,-3.43,15.24,-0.61,0.45,-0.11,1721206058348
-1.60,-4.74,34.14,-0.09,-0.30,-0.11,1721206058358
-3.98,3.44,5.86,0.42,-0.16,0.17,1721206058368
0.82,2.05,-13.55,-0.33,0.09,0.41,1721206058378
2.06,-0.36,15.12,-0.48,0.31,0.25,1721206058388
1.42,-7.03,21.07,-0.11,-0.10,-0.13,1721206058398
-1.50,1.38,8.59,-0.01,-0.17,-0.11,1721206058408
-1.77,2.73,8.70,-0.22,0.07,0.17,1721206058418
-1.06,1.19,15.50,-0.34,0.01,0.27,1721206058428
0.44,1.07,17.38,-0.08,-0.05,0.16,1721206058438
2.80,0.21,6.85,0.04,-0.02,0.13,1721206058448
2.17,0.39,9.55,-0.12,0.04,-0.02,1721206058458
0.22,7.98,11.74,0.08,-0.07,-0.11,1721206058468
0.48,1.04,10.51,-0.14,0.12,-0.12,1721206058478
-1.12,-0.01,14.71,0.03,-0.09,0.02,1721206058488
0.40,2.83,8.96,0.06,0.08,0.01,1721206058498
1.36,4.67,12.22,0.01,0.07,-0.05,1721206058508
0.43,1.25,12.75,-0.03,-0.01,-0.12,1721206058518
-0.80,3.05,8.86,0.21,-0.08,-0.12,1721206058528
0.38,-3.24,4.22,0.05,0.12,-0.01,1721206058538
-1.13,1.94,8.06,0.07,-0.10,0.02,1721206058548
1.05,1.04,13.18,-0.02,0.24,-0.09,1721206058558
0.83,0.38,15.05,0.11,-0.07,-0.06,1721206058568
-0.64,2.23,8.31,0.07,-0.08,-0.00,1721206058578
1.08,0.39,8.62,0.02,0.14,-0.03,1721206058588
2.00,-3.30,10.76,-0.10,0.01,-0.08,1721206058598
0.18,0.41,10.88,0.07,0.01,-0.23,1721206058608
-0.81,0.46,7.25,0.02,0.05,-0.26,1721206058618
-2.45,0.28,11.67,-0.04,0.04,-0.07,1721206058628
-0.83,-3.72,8.94,-0.07,0.07,0.13,1721206058638
1.41,1.89,13.27,0.04,0.16,0.06,1721206058648
2.27,1.35,8.01,0.06,-0.03,-0.14,1721206058658
-0.97,-1.31,6.08,-0.08,-0.12,-0.24,1721206058668
-1.42,-3.72,11.50,-0.10,0.24,-0.18,1721206058678
-0.81,-0.19,14.00,0.00,0.05,-0.05,1721206058688
-1.88,1.77,6.67,0.04,-0.10,-0.08,1721206058698
-1.35,-2.58,8.18,-0.13,0.05,-0.03,1721206058708
-0.66,-2.80,14.06,-0.09,0.09,-0.03,1721206058718
0.52,-1.11,11.16,0.05,-0.04,-0.01,1721206058728
0.15,2.07,10.72,0.04,0.07,-0.10,1721206058738
-0.31,3.06,10.06,0.07,-0.02,-0.12,1721206058748
-2.02,-0.41,9.93,0.02,-0.05,-0.01,1721206058758
-0.56,-3.08,12.16,0.01,0.08,0.08,1721206058768
0.01,3.73,10.20,0.11,-0.09,0.11,1721206058778
2.16,0.18,10.94,-0.08,0.11,-0.04,1721206058788
-0.32,2.49,13.65,0.10,-0.16,-0.15,1721206058798
-0.92,0.39,7.80,0.09,0.04,-0.15,1721206058808
-1.40,0.14,10.73,0.06,-0.08,0.05,1721206058818
0.35,1.04,13.37,0.01,0.11,0.01,1721206058828
1.53,0.08,10.74,0.15,-0.12,-0.09,1721206058838
-0.13,1.47,4.35,0.11,-0.08,-0.15,1721206058848
-0.70,-1.76,10.20,-0.03,0.05,-0.13,1721206058858
-0.73,0.85,15.36,0.12,0.04,-0.04,1721206058868
-0.35,3.78,7.71,0.24,-0.05,-0.02,1721206058878
-0.21,-0.69,5.54,-0.03,-0.01,-0.11,1721206058888
-1.60,3.43,11.67,0.14,-0.06,-0.06,1721206058898
0.06,-1.02,7.37,-0.03,0.05,-0.12,1721206058908
-1.46,-1.34,11.38,-0.04,-0.10,-0.11,1721206058918
-0.62,0.67,7.48,0.08,-0.04,-0.02,1721206058928
-0.31,3.77,6.84,0.02,0.02,-0.01,1721206058938
0.92,-0.85,9.78,-0.15,0.03,-0.05,1721206058948
1.09,-1.75,13.08,-0.06,-0.07,-0.04,1721206058958
1.96,-0.36,9.06,-0.05,-0.01,-0.10,1721206058968
0.38,0.75,8.54,-0.15,-0.05,-0.22,1721206058978
-0.85,0.22,13.45,-0.15,0.02,-0.23,1721206058988
-1.28,-0.93,9.54,0.02,-0.13,-0.09,1721206058998
-2.33,1.81,8.50,-0.05,-0.01,-0.06,1721206059008
-0.99,1.07,12.97,-0.11,0.10,-0.06,1721206059018
-0.77,-1.23,13.92,-0.10,-0.11,0.01,1721206059028
-1.00,3.69,11.67,0.06,-0.03,0.02,1721206059038
1.22,3.67,9.47,0.08,0.01,-0.06,1721206059048
-0.34,0.84,6.19,0.02,-0.21,0.01,1721206059058
-0.26,-0.03,11.14,-0.05,0.09,-0.01,1721206059068
0.62,-0.77,12.93,-0.00,0.04,-0.10,1721206059078
-0.63,3.90,12.77,0.09,-0.14,-0.02,1721206059088
-0.36,1.35,7.09,0.01,-0.06,-0.02,1721206059098
-0.29,-3.33,12.57,-0.03,0.01,-0.02,1721206059108
-0.55,-0.62,12.74,-0.00,0.01,-0.16,1721206059118
-1.52,2.89,9.83,0.15,-0.15,-0.01,1721206059128
-1.82,-0.11,8.39,-0.06,0.08,0.06,1721206059138
0.54,-2.49,8.95,0.11,-0.14,0.12,1721206059153
1.59,-1.80,9.22,0.07,0.09,0.12,1721206059157
1.35,1.68,12.41,0.11,-0.12,-0.06,1721206059167
-0.44,0.60,9.52,0.07,-0.12,-0.14,1721206059177
-1.81,1.23,9.73,0.21,-0.12,-0.02,1721206059187
-0.19,-0.07,5.72,0.12,0.01,0.04,1721206059197
1.13,4.77,10.60,0.21,-0.01,0.07,1721206059207
2.35,-2.96,3.98,0.01,-0.11,0.00,1721206059217
-0.01,-3.36,12.93,-0.11,-0.03,-0.10,1721206059227
0.89,0.28,10.31,0.21,-0.01,-0.10,1721206059237
0.22,3.23,5.20,0.07,-0.12,-0.08,1721206059247
0.18,-1.53,9.49,-0.10,-0.02,-0.06,1721206059257
-0.13,-3.52,12.23,-0.08,-0.02,-0.08,1721206059267
-0.41,-1.29,11.31,-0.04,-0.08,-0.09,1721206059277
1.01,0.66,10.19,-0.06,0.05,-0.05,1721206059287
0.64,-1.91,12.04,-0.12,-0.09,-0.11,1721206059297
0.76,-3.72,12.46,-0.06,0.01,-0.09,1721206059307
-0.59,-1.49,10.43,0.04,-0.10,-0.15,1721206059317
-1.04,4.77,9.67,0.06,0.06,-0.13,1721206059327
-0.15,0.01,11.66,-0.13,0.07,-0.18,1721206059337
-1.03,0.81,13.85,0.13,-0.07,0.08,1721206059347
1.85,-1.52,6.15,0.04,0.10,0.17,1721206059357
2.84,3.13,9.66,0.03,0.06,-0.10,1721206059367
2.63,1.14,12.36,0.04,0.02,-0.32,1721206059377
0.14,1.69,11.93,0.13,-0.03,-0.30,1721206059387
-1.30,0.96,6.06,0.15,0.02,-0.22,1721206059397
-1.00,-2.38,8.53,-0.05,0.06,-0.11,1721206059407
-0.70,1.68,19.72,0.03,0.16,-0.12,1721206059417
-0.72,4.01,10.35,0.31,-0.09,-0.13,1721206059427
0.35,-0.25,1.97,0.02,0.07,-0.05,1721206059437
1.74,-1.13,13.04,-0.08,0.22,-0.14,1721206059447
1.40,3.22,13.67,0.13,-0.01,-0.24,1721206059457
-0.00,4.80,8.36,0.04,0.07,-0.31,1721206059467
-1.08,-4.76,8.18,-0.10,-0.00,-0.24,1721206059477
-1.46,-2.11,13.57,-0.05,0.12,-0.07,1721206059487
0.72,2.04,11.64,0.04,0.13,-0.18,1721206059497
0.51,4.66,10.82,0.10,0.02,-0.28,1721206059507
-0.47,2.99,5.71,0.06,0.08,-0.31,1721206059517
-0.79,-0.54,8.28,-0.07,0.12,-0.24,1721206059527
0.07,-0.79,10.03,-0.07,0.08,-0.10,1721206059537
1.49,1.31,11.54,-0.09,0.16,-0.24,1721206059547
1.46,-3.03,9.72,-0.10,0.02,-0.36,1721206059557
-1.87,-1.89,8.11,-0.06,0.04,-0.33,1721206059567
-1.25,0.62,8.80,-0.02,0.25,-0.21,1721206059577
0.54,0.69,10.19,-0.12,0.18,-0.26,1721206059587
-1.28,2.58,11.80,-0.06,-0.00,-0.39,1721206059597
-0.39,-1.24,12.52,-0.16,0.30,-0.39,1721206059607
-1.37,-3.40,8.20,-0.10,-0.01,-0.19,1721206059617
-0.60,-0.25,11.82,-0.22,0.29,-0.06,1721206059627
2.05,2.17,14.75,-0.02,0.19,-0.25,1721206059637
-0.25,1.41,4.57,0.04,-0.07,-0.43,1721206059647
-2.15,-6.51,4.28,-0.16,0.22,-0.42,1721206059657
-3.10,-1.47,19.66,-0.22,0.25,-0.14,1721206059667
-1.35,11.64,19.90,0.16,0.09,-0.08,1721206059677
-0.21,1.02,0.79,0.15,-0.04,-0.13,1721206059687
-0.86,-10.47,1.84,-0.13,0.23,-0.07,1721206059697
0.59,-1.21,13.23,0.06,0.31,-0.05,1721206059707
2.20,6.64,13.16,0.21,0.19,-0.28,1721206059717
-1.93,1.72,10.77,0.02,-0.02,-0.39,1721206059727
-5.71,-1.08,10.19,0.01,0.02,-0.08,1721206059737
-1.66,-5.60,12.06,-0.07,0.29,0.23,1721206059747
0.79,3.03,14.07,0.19,0.09,0.09,1721206059757
1.90,4.79,4.29,0.19,0.05,-0.26,1721206059767
-1.66,-3.55,6.54,-0.01,0.05,-0.30,1721206059777
-3.82,-5.21,8.21,-0.06,0.09,-0.03,1721206059787
-2.09,1.81,17.07,-0.03,0.17,0.12,1721206059797
0.71,4.45,16.63,0.06,0.08,0.06,1721206059807
0.07,-2.68,6.42,0.03,-0.13,-0.03,1721206059817
-0.48,-4.66,8.09,0.01,0.10,0.01,1721206059827
0.78,5.06,14.54,0.16,0.16,0.00,1721206059837
-0.25,3.00,8.92,0.09,-0.12,-0.16,1721206059847
-3.09,-1.23,6.83,0.08,-0.04,-0.09,1721206059857
-1.87,-2.87,8.85,0.01,0.20,0.11,1721206059867
-0.20,2.84,13.22,0.09,-0.02,0.25,1721206059877
2.24,4.59,13.22,0.12,0.05,0.05,1721206059887
1.53,4.16,5.51,0.28,-0.11,-0.11,1721206059897
0.22,-0.17,6.91,-0.02,0.15,-0.13,1721206059907
-1.92,-0.34,12.78,-0.01,-0.12,0.08,1721206059917
-0.66,1.71,13.26,0.07,0.18,0.12,1721206059927
2.70,0.43,8.52,0.17,0.03,0.10,1721206059937
1.80,3.17,8.18,0.04,0.06,-0.13,1721206059947
0.79,4.14,11.32,0.10,0.01,-0.17,1721206059957
-0.31,-0.38,8.77,0.00,0.03,-0.09,1721206059967
-1.45,-1.23,8.21,-0.04,-0.05,-0.01,1721206059977
-1.35,2.13,11.75,-0.01,0.16,-0.05,1721206059987
0.03,-2.05,7.67,-0.10,-0.04,0.01,1721206059997
-1.80,-3.63,12.49,-0.11,0.08,0.05,1721206060007
0.95,-0.61,13.81,0.04,0.27,-0.02,1721206060017
1.01,7.21,11.65,0.15,-0.09,-0.04,1721206060027
-0.11,3.22,4.42,-0.09,-0.02,-0.07,1721206060037
-0.46,-5.66,13.48,-0.26,0.19,-0.15,1721206060047
-1.57,-2.64,12.22,-0.01,-0.04,-0.01,1721206060057
-1.83,0.00,1.89,-0.10,0.01,0.00,1721206060067
-0.25,-5.27,11.48,-0.26,0.18,0.03,1721206060077
-1.67,1.42,15.58,0.01,-0.09,0.00,1721206060087
-1.20,6.25,9.89,0.02,-0.05,0.01,1721206060097
2.42,-6.21,10.19,-0.32,0.19,0.07,1721206060107
0.20,2.86,18.55,0.13,0.04,-0.01,1721206060117
-0.51,-3.75,-3.30,0.02,-0.20,-0.02,1721206060127
-1.62,2.18,9.07,-0.26,0.37,-0.03,1721206060137
1.84,-3.98,12.04,0.03,0.09,0.03,1721206060147
0.92,-0.26,13.85,-0.18,-0.03,-0.02,1721206060157
0.75,3.25,15.05,-0.03,0.03,-0.08,1721206060167
1.51,-0.53,10.19,-0.01,0.10,0.12,1721206060177
0.86,1.16,9.56,0.08,0.00,-0.00,1721206060187
0.81,-0.31,10.81,0.05,0.13,-0.23,1721206060197
-0.15,5.50,11.31,0.18,-0.01,-0.08,1721206060207
-0.70,0.07,3.35,0.03,0.04,0.01,1721206060217
-0.23,-6.24,11.82,-0.26,0.22,-0.02,1721206060227
-1.29,-0.58,19.36,0.13,-0.08,-0.03,1721206060237
1.49,1.75,10.95,0.05,0.20,0.15,1721206060247
0.16,5.52,8.72,0.20,-0.12,0.06,1721206060257
0.89,-2.67,8.89,-0.10,0.20,-0.26,1721206060267
-1.13,0.48,11.49,0.19,-0.06,-0.02,1721206060277
-1.09,-2.81,6.49,-0.06,0.21,0.15,1721206060287
-0.90,6.06,14.45,0.31,0.04,0.21,1721206060297
2.88,-7.35,1.14,-0.06,0.05,0.09,1721206060307
-0.99,5.47,15.94,0.04,0.01,-0.08,1721206060317
1.19,-1.65,7.71,0.04,0.14,-0.07,1721206060327
-1.22,1.57,16.65,0.07,-0.00,-0.06,1721206060337
-0.56,-5.08,3.27,0.06,-0.05,0.00,1721206060347
-1.75,-0.66,13.04,-0.02,0.16,0.04,1721206060357
-0.94,8.71,9.37,0.34,0.01,0.04,1721206060367
0.33,1.84,1.23,-0.02,0.01,0.11,1721206060377
0.80,-7.03,11.20,-0.24,0.13,0.06,1721206060387
0.98,-4.43,13.69,0.01,-0.04,-0.00,1721206060397
0.70,3.55,9.12,0.01,0.04,-0.00,1721206060407
1.51,0.94,13.32,-0.06,0.08,-0.06,1721206060417
0.17,-0.17,12.58,0.19,-0.05,-0.10,1721206060427
-1.10,6.62,6.53,0.30,-0.00,-0.10,1721206060437
-1.07,1.72,7.87,-0.25,0.09,0.00,1721206060447
-1.43,-1.89,22.30,-0.32,-0.03,0.08,1721206060457
-0.07,5.09,13.64,0.20,-0.02,0.14,1721206060467
2.16,3.09,-1.87,-0.10,0.08,0.09,1721206060477
1.25,-1.97,12.08,-0.42,0.15,-0.15,1721206060487
0.64,4.86,22.65,0.13,-0.10,-0.09,1721206060497
0.09,4.65,2.94,0.05,-0.08,0.03,1721206060507
-1.95,-2.76,7.97,-0.32,0.11,-0.05,1721206060517
-1.04,-1.27,15.99,-0.07,-0.06,0.16,1721206060527
2.62,2.67,6.50,-0.02,-0.04,0.16,1721206060537
2.91,-4.76,7.23,-0.16,-0.01,-0.15,1721206060547
-0.43,-1.63,10.21,0.07,-0.01,-0.21,1721206060557
-0.73,-0.32,9.44,0.02,0.14,-0.14,1721206060567
-1.52,-1.17,11.30,-0.00,-0.08,0.11,1721206060577
-0.35,1.13,10.74,0.09,0.04,0.09,1721206060587
0.48,2.16,6.22,0.06,-0.00,-0.01,1721206060597
1.64,-1.30,2.74,-0.08,0.05,-0.08,1721206060607
0.71,-8.58,5.43,-0.32,0.04,-0.22,1721206060617
-1.59,-1.37,12.07,0.04,-0.03,-0.06,1721206060627
0.74,-6.24,4.35,-0.01,0.14,-0.06,1721206060637
-3.50,-3.34,14.96,-0.11,-0.09,-0.17,1721206060647
-1.16,3.09,15.85,0.27,0.13,-0.09,1721206060657
1.31,2.45,11.80,0.11,-0.01,0.09,1721206060667
-2.72,6.07,11.82,-0.09,-0.19,-0.10,1721206060677
-2.73,-3.07,12.59,-0.22,0.02,-0.14,1721206060687
0.10,-6.21,15.10,-0.28,0.03,0.13,1721206060697
0.17,6.68,10.80,0.10,-0.16,0.18,1721206060707
1.50,4.64,13.13,0.02,0.15,-0.16,1721206060717
-1.19,-2.37,14.42,-0.04,-0.33,-0.25,1721206060727
-2.91,6.49,13.00,0.18,-0.10,-0.14,1721206060737
0.22,4.18,12.12,0.30,-0.01,0.11,1721206060747
-1.05,0.47,8.25,0.34,-0.27,0.16,1721206060757
0.07,6.27,6.26,0.65,-0.02,0.05,1721206060767
2.49,-3.20,7.48,0.44,-0.06,-0.00,1721206060777
-3.41,4.03,12.38,0.43,-0.41,-0.00,1721206060787
-0.47,4.12,9.11,0.43,0.15,-0.01,1721206060797
-0.68,-0.52,11.14,0.33,-0.15,0.08,1721206060807
-1.42,0.37,3.50,0.52,-0.12,0.15,1721206060817
2.26,4.74,0.95,0.52,0.09,0.15,1721206060827
3.31,4.07,-2.41,0.25,-0.13,0.08,1721206060837
4.64,1.10,5.77,-0.10,0.23,-0.16,1721206060847
2.80,-0.57,4.75,-0.03,-0.20,-0.26,1721206060857
0.80,-5.66,5.18,-0.44,0.17,-0.43,1721206060867
-1.69,-4.53,19.94,-0.25,-0.05,-0.34,1721206060877
-2.75,-6.25,13.24,-0.15,-0.10,-0.12,1721206060887
-1.80,-2.49,22.48,-0.02,0.21,-0.10,1721206060897
-1.07,2.06,12.45,0.26,-0.23,-0.11,1721206060907
-1.59,2.41,4.36,-0.22,-0.03,-0.07,1721206060917
-1.34,-1.91,13.66,-0.42,0.11,-0.12,1721206060927
-1.58,-5.14,15.51,-0.19,-0.14,-0.07,1721206060937
-2.16,-1.41,4.36,0.00,-0.19,0.05,1721206060947
1.91,2.46,5.82,-0.26,0.25,0.08,1721206060957
3.63,-1.97,14.30,-0.35,-0.02,-0.03,1721206060967
1.28,0.90,17.14,-0.18,-0.04,-0.25,1721206060977
0.06,5.63,5.36,-0.06,-0.11,-0.33,1721206060987
-1.02,-1.18,7.66,-0.44,0.17,-0.31,1721206060997
-3.00,1.76,12.30,-0.17,-0.09,-0.18,1721206061007
-1.93,-2.26,3.37,-0.34,0.04,-0.10,1721206061017
-1.23,-0.03,15.48,-0.24,0.10,-0.11,1721206061027
0.99,-2.10,13.91,-0.17,0.06,-0.04,1721206061037
-1.23,2.83,14.52,-0.13,-0.13,-0.04,1721206061047
-0.17,4.09,12.22,0.00,0.12,-0.18,1721206061057
0.69,-1.05,10.69,-0.10,0.01,-0.14,1721206061067
-1.36,10.04,15.73,0.30,0.10,-0.17,1721206061077
0.27,-6.62,-1.17,0.20,-0.02,-0.20,1721206061087
-3.14,0.08,9.10,-0.11,0.17,-0.06,1721206061097
3.15,-1.36,17.25,0.23,0.26,0.33,1721206061107
3.04,2.18,8.86,0.24,-0.30,0.16,1721206061117
5.06,4.07,6.88,0.07,0.37,-0.46,1721206061127
1.96,-1.84,18.56,0.18,-0.03,-0.54,1721206061137
-4.14,0.06,9.21,0.18,-0.11,-0.37,1721206061147
-3.51,-5.36,3.47,0.06,-0.03,0.21,1721206061162
-2.24,-4.63,5.03,-0.01,0.11,0.17,1721206061166
0.20,1.50,12.11,0.06,0.12,0.22,1721206061176
4.59,1.07,12.91,0.04,0.17,-0.03,1721206061186
2.95,1.24,10.47,0.04,0.01,-0.29,1721206061196
-0.42,-5.43,7.57,-0.10,-0.04,-0.38,1721206061206
-3.49,0.55,13.03,0.12,0.10,-0.21,1721206061216
-1.12,1.08,6.58,0.06,0.19,0.02,1721206061226
-0.65,0.69,8.74,0.03,0.05,0.10,1721206061236
1.96,1.42,11.03,0.03,0.26,-0.01,1721206061246
1.64,1.35,12.05,0.07,0.01,-0.21,1721206061256
-1.16,-0.37,10.35,0.00,-0.01,-0.22,1721206061266
-1.97,-1.69,11.08,-0.05,0.15,-0.08,1721206061276
-1.01,2.43,11.06,0.10,0.12,0.02,1721206061286
1.24,5.32,10.55,0.11,0.15,0.01,1721206061296
1.59,-1.09,2.33,0.07,-0.01,-0.02,1721206061306
1.08,0.19,21.21,-0.18,0.48,-0.26,1721206061316
-0.01,4.61,6.68,0.33,-0.25,-0.11,1721206061326
-0.47,2.70,-0.74,-0.23,0.36,-0.18,1721206061336
0.30,-9.01,24.18,-0.32,0.16,-0.20,1721206061346
-2.26,4.22,14.39,0.30,-0.21,0.10,1721206061356
0.98,3.68,4.47,-0.13,0.38,-0.03,1721206061366
-0.83,0.05,11.83,-0.01,-0.16,-0.13,1721206061376
-1.07,-0.90,8.57,-0.05,0.18,-0.12,1721206061386
1.23,1.75,9.41,0.08,0.14,-0.07,1721206061396
0.74,1.46,7.86,-0.01,0.10,-0.13,1721206061406
-0.51,-0.72,7.93,-0.08,0.08,-0.08,1721206061416
-0.41,0.11,13.56,-0.11,0.14,-0.04,1721206061426
0.77,3.89,15.35,-0.08,0.07,-0.05,1721206061436
1.20,0.89,8.25,-0.10,-0.00,-0.09,1721206061446
-0.53,-4.75,4.73,-0.19,0.06,-0.16,1721206061456
-0.34,-1.23,14.40,-0.15,0.25,-0.17,1721206061466
-1.44,1.60,13.20,-0.06,-0.04,-0.10,1721206061476
-3.39,4.07,8.63,0.04,0.07,-0.06,1721206061486
-0.54,-1.13,7.95,-0.21,0.20,0.06,1721206061496
-0.58,6.12,14.71,-0.11,-0.13,0.14,1721206061506
2.22,2.81,9.57,-0.17,0.19,-0.05,1721206061516
1.39,-4.62,11.23,-0.37,0.06,-0.17,1721206061526
-3.04,-4.73,8.45,-0.24,-0.21,-0.08,1721206061536
-1.03,-5.73,7.73,-0.23,0.24,0.01,1721206061546
-0.55,-3.24,10.84,-0.03,-0.08,0.13,1721206061556
-0.77,-0.56,10.63,0.02,0.10,0.14,1721206061566
0.74,3.03,11.18,0.23,0.05,0.11,1721206061576
1.39,3.08,7.35,0.13,-0.04,0.14,1721206061586
2.20,-1.28,8.53,0.02,0.09,0.01,1721206061596
1.64,-2.43,14.03,-0.01,0.04,-0.10,1721206061606
0.17,-2.09,8.97,0.13,-0.05,-0.07,1721206061616
-1.19,0.94,8.51,0.09,0.05,-0.09,1721206061626
-0.91,0.72,15.88,-0.03,0.09,-0.08,1721206061636
-1.57,2.28,16.40,0.08,-0.07,-0.03,1721206061646
-1.69,3.01,9.91,0.15,-0.06,-0.01,1721206061656
-1.17,2.08,5.77,0.06,0.03,-0.00,1721206061666
-0.70,-2.58,9.68,0.03,-0.01,0.07,1721206061676
-1.43,-2.03,8.82,0.15,-0.15,0.06,1721206061686
-0.26,-0.47,16.42,0.02,0.20,0.02,1721206061696
-0.07,6.80,25.30,0.13,-0.03,0.01,1721206061706
-0.08,5.33,17.30,0.30,-0.25,0.02,1721206061716
0.57,2.83,4.76,0.31,-0.11,0.10,1721206061726
2.40,6.02,11.16,0.46,0.16,-0.02,1721206061736
0.77,3.15,3.89,0.54,-0.29,-0.02,1721206061746
-0.22,3.29,0.56,0.57,0.11,-0.02,1721206061756
0.23,-1.18,-0.71,0.43,-0.01,-0.02,1721206061766
-3.65,2.50,-1.42,0.19,-0.17,0.05,1721206061776
2.57,-1.75,6.91,-0.02,0.32,0.09,1721206061786
2.94,-2.27,12.05,0.02,-0.07,0.04,1721206061796
0.23,2.12,8.91,-0.01,-0.09,-0.19,1721206061806
0.32,-0.31,10.34,-0.23,0.06,-0.26,1721206061816
-1.96,-1.16,15.12,-0.21,-0.03,-0.15,1721206061826
-1.97,-6.27,13.94,-0.33,0.04,-0.01,1721206061836
-1.65,-5.53,13.52,-0.06,-0.04,-0.01,1721206061846
-0.49,1.17,3.53,0.03,-0.05,-0.05,1721206061856
-2.29,5.32,6.07,-0.21,0.03,-0.15,1721206061866
-0.63,4.25,10.27,-0.22,0.03,-0.08,1721206061876
1.16,-4.06,11.22,-0.47,-0.02,0.00,1721206061886
-0.50,0.13,17.68,-0.49,-0.02,-0.04,1721206061896
0.29,10.68,11.56,-0.31,0.03,-0.23,1721206061906
2.52,-0.50,5.82,-0.59,-0.00,-0.20,1721206061916
-1.63,-1.80,12.35,-0.56,-0.00,-0.24,1721206061926
0.66,-5.04,12.75,-0.44,0.12,-0.18,1721206061936
0.28,-2.66,15.05,-0.45,0.05,-0.17,1721206061946
-2.47,2.63,10.51,-0.23,-0.02,-0.29,1721206061956
-1.22,-2.81,5.16,-0.23,0.13,-0.31,1721206061966
-3.44,0.16,13.07,-0.04,-0.03,-0.22,1721206061976
-3.26,2.15,7.71,0.10,-0.02,0.07,1721206061986
-1.92,1.72,15.10,-0.02,0.19,0.07,1721206061996
-0.72,-3.68,14.23,0.10,-0.11,0.16,1721206062006
-0.03,1.83,9.51,0.07,0.08,0.09,1721206062016
1.85,1.16,12.49,0.23,0.00,-0.05,1721206062026
1.81,8.35,10.26,0.63,-0.07,0.11,1721206062036
2.17,-4.02,0.56,0.18,0.10,-0.08,1721206062046
-1.80,-1.70,15.59,0.01,-0.11,-0.20,1721206062056
-2.55,0.89,9.98,0.35,-0.04,-0.09,1721206062066
-0.89,-4.00,10.80,0.06,0.08,0.14,1721206062076
0.43,-0.83,18.87,0.24,-0.02,0.22,1721206062086
2.21,0.82,14.17,0.25,0.00,0.08,1721206062096
1.61,6.11,21.16,0.11,0.15,-0.10,1721206062106
0.95,10.54,19.17,0.43,-0.08,-0.04,1721206062116
0.70,-7.88,3.12,0.04,-0.01,0.01,1721206062126
-0.40,-7.13,11.09,0.04,0.18,-0.03,1721206062136
2.01,-4.69,4.83,0.39,0.03,0.01,1721206062146
0.73,4.53,5.33,0.54,0.04,0.08,1721206062156
1.92,7.39,4.43,0.80,0.22,0.04,1721206062166
1.39,1.65,-3.63,0.71,-0.08,-0.04,1721206062176
-1.17,2.96,6.29,0.46,0.14,-0.11,1721206062186
-1.17,1.89,10.23,0.31,0.05,-0.04,1721206062196
-0.38,-2.34,10.00,0.35,-0.05,0.21,1721206062206
1.03,4.46,3.44,0.43,0.04,0.21,1721206062216
4.98,0.05,5.38,-0.08,0.26,-0.07,1721206062226
2.86,-1.66,21.87,0.05,0.04,-0.32,1721206062236
-0.66,-0.49,11.85,0.30,-0.04,-0.42,1721206062246
-3.97,3.95,5.49,0.05,0.06,-0.11,1721206062256
-1.13,-3.03,8.73,-0.21,0.22,0.27,1721206062266
1.37,1.79,7.28,0.13,-0.00,0.24,1721206062276
5.98,2.45,7.85,-0.20,0.43,-0.21,1721206062286
-0.10,0.61,19.83,-0.19,-0.23,-0.41,1721206062296
-4.86,-4.27,12.57,-0.24,-0.02,-0.17,1721206062306
-3.05,1.29,35.04,-0.29,0.40,0.14,1721206062316
-1.14,13.00,16.59,0.51,-0.29,0.19,1721206062326
0.20,10.09,-13.57,-0.20,0.06,-0.08,1721206062336
-2.47,1.11,-4.46,-0.09,-0.13,-0.05,1721206062346
-0.04,-11.31,0.31,-0.16,0.26,0.09,1721206062356
1.71,-1.89,1.12,0.38,-0.13,0.27,1721206062366
1.56,0.07,-11.11,-0.15,0.13,0.09,1721206062376
1.32,-2.94,6.77,-0.65,0.11,0.00,1721206062386
2.12,-2.46,21.55,-0.33,-0.20,-0.12,1721206062396
1.46,-2.68,10.55,-0.07,0.02,-0.28,1721206062406
-0.01,-7.25,13.45,-0.48,0.21,-0.40,1721206062416
-3.71,-2.55,23.25,-0.21,-0.11,-0.13,1721206062426
-4.00,-0.57,10.16,-0.07,-0.04,-0.01,1721206062436
-0.27,-2.03,14.70,-0.42,0.18,0.08,1721206062446
1.76,1.13,18.62,-0.20,-0.09,0.05,1721206062456
-0.52,3.38,3.50,-0.25,-0.19,-0.16,1721206062466
-0.97,-2.38,11.26,-0.59,0.21,-0.18,1721206062476
-0.94,-0.44,19.58,-0.26,-0.06,0.07,1721206062486
1.33,4.06,11.41,-0.13,0.01,0.14,1721206062496
2.83,1.75,14.18,-0.20,0.01,0.06,1721206062506
1.47,3.53,18.83,-0.08,-0.00,-0.13,1721206062516
0.62,5.42,14.72,0.16,-0.15,-0.25,1721206062526
0.37,5.23,12.65,0.26,-0.03,-0.29,1721206062536
-2.17,-1.73,8.65,0.22,-0.18,-0.11,1721206062546
-4.13,5.80,10.25,0.42,0.06,0.04,1721206062556
-0.94,2.70,1.31,0.39,-0.01,0.00,1721206062566
-3.08,2.62,4.92,0.27,-0.03,-0.04,1721206062576
-0.93,1.32,5.65,0.32,0.00,0.17,1721206062586
1.10,1.07,6.75,0.20,0.07,0.14,1721206062596
2.62,1.00,8.66,0.08,-0.01,0.07,1721206062606
3.10,1.22,13.73,-0.03,0.07,-0.08,1721206062616
1.59,0.06,12.22,0.06,-0.14,-0.23,1721206062626
0.68,-3.72,12.46,-0.11,0.04,-0.29,1721206062636
-1.37,-0.16,10.47,0.14,-0.14,-0.24,1721206062646
-1.69,1.03,5.13,0.04,0.02,-0.23,1721206062656
-1.74,3.22,10.53,-0.02,-0.04,-0.12,1721206062666
-1.31,-1.28,6.27,-0.12,-0.07,-0.08,1721206062676
-1.40,-2.69,13.12,-0.20,0.04,-0.12,1721206062686
-0.85,1.10,10.58,0.02,-0.07,-0.10,1721206062696
-0.81,3.54,6.51,-0.18,0.03,-0.13,1721206062706
-0.79,-1.52,11.77,-0.28,-0.04,-0.03,1721206062716
1.93,-3.65,16.28,-0.21,0.11,0.06,1721206062726
3.24,3.33,14.83,-0.05,-0.06,-0.12,1721206062736
1.17,5.53,8.44,-0.17,-0.10,-0.38,1721206062746
-0.87,2.88,10.97,-0.15,0.11,-0.32,1721206062756
-1.99,-3.51,6.57,-0.22,-0.08,-0.17,1721206062766
-2.03,-1.70,6.77,-0.13,-0.04,-0.02,1721206062776
0.40,-3.08,9.34,-0.21,0.19,-0.11,1721206062786
-1.06,-1.32,16.94,-0.11,0.01,-0.18,1721206062796
-1.37,0.36,12.19,-0.06,-0.01,-0.08,1721206062806
-1.38,4.43,10.54,0.01,0.03,-0.03,1721206062816
0.98,1.14,9.99,0.02,0.16,-0.08,1721206062826
0.52,-5.26,10.66,-0.08,-0.03,-0.17,1721206062836
-2.59,3.23,10.81,0.10,0.04,-0.16,1721206062846
-1.10,3.97,8.08,0.11,0.13,-0.03,1721206062856
0.69,-1.99,10.92,-0.04,0.00,0.07,1721206062866
0.56,2.05,11.54,0.07,-0.01,-0.12,1721206062876
1.12,2.91,7.55,0.09,0.04,-0.15,1721206062886
0.56,0.86,12.88,-0.05,0.09,-0.11,1721206062896
-1.14,-0.71,16.54,-0.02,0.05,-0.10,1721206062906
-0.21,3.19,9.38,0.19,-0.02,-0.01,1721206062916
1.16,-4.13,4.74,-0.17,0.15,-0.20,1721206062926
-1.41,-5.62,15.92,-0.09,-0.08,-0.14,1721206062936
-1.96,0.29,13.87,0.08,0.09,-0.10,1721206062946
0.14,1.55,10.41,0.23,0.06,0.08,1721206062956
0.51,3.08,8.64,0.23,0.08,-0.03,1721206062966
-0.24,-0.46,4.04,0.22,-0.07,-0.10,1721206062976
-0.83,2.26,8.51,0.20,0.22,-0.13,1721206062986
-0.11,0.30,3.46,0.29,-0.04,0.04,1721206062996
-1.39,0.77,6.11,0.15,0.05,0.10,1721206063006
2.33,1.86,11.20,0.16,0.24,0.09,1721206063016
1.98,-0.86,8.94,0.01,-0.11,0.03,1721206063026
1.02,-0.07,10.88,-0.01,0.10,-0.17,1721206063036
1.22,1.07,9.51,0.14,0.10,-0.22,1721206063046
-1.06,-0.45,7.89,0.07,0.00,-0.18,1721206063056
-2.36,-0.06,10.52,0.05,0.08,-0.11,1721206063066
-1.52,-1.18,12.40,-0.02,0.09,-0.08,1721206063076
-0.83,-0.80,17.75,-0.03,0.05,-0.02,1721206063086
0.39,4.09,13.21,0.10,0.03,-0.03,1721206063096
0.90,4.07,11.68,0.02,0.10,-0.16,1721206063106
0.79,6.45,13.45,-0.02,-0.16,-0.01,1721206063621
1.61,2.25,8.65,-0.01,-0.11,-0.03,1721206063626
0.21,3.40,10.29,-0.07,0.00,-0.22,1721206063635
-0.37,4.94,12.94,0.03,-0.00,-0.13,1721206063645
-1.86,2.94,10.10,-0.15,-0.11,-0.12,1721206063655
-1.73,-2.48,14.82,-0.28,0.09,-0.03,1721206063665
-0.65,-0.93,13.25,-0.03,-0.08,0.03,1721206063675
0.16,0.08,3.48,-0.06,-0.07,0.03,1721206063685
1.63,-1.55,11.01,-0.07,0.18,-0.14,1721206063695
-0.91,2.25,10.06,0.16,-0.22,-0.24,1721206063705
-1.71,-1.66,2.69,0.04,-0.04,-0.15,1721206063715
-1.30,-5.63,5.41,0.01,0.03,0.03,1721206063725
-0.38,-0.49,9.25,0.05,0.12,-0.01,1721206063735
-1.52,2.81,9.39,0.04,-0.10,-0.19,1721206063745
-1.49,-1.00,10.58,-0.03,-0.10,0.01,1721206063755
0.52,-3.14,7.87,-0.19,0.06,0.04,1721206063765
1.59,1.88,15.75,-0.25,0.03,-0.06,1721206063775
1.16,6.70,18.18,-0.12,-0.06,-0.13,1721206063785
0.17,-0.85,3.47,-0.30,-0.14,-0.18,1721206063795
-2.48,-2.15,9.18,-0.51,0.16,-0.30,1721206063805
-2.81,-3.97,12.67,-0.26,-0.16,-0.17,1721206063815
-2.01,-2.77,14.40,-0.34,0.05,0.07,1721206063825
0.84,-0.50,11.99,-0.13,-0.06,0.27,1721206063835
2.97,0.82,11.53,-0.11,0.08,-0.04,1721206063845
1.33,2.24,17.28,-0.01,-0.11,-0.22,1721206063855
0.29,2.37,18.90,0.22,-0.02,-0.17,1721206063865
-0.98,3.73,5.60,0.45,-0.11,-0.20,1721206063875
-1.80,5.83,6.83,0.36,0.12,-0.23,1721206063885
0.72,-0.15,10.41,0.50,-0.06,0.25,1721206063895
2.49,1.85,9.64,0.46,0.09,0.26,1721206063905
4.36,3.18,4.37,0.50,0.04,-0.06,1721206063915
3.03,2.05,3.45,0.40,-0.00,-0.36,1721206063925
-0.36,-0.38,7.26,0.30,0.06,-0.34,1721206063935
-2.50,-4.26,13.37,0.26,0.04,-0.20,1721206063945
-1.08,-1.03,9.78,0.40,0.05,0.16,1721206063955
2.44,-1.02,5.91,0.12,0.16,0.16,1721206063965
3.03,-3.04,21.45,-0.16,0.16,-0.30,1721206063975
0.23,4.07,20.94,0.45,-0.19,-0.28,1721206063985
0.62,4.13,6.40,0.44,0.24,-0.30,1721206063995
-1.50,-6.15,8.17,0.00,0.02,-0.31,1721206064005
-3.90,2.02,20.57,0.18,0.09,-0.21,1721206064015
-0.25,3.28,4.38,0.49,0.13,0.03,1721206064025
1.75,6.08,0.26,0.38,0.20,-0.04,1721206064035
1.45,1.21,6.90,0.24,0.23,-0.28,1721206064045
-0.60,3.37,7.01,0.41,-0.00,-0.24,1721206064055
0.40,1.16,5.09,0.14,0.26,-0.18,1721206064065
0.20,5.24,8.89,0.29,0.10,-0.13,1721206064075
0.75,-2.66,-2.18,-0.04,0.04,-0.25,1721206064085
-1.28,0.31,8.31,-0.33,0.19,-0.37,1721206064095
-0.35,-0.31,19.81,-0.01,0.17,-0.34,1721206064105
-2.70,-1.33,10.41,0.03,0.03,-0.38,1721206064115
-4.05,1.27,7.11,-0.14,0.09,-0.04,1721206064125
0.63,-2.27,11.55,-0.33,0.31,0.18,1721206064135
3.22,-1.66,11.82,-0.16,0.08,0.02,1721206064145
2.65,-0.82,1.46,-0.16,0.05,-0.40,1721206064155
0.63,-3.62,11.81,-0.37,0.31,-0.55,1721206064165
-3.09,1.05,15.13,-0.09,-0.01,-0.26,1721206064175
-3.29,4.09,7.06,-0.13,0.12,0.05,1721206064185
0.15,-0.72,9.02,-0.35,0.27,0.02,1721206064195
1.69,-2.60,11.90,-0.36,0.09,-0.04,1721206064205
1.77,1.71,11.37,-0.21,0.15,-0.28,1721206064215
-0.10,2.08,7.52,-0.17,0.04,-0.42,1721206064225
-4.43,-2.38,11.54,-0.39,0.10,-0.30,1721206064235
-5.04,1.59,15.70,-0.08,0.08,0.03,1721206064245
-0.56,-3.89,5.32,-0.20,0.19,0.27,1721206064255
0.85,2.31,12.64,-0.20,0.20,-0.02,1721206064265
2.38,3.08,16.13,-0.03,0.04,-0.12,1721206064275
0.81,-0.39,14.02,-0.09,-0.01,-0.07,1721206064285
-2.05,-4.39,7.15,-0.13,-0.05,-0.13,1721206064295
-2.24,0.78,15.44,-0.07,0.24,-0.13,1721206064305
0.06,0.20,15.68,0.05,0.07,0.10,1721206064315
-2.05,5.11,9.42,0.19,-0.10,0.07,1721206064325
1.62,-1.76,8.88,0.08,0.27,-0.02,1721206064335
1.20,-1.09,13.08,0.13,-0.07,0.05,1721206064345
0.44,4.74,9.36,0.24,0.08,-0.11,1721206064355
-0.86,-1.17,7.70,0.08,0.04,-0.17,1721206064365
-4.48,-1.91,10.87,0.07,-0.04,-0.04,1721206064375
-1.50,0.90,11.34,0.19,0.16,0.11,1721206064385
0.60,2.64,12.87,0.13,0.07,0.06,1721206064395
-0.32,3.64,8.25,0.09,-0.07,-0.09,1721206064405
-0.28,-3.04,9.40,-0.04,0.09,-0.10,1721206064415
-2.51,-0.23,9.80,0.06,-0.18,0.03,1721206064425
-0.47,2.88,10.35,0.05,0.21,0.05,1721206064435
1.07,-0.39,6.98,0.11,-0.12,0.07,1721206064445
0.61,-0.29,7.00,0.06,0.08,0.00,1721206064455
0.45,1.79,6.56,0.05,-0.04,-0.00,1721206064465
1.15,3.76,15.12,-0.08,0.25,-0.07,1721206064475
1.21,8.26,15.18,0.11,-0.04,-0.10,1721206064485
0.55,0.24,3.02,-0.23,-0.11,-0.11,1721206064495
-1.89,-3.50,9.72,-0.50,0.13,-0.18,1721206064505
-1.83,-2.45,12.75,-0.23,0.03,-0.09,1721206064515
-0.93,-1.46,6.00,-0.17,-0.04,0.09,1721206064525
-0.39,-5.07,5.27,-0.25,-0.03,0.17,1721206064535
2.09,-3.23,14.60,-0.21,0.23,0.06,1721206064545
2.64,2.47,15.80,0.09,-0.08,-0.09,1721206064555
0.61,1.47,5.83,-0.01,-0.06,-0.27,1721206064565
-3.11,-0.88,8.24,-0.04,-0.02,-0.19,1721206064575
-3.09,-4.72,8.74,0.01,0.05,0.08,1721206064585
-1.29,0.91,14.32,0.06,0.16,0.13,1721206064595
0.40,2.87,12.81,0.04,-0.09,0.04,1721206064605
0.01,5.46,9.99,0.10,-0.03,-0.06,1721206064615
-0.60,-1.59,10.08,-0.14,0.00,-0.09,1721206064625
-2.47,1.27,18.45,-0.15,-0.07,0.04,1721206064635
-1.12,3.98,9.73,0.11,-0.08,0.06,1721206064645
-0.21,-0.76,5.99,-0.08,0.06,0.01,1721206064655
-1.77,1.37,11.55,0.08,-0.15,0.00,1721206064665
-0.30,-1.80,10.83,0.03,0.06,0.04,1721206064675
0.73,0.24,19.80,-0.06,-0.01,0.07,1721206064685
-0.26,5.14,19.28,-0.09,-0.15,-0.01,1721206064695
0.40,8.07,15.97,0.06,-0.04,-0.06,1721206064705
-0.67,4.05,10.09,0.38,-0.04,-0.08,1721206064715
-1.32,-2.62,6.65,0.43,-0.05,0.00,1721206064725
-0.87,7.25,5.53,0.83,0.08,0.12,1721206064735
1.82,-4.70,0.16,0.67,0.03,0.07,1721206064745
0.50,7.65,8.15,0.64,0.03,-0.04,1721206064755
1.70,2.03,1.92,0.59,-0.13,0.01,1721206064765
-0.17,-4.03,1.68,0.13,-0.00,-0.04,1721206064775
-0.79,-0.67,2.26,0.22,-0.02,-0.08,1721206064785
0.09,-4.04,2.28,-0.13,0.03,-0.12,1721206064795
-0.92,-2.41,11.90,-0.09,-0.04,0.04,1721206064805
-0.16,-5.77,11.81,-0.26,0.06,0.04,1721206064815
-0.33,-3.89,21.23,-0.13,-0.08,0.02,1721206064825
-0.06,-4.13,11.79,-0.07,-0.13,0.04,1721206064835
-0.82,-0.85,15.78,-0.15,0.02,-0.03,1721206064845
-0.26,-2.35,7.04,0.05,-0.14,0.08,1721206064855
0.43,-2.89,7.40,-0.31,0.14,0.07,1721206064865
0.26,0.76,14.89,-0.11,-0.03,0.03,1721206064875
0.43,-0.27,8.52,-0.20,-0.02,-0.01,1721206064885
0.15,0.16,10.98,-0.28,-0.06,0.08,1721206064895
1.24,-2.07,11.84,-0.28,0.07,0.12,1721206064905
1.26,2.47,13.89,-0.17,0.01,0.03,1721206064915
1.53,5.92,10.48,-0.06,-0.04,0.02,1721206064925
1.64,3.81,9.44,-0.25,0.07,-0.04,1721206064935
1.28,2.25,14.71,-0.21,0.03,-0.03,1721206064945
1.53,-2.86,10.21,-0.22,-0.02,-0.05,1721206064955
0.05,3.06,12.77,-0.11,0.01,-0.15,1721206064965
0.65,2.22,9.68,-0.05,0.03,-0.18,1721206064975
-1.27,7.53,12.89,0.11,-0.06,-0.07,1721206064985
-1.31,6.27,8.58,0.16,0.06,-0.05,1721206064995
-0.83,-4.30,7.17,-0.09,0.00,0.02,1721206065005
-0.56,-0.85,13.88,-0.07,0.04,0.06,1721206065015
2.00,2.11,10.61,0.14,0.04,0.00,1721206065025
1.50,0.59,7.34,0.13,-0.05,-0.16,1721206065035
-1.08,-0.00,9.22,0.12,0.03,-0.36,1721206065045
-2.21,2.90,12.32,0.16,-0.04,-0.06,1721206065055
-0.68,2.93,9.73,-0.02,0.03,0.12,1721206065065
1.81,-7.87,7.37,-0.19,0.05,0.04,1721206065075
1.54,-0.49,13.99,0.03,0.05,-0.07,1721206065085
2.13,-0.35,7.33,0.11,0.00,-0.20,1721206065095
-1.63,2.46,9.19,0.07,-0.07,-0.31,1721206065105
-2.88,-0.61,8.30,-0.04,0.07,-0.22,1721206065115
-2.26,-4.34,15.33,-0.25,0.01,0.16,1721206065125
1.58,5.82,17.94,0.02,0.09,0.30,1721206065135
5.88,2.93,5.71,0.07,0.01,-0.01,1721206065145
2.07,-2.84,6.36,-0.20,-0.02,-0.27,1721206065155
-1.48,-0.64,11.03,0.06,0.03,-0.46,1721206065165
-2.73,1.92,11.54,0.04,-0.01,-0.33,1721206065175
-3.81,3.35,4.87,0.20,-0.12,-0.02,1721206065185
-0.84,-6.00,10.83,-0.16,0.25,0.11,1721206065195
0.76,-0.04,20.35,-0.04,-0.11,0.08,1721206065205
2.38,7.52,9.77,0.23,0.03,-0.18,1721206065215
1.32,0.90,1.70,0.04,-0.09,-0.30,1721206065225
-2.70,-3.87,11.72,0.02,0.13,-0.35,1721206065235
-2.19,-3.39,11.88,0.14,-0.08,-0.04,1721206065245
-1.15,1.75,7.38,0.18,0.02,-0.00,1721206065255
0.86,-2.53,8.36,0.07,0.09,-0.09,1721206065265
0.69,2.59,13.62,0.10,0.06,-0.20,1721206065275
1.20,5.75,12.34,0.19,0.03,-0.31,1721206065285
-0.83,4.55,5.43,0.15,-0.08,-0.35,1721206065295
-1.15,-11.38,4.89,-0.23,0.06,-0.16,1721206065305
-2.87,-1.34,13.52,-0.01,0.13,-0.18,1721206065315
0.28,4.18,13.36,0.08,0.14,-0.26,1721206065325
-1.53,0.53,6.86,0.05,-0.24,-0.15,1721206065335
-1.62,-2.48,11.17,-0.08,0.27,-0.16,1721206065345
0.05,-1.08,16.63,0.05,0.01,-0.13,1721206065355
-0.68,5.84,7.98,0.09,-0.08,-0.13,1721206065365
-0.45,5.36,4.99,0.05,0.03,-0.14,1721206065375
0.09,-5.43,11.61,-0.12,0.13,-0.17,1721206065385
-0.35,-0.62,10.90,0.11,-0.06,-0.10,1721206065395
0.93,3.94,4.89,0.08,0.09,-0.21,1721206065405
0.54,-0.05,9.22,-0.15,0.08,-0.27,1721206065415
-1.49,0.65,16.39,-0.00,0.03,-0.27,1721206065425
-0.16,1.17,11.59,0.10,0.13,-0.28,1721206065435
-1.23,6.41,9.02,0.06,0.01,-0.20,1721206065445
-1.05,2.02,9.65,-0.13,0.11,-0.19,1721206065455
-2.14,-0.30,11.79,-0.03,-0.06,-0.14,1721206065465
-0.66,-1.76,8.93,0.01,0.12,-0.08,1721206065475
-0.47,1.39,7.10,0.02,-0.04,-0.10,1721206065485
0.23,-0.89,14.26,-0.23,0.25,-0.22,1721206065495
-0.90,2.11,18.91,0.04,-0.09,-0.25,1721206065505
-1.59,3.67,3.46,0.08,-0.06,-0.08,1721206065515
-0.32,0.40,2.33,-0.09,0.15,-0.05,1721206065525
1.21,-3.07,15.42,-0.11,0.25,-0.16,1721206065535
1.27,-0.95,12.62,0.13,-0.03,-0.18,1721206065545
-2.87,2.90,3.44,-0.01,-0.05,-0.24,1721206065555
-3.80,-0.78,6.15,-0.09,0.05,-0.14,1721206065565
-1.48,-3.25,15.76,-0.15,0.09,0.13,1721206065575
0.28,-2.14,17.34,-0.07,0.07,0.13,1721206065585
1.44,3.47,8.68,0.13,-0.06,-0.09,1721206065595
0.39,-2.36,2.93,-0.18,0.06,-0.26,1721206065605
-3.06,-0.38,16.99,-0.01,-0.02,-0.15,1721206065615
-1.09,5.94,6.42,0.17,0.02,0.10,1721206065630
0.27,4.75,5.10,0.20,0.01,0.17,1721206065634
1.69,-3.49,5.57,-0.18,0.14,-0.02,1721206065644
-2.26,-1.13,20.67,-0.24,-0.18,-0.10,1721206065654
-0.00,7.58,15.62,0.20,0.12,0.09,1721206065664
2.69,-0.21,-1.93,0.22,-0.05,0.15,1721206065674
1.24,-3.65,7.34,-0.11,0.26,-0.19,1721206065684
0.18,1.73,25.03,0.08,-0.15,-0.07,1721206065694
-1.70,8.63,10.83,0.33,-0.03,0.04,1721206065704
2.43,-0.75,0.68,0.23,0.24,0.09,1721206065714
-0.60,-3.36,9.47,-0.05,-0.00,-0.18,1721206065724
0.49,-0.23,16.46,0.29,0.00,-0.16,1721206065734
-0.18,2.27,4.17,0.32,0.02,-0.10,1721206065744
-1.35,1.63,2.18,0.14,0.16,-0.11,1721206065754
-1.11,1.29,14.28,-0.00,0.20,-0.18,1721206065764
-0.92,-2.66,15.23,0.05,0.00,-0.04,1721206065774
-0.18,0.32,8.06,0.17,0.01,0.07,1721206065784
2.04,-0.61,2.07,0.04,0.19,-0.02,1721206065794
1.20,-2.46,10.21,-0.07,0.06,-0.15,1721206065804
-0.27,0.54,9.33,0.14,0.09,-0.15,1721206065814
0.30,1.45,4.01,0.07,0.05,-0.17,1721206065824
-1.19,-1.00,9.54,-0.15,0.09,-0.15,1721206065834
-1.47,-0.85,16.14,-0.13,0.12,-0.04,1721206065844
-0.02,-1.37,13.64,-0.03,0.02,-0.01,1721206065854
-0.83,-0.22,9.04,-0.04,0.04,-0.07,1721206065864
-0.42,1.37,13.03,0.01,0.18,-0.15,1721206065874
-0.13,2.08,12.65,0.02,0.16,-0.13,1721206065884
-1.37,0.16,7.07,-0.02,-0.05,-0.03,1721206065894
-0.19,1.97,9.67,-0.11,0.23,-0.02,1721206065904
2.88,4.49,15.47,-0.00,0.21,-0.02,1721206065914
1.35,2.61,6.47,-0.03,-0.09,-0.20,1721206065924
-2.68,2.73,10.90,-0.10,0.14,-0.30,1721206065934
-1.81,-6.39,5.10,-0.15,0.02,-0.09,1721206065944
-3.14,6.22,16.73,-0.00,0.17,-0.00,1721206065954
1.32,0.62,8.96,0.09,0.06,0.07,1721206065964
-0.01,2.26,9.79,-0.02,0.02,-0.10,1721206065974
-0.03,0.58,11.00,0.03,0.14,-0.23,1721206065984
-1.13,2.86,10.58,0.00,-0.02,-0.05,1721206065994
-1.37,4.46,10.23,-0.02,0.02,0.07,1721206066004
1.91,1.20,7.11,0.09,0.14,0.04,1721206066014
2.03,-2.19,2.47,-0.15,-0.00,-0.13,1721206066024
-1.24,-4.79,12.51,-0.41,0.11,-0.31,1721206066034
-1.62,2.84,21.78,-0.02,0.05,-0.23,1721206066044
-1.51,3.51,1.91,0.20,-0.03,-0.05,1721206066054
-1.66,-8.34,2.93,-0.41,0.17,0.08,1721206066064
-2.11,4.77,24.16,-0.01,-0.02,0.18,1721206066074
3.05,4.63,8.16,0.18,0.04,0.00,1721206066084
1.75,0.64,0.86,-0.11,-0.01,-0.29,1721206066094
-2.67,-3.23,5.82,-0.17,0.00,-0.19,1721206066104
-2.25,-5.77,16.53,-0.24,0.09,0.04,1721206066114
-0.83,2.91,17.37,0.09,-0.05,0.08,1721206066124
0.29,1.36,3.62,-0.03,0.03,-0.10,1721206066134
-1.24,-1.56,14.05,-0.21,0.03,-0.07,1721206066144
-1.59,5.33,12.13,0.12,-0.12,0.11,1721206066154
0.49,0.83,3.19,0.01,0.08,-0.00,1721206066164
-0.56,-4.46,7.91,-0.15,-0.04,0.03,1721206066174
-1.24,0.68,12.73,-0.02,0.03,0.12,1721206066184
0.91,0.30,14.65,-0.17,0.14,0.02,1721206066194
-0.76,-0.29,11.30,-0.08,-0.31,0.08,1721206066204
1.08,-1.40,10.87,-0.16,0.23,0.05,1721206066214
1.90,-0.11,17.25,-0.09,-0.14,0.06,1721206066224
-0.30,2.27,10.73,0.01,-0.13,-0.09,1721206066234
0.45,-1.94,7.04,-0.07,0.09,-0.13,1721206066244
-0.90,-0.99,11.59,-0.07,-0.06,-0.11,1721206066254
-1.00,2.11,4.47,0.13,-0.14,-0.05,1721206066264
1.36,0.32,12.62,-0.00,0.32,-0.11,1721206066274
-0.25,-1.14,8.70,0.16,-0.32,-0.15,1721206066284
-0.87,-1.47,8.96,-0.02,0.25,-0.20,1721206066294
-0.34,8.34,20.33,0.26,0.03,-0.22,1721206066304
-1.69,3.22,5.69,0.24,-0.28,-0.14,1721206066314
-2.95,-4.36,2.77,0.09,-0.01,0.05,1721206066324
1.13,-0.36,13.00,0.24,0.31,0.12,1721206066334
3.27,8.03,11.31,0.33,-0.09,0.01,1721206066344
1.55,4.42,6.18,0.14,-0.05,-0.35,1721206066354
-1.28,-2.33,12.73,0.06,0.04,-0.39,1721206066364
-3.28,-0.50,13.84,0.06,-0.01,-0.14,1721206066374
-2.26,4.12,13.00,0.09,0.02,0.03,1721206066384
0.70,-2.09,8.73,0.05,0.04,0.06,1721206066394
1.72,-1.41,11.94,0.13,0.07,-0.07,1721206066404
1.71,6.65,11.77,0.27,0.02,-0.15,1721206066414
1.20,6.97,11.66,0.16,0.05,-0.29,1721206066424
-0.51,-2.14,11.59,0.02,0.02,-0.26,1721206066434
-1.04,-2.99,12.39,0.11,0.08,-0.18,1721206066444
-2.47,10.22,9.70,0.29,0.06,-0.18,1721206066454
-1.17,2.64,5.87,0.11,0.04,-0.12,1721206066464
-3.00,0.35,6.53,0.19,-0.04,-0.02,1721206066474
-0.59,-4.56,5.19,0.05,0.15,-0.04,1721206066484
-2.55,0.08,8.70,0.01,-0.13,0.01,1721206066494
-1.60,0.79,4.61,-0.07,0.07,-0.00,1721206066504
-1.58,-2.34,5.60,-0.08,-0.10,0.11,1721206066514
0.85,-4.39,6.15,-0.15,0.11,0.18,1721206066524
2.12,1.32,11.85,-0.14,0.06,0.04,1721206066534
0.78,2.83,9.17,-0.24,-0.13,-0.20,1721206066544
-2.58,-1.60,10.24,-0.39,-0.05,-0.12,1721206066554
-3.91,-3.00,14.23,-0.43,-0.03,0.07,1721206066564
-0.21,-4.60,14.03,-0.27,-0.08,0.33,1721206066574
1.21,-0.08,10.24,-0.25,-0.10,0.22,1721206066584
1.29,4.36,10.84,-0.20,-0.05,0.01,1721206066594
0.46,-3.63,7.33,-0.27,-0.16,-0.02,1721206066604
-0.64,-4.40,8.76,-0.15,-0.06,0.01,1721206066614
0.23,5.44,11.59,-0.04,0.02,0.05,1721206066624
-0.03,9.10,15.66,-0.04,-0.13,0.11,1721206066634
1.04,-0.02,6.92,-0.10,-0.11,0.17,1721206066644
2.25,-8.77,6.36,-0.34,-0.00,0.07,1721206066654
-0.83,-2.37,16.35,-0.13,-0.09,-0.09,1721206066664
-0.73,0.32,14.02,0.03,-0.07,-0.12,1721206066674
0.15,9.78,14.35,0.27,-0.09,0.11,1721206066684
2.21,2.15,5.26,0.07,-0.05,0.15,1721206066694
0.86,-8.88,13.64,-0.23,0.04,-0.21,1721206066704
-0.31,1.49,17.05,0.30,-0.10,-0.25,1721206066714
-0.73,-0.41,0.66,0.25,-0.11,-0.00,1721206066724
-0.66,-1.63,11.55,0.11,0.22,0.05,1721206066734
1.11,5.22,17.66,0.53,-0.12,0.08,1721206066744
3.38,6.31,9.10,0.33,0.06,-0.00,1721206066754
3.28,1.05,12.14,0.20,0.07,-0.22,1721206066764
1.04,2.30,13.02,0.27,0.04,-0.44,1721206066774
-0.71,1.61,14.84,0.30,0.08,-0.34,1721206066784
-1.71,2.75,8.90,0.50,0.00,-0.14,1721206066794
0.29,2.47,-4.08,0.47,0.08,-0.04,1721206066804
4.21,2.81,6.24,0.08,0.43,-0.17,1721206066814
2.86,-3.62,14.04,0.05,-0.13,-0.42,1721206066824
-4.28,2.74,15.36,0.38,-0.05,-0.43,1721206066834
-2.31,4.57,-2.78,0.45,0.08,-0.05,1721206066844
1.04,-2.87,9.97,-0.42,0.46,0.01,1721206066854
-0.07,-3.30,33.65,0.07,-0.05,-0.01,1721206066864
0.61,3.90,5.76,0.51,0.02,-0.12,1721206066874
1.92,8.91,-14.18,0.26,0.16,-0.29,1721206066884
1.21,-10.62,10.03,-0.91,0.42,-0.52,1721206066894
-5.49,9.75,47.68,0.21,0.05,-0.28,1721206066904
-4.71,3.75,-10.90,0.72,-0.21,0.09,1721206066914
0.26,3.45,-12.56,-0.57,0.59,0.17,1721206066924
5.02,-4.11,6.28,-0.38,0.11,0.12,1721206066934
7.64,-3.11,2.37,-0.26,0.51,-0.27,1721206066944
1.96,-3.15,8.98,-0.14,0.11,-0.69,1721206066954
-4.90,2.47,16.24,0.05,-0.01,-0.66,1721206066964
-5.25,-3.44,8.40,-0.36,0.13,-0.00,1721206066974
-2.88,0.38,21.28,-0.49,0.08,0.40,1721206066984
3.65,-3.34,13.69,-0.21,0.23,0.04,1721206066994
3.46,-1.38,4.26,-0.17,0.06,-0.55,1721206067004
-2.45,-1.62,9.51,-0.33,0.02,-0.52,1721206067014
-4.12,1.14,15.84,-0.14,0.25,-0.25,1721206067024
-3.32,3.59,14.03,-0.16,0.13,-0.07,1721206067034
-1.06,2.44,10.33,-0.23,0.17,0.08,1721206067044
3.86,-3.76,10.73,-0.29,0.14,0.23,1721206067054
5.05,2.91,13.38,-0.15,0.24,-0.13,1721206067064
3.03,3.08,12.21,0.06,0.04,-0.55,1721206067074
-4.22,-0.23,7.28,-0.03,-0.04,-0.55,1721206067084
-6.75,4.26,12.15,0.12,0.19,-0.26,1721206067094
-2.63,1.78,13.22,0.08,0.16,0.16,1721206067104
0.44,-4.20,14.57,-0.03,0.08,0.26,1721206067114
1.19,3.78,12.31,0.32,0.11,-0.05,1721206067124
0.97,3.46,5.92,0.21,0.07,-0.29,1721206067134
-3.48,-1.05,8.52,0.23,0.00,-0.21,1721206067144
-3.54,-0.91,9.18,0.28,0.16,0.12,1721206067154
-0.90,0.06,8.63,0.19,0.09,0.25,1721206067164
1.28,-1.23,6.79,0.06,0.04,0.14,1721206067174
3.00,-0.81,18.41,0.04,0.24,-0.07,1721206067184
0.38,1.66,13.32,0.21,-0.22,-0.15,1721206067194
-3.15,1.11,3.68,0.14,0.03,-0.11,1721206067204
-4.02,-5.85,5.60,-0.10,-0.01,0.14,1721206067214
-1.29,0.15,16.13,-0.00,0.20,0.26,1721206067224
0.91,4.44,7.07,0.20,-0.23,0.29,1721206067234
2.36,-0.44,6.26,-0.18,0.22,-0.02,1721206067244
0.72,-4.07,10.49,-0.00,-0.19,-0.02,1721206067254
-0.86,1.74,11.44,0.00,0.11,-0.01,1721206067264
-1.49,1.65,11.51,0.00,-0.15,0.13,1721206067274
-1.29,3.60,7.44,0.07,-0.11,0.20,1721206067284
1.93,-5.83,4.93,-0.15,-0.04,0.19,1721206067294
0.29,0.04,15.30,-0.13,0.06,0.08,1721206067304
1.41,10.97,16.19,0.16,0.01,-0.15,1721206067314
-0.23,0.56,5.25,-0.07,-0.26,-0.08,1721206067324
-2.85,-3.68,11.53,-0.23,0.07,0.01,1721206067334
0.53,3.38,15.90,0.09,0.04,0.10,1721206067344
1.31,4.25,5.08,-0.05,-0.15,0.05,1721206067354
-0.43,-3.12,6.11,-0.14,-0.09,-0.06,1721206067364
0.50,0.13,14.89,0.01,0.18,-0.09,1721206067374
1.13,3.19,11.47,0.11,-0.19,-0.01,1721206067384
-1.16,6.56,11.91,-0.03,0.03,-0.11,1721206067394
-0.35,1.23,11.78,-0.05,0.01,-0.16,1721206067404
-1.51,2.50,10.01,0.00,-0.12,-0.01,1721206067414
-0.93,0.87,4.57,-0.04,-0.08,0.11,1721206067424
0.10,-3.59,10.72,-0.24,0.12,0.05,1721206067434
0.90,-5.01,11.54,-0.06,-0.15,0.05,1721206067444
1.25,-0.03,11.28,-0.02,0.08,-0.15,1721206067454
0.97,3.45,10.47,0.14,-0.06,-0.13,1721206067464
-0.75,4.20,8.49,0.04,-0.04,-0.14,1721206067474
-0.70,-2.06,9.24,-0.08,0.01,-0.11,1721206067484
-0.69,-0.10,12.17,-0.13,0.11,-0.24,1721206067494
-1.45,-1.02,9.59,-0.07,-0.05,-0.13,1721206067504
-1.60,-1.18,9.10,-0.10,0.03,-0.01,1721206067514
-0.41,-4.45,9.97,-0.09,-0.03,0.01,1721206067524
0.29,-0.53,15.44,-0.14,0.06,-0.03,1721206067534
1.32,5.68,11.71,0.03,-0.05,-0.20,1721206067544
0.68,2.21,8.30,-0.09,0.12,-0.39,1721206067554
-2.35,-2.49,10.08,0.02,-0.10,-0.23,1721206067564
-2.95,4.99,11.51,0.08,0.14,-0.09,1721206067574
-0.45,5.95,10.89,0.09,0.02,0.11,1721206067584
1.23,-1.67,7.71,-0.09,0.09,-0.05,1721206067594
2.90,-7.89,11.76,-0.12,0.12,-0.24,1721206067604
-1.46,2.02,11.88,0.15,-0.16,-0.17,1721206067614
-0.09,3.20,10.98,0.07,0.28,-0.16,1721206067624
-0.44,3.42,12.55,0.28,0.10,-0.15,1721206067639
-1.18,2.32,9.34,0.21,0.01,-0.08,1721206067643
-0.88,1.54,9.72,0.25,0.08,-0.10,1721206067653
0.40,-2.08,0.85,0.18,0.02,-0.07,1721206067663
-0.43,1.94,5.35,0.20,0.20,-0.18,1721206067673
0.48,-3.18,6.09,0.09,0.05,-0.12,1721206067683
-2.22,0.07,12.00,0.09,-0.16,0.03,1721206067693
-1.07,-1.55,11.06,-0.14,0.22,0.01,1721206067703
0.57,1.05,15.95,0.04,-0.02,0.10,1721206067713
1.55,1.39,6.75,0.11,0.01,0.09,1721206067723
1.78,-2.54,9.04,-0.08,0.14,-0.02,1721206067733
0.11,0.23,11.61,0.10,-0.02,-0.06,1721206067743
0.49,4.03,7.04,0.08,0.13,0.00,1721206067753
0.85,-2.24,8.12,-0.21,-0.01,0.02,1721206067763
-1.01,-0.37,14.38,-0.05,-0.03,0.05,1721206067773
0.51,0.46,10.82,0.07,0.17,-0.01,1721206067783
-0.26,-0.60,7.94,-0.05,-0.03,-0.05,1721206067793
-3.22,3.45,17.07,-0.03,0.02,-0.12,1721206067803
-0.69,4.13,7.86,0.24,0.05,0.27,1721206067813
3.24,1.07,7.09,-0.04,0.21,0.22,1721206067823
3.02,1.07,12.72,0.03,-0.01,-0.21,1721206067833
-0.12,5.49,9.82,0.15,-0.00,-0.25,1721206067843
-1.27,1.57,9.89,-0.11,0.15,-0.15,1721206067853
-2.66,-0.19,11.53,0.04,-0.10,0.02,1721206067863
0.51,0.19,8.17,-0.04,0.16,0.09,1721206067873
1.82,3.12,10.04,0.03,0.06,-0.08,1721206067883
-0.30,-0.30,8.39,-0.06,-0.00,-0.28,1721206067893
-2.87,1.77,13.47,0.06,0.07,-0.22,1721206067903
-2.55,-1.81,3.32,0.05,-0.05,0.07,1721206067913
-1.18,-0.49,8.31,-0.17,0.18,0.19,1721206067923
2.62,-1.52,13.49,-0.05,0.07,0.09,1721206067933
2.15,3.07,10.51,0.08,-0.08,-0.12,1721206067943
2.08,-1.47,11.33,-0.11,0.16,-0.23,1721206067953
-2.10,-0.31,13.63,-0.01,-0.15,-0.09,1721206067963
-2.40,0.71,7.47,-0.05,0.02,-0.04,1721206067973
0.12,3.04,11.40,-0.00,0.15,0.01,1721206067983
0.90,-3.48,6.08,-0.12,-0.08,0.07,1721206067993
-0.95,0.38,14.32,-0.06,0.12,-0.03,1721206068003
0.44,1.29,10.35,0.02,-0.01,-0.11,1721206068013
-0.74,2.53,11.70,-0.05,-0.02,-0.04,1721206068023
0.26,1.21,10.60,0.04,0.06,0.09,1721206068033
-0.22,-0.84,5.53,0.01,-0.07,0.03,1721206068043
-0.19,-1.59,9.75,-0.14,0.06,-0.06,1721206068053
0.55,-1.21,17.78,-0.09,0.12,-0.16,1721206068063
-0.61,2.13,16.60,0.08,-0.07,-0.08,1721206068073
-1.54,2.32,7.65,0.06,-0.07,-0.01,1721206068083
-0.88,1.29,8.71,0.15,-0.03,0.03,1721206068093
2.09,-1.24,8.58,0.15,0.17,-0.03,1721206068103
1.71,-3.71,10.38,0.04,0.02,-0.14,1721206068113
-2.39,4.80,11.14,0.14,-0.14,-0.21,1721206068123
-2.75,6.45,7.29,0.19,-0.01,-0.09,1721206068133
-0.47,-8.46,6.90,-0.13,0.04,0.03,1721206068143
-0.40,-2.69,11.37,0.08,-0.03,0.07,1721206068153
2.22,-0.04,8.75,-0.02,0.12,-0.15,1721206068163
-0.43,3.16,12.41,0.11,-0.09,-0.27,1721206068173
-1.75,1.67,8.52,0.04,0.01,-0.21,1721206068183
-2.71,-1.33,10.14,-0.05,-0.04,-0.08,1721206068193
-1.51,-2.89,11.38,-0.07,0.00,0.13,1721206068203
2.15,1.76,10.31,0.01,0.03,0.02,1721206068213
1.29,-1.72,5.47,-0.09,-0.10,-0.21,1721206068223
-0.52,-3.32,14.34,-0.04,0.12,-0.30,1721206068233
-1.24,4.57,13.65,0.22,-0.06,-0.14,1721206068243
-1.86,10.18,7.23,0.08,-0.08,0.02,1721206068253
-0.53,-4.19,9.00,-0.14,0.04,-0.07,1721206068263
1.54,-3.61,14.50,-0.02,0.10,0.02,1721206068273
1.65,10.11,9.28,0.12,-0.06,-0.12,1721206068283
1.60,1.83,6.14,-0.09,0.00,-0.35,1721206068293
-2.06,-8.16,12.12,-0.08,0.00,-0.41,1721206068303
-4.55,2.00,12.09,0.22,-0.09,-0.06,1721206068313
-0.89,8.46,11.06,0.06,0.18,0.16,1721206068323
1.22,7.29,8.57,0.12,-0.04,-0.02,1721206068333
1.07,-6.79,3.58,-0.22,-0.01,-0.31,1721206068343
-2.57,-2.39,15.93,-0.10,0.06,-0.30,1721206068353
0.04,0.71,6.66,0.13,-0.06,0.03,1721206068363
0.99,2.55,9.85,-0.16,0.14,-0.06,1721206068373
0.90,-1.61,8.17,0.03,-0.20,-0.15,1721206068383
0.80,0.70,11.16,-0.12,0.25,-0.26,1721206068393
-0.34,3.27,16.57,-0.06,0.09,-0.48,1721206068403
-5.28,3.11,10.86,-0.17,-0.13,-0.39,1721206068413
-6.35,-2.53,12.59,-0.27,-0.03,-0.02,1721206068423
-3.48,-2.20,10.81,-0.14,0.10,0.34,1721206068433
1.89,0.25,1.54,-0.06,0.10,0.30,1721206068443
5.41,-4.00,9.36,-0.47,0.17,-0.16,1721206068453
0.53,-6.48,14.40,-0.23,-0.46,-0.51,1721206068463
-4.60,0.19,11.69,0.10,0.13,-0.34,1721206068473
-1.02,1.51,6.98,0.18,0.12,0.22,1721206068483
-0.23,4.26,8.75,-0.12,0.04,0.10,1721206068493
-1.17,6.72,22.12,-0.09,0.05,-0.41,1721206068503
-2.33,-4.59,6.76,0.07,-0.37,0.05,1721206068513
-2.08,-0.81,-3.18,-0.11,0.25,0.30,1721206068523
6.79,-2.50,9.13,-0.25,0.21,0.01,1721206068533
2.00,-8.00,23.52,-0.13,-0.38,0.06,1721206068543
-0.82,6.86,12.77,0.31,-0.14,-0.12,1721206068553
1.70,2.50,6.12,0.14,0.12,-0.19,1721206068563
-4.05,1.20,13.26,0.08,-0.27,-0.06,1721206068573
-2.68,2.64,13.26,0.27,0.12,0.07,1721206068583
1.15,0.10,6.14,0.30,-0.02,0.15,1721206068593
0.47,-1.93,6.26,0.06,-0.01,-0.01,1721206068603
0.03,1.03,16.45,0.08,0.03,-0.13,1721206068613
1.17,0.29,17.63,0.07,-0.04,-0.03,1721206068623
-0.69,2.81,11.71,0.16,-0.15,0.02,1721206068633
0.74,-0.84,10.31,0.08,0.04,0.02,1721206068643
1.15,3.54,14.70,0.32,-0.00,-0.02,1721206068653
1.63,-2.01,4.47,0.29,-0.03,0.02,1721206068663
-0.19,3.89,7.94,0.27,0.06,-0.06,1721206068673
1.01,3.75,-0.86,0.52,-0.12,-0.01,1721206068683
2.00,-2.18,4.09,0.10,0.25,-0.00,1721206068693
1.01,0.99,11.08,0.25,-0.07,0.04,1721206068703
1.76,-2.22,8.16,-0.12,0.18,-0.14,1721206068713
1.41,-1.82,21.13,-0.07,0.06,-0.26,1721206068723
-0.30,-1.47,12.55,0.14,-0.05,-0.26,1721206068733
-2.07,1.94,7.89,0.12,0.11,-0.21,1721206068743
-0.97,0.88,5.14,0.11,0.14,-0.08,1721206068753
-0.64,4.47,2.67,0.21,0.09,-0.10,1721206068763
1.96,-2.74,-0.85,-0.22,0.23,-0.16,1721206068773
-1.30,0.99,12.57,-0.10,-0.02,-0.26,1721206068783
-0.62,-4.67,1.16,-0.27,-0.00,-0.20,1721206068793
-3.05,-4.47,19.78,-0.57,0.15,-0.12,1721206068803
-0.68,2.78,22.78,0.12,0.02,0.03,1721206068813
2.89,-2.81,3.30,-0.27,0.06,-0.04,1721206068823
0.25,5.94,16.62,-0.26,0.14,-0.38,1721206068833
0.77,1.10,8.54,-0.16,0.11,-0.45,1721206068843
-4.21,-1.32,9.84,-0.38,0.10,-0.43,1721206068853
-4.94,-2.02,14.87,-0.23,0.10,-0.11,1721206068863
-2.73,2.56,13.26,-0.05,0.04,0.26,1721206068873
0.87,4.68,5.25,-0.15,0.09,0.17,1721206068883
3.55,-0.45,10.36,-0.29,0.15,-0.06,1721206068893
2.62,-3.41,11.90,-0.12,-0.02,-0.24,1721206068903
0.38,3.64,11.97,0.02,0.08,-0.38,1721206068913
-0.99,1.50,12.28,0.01,0.05,-0.30,1721206068923
-2.90,2.37,11.84,0.03,-0.00,-0.15,1721206068933
-1.94,0.40,8.66,0.04,0.08,0.03,1721206068943
0.11,2.56,11.96,0.04,0.14,0.05,1721206068953
2.62,-2.41,5.89,0.04,0.06,-0.08,1721206068963
0.15,1.30,11.91,0.06,0.09,-0.30,1721206068973
-1.54,3.90,12.28,0.18,0.09,-0.27,1721206068983
-2.72,6.01,12.53,0.13,-0.01,-0.02,1721206068993
-0.14,-3.44,8.60,-0.08,0.16,0.17,1721206069003
2.84,-0.28,14.26,-0.01,0.15,0.15,1721206069013
3.41,1.85,10.76,0.10,0.12,-0.22,1721206069023
-0.63,1.03,10.24,0.19,-0.03,-0.46,1721206069033
-3.67,-0.34,8.16,0.14,0.11,-0.24,1721206069043
-3.52,4.84,14.25,0.19,0.14,0.04,1721206069053
0.12,1.42,10.82,0.15,0.14,0.14,1721206069063
1.51,-0.48,7.37,0.17,0.04,0.05,1721206069073
2.29,-0.54,7.02,0.10,0.17,-0.13,1721206069083
-0.60,2.20,13.01,0.13,0.00,-0.30,1721206069093
-1.52,-5.87,6.34,0.04,0.06,-0.19,1721206069103
-2.52,-0.71,6.49,0.12,0.11,-0.02,1721206069113
0.62,-3.06,1.62,0.04,0.16,0.03,1721206069123
1.79,0.70,16.92,-0.02,0.35,-0.08,1721206069133
0.94,-1.32,1.63,0.26,-0.27,-0.16,1721206069143
-0.34,-4.87,7.04,-0.23,0.51,-0.38,1721206069153
-0.44,1.81,15.40,0.09,-0.05,-0.12,1721206069163
-1.19,4.69,12.69,-0.11,0.25,-0.08,1721206069173
-1.73,5.91,15.78,-0.06,-0.02,-0.07,1721206069183
-1.00,-6.24,2.35,-0.28,-0.03,-0.10,1721206069193
-0.90,-13.41,3.39,-0.48,0.22,-0.07,1721206069203
0.49,-3.58,21.07,-0.27,0.38,-0.09,1721206069213
1.18,5.80,20.31,0.28,-0.03,-0.09,1721206069223
-0.20,5.19,3.08,0.34,-0.06,-0.08,1721206069233
0.03,-1.32,3.11,0.02,0.21,-0.01,1721206069243
1.30,2.57,16.79,-0.04,0.25,0.03,1721206069253
1.66,4.14,20.32,-0.06,0.12,-0.22,1721206069263
-4.31,6.31,6.98,0.32,-0.29,-0.44,1721206069273
-5.88,-5.63,-1.92,-0.00,0.25,-0.21,1721206069283
-6.05,-2.86,10.07,-0.26,0.05,0.40,1721206069293
-0.36,7.37,27.56,0.09,0.31,0.49,1721206069303
5.43,9.00,14.44,0.41,-0.05,0.15,1721206069313
2.34,0.16,-2.12,0.07,-0.16,-0.20,1721206069323
-1.16,4.02,11.05,0.03,0.35,-0.24,1721206069333
-1.21,1.26,7.88,0.28,-0.14,-0.05,1721206069343
-3.86,3.22,1.53,0.34,0.07,-0.08,1721206069353
-2.83,-1.75,-2.44,0.28,-0.07,0.20,1721206069363
2.76,1.02,7.54,-0.01,0.39,0.50,1721206069373
6.21,-1.58,18.56,-0.30,0.14,0.19,1721206069383
2.68,-3.35,25.97,-0.24,-0.11,-0.57,1721206069393
-3.39,-2.48,23.48,0.08,-0.07,-0.76,1721206069403
-7.57,6.81,4.83,0.51,-0.11,-0.20,1721206069413
-5.56,-0.09,-13.03,-0.04,0.06,0.38,1721206069423
-0.65,0.32,5.68,-0.08,0.40,0.57,1721206069433
-0.86,-2.93,17.72,0.05,0.34,0.26,1721206069443
3.04,-1.55,11.16,-0.11,-0.36,-0.16,1721206069453
-0.01,-2.57,3.74,-0.30,-0.07,-0.38,1721206069463
-1.85,-3.76,14.44,-0.38,0.13,-0.22,1721206069473
-1.92,-6.62,18.09,-0.18,0.05,0.13,1721206069483
-1.87,6.15,13.35,0.19,-0.02,0.19,1721206069493
0.65,1.88,-1.43,-0.18,-0.04,0.03,1721206069503
0.01,-4.27,13.57,-0.63,0.24,-0.12,1721206069513
-1.07,-3.63,23.28,-0.25,-0.01,-0.10,1721206069523
-2.82,8.08,8.11,0.14,-0.24,0.06,1721206069533
0.67,0.36,-0.61,-0.27,0.18,0.11,1721206069543
0.31,-3.06,15.79,-0.21,0.04,0.16,1721206069553
1.91,0.29,13.10,0.04,0.04,0.02,1721206069563
0.75,9.66,8.40,0.19,-0.06,-0.03,1721206069573
1.29,-4.84,7.18,-0.28,0.08,0.03,1721206069583
-1.06,-3.57,21.31,-0.11,-0.00,0.05,1721206069593
0.36,1.03,14.21,0.18,0.04,-0.01,1721206069603
-0.43,4.82,8.00,0.19,-0.10,0.01,1721206069613
0.05,2.88,10.16,0.11,0.17,0.04,1721206069623
0.24,1.11,5.35,0.39,-0.02,0.10,1721206069633
1.37,2.51,13.21,0.08,0.22,-0.01,1721206069648
0.19,-0.48,14.69,0.06,-0.02,-0.05,1721206069652
0.60,2.05,17.85,0.02,0.16,-0.10,1721206069662
0.33,-0.73,11.24,0.26,-0.11,0.05,1721206069672
0.78,0.36,5.43,0.12,0.17,0.05,1721206069682
1.73,0.71,6.82,0.24,0.15,-0.03,1721206069692
0.34,0.11,12.75,0.08,0.18,-0.17,1721206069702
-1.81,-2.55,11.53,0.23,-0.01,-0.01,1721206069712
-1.51,-0.29,8.18,0.13,0.15,0.17,1721206069722
1.17,4.81,9.37,0.21,0.19,0.29,1721206069732
2.96,-0.88,7.60,-0.03,0.11,0.10,1721206069742
0.47,-3.24,13.24,0.03,0.04,-0.17,1721206069752
-1.32,0.67,11.50,0.20,0.10,-0.11,1721206069762
-2.53,6.09,6.75,0.21,0.08,0.15,1721206069772
-0.26,-2.74,9.06,-0.16,0.21,0.13,1721206069782
0.54,-5.71,12.34,0.04,0.03,0.21,1721206069792
1.51,2.81,12.53,0.12,0.20,0.11,1721206069802
2.18,6.56,9.77,0.14,0.07,0.01,1721206069812
0.15,1.98,8.19,-0.02,0.00,-0.12,1721206069822
-1.55,-3.00,7.64,-0.09,0.11,-0.09,1721206069832
-1.64,-0.63,12.50,-0.07,0.13,0.03,1721206069842
-1.49,2.63,8.19,0.02,-0.04,0.18,1721206069852
-0.44,2.41,12.06,-0.12,0.20,0.13,1721206069862
1.87,-4.81,10.51,-0.06,-0.00,0.04,1721206069872
0.42,-0.26,12.68,-0.06,0.05,-0.03,1721206069882
-0.88,4.24,8.72,0.09,-0.02,-0.07,1721206069892
-1.13,2.48,10.56,-0.11,0.10,0.02,1721206069902
-1.58,-1.87,7.80,-0.01,-0.12,0.16,1721206069912
0.11,0.87,10.70,-0.13,0.22,0.15,1721206069922
1.94,0.13,9.42,-0.13,-0.01,0.04,1721206069932
-0.06,1.94,10.95,-0.15,0.05,-0.14,1721206069942
-0.30,-2.86,6.35,-0.15,0.02,-0.15,1721206069952
-2.24,-0.01,12.08,-0.04,-0.01,0.06,1721206069962
0.88,-1.19,6.64,-0.09,0.12,0.15,1721206069972
1.62,1.87,14.67,-0.14,0.09,-0.01,1721206069982
2.07,2.05,12.25,-0.04,0.05,-0.25,1721206069992
-0.87,2.71,5.49,0.01,-0.07,-0.19,1721206070002
-1.46,-3.34,5.87,-0.23,0.18,-0.03,1721206070012
-0.01,-2.19,13.45,-0.09,0.11,0.03,1721206070022
0.66,-1.36,13.92,-0.10,0.12,-0.19,1721206070032
-1.68,5.63,13.11,0.12,-0.09,-0.30,1721206070042
-3.53,3.04,4.45,0.04,-0.01,-0.11,1721206070052
-1.50,-0.99,12.33,-0.13,0.27,0.08,1721206070062
0.65,-4.99,12.64,-0.05,0.01,0.13,1721206070072
-0.05,7.27,9.37,0.18,0.02,-0.11,1721206070082
1.19,-1.65,4.92,-0.08,0.04,-0.21,1721206070092
-3.79,-2.50,10.36,-0.06,-0.07,-0.11,1721206070102
-0.55,-2.96,13.02,0.04,0.24,0.11,1721206070112
-0.45,3.51,10.07,0.08,-0.17,0.15,1721206070122
1.18,1.92,11.16,-0.09,0.27,-0.10,1721206070132
0.36,-4.82,13.20,-0.11,-0.11,-0.11,1721206070142
-1.24,0.56,10.51,0.06,0.14,-0.16,1721206070152
-1.26,3.64,9.08,0.15,-0.04,-0.05,1721206070162
-1.40,-1.19,9.35,-0.12,0.12,-0.03,1721206070172
-2.04,-4.57,14.93,-0.02,-0.13,0.06,1721206070182
-0.17,6.07,11.94,0.16,0.13,-0.02,1721206070192
-0.45,6.82,6.49,0.00,-0.08,-0.13,1721206070202
-3.49,-2.33,9.37,-0.15,0.02,-0.13,1721206070212
-2.16,-5.14,12.10,0.14,0.02,0.23,1721206070222
0.78,1.64,10.93,0.06,0.05,0.35,1721206070232
0.71,15.36,7.11,0.31,-0.12,0.12,1721206070242
4.60,2.47,7.87,-0.12,0.21,-0.16,1721206070252
-1.98,-8.20,14.60,-0.35,-0.49,-0.01,1721206070262
-3.18,1.00,12.93,0.13,0.11,-0.03,1721206070272
-0.87,-1.54,4.36,-0.18,-0.00,-0.10,1721206070282
-4.99,0.27,13.59,-0.10,-0.14,0.08,1721206070292
0.47,-1.05,14.19,0.13,0.16,0.45,1721206070302
2.67,6.13,7.82,0.11,-0.21,0.37,1721206070312
2.26,7.34,-0.11,-0.11,-0.05,-0.14,1721206070322
1.08,-7.76,15.19,-0.58,0.06,-0.28,1721206070332
-6.40,-7.24,19.41,-0.20,-0.38,0.03,1721206070342
-6.73,1.98,4.42,0.24,-0.17,0.44,1721206070352
0.54,-7.55,-3.18,-0.08,-0.04,0.69,1721206070362
4.48,-5.40,20.30,0.01,0.45,0.48,1721206070372
5.21,9.91,21.31,0.47,-0.24,0.11,1721206070382
0.50,15.22,2.78,0.46,-0.36,-0.15,1721206070392
-0.74,-9.50,-0.54,-0.40,-0.06,-0.10,1721206070402
-3.54,-8.46,24.55,-0.49,0.03,-0.00,1721206070412
-2.48,5.43,20.54,0.34,-0.21,0.14,1721206070422
-0.86,5.48,-0.31,0.21,-0.34,0.37,1721206070432
1.61,4.65,4.46,-0.09,0.09,0.41,1721206070442
4.09,-7.33,13.26,-0.22,-0.16,0.21,1721206070452
2.33,-8.80,21.73,-0.34,-0.06,-0.21,1721206070462
-2.00,7.30,16.05,0.24,-0.43,-0.16,1721206070472
-1.61,4.24,4.03,0.23,-0.10,0.04,1721206070482
-2.29,9.17,15.17,0.36,-0.04,0.22,1721206070492
0.69,5.90,8.22,0.26,-0.20,0.19,1721206070502
1.50,-5.07,9.05,-0.13,-0.07,0.10,1721206070512
0.96,1.75,14.57,0.18,-0.11,0.02,1721206070522
0.43,0.50,10.62,0.32,-0.24,-0.06,1721206070532
-0.70,0.52,11.69,0.39,-0.17,0.13,1721206070542
1.90,6.54,9.85,0.65,-0.07,0.14,1721206070552
2.64,1.92,-0.45,0.43,-0.18,0.05,1721206070562
-0.39,5.09,8.50,0.18,-0.04,-0.27,1721206070572
-0.23,4.21,-5.20,0.61,-0.32,-0.13,1721206070582
-0.60,-9.15,-8.48,-0.41,0.02,-0.09,1721206070592
-9.65,-16.10,12.49,-0.25,-0.56,0.05,1721206070602
-4.64,-9.29,25.20,0.35,-0.53,0.17,1721206070612
1.29,2.79,-4.94,0.24,-0.16,0.10,1721206070622
4.58,-5.83,0.78,-0.62,0.20,-0.13,1721206070632
14.89,-9.49,11.85,-0.87,-0.35,-0.22,1721206070642
-0.10,4.74,26.57,0.59,0.00,-0.33,1721206070652
-1.24,0.60,-1.76,0.32,-0.21,-0.34,1721206070662
-4.16,3.17,12.28,-0.44,-0.05,0.13,1721206070672
-1.17,-2.14,12.62,0.02,-0.03,0.21,1721206070682
3.88,-5.59,-0.99,0.03,0.01,0.11,1721206070692
3.44,-0.71,-1.99,-0.18,-0.04,-0.07,1721206070702
2.41,-3.77,14.56,-0.37,0.25,-0.39,1721206070712
-0.31,-5.54,25.30,0.16,-0.12,-0.37,1721206070722
-1.64,1.46,12.02,0.34,-0.16,0.06,1721206070732
1.10,12.15,8.26,0.08,0.15,0.13,1721206070742
4.60,7.55,8.22,0.06,0.14,-0.11,1721206070752
3.76,-4.58,9.21,-0.21,0.13,-0.48,1721206070762
-1.63,1.89,16.35,-0.01,-0.11,-0.43,1721206070772
-2.84,6.37,14.83,0.04,0.15,-0.26,1721206070782
-2.25,0.10,7.28,-0.02,-0.02,-0.01,1721206070792
-1.23,-1.20,13.39,-0.07,0.10,0.01,1721206070802
1.31,5.40,15.99,0.29,0.04,-0.11,1721206070812
1.10,7.05,8.26,0.23,0.05,-0.23,1721206070822
-1.73,5.99,8.43,0.20,-0.01,-0.30,1721206070832
-2.35,1.27,8.11,0.19,0.10,-0.18,1721206070842
-2.31,2.98,2.92,0.31,-0.05,0.07,1721206070852
1.58,1.86,7.50,0.05,0.27,-0.05,1721206070862
1.07,-1.91,9.39,0.05,-0.20,-0.20,1721206070872
-0.90,0.40,17.38,-0.07,0.18,-0.37,1721206070882
-1.70,2.35,12.38,0.30,-0.13,-0.23,1721206070892
-1.99,1.28,-0.19,0.02,-0.02,-0.08,1721206070902
-0.30,-2.11,4.71,-0.16,0.06,-0.04,1721206070912
0.83,-2.05,9.70,-0.01,0.07,-0.13,1721206070922
-0.22,5.22,2.01,0.15,-0.07,-0.20,1721206070932
-0.31,-0.87,-2.97,-0.36,-0.01,-0.19,1721206070942
-4.36,-8.18,17.59,-0.67,0.18,-0.01,1721206070952
0.10,-6.19,26.14,-0.23,0.02,0.10,1721206070962
3.22,3.29,15.69,-0.15,-0.04,0.08,1721206070972
3.83,0.86,9.49,-0.42,-0.00,-0.28,1721206070982
0.47,-5.84,15.75,-0.56,0.03,-0.52,1721206070992
-2.75,1.69,9.79,-0.05,-0.10,-0.41,1721206071002
-2.98,-4.04,-4.66,-0.27,-0.11,-0.21,1721206071012
-3.56,-3.90,16.12,-0.44,0.45,-0.09,1721206071022
-0.63,-3.65,16.65,-0.08,-0.06,0.04,1721206071032
-0.55,4.26,10.33,-0.09,-0.08,0.05,1721206071042
4.32,-0.63,7.65,-0.15,0.16,-0.17,1721206071052
2.41,-4.94,13.48,-0.24,-0.03,-0.38,1721206071062
-0.05,3.82,15.41,0.05,0.06,-0.52,1721206071072
-1.09,0.28,10.11,0.07,-0.06,-0.41,1721206071082
-4.53,4.25,12.47,-0.06,0.04,-0.28,1721206071092
-3.20,1.70,13.35,-0.01,0.07,-0.16,1721206071102
-1.53,-0.26,10.79,-0.10,0.01,-0.01,1721206071112
0.19,0.68,9.70,0.03,0.08,-0.09,1721206071122
-0.35,2.69,8.56,0.05,-0.09,-0.23,1721206071132
0.10,-2.83,12.76,-0.07,0.10,-0.27,1721206071142
-1.56,1.92,13.56,0.14,-0.11,-0.12,1721206071152
-0.69,4.64,12.33,0.04,0.16,-0.17,1721206071162
-0.02,-2.31,15.03,-0.11,-0.08,-0.20,1721206071172
-1.49,4.58,18.28,0.12,0.00,-0.16,1721206071182
0.65,5.49,12.52,0.37,-0.00,-0.17,1721206071192
-1.03,3.34,6.67,0.25,-0.13,-0.16,1721206071202
-2.83,5.67,7.63,0.48,0.03,-0.18,1721206071212
-1.03,-0.62,4.95,0.35,-0.03,-0.04,1721206071222
-2.10,4.57,5.88,0.37,-0.06,-0.01,1721206071232
-0.51,0.01,-2.19,0.35,-0.05,0.06,1721206071242
0.79,-1.19,4.59,0.02,0.13,0.10,1721206071252
2.44,-0.42,7.98,0.21,-0.12,0.16,1721206071262
3.14,0.53,2.83,0.10,0.06,-0.09,1721206071272
2.85,0.65,10.72,-0.07,0.05,-0.22,1721206071282
0.85,1.30,11.02,-0.01,-0.10,-0.23,1721206071292
-1.36,-1.82,12.87,-0.40,-0.01,-0.32,1721206071302
-4.35,-4.94,20.98,-0.25,-0.14,-0.31,1721206071312
-4.58,-4.05,17.31,-0.01,-0.04,-0.15,1721206071322
-5.42,4.51,5.47,0.10,-0.09,0.00,1721206071332
-4.05,1.52,-0.13,-0.37,-0.10,0.22,1721206071342
-1.28,-4.07,13.20,-0.45,-0.04,0.42,1721206071352
4.93,-2.40,14.82,-0.04,0.04,0.30,1721206071362
7.49,4.42,6.57,-0.02,-0.11,-0.24,1721206071372
2.06,-1.05,5.32,-0.48,-0.21,-0.51,1721206071382
-3.75,-7.14,16.57,-0.47,-0.08,-0.41,1721206071392
-2.32,-1.07,17.91,-0.00,0.05,-0.21,1721206071402
-1.28,4.60,4.23,0.01,-0.12,-0.10,1721206071412
-2.23,3.50,8.15,-0.29,0.05,-0.17,1721206071422
-1.17,-3.78,18.81,-0.20,0.01,-0.13,1721206071432
-2.06,-0.53,12.15,0.06,-0.21,-0.03,1721206071442
0.68,2.78,5.53,0.08,0.15,-0.04,1721206071452
0.19,5.16,10.58,0.14,-0.05,-0.15,1721206071462
-0.76,5.17,13.94,0.22,-0.10,-0.23,1721206071472
-0.75,2.07,8.02,0.25,-0.10,-0.15,1721206071482
-0.40,0.69,4.76,0.17,0.03,-0.12,1721206071492
0.45,0.52,12.72,0.09,0.09,-0.15,1721206071502
0.18,-1.25,14.98,0.19,-0.13,-0.18,1721206071512
-0.57,1.96,12.78,0.21,-0.11,-0.24,1721206071522
0.51,5.04,10.22,0.28,0.04,-0.16,1721206071532
0.94,0.49,8.97,0.07,0.03,-0.17,1721206071542
0.21,-1.66,14.95,0.13,-0.02,-0.24,1721206071552
1.57,1.79,9.29,0.44,0.05,-0.15,1721206071562
1.10,0.22,4.98,0.30,0.05,-0.22,1721206071572
-0.08,-2.00,12.50,0.15,0.06,-0.29,1721206071582
-1.15,0.94,13.83,0.40,-0.02,-0.23,1721206071592
0.15,1.59,5.20,0.32,0.03,-0.08,1721206071602
0.86,0.14,0.39,0.20,0.07,-0.00,1721206071612
1.90,-1.73,11.52,-0.08,0.30,-0.26,1721206071622
-0.46,-3.87,16.38,0.18,-0.21,-0.31,1721206071632
-0.97,0.23,6.46,0.22,0.10,-0.03,1721206071642
2.39,-1.97,2.24,-0.22,0.15,-0.08,1721206071657
2.28,-3.85,8.12,-0.34,0.15,-0.17,1721206071661
0.12,-2.80,16.11,-0.00,-0.02,-0.30,1721206071671
0.23,-4.98,5.20,-0.03,0.10,-0.21,1721206071681
0.18,-1.21,11.20,-0.06,0.14,-0.05,1721206071691
1.04,1.61,11.27,-0.07,0.18,-0.20,1721206071701
0.36,-0.08,15.95,-0.05,0.06,-0.29,1721206071711
-0.97,2.01,9.44,0.14,0.06,-0.18,1721206071721
1.03,-4.24,2.50,-0.31,0.22,-0.16,1721206071731
-1.66,-1.44,20.39,-0.37,0.10,-0.25,1721206071741
-1.77,5.63,17.42,0.12,0.14,-0.26,1721206071751
-0.65,-1.25,0.33,-0.03,-0.02,-0.06,1721206071761
-0.82,0.89,9.30,-0.28,0.38,-0.10,1721206071771
0.86,2.99,16.47,-0.06,0.15,-0.22,1721206071781
-0.31,3.02,11.00,-0.05,0.00,-0.14,1721206071791
-1.53,0.30,5.67,-0.11,0.09,-0.10,1721206071801
-0.43,-0.57,11.14,-0.22,0.19,-0.06,1721206071811
1.17,-1.33,16.21,-0.11,0.10,-0.02,1721206071821
0.38,6.51,13.41,0.19,0.06,-0.20,1721206071831
0.50,2.62,0.19,-0.03,0.08,-0.22,1721206071841
-1.81,1.37,14.49,-0.13,0.20,-0.22,1721206071851
0.90,-4.51,13.63,0.01,0.08,0.05,1721206071861
0.46,2.22,9.71,0.02,0.11,-0.20,1721206071871
-0.39,3.27,7.97,-0.01,0.11,-0.37,1721206071881
-1.56,-0.43,11.84,-0.00,0.09,-0.14,1721206071891
-0.74,1.69,11.98,0.07,0.16,0.06,1721206071901
0.39,0.76,8.63,0.02,0.12,-0.14,1721206071911
-0.17,-1.19,11.38,-0.04,0.17,-0.30,1721206071921
-0.48,1.26,13.62,0.14,0.07,-0.12,1721206071931
-0.09,0.62,8.65,0.13,0.07,0.00,1721206071941
-0.62,3.79,9.03,0.22,0.07,-0.10,1721206071951
0.99,-1.05,10.24,0.08,0.21,-0.18,1721206071961
-0.51,3.90,12.92,0.32,0.02,-0.20,1721206071971
0.07,1.14,2.55,0.14,0.07,-0.17,1721206071981
-2.66,-0.05,9.70,0.11,0.11,-0.10,1721206071991
-0.17,-3.83,11.00,0.11,0.20,-0.05,1721206072001
-1.19,3.15,9.45,0.19,-0.11,-0.01,1721206072011
-0.06,1.96,6.59,0.04,0.17,-0.12,1721206072021
0.45,-3.63,10.60,-0.06,0.10,-0.08,1721206072031
-1.31,-1.16,11.48,0.02,-0.03,-0.02,1721206072041
0.09,0.64,11.70,0.01,0.15,-0.07,1721206072051
0.23,1.03,10.15,-0.00,0.06,-0.09,1721206072061
-0.65,-1.48,8.95,-0.09,0.08,-0.16,1721206072071
-1.38,-3.49,11.52,-0.15,0.01,-0.09,1721206072081
-1.14,-0.08,11.11,-0.05,0.05,-0.03,1721206072091
0.47,-0.36,7.87,-0.06,0.09,-0.11,1721206072101
0.50,-1.87,11.69,-0.18,0.06,-0.20,1721206072111
-0.48,-1.37,11.81,0.02,0.02,-0.13,1721206072121
-0.34,3.54,6.69,-0.03,0.08,-0.21,1721206072131
-0.64,0.84,9.37,-0.16,0.15,-0.30,1721206072141
-1.49,-2.02,10.86,-0.11,0.02,-0.13,1721206072151
-0.92,-0.32,10.48,-0.18,0.17,-0.24,1721206072161
-1.83,2.26,10.35,-0.05,-0.08,-0.14,1721206072171
-1.10,-0.21,7.29,-0.19,0.10,-0.08,1721206072181
-0.49,-0.59,15.44,-0.07,0.13,-0.05,1721206072191
0.80,1.91,9.53,0.05,-0.06,-0.03,1721206072201
0.77,3.62,6.78,-0.08,0.11,-0.19,1721206072211
0.18,-1.40,11.94,-0.16,0.14,-0.26,1721206072221
-0.79,1.67,18.07,-0.08,0.12,-0.25,1721206072231
-0.24,0.57,8.61,0.06,-0.06,-0.07,1721206072241
1.03,2.00,11.02,-0.08,0.30,-0.15,1721206072251
0.13,4.83,14.48,0.06,0.02,-0.25,1721206072261
-0.71,3.25,10.98,0.07,0.06,-0.25,1721206072271
-1.23,1.01,7.42,0.13,0.07,-0.17,1721206072281
-1.30,-1.59,10.91,-0.04,0.20,-0.13,1721206072291
-1.85,7.29,14.79,0.17,-0.03,-0.10,1721206072301
-0.32,2.37,8.19,0.07,0.15,-0.10,1721206072311
-1.36,0.37,10.00,0.08,0.07,-0.09,1721206072321
-1.56,3.19,11.46,-0.02,0.19,-0.12,1721206072331
-0.91,2.30,14.12,-0.07,-0.02,-0.00,1721206072341
-1.24,-1.99,8.20,-0.11,0.07,-0.01,1721206072351
-0.42,-2.69,5.41,-0.02,0.10,-0.05,1721206072361
-0.12,-1.14,9.18,-0.15,0.18,-0.16,1721206072371
-1.07,-3.05,9.99,-0.10,-0.10,-0.05,1721206072381
-1.75,0.51,12.23,-0.01,0.11,-0.09,1721206072391
0.78,-0.56,4.32,0.09,0.00,-0.08,1721206072401
0.12,-6.75,6.01,-0.29,0.12,-0.09,1721206072411
-3.12,1.57,16.52,0.01,-0.02,-0.17,1721206072421
-3.12,1.50,8.25,0.06,0.06,0.05,1721206072431
-2.55,0.51,5.95,-0.11,-0.03,0.22,1721206072441
1.13,-5.91,8.81,-0.25,0.14,0.20,1721206072451
2.07,-0.18,15.78,-0.12,0.01,0.06,1721206072461
-0.17,4.34,9.99,0.03,-0.08,-0.08,1721206072471
-0.67,-1.85,10.24,-0.07,0.05,-0.03,1721206072481
-1.14,-3.11,8.89,0.01,-0.05,0.11,1721206072491
-0.07,1.28,10.71,-0.08,0.02,0.17,1721206072501
1.04,3.70,14.65,-0.00,0.05,-0.01,1721206072511
1.70,-4.88,11.87,-0.01,0.04,0.00,1721206072521
0.21,-1.05,10.32,0.15,-0.10,0.09,1721206072531
0.84,-0.80,13.40,0.02,0.14,-0.00,1721206072541
0.13,-0.33,19.90,0.02,-0.08,0.02,1721206072551
-0.17,10.24,15.86,0.42,-0.03,0.08,1721206072561
1.97,3.46,10.00,0.33,0.13,0.06,1721206072571
0.53,2.03,11.26,0.30,0.03,-0.02,1721206072581
-0.45,5.52,8.13,0.53,0.10,-0.11,1721206072591
0.06,-2.51,3.86,0.34,0.11,-0.04,1721206072601
-1.37,4.36,11.86,0.46,0.04,0.12,1721206072611
2.12,1.06,0.59,0.43,0.11,0.08,1721206072621
1.62,0.35,4.11,0.16,-0.02,0.08,1721206072631
2.50,0.82,9.99,0.07,0.20,-0.16,1721206072641
-0.16,-0.54,14.07,0.12,-0.01,-0.33,1721206072651
-2.74,0.78,9.15,0.24,0.03,-0.10,1721206072661
-0.97,-2.38,3.71,0.04,0.16,0.10,1721206072671
0.17,-2.03,7.69,-0.05,0.04,0.16,1721206072681
1.54,-0.53,14.43,-0.09,0.20,-0.08,1721206072691
0.20,2.29,12.48,0.29,-0.09,-0.17,1721206072701
-0.30,-0.80,-0.71,-0.04,0.07,-0.04,1721206072711
-1.64,-5.19,6.81,-0.35,0.08,0.03,1721206072721
-0.77,2.70,19.67,-0.04,0.18,0.05,1721206072731
0.87,1.78,3.08,0.11,-0.11,0.14,1721206072741
1.43,0.08,2.53,-0.28,0.21,-0.02,1721206072751
1.28,-3.97,8.86,-0.26,0.04,-0.11,1721206072761
-1.25,3.42,13.32,-0.16,0.04,-0.12,1721206072771
-1.07,-1.81,10.72,-0.30,0.06,-0.08,1721206072781
-1.73,-1.43,14.60,-0.22,0.01,0.08,1721206072791
0.14,1.91,8.81,-0.10,0.09,0.06,1721206072801
1.53,1.72,8.07,-0.31,0.10,-0.02,1721206072811
0.48,1.16,14.54,-0.27,0.03,-0.16,1721206072821
-0.09,-0.73,13.25,-0.13,0.09,-0.14,1721206072831
-1.17,1.26,6.52,-0.09,-0.02,-0.06,1721206072841
-0.34,1.93,11.47,-0.30,0.23,-0.08,1721206072851
0.71,1.92,18.21,-0.15,0.08,-0.08,1721206072861
0.36,3.71,12.23,-0.07,0.02,-0.11,1721206072871
0.48,0.34,6.81,-0.03,0.07,-0.07,1721206072881
0.42,0.45,13.12,-0.05,0.15,-0.15,1721206072891
-0.03,2.13,14.27,0.07,0.08,-0.17,1721206072901
-1.91,1.22,10.28,0.08,0.02,-0.20,1721206072911
-3.26,2.51,10.04,0.16,0.07,-0.09,1721206072921
-1.66,0.48,10.22,0.15,0.06,0.13,1721206072931
0.13,2.84,9.34,0.25,0.06,0.16,1721206072941
2.01,-1.08,8.69,0.13,0.07,0.03,1721206072951
0.96,0.93,9.62,0.23,0.02,-0.17,1721206072961
-0.86,-0.27,3.73,0.21,-0.04,-0.12,1721206072971
-1.85,-0.28,9.59,0.04,0.20,-0.07,1721206072981
-0.06,-1.24,13.55,0.12,0.06,0.08,1721206072991
-0.05,-1.09,9.28,0.03,-0.06,0.09,1721206073001
-0.78,-2.01,7.59,0.07,0.02,-0.02,1721206073011
1.41,0.29,10.11,0.12,0.17,0.00,1721206073021
-0.13,-1.71,8.26,0.02,-0.15,0.04,1721206073031
-3.23,2.98,8.60,0.16,0.02,0.05,1721206073041
-0.69,0.19,7.23,-0.07,0.10,0.03,1721206073051
-0.80,0.45,12.07,-0.12,-0.09,0.14,1721206073061
1.21,-3.50,8.31,-0.19,0.04,0.10,1721206073071
-0.30,0.54,13.15,-0.11,-0.02,-0.06,1721206073081
0.26,0.45,13.77,-0.10,-0.00,-0.07,1721206073091
-1.65,0.49,12.54,-0.00,-0.24,0.09,1721206073101
-1.11,2.12,7.27,0.01,0.05,0.12,1721206073111
0.52,1.57,11.27,-0.02,-0.02,0.06,1721206073121
1.05,1.36,12.01,-0.01,-0.05,-0.01,1721206073131
0.10,0.08,9.19,0.06,-0.07,-0.02,1721206073141
-0.65,1.25,11.77,0.07,0.01,-0.11,1721206073151
-0.96,2.69,11.83,0.10,-0.07,-0.03,1721206073161
-2.00,6.28,10.23,0.15,-0.15,0.03,1721206073171
-0.16,1.62,12.42,0.09,0.07,-0.02,1721206073181
-0.35,-0.71,7.98,0.10,-0.24,0.09,1721206073191
0.18,3.85,11.96,0.05,0.16,-0.05,1721206073201
0.21,1.37,7.48,0.07,-0.27,-0.06,1721206073211
-1.37,1.85,9.14,0.09,0.08,-0.02,1721206073221
1.89,1.66,5.42,0.15,-0.04,0.12,1721206073231
0.98,0.49,4.68,-0.14,-0.10,-0.01,1721206073241
1.35,1.45,10.77,-0.10,0.02,-0.12,1721206073251
1.43,-4.47,12.65,-0.34,-0.02,-0.19,1721206073261
-3.04,1.46,15.36,-0.04,-0.26,-0.15,1721206073271
-0.93,-2.56,5.05,-0.18,0.10,-0.02,1721206073281
-1.15,-2.02,13.18,-0.28,-0.06,0.06,1721206073291
0.35,-3.11,7.92,-0.10,-0.10,0.10,1721206073301
1.62,-0.41,10.47,-0.18,0.14,-0.06,1721206073311
0.43,2.47,11.90,-0.06,-0.17,-0.07,1721206073321
-0.41,-1.70,8.68,-0.23,-0.03,-0.08,1721206073331
-1.52,-3.23,11.29,-0.14,-0.12,-0.06,1721206073341
-0.96,-0.80,10.32,-0.15,0.03,0.00,1721206073351
-0.48,4.77,10.86,-0.03,-0.09,0.09,1721206073361
1.18,-0.69,5.22,-0.15,-0.04,0.09,1721206073371
1.64,-8.35,10.75,-0.31,0.03,-0.12,1721206073381
-0.81,3.60,17.13,0.08,-0.08,-0.27,1721206073391
-1.05,-0.08,9.43,0.04,-0.02,-0.04,1721206073401
-2.52,1.95,11.25,-0.07,-0.09,0.07,1721206073411
0.34,3.66,12.98,0.09,0.04,0.03,1721206073421
2.42,-0.47,10.81,0.00,-0.01,-0.07,1721206073431
0.46,4.72,14.67,0.00,0.07,-0.29,1721206073441
-1.08,2.48,12.59,0.12,-0.10,-0.25,1721206073451
-3.19,2.31,10.37,0.17,0.07,-0.19,1721206073461
-1.10,-3.77,11.06,0.10,0.03,0.04,1721206073471
-0.17,7.80,14.02,0.29,-0.02,0.16,1721206073481
3.26,4.18,10.17,0.31,0.09,-0.04,1721206073491
1.60,-3.41,6.78,0.28,-0.13,-0.25,1721206073501
0.45,1.87,8.27,0.44,0.09,-0.13,1721206073511
-0.17,1.53,6.94,0.30,0.10,-0.23,1721206073521
-1.58,1.79,12.61,0.34,-0.04,-0.27,1721206073531
-1.12,-6.13,3.61,0.20,0.01,-0.08,1721206073541
-2.95,5.68,10.43,0.24,0.11,0.16,1721206073551
1.93,0.37,4.71,0.17,0.09,0.23,1721206073561
3.24,-1.12,9.16,-0.08,0.05,-0.01,1721206073571
1.56,1.12,9.78,0.03,-0.03,-0.26,1721206073581
1.73,-0.98,7.53,-0.08,0.09,-0.18,1721206073591
1.16,-1.42,7.13,-0.21,0.06,-0.04,1721206073601
1.26,5.45,8.65,0.21,-0.12,0.03,1721206074138
2.40,9.39,16.37,0.25,0.13,-0.22,1721206074142
-2.30,16.57,11.38,0.28,-0.38,-0.24,1721206074151
-1.90,-11.52,-8.13,-0.05,-0.19,-0.10,1721206074161
-1.32,-5.44,11.92,-0.41,0.37,0.13,1721206074170
4.03,2.63,23.12,-0.12,-0.16,0.31,1721206074180
3.16,6.87,7.80,0.22,-0.05,0.09,1721206074189
2.61,-3.47,-8.37,-0.10,-0.26,-0.15,1721206074199
-0.97,-5.24,11.81,-0.40,0.29,-0.18,1721206074209
-0.36,1.77,27.68,-0.07,-0.27,-0.09,1721206074219
-2.75,8.10,4.67,0.16,-0.32,-0.04,1721206074229
-1.09,-4.37,2.83,-0.48,0.13,0.06,1721206074239
-2.24,-2.55,17.29,-0.25,-0.07,0.07,1721206074249
1.45,1.61,11.06,-0.11,0.05,-0.04,1721206074259
1.37,2.15,5.63,-0.19,-0.20,0.07,1721206074269
-0.07,-0.36,11.48,-0.34,0.25,-0.17,1721206074279
0.31,-2.68,12.62,-0.11,-0.14,-0.16,1721206074289
-1.01,2.26,13.61,-0.13,0.02,-0.04,1721206074299
0.63,0.46,8.18,-0.13,-0.01,-0.03,1721206074309
-1.29,3.84,29.06,-0.26,0.21,-0.50,1721206074319
-1.99,6.87,-10.54,0.48,-0.68,0.11,1721206074329
2.37,-14.85,13.69,-1.02,1.02,-0.19,1721206074339
-14.15,28.94,27.91,0.82,-1.52,0.20,1721206074349
3.02,-29.70,-13.25,-0.08,0.06,-0.22,1721206074359
-1.17,-11.75,17.20,0.12,0.17,-0.33,1721206074369
2.12,3.18,-0.61,0.24,0.24,-0.16,1721206074379
4.30,-3.46,14.55,-0.43,0.28,0.08,1721206074389
0.06,1.42,17.50,0.21,-0.42,0.11,1721206074399
1.90,-4.25,-1.27,0.06,0.24,-0.25,1721206074409
-1.58,1.85,16.39,0.07,0.07,-0.37,1721206074419
-1.73,2.98,9.58,0.24,-0.11,-0.14,1721206074429
-1.11,3.54,13.52,0.08,0.26,0.03,1721206074439
1.06,-2.47,8.35,0.23,-0.09,0.10,1721206074449
1.58,0.60,7.79,0.13,0.18,-0.06,1721206074459
1.11,2.20,11.92,0.18,-0.06,-0.28,1721206074469
-1.64,4.37,11.18,0.15,0.06,-0.26,1721206074479
-1.34,-2.71,9.49,0.14,0.06,-0.03,1721206074489
-0.33,0.14,9.31,0.18,0.11,0.07,1721206074499
0.86,-1.37,6.04,0.08,0.02,-0.07,1721206074509
0.97,1.99,12.84,0.15,0.10,-0.15,1721206074519
0.46,-1.85,5.27,0.10,0.02,-0.20,1721206074529
-2.32,0.36,11.55,0.04,0.09,-0.19,1721206074539
-1.99,1.25,6.71,0.07,0.03,-0.02,1721206074549
-1.32,-2.36,13.51,-0.14,0.12,0.03,1721206074559
-0.38,-0.98,16.20,0.07,0.11,0.08,1721206074569
1.23,2.27,9.73,0.16,0.07,0.04,1721206074579
0.91,-0.92,3.96,-0.04,-0.06,-0.02,1721206074589
-0.06,0.49,15.29,-0.05,0.24,-0.09,1721206074599
0.10,-0.28,10.57,0.12,0.00,-0.06,1721206074609
-1.80,3.51,6.32,0.04,-0.03,0.12,1721206074619
1.50,-1.80,7.24,-0.05,0.20,0.12,1721206074629
0.96,-0.42,11.74,-0.02,0.00,-0.01,1721206074639
-0.35,3.13,13.99,0.02,0.07,-0.06,1721206074649
-1.13,3.65,7.91,0.19,-0.06,0.08,1721206074659
0.33,-3.53,4.99,-0.20,0.10,0.20,1721206074669
-0.53,-2.30,15.64,-0.13,-0.02,0.13,1721206074679
0.66,1.35,12.96,0.13,0.05,0.05,1721206074689
0.86,3.36,5.01,0.08,-0.01,0.11,1721206074699
0.62,0.91,10.16,-0.07,0.09,0.07,1721206074709
0.73,0.75,12.75,0.10,-0.01,0.07,1721206074719
0.61,1.39,10.47,-0.02,0.08,-0.01,1721206074729
-0.53,4.24,10.43,0.04,-0.06,0.04,1721206074739
-0.44,0.56,8.32,-0.15,0.07,0.05,1721206074749
-0.69,1.81,11.41,-0.01,-0.02,0.07,1721206074759
0.56,-1.86,9.80,-0.18,0.10,0.00,1721206074769
-0.70,2.50,9.73,0.04,-0.14,0.05,1721206074779
1.52,1.38,11.83,-0.19,0.27,-0.04,1721206074789
0.64,-1.02,12.18,-0.01,-0.25,0.09,1721206074799
0.11,1.34,10.53,-0.08,0.11,0.07,1721206074809
1.81,0.17,7.02,-0.03,-0.03,0.04,1721206074819
1.44,-0.07,11.92,-0.22,0.10,-0.08,1721206074829
1.09,0.40,9.33,0.02,-0.09,-0.10,1721206074839
0.22,1.18,9.81,-0.11,0.13,-0.16,1721206074849
0.53,-2.98,9.49,-0.10,-0.01,-0.13,1721206074859
-1.64,1.92,15.61,-0.06,-0.01,-0.13,1721206074869
-0.63,0.61,5.22,-0.01,0.02,-0.08,1721206074879
-0.74,0.83,10.28,-0.15,0.11,-0.10,1721206074889
0.35,-1.65,8.25,-0.04,-0.02,-0.07,1721206074899
-0.50,0.65,8.75,-0.07,0.10,-0.13,1721206074909
-0.71,-1.78,7.56,-0.13,-0.05,-0.18,1721206074919
-1.23,0.12,13.79,-0.12,0.14,-0.14,1721206074929
-0.46,-2.10,7.39,-0.05,-0.11,-0.09,1721206074939
-1.41,-0.36,11.16,-0.11,0.14,-0.07,1721206074949
0.18,-1.00,12.14,-0.01,0.03,-0.04,1721206074959
-1.07,0.45,12.12,-0.09,-0.06,-0.17,1721206074969
-0.56,-1.41,10.81,0.01,0.01,-0.12,1721206074979
-0.35,0.39,8.93,0.10,0.07,-0.10,1721206074989
-0.55,0.31,13.22,0.02,0.02,-0.11,1721206074999
-1.27,1.99,12.63,0.16,-0.10,-0.05,1721206075009
0.09,0.77,8.48,0.10,-0.00,-0.05,1721206075019
1.02,3.29,10.34,0.22,-0.02,-0.06,1721206075029
0.06,-0.60,9.15,0.03,-0.02,-0.17,1721206075039
-2.66,1.84,15.02,0.07,-0.12,-0.21,1721206075049
-2.10,2.05,7.98,0.24,-0.05,-0.15,1721206075059
-1.32,1.64,10.44,0.10,0.07,-0.03,1721206075069
-1.25,2.31,10.83,0.16,-0.11,-0.00,1721206075079
0.18,2.43,12.02,0.17,-0.08,0.02,1721206075089
-0.10,1.65,8.81,0.18,-0.13,-0.14,1721206075099
-1.05,0.31,13.05,0.12,0.03,-0.18,1721206075109
-2.04,1.60,10.69,0.20,-0.21,-0.01,1721206075119
-1.33,2.95,7.49,0.22,-0.07,0.16,1721206075129
2.63,2.28,12.08,0.21,0.09,0.13,1721206075139
1.87,0.72,7.48,0.27,-0.25,-0.06,1721206075149
0.96,2.95,8.08,0.21,0.08,-0.23,1721206075159
-0.55,3.54,7.95,0.19,-0.18,-0.15,1721206075169
-2.59,2.56,7.87,0.02,-0.06,-0.07,1721206075179
-2.21,3.46,7.19,0.22,-0.21,0.13,1721206075189
0.29,-2.79,-0.92,-0.13,-0.09,0.12,1721206075199
-0.20,1.73,10.24,-0.15,-0.00,-0.05,1721206075209
1.04,-1.95,10.69,-0.19,-0.11,-0.06,1721206075219
-1.98,1.60,13.22,-0.11,-0.21,0.02,1721206075229
0.08,-2.30,7.60,-0.15,-0.11,0.10,1721206075239
0.64,2.00,11.37,-0.15,-0.09,0.04,1721206075249
1.21,-1.06,9.00,-0.28,-0.14,-0.03,1721206075259
-1.09,-2.29,12.38,-0.31,-0.18,-0.05,1721206075269
-0.69,-2.57,16.75,-0.15,-0.08,-0.00,1721206075279
-0.94,-0.60,6.22,-0.02,-0.27,0.04,1721206075289
-0.25,-0.27,10.77,-0.33,-0.01,-0.06,1721206075299
0.91,-1.54,12.77,-0.11,-0.28,0.01,1721206075309
0.05,-1.90,12.74,-0.28,0.00,-0.10,1721206075319
-0.96,-2.20,12.51,-0.15,-0.26,-0.20,1721206075329
-0.82,-3.08,10.44,-0.21,-0.12,-0.11,1721206075339
-0.36,-2.73,10.67,-0.13,-0.08,-0.06,1721206075349
-0.33,0.67,12.48,-0.09,-0.05,-0.16,1721206075359
-0.79,1.49,10.57,0.01,-0.20,-0.02,1721206075369
0.64,-3.33,8.92,-0.19,-0.06,-0.02,1721206075379
-0.06,-0.46,12.17,0.09,-0.15,-0.10,1721206075389
1.50,-1.04,11.50,0.01,0.03,-0.18,1721206075399
-1.32,1.55,11.41,0.12,-0.24,-0.12,1721206075409
0.44,-0.76,12.89,0.14,-0.03,-0.05,1721206075419
2.09,2.53,11.99,0.23,-0.06,-0.15,1721206075429
0.72,4.92,8.52,0.30,-0.14,-0.33,1721206075439
0.30,3.31,12.57,0.21,0.03,-0.37,1721206075449
-1.91,0.56,13.76,0.26,-0.13,-0.37,1721206075459
-0.97,1.61,13.22,0.30,0.01,-0.14,1721206075469
1.00,4.21,8.70,0.28,0.00,-0.10,1721206075479
1.33,0.01,9.80,0.16,-0.04,-0.30,1721206075489
-1.31,0.26,14.08,0.24,-0.08,-0.36,1721206075499
-0.86,2.95,8.69,0.42,0.01,-0.10,1721206075509
1.36,-1.15,5.21,0.07,0.14,-0.04,1721206075519
-0.78,3.54,16.66,0.15,-0.13,-0.26,1721206075529
1.15,-0.20,6.40,0.33,-0.09,-0.02,1721206075539
1.97,-2.20,5.16,0.09,0.15,0.01,1721206075549
0.94,3.22,4.79,0.25,-0.05,-0.18,1721206075559
2.20,-0.75,7.73,-0.04,0.12,-0.27,1721206075569
0.55,-1.24,12.01,0.20,-0.09,-0.20,1721206075579
0.47,-0.14,5.36,0.16,0.13,-0.23,1721206075589
0.53,4.69,5.57,0.18,0.06,-0.22,1721206075599
0.51,-0.35,-2.52,-0.14,0.03,-0.20,1721206075609
0.03,-1.59,11.67,-0.23,0.11,-0.22,1721206075619
-0.38,-4.39,4.05,-0.01,-0.05,-0.22,1721206075629
-1.13,1.22,8.88,-0.17,0.20,-0.20,1721206075639
0.37,-4.66,4.13,-0.27,-0.02,-0.05,1721206075649
-0.32,-3.97,20.57,-0.42,0.19,-0.15,1721206075659
1.87,-0.71,20.70,0.25,0.04,-0.10,1721206075669
3.46,-2.33,1.95,-0.13,0.04,-0.10,1721206075679
0.36,0.88,14.44,-0.41,0.25,-0.39,1721206075689
0.50,1.04,19.73,-0.09,0.17,-0.49,1721206075699
-1.53,0.14,9.76,-0.00,0.03,-0.32,1721206075709
-3.68,1.33,3.90,-0.22,0.07,-0.17,1721206075719
-2.30,4.87,17.20,-0.29,0.26,-0.13,1721206075729
-0.74,3.16,14.42,-0.23,-0.02,-0.09,1721206075739
-1.24,7.41,9.99,-0.14,0.02,-0.12,1721206075749
2.48,1.37,9.35,-0.26,0.20,-0.08,1721206075759
1.23,6.04,14.74,-0.07,0.04,-0.17,1721206075769
1.32,5.00,10.24,0.01,0.13,-0.48,1721206075779
-0.22,-1.81,9.12,0.03,0.08,-0.49,1721206075789
-1.31,-2.30,9.62,0.03,0.22,-0.29,1721206075799
-1.01,4.39,13.16,0.25,0.14,-0.29,1721206075809
0.61,4.18,8.00,0.26,0.17,-0.32,1721206075819
-0.79,0.18,10.17,0.07,0.20,-0.44,1721206075829
-2.25,-1.78,9.88,0.16,-0.00,-0.24,1721206075839
0.84,-3.70,7.77,0.12,0.32,-0.13,1721206075849
1.50,0.14,8.94,0.33,0.12,-0.28,1721206075859
-0.60,-1.98,6.66,0.13,0.17,-0.43,1721206075869
-3.17,0.05,13.43,0.15,0.09,-0.36,1721206075879
-3.31,-1.70,7.11,0.14,0.06,-0.15,1721206075889
-1.35,0.03,11.63,0.08,0.34,-0.04,1721206075899
-0.36,-4.19,5.03,0.04,-0.06,0.04,1721206075909
-1.70,-1.10,12.23,0.04,0.23,-0.06,1721206075919
0.56,-1.69,8.54,0.17,0.03,-0.08,1721206075929
-0.39,0.91,9.32,-0.12,0.09,-0.02,1721206075939
0.23,-0.65,16.54,-0.09,0.20,-0.01,1721206075949
-1.00,-1.76,11.81,0.01,-0.13,-0.03,1721206075959
0.44,-4.56,6.67,-0.08,0.18,-0.07,1721206075969
0.32,-2.32,13.76,-0.07,0.04,-0.06,1721206075979
-0.94,0.63,10.78,0.02,-0.04,-0.06,1721206075989
-2.38,0.21,8.54,0.16,-0.12,-0.02,1721206075999
2.08,-1.11,11.58,-0.04,0.48,0.05,1721206076009
-0.61,5.20,13.64,0.12,-0.35,0.15,1721206076019
1.27,1.88,6.95,-0.07,0.25,-0.10,1721206076029
2.32,0.59,13.21,0.18,0.11,-0.23,1721206076039
-0.33,0.20,6.50,-0.01,-0.00,-0.21,1721206076049
-3.48,3.60,10.40,0.06,-0.06,-0.10,1721206076059
0.04,3.34,9.52,0.12,0.27,0.07,1721206076069
2.00,2.14,9.01,0.03,0.06,0.04,1721206076079
2.40,1.93,9.37,0.03,0.09,-0.16,1721206076089
2.67,0.86,9.43,-0.10,0.25,-0.32,1721206076099
-0.24,2.60,12.20,-0.05,-0.02,-0.39,1721206076109
-2.62,-1.42,7.23,0.07,0.07,-0.30,1721206076119
-1.83,-1.36,11.91,-0.08,0.34,-0.15,1721206076129
0.98,4.40,8.98,0.07,0.12,-0.25,1721206076144
0.73,2.48,8.46,0.02,0.15,-0.38,1721206076148
-1.83,-0.43,10.63,-0.14,0.11,-0.49,1721206076158
-3.62,-6.24,12.80,-0.12,0.14,-0.24,1721206076168
0.27,-0.48,18.86,0.12,0.48,0.07,1721206076178
4.00,0.19,3.10,-0.00,-0.21,-0.13,1721206076188
-0.93,4.48,10.20,-0.20,0.37,-0.57,1721206076198
-2.76,-2.79,11.22,0.02,0.12,-0.71,1721206076208
-8.25,-5.22,6.79,-0.17,0.06,-0.41,1721206076218
-8.56,-0.14,13.95,0.02,0.25,0.16,1721206076228
-0.44,2.86,8.69,0.20,0.28,0.52,1721206076238
5.79,0.48,5.20,-0.08,0.16,0.35,1721206076248
5.29,-0.14,13.99,-0.17,0.22,-0.19,1721206076258
3.67,2.46,17.04,0.01,0.17,-0.60,1721206076268
-1.05,0.69,7.64,-0.00,-0.07,-0.39,1721206076278
-3.85,-5.47,6.73,-0.39,0.31,-0.24,1721206076288
-4.93,-2.94,17.60,-0.11,0.13,-0.08,1721206076298
-1.71,0.42,8.54,0.05,0.14,0.17,1721206076308
1.38,2.53,8.51,-0.08,0.25,0.06,1721206076318
1.74,-1.65,9.04,-0.17,0.13,-0.22,1721206076328
-2.01,2.25,13.75,-0.02,0.07,-0.23,1721206076338
-2.28,-2.45,5.58,-0.04,0.18,-0.06,1721206076348
-1.28,1.41,12.84,-0.10,0.26,0.01,1721206076358
0.54,4.01,11.26,0.04,0.10,0.06,1721206076368
1.85,-1.00,6.62,-0.06,0.11,0.04,1721206076378
0.24,-2.80,10.79,-0.11,0.17,-0.10,1721206076388
-1.34,-1.48,11.87,-0.00,0.10,-0.11,1721206076398
-1.78,3.02,10.90,0.13,0.14,0.02,1721206076408
-0.99,4.45,6.02,0.21,0.07,0.09,1721206076418
-0.28,1.22,7.67,-0.01,0.18,0.02,1721206076428
-1.21,-0.93,10.89,-0.01,0.08,0.05,1721206076438
-1.00,2.04,10.22,0.06,0.15,0.05,1721206076448
0.58,-2.96,5.65,-0.07,0.03,0.16,1721206076458
-0.87,-3.05,13.59,-0.18,-0.03,0.14,1721206076468
0.42,1.28,19.30,0.03,0.19,0.13,1721206076478
0.86,4.56,13.27,0.07,-0.01,0.12,1721206076488
-0.96,2.24,5.14,-0.03,-0.02,-0.00,1721206076498
-0.42,-5.07,7.30,-0.09,0.15,0.05,1721206076508
-2.87,0.79,11.00,0.14,-0.01,0.18,1721206076518
-0.78,1.35,8.06,0.05,0.07,0.30,1721206076528
-0.46,1.62,11.40,0.06,-0.07,0.34,1721206076538
1.18,2.47,11.75,0.04,0.02,0.28,1721206076548
1.07,1.38,11.37,0.05,-0.08,0.21,1721206076558
0.04,-1.06,10.38,-0.02,-0.08,0.25,1721206076568
0.96,-2.00,12.41,0.03,0.10,0.27,1721206076578
0.31,1.35,11.84,0.13,-0.13,0.32,1721206076588
0.48,2.40,8.56,0.07,-0.04,0.23,1721206076598
0.81,1.47,8.66,0.12,-0.07,0.27,1721206076608
1.40,-4.05,7.36,-0.04,-0.05,0.33,1721206076618
0.23,2.20,14.30,0.15,-0.09,0.25,1721206076628
1.43,3.06,8.35,0.13,-0.02,0.24,1721206076638
1.00,0.53,10.47,-0.05,-0.05,0.13,1721206076648
-0.67,-0.80,13.10,0.11,-0.14,0.14,1721206076658
0.68,-0.43,8.71,0.08,0.01,0.27,1721206076668
1.46,4.27,13.83,0.16,-0.04,0.18,1721206076678
0.92,-3.53,9.91,-0.01,-0.14,-0.01,1721206076688
-1.68,-1.17,12.65,0.15,-0.17,0.07,1721206076698
-0.77,4.41,7.23,0.17,-0.00,0.22,1721206076708
0.89,1.94,6.07,0.02,-0.06,0.17,1721206076718
0.86,-1.39,8.80,-0.10,-0.09,0.08,1721206076728
0.30,-1.17,11.43,-0.02,-0.07,0.09,1721206076738
0.84,0.54,9.78,-0.03,-0.07,0.01,1721206076748
1.00,1.68,11.56,-0.17,-0.12,-0.05,1721206076758
-0.50,2.02,15.28,0.02,-0.16,0.01,1721206076768
-0.57,-2.43,6.00,-0.04,-0.10,0.03,1721206076778
-0.20,-0.55,9.20,-0.14,-0.07,0.08,1721206076788
2.43,0.94,8.66,-0.07,-0.04,0.16,1721206076798
3.22,-0.42,12.28,-0.13,0.05,-0.14,1721206076808
0.61,-1.06,7.58,0.01,-0.25,-0.22,1721206076818
-0.86,2.35,10.81,-0.10,0.06,-0.17,1721206076828
-0.07,1.25,9.98,-0.06,-0.08,-0.02,1721206076838
0.63,-1.26,13.44,-0.25,0.03,-0.06,1721206076848
1.60,-0.06,12.13,-0.06,-0.05,-0.22,1721206076858
0.73,1.74,6.96,0.04,-0.06,-0.30,1721206076868
-0.72,-1.75,8.93,-0.22,0.03,-0.27,1721206076878
-2.86,1.11,17.47,-0.08,-0.07,-0.15,1721206076888
-2.07,4.66,8.82,0.06,-0.02,-0.05,1721206076898
0.99,-0.79,3.18,-0.23,0.05,0.03,1721206076908
0.89,-0.16,12.31,-0.22,-0.02,-0.09,1721206076918
2.97,-1.60,13.14,-0.16,0.05,-0.22,1721206076928
-0.05,0.46,10.40,-0.05,-0.13,-0.32,1721206076938
-1.73,0.71,8.88,-0.15,0.06,-0.27,1721206076948
-1.81,-0.36,13.91,-0.17,0.01,-0.09,1721206076958
-0.37,2.17,12.15,-0.01,-0.02,-0.02,1721206076968
2.13,0.95,6.06,0.02,0.06,-0.10,1721206076978
1.15,-3.17,7.32,-0.22,0.02,-0.28,1721206076988
-1.25,-0.38,12.26,-0.05,0.00,-0.28,1721206076998
-1.20,0.68,10.70,0.03,0.09,-0.24,1721206077008
-2.13,1.66,6.85,0.08,-0.12,-0.04,1721206077018
0.26,-1.68,9.17,-0.12,0.23,-0.01,1721206077028
1.96,1.20,16.05,0.09,0.06,-0.01,1721206077038
1.26,3.63,9.11,0.13,-0.05,-0.20,1721206077048
-0.99,1.56,7.53,0.03,-0.04,-0.23,1721206077058
-0.76,0.84,11.98,-0.00,0.18,-0.17,1721206077068
-1.04,0.25,12.39,0.04,-0.04,-0.08,1721206077078
-1.45,1.39,10.10,0.06,-0.03,-0.00,1721206077088
0.96,-2.80,10.08,-0.07,0.15,-0.14,1721206077098
-1.90,-0.04,11.96,0.06,-0.19,-0.16,1721206077108
1.14,2.40,11.98,0.05,0.35,-0.21,1721206077118
-1.27,0.07,11.65,0.15,-0.19,-0.09,1721206077128
-3.27,4.42,8.66,0.19,-0.00,-0.09,1721206077138
0.79,-4.23,8.54,0.04,0.12,-0.03,1721206077148
-0.53,1.99,13.30,0.16,-0.05,-0.11,1721206077158
0.34,3.95,13.10,0.19,0.08,-0.25,1721206077168
-3.17,2.40,8.00,0.22,-0.22,-0.20,1721206077178
-3.30,-2.89,9.44,0.08,0.13,0.04,1721206077188
-1.52,2.85,10.20,0.42,-0.08,0.29,1721206077198
0.59,0.91,3.12,0.12,0.03,0.13,1721206077208
1.42,1.64,10.06,0.24,-0.05,-0.02,1721206077218
1.43,-0.18,2.73,0.23,-0.11,-0.06,1721206077228
-0.94,4.08,6.85,0.09,0.05,-0.10,1721206077238
0.44,-4.01,10.73,-0.16,0.02,-0.08,1721206077248
-1.12,-1.79,15.90,0.02,-0.18,0.01,1721206077258
0.72,1.08,8.25,0.16,0.00,-0.11,1721206077268
-0.31,0.99,11.05,-0.06,-0.07,-0.25,1721206077278
-2.39,-0.82,15.12,0.04,-0.15,-0.14,1721206077288
-1.35,-0.76,10.82,0.16,-0.07,-0.03,1721206077298
-0.54,2.48,5.92,0.09,-0.09,0.01,1721206077308
0.50,-0.11,4.41,-0.11,-0.07,0.05,1721206077318
0.83,0.40,11.22,-0.02,-0.01,-0.04,1721206077328
2.72,-1.12,11.01,0.01,-0.00,-0.13,1721206077338
0.80,1.76,10.29,0.04,-0.16,-0.15,1721206077348
0.64,3.76,9.01,-0.03,0.04,-0.15,1721206077358
0.68,0.44,12.64,-0.10,-0.01,-0.14,1721206077368
-0.19,-1.07,13.44,0.00,-0.04,-0.06,1721206077378
0.88,0.52,7.95,0.05,0.02,-0.04,1721206077388
1.58,3.63,12.94,0.01,0.11,-0.17,1721206077398
0.64,2.63,10.38,0.04,-0.07,-0.24,1721206077408
-1.54,-0.20,6.33,-0.00,-0.02,-0.21,1721206077418
-1.21,-3.01,10.45,-0.11,0.11,-0.19,1721206077428
-0.87,2.06,12.79,0.13,-0.03,-0.07,1721206077438
1.31,0.73,6.77,0.00,0.07,-0.07,1721206077448
-0.10,4.55,9.99,0.09,0.02,-0.22,1721206077458
1.47,-1.31,8.96,-0.10,0.14,-0.35,1721206077468
-1.85,-2.49,15.46,-0.08,-0.08,-0.40,1721206077478
-3.46,0.64,9.74,0.02,0.05,-0.28,1721206077488
-2.27,2.54,10.26,-0.05,0.16,-0.15,1721206077498
-0.98,-2.86,7.96,-0.12,0.01,-0.11,1721206077508
-0.78,0.30,6.73,0.06,0.06,-0.19,1721206077518
1.84,-0.13,8.42,-0.09,0.25,-0.28,1721206077528
-0.53,0.53,14.85,-0.08,0.01,-0.26,1721206077538
-1.64,1.58,9.14,-0.06,0.02,-0.22,1721206077548
-0.93,-0.62,6.99,-0.17,0.06,-0.14,1721206077558
-0.31,-0.90,12.96,-0.18,0.15,-0.15,1721206077568
0.61,0.63,9.24,-0.03,0.07,-0.22,1721206077578
-0.58,-0.26,5.03,-0.22,0.11,-0.28,1721206077588
-1.38,-2.59,16.00,-0.25,0.12,-0.15,1721206077598
-1.13,-1.01,12.35,-0.01,0.03,-0.07,1721206077608
0.14,2.18,9.97,-0.00,0.16,-0.03,1721206077618
1.03,0.83,8.09,-0.05,0.04,-0.10,1721206077628
-0.62,5.25,9.19,0.08,0.07,-0.21,1721206077638
-0.99,-1.13,7.90,-0.03,0.15,-0.15,1721206077648
-2.31,0.02,12.13,-0.05,0.01,-0.01,1721206077658
-0.56,3.20,11.73,-0.01,0.13,0.08,1721206077668
1.23,-1.36,9.38,-0.09,0.01,0.02,1721206077678
1.28,-1.41,13.54,-0.04,0.10,-0.08,1721206077688
-1.03,5.37,11.45,0.21,-0.06,-0.14,1721206077698
-0.81,2.91,6.03,0.02,0.09,-0.10,1721206077708
-1.31,-1.55,10.21,0.01,0.05,0.05,1721206077718
-1.49,0.80,12.68,0.04,0.02,0.12,1721206077728
0.39,0.96,8.86,0.09,0.03,0.13,1721206077738
1.52,0.35,13.32,0.05,0.08,0.11,1721206077748
3.06,2.32,11.95,0.20,0.08,-0.03,1721206077758
1.03,2.51,9.37,0.20,-0.04,-0.10,1721206077768
-1.46,0.81,7.75,0.12,-0.03,-0.07,1721206077778
-1.13,-0.33,11.97,0.06,0.10,0.11,1721206077788
0.61,0.81,8.86,0.13,0.02,0.17,1721206077798
1.46,2.20,8.47,0.07,0.04,0.07,1721206077808
2.58,0.42,8.26,0.07,0.04,-0.06,1721206077818
1.53,-0.61,9.19,-0.00,0.04,-0.16,1721206077828
-0.49,0.24,9.98,0.05,0.02,-0.19,1721206077838
-1.07,-2.19,7.54,-0.06,0.01,-0.04,1721206077848
-1.11,1.09,14.89,-0.02,0.09,0.03,1721206077858
0.06,0.09,10.77,0.04,0.03,-0.00,1721206077868
0.43,1.67,11.46,0.07,0.04,-0.04,1721206077878
0.34,-2.20,7.17,-0.17,0.04,-0.04,1721206077888
-1.13,2.13,9.38,0.07,-0.03,-0.12,1721206077898
0.10,-3.44,11.11,-0.16,0.27,-0.14,1721206077908
-1.98,0.36,10.01,0.17,-0.25,0.16,1721206077918
1.20,0.25,6.52,-0.17,0.25,0.16,1721206077928
1.25,2.58,16.60,-0.01,0.00,-0.10,1721206077938
0.01,-0.53,7.16,-0.02,-0.12,-0.13,1721206077948
-1.50,0.75,7.12,-0.16,0.06,-0.05,1721206077958
-0.68,-0.55,14.29,-0.25,0.11,-0.04,1721206077968
-0.29,2.47,17.07,0.06,-0.01,0.01,1721206077978
0.75,3.14,3.51,0.02,-0.02,-0.02,1721206077988
1.42,-3.48,6.13,-0.29,0.07,-0.03,1721206077998
-0.20,-1.04,19.03,-0.18,0.03,-0.15,1721206078008
0.15,3.82,10.64,0.20,-0.06,-0.12,1721206078018
1.30,3.10,2.74,0.02,0.18,-0.12,1721206078028
-0.45,2.02,10.20,0.01,0.01,-0.16,1721206078038
0.14,-0.62,13.14,0.00,0.09,-0.07,1721206078048
0.85,0.28,8.87,0.09,0.00,-0.09,1721206078058
0.64,1.85,11.43,-0.01,0.15,-0.22,1721206078068
-0.26,-1.82,9.26,0.05,-0.06,-0.12,1721206078078
-1.66,0.42,13.36,0.02,0.07,-0.11,1721206078088
-0.12,4.30,7.77,0.24,0.03,-0.16,1721206078098
0.26,0.25,6.01,0.04,0.07,-0.12,1721206078108
-1.23,1.44,12.27,0.09,0.11,-0.07,1721206078118
0.58,-1.44,9.96,0.02,0.07,-0.06,1721206078128
-0.38,2.09,13.38,0.02,-0.01,-0.11,1721206078138
-0.73,-0.73,9.14,0.08,-0.00,-0.14,1721206078153
-0.39,-0.13,10.54,0.08,0.03,-0.06,1721206078157
-0.68,3.14,8.85,0.14,0.04,-0.11,1721206078167
-0.21,1.03,12.49,0.01,0.08,-0.17,1721206078177
-0.57,2.17,11.10,0.20,0.02,-0.10,1721206078187
-1.15,0.62,5.28,0.11,0.05,0.00,1721206078197
-0.44,1.02,10.61,0.06,0.14,-0.01,1721206078207
0.45,1.75,9.46,0.14,-0.10,0.05,1721206078217
0.42,1.94,6.62,0.10,0.09,-0.10,1721206078227
0.83,-3.20,13.03,-0.05,0.12,-0.08,1721206078237
-0.94,0.69,11.46,0.09,-0.11,-0.01,1721206078247
0.09,3.04,5.89,0.06,0.10,-0.02,1721206078257
0.79,-0.77,8.82,0.01,0.08,-0.12,1721206078267
-0.12,-1.83,7.29,0.01,-0.00,-0.08,1721206078277
0.02,0.82,11.25,0.02,0.21,-0.15,1721206078287
0.16,-1.13,8.87,-0.03,-0.01,-0.10,1721206078297
-1.02,0.13,11.66,-0.07,0.05,-0.09,1721206078307
0.68,-3.48,8.83,-0.06,0.14,-0.16,1721206078317
-0.48,1.72,10.79,0.03,0.03,-0.18,1721206078327
-1.08,1.18,7.40,-0.08,0.04,-0.14,1721206078337
-0.86,0.33,12.23,-0.10,0.13,-0.15,1721206078347
-0.07,-2.43,7.07,-0.07,0.00,-0.08,1721206078357
-0.49,-0.59,10.85,-0.20,0.12,-0.05,1721206078367
-0.10,0.42,15.37,-0.15,0.08,-0.09,1721206078377
-0.86,2.75,8.16,-0.07,-0.07,-0.15,1721206078387
-0.07,0.51,8.43,-0.18,0.17,-0.14,1721206078397
-0.35,-3.20,12.32,-0.21,0.02,-0.05,1721206078407
-1.00,-0.11,15.68,-0.21,0.07,-0.09,1721206078417
0.16,1.86,10.69,-0.04,0.01,-0.11,1721206078427
0.30,-1.39,6.55,-0.15,0.12,-0.08,1721206078437
0.06,0.47,11.91,0.00,0.09,-0.10,1721206078447
0.30,5.76,11.28,0.09,0.07,-0.12,1721206078457
-0.61,4.97,9.11,0.05,0.02,-0.17,1721206078467
-0.46,-3.80,8.60,-0.12,0.12,-0.09,1721206078477
-1.02,1.25,12.21,0.00,0.08,-0.11,1721206078487
-0.62,3.31,10.13,0.03,0.05,-0.08,1721206078497
-0.95,2.03,11.46,0.07,0.06,-0.07,1721206078507
0.40,-3.07,5.49,0.07,0.06,-0.05,1721206078517
0.11,2.43,10.41,0.02,0.18,-0.11,1721206078527
1.21,3.55,16.45,0.03,0.21,-0.14,1721206078537
0.29,0.05,10.65,0.01,-0.06,-0.10,1721206078547
-0.50,-2.15,8.81,-0.01,0.10,-0.10,1721206078557
1.78,0.39,11.56,0.06,0.26,-0.06,1721206078567
1.61,1.79,13.24,0.02,0.10,-0.13,1721206078577
-0.02,2.64,10.41,0.10,0.06,-0.20,1721206078587
0.15,-0.75,9.63,0.05,0.25,-0.21,1721206078597
-1.18,0.45,14.07,0.10,0.12,-0.09,1721206078607
-1.64,1.71,11.24,0.12,0.12,-0.02,1721206078617
-0.58,5.61,8.26,0.27,0.08,0.00,1721206078627
0.65,0.70,7.51,0.09,0.23,-0.02,1721206078637
-0.98,-0.46,8.50,0.19,0.00,-0.03,1721206078647
-1.30,0.51,8.46,0.15,0.23,-0.01,1721206078657
-0.17,-0.62,10.18,0.11,0.13,0.09,1721206078667
0.21,1.12,13.20,0.12,0.11,0.08,1721206078677
0.74,2.23,11.15,0.23,0.12,0.05,1721206078687
0.12,1.91,5.54,0.18,0.05,-0.06,1721206078697
-0.63,-2.76,6.56,-0.08,0.12,-0.06,1721206078707
-1.81,0.46,16.24,0.02,0.15,-0.01,1721206078717
-1.01,1.93,10.94,0.12,0.10,0.01,1721206078727
-0.95,-1.98,5.86,0.00,-0.01,0.05,1721206078737
-0.48,-1.65,10.35,-0.09,0.19,0.06,1721206078747
-0.47,1.19,16.80,-0.05,0.13,-0.01,1721206078757
-2.26,1.32,9.57,0.02,-0.11,0.01,1721206078767
-1.23,-0.94,3.34,-0.04,0.14,0.14,1721206078777
0.80,-1.96,11.67,-0.14,0.13,0.17,1721206078787
0.37,2.50,13.19,0.03,-0.09,0.07,1721206078797
1.15,1.49,4.98,0.03,0.04,0.04,1721206078807
0.66,-1.53,4.29,-0.14,0.05,0.06,1721206078817
-1.01,0.25,14.85,-0.21,0.11,-0.04,1721206078827
-1.35,-0.09,14.53,0.02,-0.13,0.16,1721206078837
-1.43,-1.02,3.26,-0.07,-0.07,0.25,1721206078847
1.01,-1.60,10.43,-0.21,0.23,0.14,1721206078857
1.10,1.82,16.53,-0.10,-0.06,0.07,1721206078867
-0.44,3.56,8.11,-0.00,-0.12,0.10,1721206078877
-0.56,0.18,5.29,-0.07,0.09,-0.01,1721206078887
-1.62,-4.74,11.87,-0.27,-0.03,0.07,1721206078897
-2.39,0.29,14.58,-0.09,-0.15,0.45,1721206078907
2.24,5.56,11.03,0.01,0.19,0.20,1721206078917
3.23,-3.26,9.50,-0.10,-0.26,-0.04,1721206078927
-3.23,3.82,11.81,0.03,-0.21,-0.04,1721206078937
-0.60,1.86,11.39,-0.04,0.20,0.20,1721206078947
-0.04,-2.22,12.25,0.04,-0.15,0.19,1721206078957
-1.32,1.76,11.63,0.07,0.01,0.09,1721206078967
1.26,0.32,8.15,0.15,-0.09,0.26,1721206078977
2.01,2.44,11.96,0.13,-0.05,0.17,1721206078987
2.24,1.19,8.37,0.12,-0.03,-0.03,1721206078997
-0.75,3.21,12.11,0.11,-0.07,-0.16,1721206079007
-1.40,1.42,10.28,0.22,-0.11,0.16,1721206079017
0.37,-3.76,7.38,-0.04,-0.04,0.29,1721206079027
1.30,0.57,12.07,0.11,-0.03,0.16,1721206079037
1.92,0.71,12.16,0.09,-0.03,-0.00,1721206079047
1.30,2.83,12.65,0.29,-0.15,0.06,1721206079057
0.99,-1.16,5.31,-0.02,-0.03,0.07,1721206079067
-1.13,-2.84,11.42,-0.04,-0.07,-0.07,1721206079077
-0.84,0.42,13.80,0.16,-0.09,0.08,1721206079087
0.94,1.91,6.29,0.14,-0.03,0.23,1721206079097
1.17,1.71,8.61,-0.01,-0.04,0.09,1721206079107
2.07,-3.93,7.82,-0.04,-0.05,-0.06,1721206079117
0.07,-2.30,12.04,-0.04,-0.07,-0.16,1721206079127
-1.64,3.41,15.91,0.16,0.00,0.01,1721206079137
-0.41,0.57,5.87,0.13,-0.06,0.19,1721206079147
1.61,-0.48,3.99,-0.03,-0.01,0.15,1721206079157
2.35,-2.20,14.28,-0.12,0.07,-0.14,1721206079167
-0.49,2.85,13.68,0.21,-0.17,-0.21,1721206079177
-1.39,2.88,3.81,0.12,0.01,-0.08,1721206079187
-0.52,-4.05,8.20,-0.23,0.03,0.03,1721206079197
-1.25,3.27,17.92,0.14,-0.12,0.08,1721206079207
1.58,0.45,7.37,-0.04,0.04,-0.07,1721206079217
0.15,1.17,11.77,-0.10,-0.14,-0.10,1721206079227
-1.17,0.11,12.79,-0.14,-0.03,-0.16,1721206079237
-0.90,1.12,10.58,0.07,-0.08,-0.02,1721206079247
0.05,2.06,5.50,-0.02,-0.03,0.00,1721206079257
0.14,-0.17,6.72,-0.14,-0.01,-0.10,1721206079267
-0.72,0.68,14.31,-0.06,-0.05,-0.09,1721206079277
-0.88,4.42,13.21,0.05,-0.07,-0.06,1721206079287
0.05,7.03,8.61,0.15,-0.09,0.04,1721206079297
1.62,-4.40,2.90,-0.37,-0.05,0.01,1721206079307
0.17,0.97,17.98,-0.10,-0.12,-0.08,1721206079317
3.31,1.86,7.19,0.09,0.04,-0.30,1721206079327
-0.95,0.64,5.99,-0.08,-0.23,-0.33,1721206079337
-4.41,1.47,11.04,-0.02,0.01,-0.24,1721206079347
-1.91,0.24,10.74,0.00,0.02,0.09,1721206079357
0.70,-2.23,10.82,-0.17,-0.01,0.15,1721206079367
3.04,0.74,10.09,-0.02,-0.02,-0.05,1721206079377
3.63,0.49,8.07,-0.11,-0.01,-0.33,1721206079387
0.75,-1.25,12.69,-0.08,-0.06,-0.48,1721206079397
-2.91,-0.17,10.20,0.01,-0.07,-0.31,1721206079407
-2.92,-0.70,8.43,-0.05,0.03,-0.10,1721206079417
-0.14,0.02,14.15,-0.15,0.08,0.09,1721206079427
2.67,1.30,12.58,-0.02,0.03,-0.02,1721206079437
3.00,3.26,7.96,0.07,-0.01,-0.32,1721206079447
0.15,-0.47,8.20,-0.17,0.03,-0.42,1721206079457
-2.16,-0.06,14.38,-0.06,0.03,-0.34,1721206079467
-1.41,0.65,8.13,-0.01,0.02,-0.14,1721206079477
-0.63,-2.09,8.56,-0.09,0.08,-0.10,1721206079487
-0.15,0.52,12.49,-0.02,0.06,-0.17,1721206079497
0.32,3.82,12.47,0.10,0.08,-0.27,1721206079507
-1.19,-1.28,8.53,-0.01,-0.04,-0.30,1721206079517
-2.95,1.63,11.40,0.08,0.09,-0.14,1721206079527
1.94,1.23,9.25,0.13,0.19,-0.10,1721206079537
0.33,0.29,9.75,0.00,-0.10,-0.29,1721206079547
-3.41,2.14,11.08,0.10,0.05,-0.33,1721206079557
-1.21,0.82,11.37,0.05,0.26,-0.20,1721206079567
