AccX,AccY,AccZ,GyrX,GyrY,GyrZ,Time
-0.69,-7.00,18.80,0.01,0.12,1.65,1721207380145
4.91,-4.59,17.27,0.34,0.04,1.43,1721207380150
18.04,-2.99,7.51,-0.04,0.15,0.71,1721207380160
16.12,5.96,14.08,-0.05,0.17,-0.38,1721207380170
10.02,-2.63,9.65,0.07,-0.30,-1.26,1721207380180
-2.42,-3.10,3.57,-0.13,-0.29,-1.15,1721207380190
-6.47,1.53,10.28,0.09,0.01,-0.24,1721207380200
0.94,-4.15,8.80,-0.06,0.43,0.32,1721207380210
1.52,-0.53,11.73,0.10,-0.14,-0.13,1721207380220
-1.23,-2.57,13.84,0.08,0.15,-0.87,1721207380230
-5.55,-2.48,13.25,0.11,-0.14,-0.73,1721207380240
-10.17,-2.38,5.43,-0.02,-0.15,-0.26,1721207380250
-10.07,-5.83,7.06,-0.14,-0.01,0.12,1721207380260
-5.00,-6.33,12.77,0.02,-0.18,0.48,1721207380270
2.94,-1.49,10.45,0.20,0.02,0.47,1721207380280
6.06,-1.32,7.50,0.05,-0.17,-0.13,1721207380290
1.77,-1.16,8.52,0.08,-0.05,-0.63,1721207380300
-1.23,-7.53,11.31,-0.11,-0.09,-0.48,1721207380310
-3.44,-5.43,19.48,0.16,-0.09,0.02,1721207380320
0.83,-2.94,1.65,0.19,0.02,0.12,1721207380330
2.40,-0.61,14.48,-0.06,0.04,-0.36,1721207380340
0.03,-2.62,9.66,0.31,-0.44,-0.52,1721207380350
-3.45,-3.28,4.06,-0.04,0.12,-0.44,1721207380360
-5.06,-0.08,14.41,0.13,-0.03,-0.21,1721207380370
-2.69,-0.00,6.92,0.12,-0.01,-0.04,1721207380380
-1.45,-3.43,10.91,-0.10,-0.14,0.02,1721207380390
-0.68,-0.72,15.06,0.15,-0.04,-0.06,1721207380400
3.19,-2.97,4.62,-0.09,-0.11,-0.09,1721207380410
0.60,1.66,17.59,0.03,-0.12,-0.11,1721207380420
0.57,2.01,0.59,0.10,-0.17,-0.09,1721207380430
3.21,3.33,11.71,-0.06,0.30,0.01,1721207380440
6.74,2.41,14.01,0.28,0.07,0.10,1721207380450
4.92,3.83,1.97,-0.10,-0.04,-0.10,1721207380460
4.87,2.91,18.35,0.05,0.27,-0.35,1721207380470
3.44,-0.66,9.77,0.01,-0.07,-0.29,1721207380480
-1.20,6.89,4.24,-0.03,0.16,-0.15,1721207380490
1.59,3.85,14.04,-0.14,0.50,-0.12,1721207380500
0.48,1.63,17.14,0.09,0.06,-0.14,1721207380510
-1.76,6.46,5.33,0.17,-0.04,0.04,1721207380520
2.10,3.44,9.62,-0.25,0.53,0.19,1721207380530
3.65,1.29,17.14,-0.11,0.21,0.14,1721207380540
2.19,8.10,13.87,0.23,0.08,-0.09,1721207380550
3.87,7.14,1.31,-0.03,0.34,-0.14,1721207380560
2.68,3.23,9.45,-0.31,0.36,-0.09,1721207380570
3.01,2.42,15.34,0.01,0.32,-0.31,1721207380580
3.00,2.14,10.25,0.04,0.32,-0.35,1721207380590
-0.44,6.36,5.02,0.02,0.25,-0.37,1721207380600
-1.73,2.38,8.23,-0.19,0.44,-0.57,1721207380610
-5.56,0.65,13.49,-0.03,0.12,-0.51,1721207380620
-7.05,1.39,7.24,0.06,0.20,-0.16,1721207380630
-4.53,0.04,10.58,-0.04,0.42,0.08,1721207380640
-1.27,-1.20,8.88,0.07,0.20,-0.03,1721207380650
-2.20,0.53,9.10,0.07,0.09,-0.26,1721207380660
-3.67,-0.57,7.38,-0.12,0.10,-0.21,1721207380670
-3.79,-1.89,11.66,-0.08,0.18,0.00,1721207380680
-0.29,-0.62,13.01,0.11,0.18,0.05,1721207380690
2.70,-2.63,5.53,-0.05,0.16,-0.09,1721207380700
2.16,-0.68,13.57,-0.00,0.21,-0.30,1721207380710
0.62,-5.74,10.77,-0.03,0.09,-0.40,1721207380720
-4.16,-2.73,6.67,-0.05,-0.10,-0.33,1721207380730
-3.08,-0.33,7.48,0.06,0.28,-0.17,1721207380740
0.59,-3.81,7.57,-0.34,0.31,-0.12,1721207380750
-1.60,-6.10,15.70,-0.01,-0.08,-0.24,1721207380760
-4.40,-6.66,9.50,0.03,0.11,-0.34,1721207380770
-6.86,-1.90,16.39,0.16,0.09,-0.15,1721207380780
-3.41,-7.34,6.23,-0.01,0.04,0.22,1721207380790
-2.28,-5.56,16.67,-0.16,0.14,0.23,1721207380800
-0.45,-6.37,11.63,0.15,-0.04,0.01,1721207380810
-0.91,-0.45,3.12,-0.09,-0.07,-0.12,1721207380820
-0.56,-4.51,5.53,-0.15,-0.12,-0.10,1721207380830
0.50,-7.65,13.04,0.00,0.11,-0.02,1721207380840
-1.35,-3.48,-4.96,-0.11,-0.21,-0.03,1721207380850
-2.76,-3.99,25.77,-0.13,0.83,-0.40,1721207380860
1.69,-7.70,9.43,0.44,-0.33,-0.42,1721207380870
-6.88,-2.76,10.93,-0.43,0.20,-0.42,1721207380880
-6.16,-3.47,18.34,-0.05,0.08,-0.26,1721207380890
-4.00,-9.88,5.89,-0.22,-0.18,0.05,1721207380900
-5.93,6.51,14.94,0.08,-0.05,-0.08,1721207380910
-1.93,-1.26,1.43,-0.05,-0.27,-0.26,1721207380920
-7.86,-0.12,9.80,-0.35,-0.18,-0.21,1721207380929
-4.81,1.99,9.62,0.07,0.00,0.15,1721207380939
1.35,4.15,18.25,-0.08,0.03,0.24,1721207380949
3.78,-0.92,8.07,-0.03,-0.51,0.08,1721207380959
0.44,5.55,8.48,-0.14,-0.27,-0.29,1721207380969
0.95,6.25,8.84,-0.01,-0.16,-0.30,1721207380979
2.02,3.22,12.52,-0.03,-0.05,-0.12,1721207380989
1.17,3.65,0.38,0.02,-0.39,-0.08,1721207380999
3.37,4.47,13.29,-0.27,0.19,-0.31,1721207381009
0.64,-2.95,15.77,0.08,-0.41,-0.37,1721207381019
-3.40,1.66,15.81,0.16,-0.20,-0.24,1721207381029
-2.76,2.80,5.46,0.19,-0.09,-0.18,1721207381039
-3.00,-2.55,8.99,-0.18,-0.17,-0.23,1721207381049
-8.43,-2.83,8.63,0.19,-0.48,-0.27,1721207381059
-7.88,2.02,13.51,0.29,-0.09,-0.11,1721207381069
-4.73,1.49,4.21,0.06,-0.56,0.37,1721207381079
-2.81,-2.76,2.09,-0.34,-0.41,0.47,1721207381089
2.21,-7.48,17.05,0.02,-0.22,0.20,1721207381099
5.84,-7.93,14.58,0.17,-0.41,0.12,1721207381109
1.41,2.28,4.06,0.15,-0.68,0.19,1721207381119
5.59,1.05,3.53,-0.23,0.02,-0.02,1721207381129
7.37,-5.04,20.07,-0.07,-0.21,-0.36,1721207381139
0.60,-7.42,12.13,-0.03,-0.70,-0.43,1721207381149
-5.86,-2.56,8.34,0.08,-0.47,-0.12,1721207381159
-1.30,-4.24,9.25,-0.07,0.06,0.13,1721207381169
-2.14,-4.99,12.19,-0.15,-0.24,0.14,1721207381179
-0.90,-5.37,9.83,-0.03,-0.31,0.10,1721207381189
1.62,-4.15,6.89,0.04,-0.46,0.11,1721207381199
1.29,-1.42,12.66,-0.02,-0.06,0.15,1721207381209
1.28,0.56,10.20,-0.02,-0.02,0.39,1721207381219
4.00,-6.14,5.21,-0.30,-0.27,0.58,1721207381229
5.86,-0.46,12.68,-0.14,-0.16,0.35,1721207381239
13.33,-2.02,15.38,0.14,0.03,0.03,1721207381249
10.71,3.99,11.87,0.06,0.03,-0.21,1721207381259
6.07,0.89,7.06,-0.08,0.08,-0.17,1721207381269
0.47,4.35,7.04,-0.06,-0.12,-0.32,1721207381279
-2.93,6.55,2.41,-0.32,-0.18,-0.73,1721207381289
-9.07,2.86,6.68,-0.38,-0.34,-0.40,1721207381299
-12.09,7.53,12.33,-0.07,-0.18,0.07,1721207381309
-8.58,5.09,6.57,-0.16,-0.05,0.27,1721207381319
-2.20,4.28,6.79,-0.04,0.03,0.58,1721207381329
5.18,5.61,11.15,-0.19,0.26,0.31,1721207381339
6.87,0.92,14.55,-0.15,-0.13,-0.07,1721207381349
7.93,0.76,20.83,-0.26,0.29,-0.41,1721207381359
6.77,6.14,13.83,0.19,-0.28,-0.37,1721207381369
6.64,5.07,-0.85,-0.30,0.28,-0.68,1721207381379
0.17,3.83,22.50,-0.08,-0.10,-1.20,1721207381389
-7.68,2.66,10.59,0.09,-0.26,-1.04,1721207381399
-10.17,-4.15,6.19,-0.40,0.13,-0.30,1721207381409
-6.83,3.99,19.39,-0.01,0.02,0.39,1721207381419
4.12,0.80,3.68,-0.10,0.11,0.50,1721207381429
8.53,3.02,9.92,-0.21,0.19,-0.14,1721207381439
11.65,0.74,11.11,-0.02,0.01,-0.54,1721207381449
9.02,-0.94,10.57,-0.07,0.30,-0.82,1721207381459
3.71,-4.49,5.20,-0.02,-0.03,-0.80,1721207381469
-1.44,-1.23,11.03,-0.13,0.50,-1.07,1721207381479
-3.62,-3.53,14.56,0.12,0.20,-0.84,1721207381489
-3.49,-1.44,10.87,-0.04,0.41,-0.59,1721207381499
-1.43,-1.04,14.01,0.15,0.08,-0.34,1721207381509
-0.48,2.25,10.14,0.11,0.42,-0.62,1721207381518
2.78,-1.12,12.26,0.22,0.29,-0.69,1721207381528
-2.37,-2.44,5.96,0.12,0.18,-0.72,1721207381538
-4.66,-7.71,8.20,0.02,0.27,-0.62,1721207381548
-6.15,-2.12,12.35,0.12,0.36,-0.50,1721207381558
-0.92,-2.85,11.15,0.05,0.42,-0.46,1721207381568
-1.49,2.93,10.08,0.19,0.10,-0.56,1721207381578
-1.20,-3.58,4.29,0.12,0.10,-0.63,1721207381588
-5.98,2.91,9.90,0.15,0.39,-0.74,1721207381598
-2.32,-3.08,10.67,-0.08,0.49,-0.65,1721207381608
-5.13,6.80,18.59,0.11,0.09,-0.49,1721207381618
-1.94,-1.20,3.65,0.17,0.19,-0.28,1721207381628
-0.43,2.78,13.78,0.06,0.53,-0.25,1721207381637
1.41,1.34,8.82,0.25,0.07,-0.36,1721207381647
1.80,3.87,9.23,0.06,0.34,-0.46,1721207381657
3.92,3.34,10.80,0.20,0.19,-0.48,1721207381667
1.46,1.67,9.83,0.05,0.39,-0.62,1721207381677
-1.79,-0.18,6.59,0.03,0.08,-0.80,1721207381687
-5.34,-0.79,11.42,-0.05,0.29,-0.69,1721207381697
-7.32,0.32,6.70,0.24,0.16,-0.34,1721207381707
-4.15,-4.48,12.09,-0.14,0.42,-0.14,1721207381717
-2.00,6.72,17.22,0.49,0.09,-0.08,1721207381727
0.10,0.15,-2.07,-0.03,0.21,-0.39,1721207381737
-4.94,-2.39,20.17,-0.12,0.02,-0.36,1721207381747
-5.84,-1.48,6.16,0.24,0.10,-0.17,1721207381757
-5.58,-5.27,7.50,-0.18,0.41,0.03,1721207381767
-2.09,-1.80,12.43,0.02,0.08,0.35,1721207381777
2.64,-4.32,5.56,-0.04,0.16,0.25,1721207381787
4.91,-1.14,10.94,-0.04,0.24,-0.04,1721207381797
4.87,-3.50,12.95,-0.09,0.17,-0.22,1721207381807
-0.17,-0.38,11.51,0.02,0.05,-0.29,1721207381817
-1.94,-4.67,4.87,-0.20,0.14,-0.15,1721207381827
-4.63,-5.18,11.41,-0.08,0.15,0.03,1721207381837
-2.00,-6.96,2.44,-0.09,0.25,0.28,1721207381847
1.99,0.68,17.50,-0.09,0.48,0.19,1721207381857
2.89,4.10,15.74,0.27,0.09,0.05,1721207381867
2.57,-3.34,6.88,-0.22,0.34,-0.06,1721207381877
-1.73,-2.44,14.25,-0.22,0.11,-0.07,1721207381887
-2.10,-6.51,9.01,-0.12,0.24,-0.05,1721207381897
-0.11,0.28,14.52,0.15,0.16,0.16,1721207381907
3.16,6.59,11.13,0.21,0.39,0.17,1721207381917
2.74,1.75,8.44,0.00,0.23,-0.05,1721207381927
0.90,3.16,12.86,0.05,0.27,-0.24,1721207381937
-2.81,-1.41,6.67,0.19,0.07,-0.14,1721207381947
-4.57,3.85,11.10,0.21,0.29,0.04,1721207381957
-1.50,5.29,3.72,0.63,0.20,0.28,1721207381967
0.72,1.29,-0.48,0.09,0.35,0.07,1721207381977
-4.97,11.52,19.90,0.27,-0.09,-0.05,1721207381987
0.80,-2.76,4.95,-0.13,0.25,0.32,1721207381997
2.50,-1.59,20.92,-0.12,0.50,0.45,1721207382007
7.31,-3.58,6.56,0.26,0.21,0.27,1721207382017
9.53,1.34,10.88,0.12,0.61,-0.32,1721207382027
6.11,6.84,10.23,0.39,0.13,-0.71,1721207382037
-3.01,4.91,7.23,-0.08,0.35,-0.71,1721207382047
-8.48,0.55,12.33,-0.07,0.20,-0.24,1721207382057
-6.08,-6.84,8.13,-0.08,0.44,0.15,1721207382067
-1.78,-8.85,4.82,-0.12,0.21,0.54,1721207382077
2.25,2.87,11.08,0.07,0.52,0.19,1721207382087
5.88,2.53,9.53,0.19,0.24,-0.23,1721207382097
-1.62,-7.65,6.82,-0.32,-0.06,-0.24,1721207382107
-4.60,-7.55,14.94,-0.12,0.37,0.08,1721207382117
0.84,-5.79,15.37,-0.10,0.61,0.23,1721207382127
1.03,6.52,13.06,0.22,0.03,-0.01,1721207382137
-3.44,-5.13,-0.41,-0.57,0.16,-0.36,1721207382152
-6.26,-13.61,10.80,-0.64,0.44,-0.21,1721207382156
-7.33,-13.74,16.25,-0.32,-0.03,0.29,1721207382166
-4.78,-1.86,15.55,0.08,0.35,0.56,1721207382176
0.81,2.75,6.49,0.23,-0.01,0.53,1721207382186
0.84,-4.35,0.34,-0.29,-0.01,0.36,1721207382196
0.51,-4.95,21.13,-0.40,0.12,0.31,1721207382206
0.21,-2.45,20.55,0.01,-0.23,0.47,1721207382216
-0.12,7.03,13.08,0.02,0.10,0.46,1721207382226
-2.43,7.83,2.04,0.15,-0.35,0.45,1721207382236
0.49,-6.32,4.45,-0.36,0.28,0.41,1721207382246
0.38,-1.70,21.20,-0.11,-0.02,0.40,1721207382256
0.28,1.17,10.68,0.23,-0.20,0.33,1721207382266
-1.97,13.79,6.87,0.45,0.02,0.20,1721207382276
-0.20,1.16,0.42,0.24,-0.27,0.34,1721207382286
-2.91,-0.23,13.52,0.04,0.14,0.34,1721207382296
0.22,2.10,17.76,0.20,0.04,0.26,1721207382306
-1.00,5.10,12.35,0.07,-0.34,0.22,1721207382316
-2.86,6.78,5.98,0.24,-0.27,0.29,1721207382326
1.08,-1.22,7.13,-0.16,0.14,0.43,1721207382336
-0.09,-0.14,12.04,-0.24,-0.32,0.18,1721207382346
-2.21,0.27,14.94,-0.22,-0.13,-0.06,1721207382356
-4.35,-0.37,15.42,0.03,-0.16,0.22,1721207382366
-5.64,3.13,4.48,0.14,-0.27,0.61,1721207382376
-0.10,4.92,5.55,0.05,-0.08,0.82,1721207382386
4.13,0.18,5.35,-0.11,-0.24,0.63,1721207382396
4.75,-3.76,13.06,-0.35,-0.08,0.23,1721207382406
3.23,0.38,10.04,0.14,-0.49,0.29,1721207382416
2.80,-4.41,-0.70,-0.29,-0.06,0.33,1721207382426
0.94,-1.87,17.48,-0.19,-0.38,0.24,1721207382436
4.21,-4.81,12.77,-0.12,-0.06,0.04,1721207382446
0.00,-0.57,13.49,-0.08,-0.32,0.01,1721207382456
-2.62,-0.13,9.02,-0.20,-0.14,0.16,1721207382466
0.52,-0.64,17.09,-0.25,0.03,0.28,1721207382476
0.71,0.19,11.24,0.03,-0.25,0.08,1721207382486
0.01,-0.10,3.86,-0.11,-0.08,-0.04,1721207382496
-0.56,1.88,5.75,-0.13,-0.08,-0.02,1721207382506
0.21,-1.97,8.38,-0.27,-0.08,0.07,1721207382516
0.21,-2.54,18.47,-0.04,-0.13,0.05,1721207382526
1.78,0.06,11.28,0.09,-0.10,-0.09,1721207382536
1.53,1.82,8.34,0.08,-0.05,-0.11,1721207382546
-0.90,-5.01,7.10,-0.18,-0.13,-0.19,1721207382556
-1.41,2.46,19.68,0.05,0.03,-0.05,1721207382566
1.59,-2.13,14.59,0.24,-0.03,0.09,1721207382576
3.23,2.61,8.66,0.30,0.04,-0.03,1721207382586
2.36,3.08,3.95,0.08,-0.02,-0.36,1721207382596
-0.86,2.58,16.60,0.04,0.09,-0.55,1721207382606
-3.26,-1.14,12.37,0.29,-0.02,-0.19,1721207382616
-3.09,0.62,10.17,0.27,0.06,0.28,1721207382626
3.20,6.90,9.58,0.23,0.29,0.13,1721207382636
5.27,2.16,11.13,0.00,0.02,-0.30,1721207382646
1.93,3.67,11.70,0.22,0.00,-0.45,1721207382656
0.17,-1.28,4.14,-0.01,0.19,-0.31,1721207382666
-1.23,1.78,12.00,-0.05,0.15,-0.10,1721207382676
-1.01,-4.35,12.34,-0.22,0.15,-0.13,1721207382686
-3.17,1.55,14.24,0.18,0.06,-0.44,1721207382696
-8.90,7.92,2.34,0.18,-0.12,-0.29,1721207382706
-9.04,-2.63,1.21,-0.39,0.13,0.60,1721207382716
3.07,-5.24,21.04,-0.23,0.33,1.31,1721207382726
15.92,-5.53,17.46,0.14,0.17,0.90,1721207382736
26.22,10.18,7.42,0.37,0.57,-0.47,1721207382746
8.50,6.85,-4.39,-0.17,-0.66,-1.75,1721207382756
-11.60,-1.87,16.73,-0.27,-0.03,-2.24,1721207382766
-23.97,-26.86,7.23,0.19,-0.15,-1.15,1721207382776
-29.68,7.52,7.53,0.24,-0.27,0.46,1721207382786
-13.65,-2.19,4.47,-0.40,0.36,1.90,1721207382796
7.51,-12.68,20.16,-0.18,0.47,2.10,1721207382806
24.19,2.86,11.13,0.43,0.68,1.16,1721207382816
20.32,5.13,4.37,-0.29,-0.30,-0.61,1721207382826
2.75,0.48,4.82,-0.30,-0.44,-2.33,1721207382836
-4.36,-5.54,15.59,-0.16,-0.14,-2.04,1721207382846
-23.07,-3.48,9.71,-0.19,-0.55,-0.05,1721207382856
-15.53,-5.13,9.09,-0.28,0.43,1.15,1721207382866
2.49,-2.10,16.20,-0.24,0.38,1.33,1721207382876
9.39,-1.24,9.84,-0.17,-0.05,0.67,1721207382886
7.17,7.75,10.67,0.02,-0.11,-0.19,1721207382896
0.61,1.49,10.74,-0.08,-0.28,-0.41,1721207382906
-5.00,-1.42,11.96,-0.18,-0.10,0.03,1721207382916
-4.26,1.44,12.76,0.08,-0.05,0.43,1721207382926
0.67,1.84,13.28,-0.01,0.06,0.55,1721207382936
1.48,4.63,8.27,0.19,-0.33,0.52,1721207382946
3.12,0.00,6.54,0.16,0.12,0.09,1721207382956
0.45,-0.98,10.54,0.19,-0.24,0.04,1721207382966
-1.29,0.81,10.87,0.27,-0.12,0.17,1721207382976
-1.19,7.38,12.98,0.43,-0.07,0.32,1721207382986
0.18,2.47,5.24,0.26,-0.18,0.23,1721207382996
-2.06,-3.96,8.78,0.02,-0.23,0.25,1721207383006
-1.17,0.13,12.14,0.22,-0.01,0.21,1721207383016
-0.29,3.64,9.52,0.23,-0.17,0.22,1721207383026
-0.61,-0.24,7.10,0.14,-0.31,0.31,1721207383036
-0.41,-4.21,9.89,0.08,-0.17,0.38,1721207383046
1.41,3.20,15.81,0.28,-0.14,0.26,1721207383056
1.80,1.03,9.77,0.21,-0.29,0.10,1721207383066
-1.67,0.47,6.41,0.16,-0.36,0.04,1721207383076
-0.53,-2.15,5.69,0.18,-0.20,0.30,1721207383086
2.03,3.22,11.20,0.18,-0.13,0.36,1721207383096
4.89,5.03,8.83,0.21,-0.25,0.13,1721207383106
4.07,-2.05,6.71,-0.08,-0.23,-0.14,1721207383116
-1.96,-0.02,10.37,-0.03,-0.34,-0.34,1721207383126
-3.42,-0.04,12.26,-0.03,-0.18,-0.09,1721207383136
-2.94,1.62,11.06,0.07,-0.25,0.35,1721207383146
0.49,1.87,9.14,-0.01,-0.08,0.33,1721207383156
2.86,-0.59,9.38,0.00,-0.27,0.11,1721207383166
1.45,3.76,6.83,0.01,-0.26,-0.06,1721207383176
1.17,1.38,10.75,-0.09,-0.11,-0.06,1721207383186
-0.19,-1.26,9.39,0.05,-0.25,0.06,1721207383196
-0.15,-0.90,9.39,-0.08,-0.12,-0.01,1721207383206
1.33,1.16,9.22,0.02,-0.23,0.03,1721207383216
1.17,-1.48,9.83,-0.24,-0.06,-0.14,1721207383226
-0.79,1.61,16.73,-0.02,-0.29,-0.19,1721207383236
-1.31,0.36,7.84,-0.07,-0.15,-0.14,1721207383246
-1.38,1.92,9.32,0.01,-0.21,-0.07,1721207383256
-1.02,-5.22,4.35,-0.32,-0.14,-0.11,1721207383266
-2.41,1.43,16.96,-0.16,-0.21,-0.09,1721207383276
-0.62,-1.20,6.96,0.05,-0.19,0.03,1721207383286
-0.18,4.87,6.56,-0.01,-0.20,0.05,1721207383296
2.68,0.84,5.10,-0.24,-0.04,-0.04,1721207383306
1.36,-3.98,14.80,-0.46,-0.15,-0.32,1721207383316
-1.87,-0.34,14.38,-0.11,-0.34,-0.30,1721207383326
-0.83,-1.44,6.77,-0.16,-0.07,-0.10,1721207383336
0.15,-1.48,8.36,-0.12,-0.27,0.10,1721207383346
4.05,1.44,14.09,-0.17,0.13,-0.13,1721207383356
2.17,1.88,14.60,-0.06,-0.23,-0.37,1721207383366
-0.67,2.11,10.58,-0.17,-0.11,-0.44,1721207383376
-0.83,2.20,12.29,-0.06,-0.08,-0.25,1721207383386
-0.84,-3.58,5.22,-0.07,-0.15,-0.08,1721207383396
-1.48,0.53,9.73,-0.08,0.00,-0.16,1721207383406
2.37,0.35,14.15,0.02,-0.02,-0.28,1721207383416
0.95,2.65,12.71,0.14,-0.22,-0.20,1721207383426
1.27,2.75,8.40,0.04,0.11,-0.27,1721207383436
0.36,-2.60,10.41,-0.05,-0.10,-0.38,1721207383446
-0.73,-0.87,14.18,-0.02,-0.01,-0.33,1721207383456
-0.66,0.68,9.36,0.18,-0.08,-0.19,1721207383466
1.41,0.89,9.23,0.03,0.10,-0.20,1721207383476
2.17,0.16,13.38,0.06,-0.01,-0.29,1721207383486
1.69,0.36,9.57,0.09,0.03,-0.45,1721207383496
-0.73,1.99,10.88,0.03,0.04,-0.50,1721207383506
-1.80,-0.78,11.98,0.06,0.02,-0.40,1721207383516
-1.39,-1.25,10.90,0.15,0.08,-0.17,1721207383526
1.10,-3.13,8.07,0.03,0.16,-0.12,1721207383536
1.40,5.04,14.57,0.11,0.11,-0.29,1721207383546
1.77,4.45,8.30,0.22,0.07,-0.47,1721207383556
-1.26,0.76,10.04,-0.05,0.14,-0.50,1721207383566
-2.85,-3.96,14.08,-0.08,0.05,-0.28,1721207383576
-0.99,-1.59,12.71,0.01,0.20,-0.13,1721207383586
1.22,0.93,9.32,0.11,0.13,-0.18,1721207383596
1.69,4.32,8.76,0.08,0.17,-0.34,1721207383606
0.36,1.59,6.77,0.08,0.06,-0.44,1721207383616
-2.10,-1.54,9.05,-0.16,0.17,-0.43,1721207383626
-3.76,-3.02,12.19,-0.09,0.05,-0.26,1721207383636
-1.81,3.65,14.14,0.10,0.20,-0.12,1721207383646
1.47,1.05,4.13,0.05,0.06,-0.05,1721207383656
1.05,1.30,7.70,-0.05,0.10,-0.27,1721207383666
0.97,-2.10,9.57,-0.13,0.23,-0.44,1721207383676
-2.17,1.58,11.60,-0.07,-0.03,-0.45,1721207383686
-1.96,-1.15,8.50,-0.15,0.11,-0.20,1721207383696
-0.38,-2.38,9.95,-0.09,0.12,-0.02,1721207383706
1.42,-0.16,8.46,-0.07,0.20,-0.18,1721207383716
2.18,2.54,14.97,-0.07,0.18,-0.33,1721207383726
0.92,3.33,10.46,-0.02,0.02,-0.39,1721207383736
-1.49,-0.49,8.42,-0.20,0.06,-0.27,1721207383746
-1.94,-5.03,7.34,-0.20,0.12,-0.13,1721207383756
0.45,-6.95,12.42,-0.24,0.29,-0.16,1721207383766
0.81,4.51,18.52,-0.00,0.04,-0.20,1721207383776
0.66,8.30,13.92,0.22,0.15,-0.38,1721207383786
-2.05,3.38,10.01,0.01,0.07,-0.28,1721207383796
-2.28,1.24,12.60,0.03,0.22,-0.09,1721207383806
1.78,-0.59,9.35,0.11,0.28,-0.03,1721207383816
0.76,2.92,9.24,0.23,0.03,-0.25,1721207383826
-1.70,1.18,3.98,0.27,0.09,-0.39,1721207383836
-2.33,2.54,10.28,0.29,0.24,-0.27,1721207383846
-1.88,-0.50,6.11,0.27,0.07,0.02,1721207383855
0.26,4.24,9.79,0.15,0.31,-0.01,1721207383865
1.80,2.71,8.59,0.21,0.09,-0.17,1721207383875
0.98,-6.89,7.87,-0.11,0.19,-0.32,1721207383885
-1.54,-2.25,12.33,0.24,0.05,-0.19,1721207383895
0.35,-2.55,3.34,0.01,0.36,-0.21,1721207383905
0.46,-1.80,15.98,0.14,0.16,-0.18,1721207383915
-0.01,4.98,10.05,0.33,0.14,-0.27,1721207383925
-0.90,-0.83,7.36,0.07,0.13,-0.30,1721207383935
-2.30,-3.80,12.27,-0.02,0.12,-0.14,1721207383945
-1.07,-2.39,13.55,-0.00,0.23,-0.22,1721207383955
-1.72,-1.05,8.99,0.09,0.02,-0.27,1721207383965
-1.46,3.82,6.61,0.23,0.22,-0.22,1721207383975
-1.51,-3.93,-2.23,-0.23,0.07,-0.04,1721207383985
-5.58,-1.81,18.56,-0.37,0.21,-0.15,1721207383995
0.50,-2.37,20.32,-0.01,0.16,-0.25,1721207384005
-0.31,-4.36,11.10,-0.14,-0.02,-0.19,1721207384015
-3.40,4.05,10.05,-0.01,0.09,-0.21,1721207384025
-1.97,4.49,7.81,0.08,0.11,-0.14,1721207384035
-1.50,-3.30,7.43,-0.14,-0.02,-0.01,1721207384045
-1.52,0.23,12.54,0.04,0.17,-0.06,1721207384055
0.53,0.54,11.85,0.00,0.04,-0.12,1721207384065
-1.95,8.62,14.47,0.06,-0.13,-0.06,1721207384075
-0.52,2.38,8.75,0.08,0.03,0.09,1721207384085
1.16,-1.98,10.85,-0.01,0.08,0.04,1721207384095
1.08,5.45,12.89,0.10,0.06,-0.06,1721207384105
1.21,8.16,7.69,0.09,0.01,-0.16,1721207384115
-1.38,-2.53,3.05,-0.20,-0.10,-0.14,1721207384125
-2.87,-2.50,9.93,-0.15,0.11,-0.07,1721207384135
-1.86,0.16,4.25,0.03,-0.07,0.10,1721207384145
0.45,0.87,14.06,-0.24,-0.03,0.15,1721207384160
2.25,1.89,16.59,-0.17,0.04,0.13,1721207384164
1.70,1.94,12.62,-0.09,-0.10,-0.06,1721207384174
0.46,-1.07,8.93,-0.39,0.03,-0.35,1721207384184
-3.24,-3.34,15.98,-0.38,-0.10,-0.24,1721207384194
-5.43,-3.65,12.56,-0.35,-0.02,-0.04,1721207384204
-3.67,-3.00,6.46,-0.11,-0.12,0.21,1721207384214
0.21,-2.48,6.00,-0.18,0.08,0.35,1721207384224
1.73,4.87,10.63,-0.12,0.10,0.11,1721207384234
1.19,4.21,8.39,-0.22,-0.15,-0.21,1721207384244
0.41,-3.02,10.99,-0.49,0.02,-0.23,1721207384254
-2.78,-2.30,16.61,-0.35,-0.17,-0.01,1721207384264
-3.29,2.57,9.17,-0.23,-0.06,0.22,1721207384274
-0.15,-1.35,-1.57,-0.38,-0.11,0.25,1721207384284
1.63,-8.88,14.21,-0.79,0.18,0.07,1721207384294
0.48,-1.85,30.08,-0.39,-0.25,-0.10,1721207384304
-1.57,8.01,12.44,0.06,-0.29,-0.05,1721207384314
0.35,1.02,-0.40,-0.31,0.02,0.09,1721207384324
-1.23,-3.04,19.06,-0.42,-0.02,0.06,1721207384334
-0.41,4.56,20.15,0.07,-0.16,0.11,1721207384344
0.25,6.16,2.10,0.35,-0.19,0.07,1721207384354
0.43,-1.56,-3.28,0.15,-0.08,0.12,1721207384364
3.94,-1.24,16.41,-0.12,0.24,-0.01,1721207384374
-0.29,6.08,30.98,0.33,-0.50,0.04,1721207384383
-1.37,-3.41,6.85,0.55,-0.26,0.18,1721207384393
4.27,-0.58,0.42,0.24,0.18,0.10,1721207384403
0.32,3.10,15.61,0.49,-0.04,-0.01,1721207384413
2.04,3.69,12.50,0.61,-0.12,-0.07,1721207384423
2.33,-2.41,6.44,0.45,0.07,-0.07,1721207384433
2.17,0.96,5.86,0.41,-0.04,-0.07,1721207384443
2.02,-2.16,8.33,0.17,0.02,-0.23,1721207384453
0.45,0.25,20.43,0.22,-0.01,-0.28,1721207384463
1.28,-1.85,15.77,0.43,0.08,-0.10,1721207384473
2.37,-3.34,9.59,0.32,0.12,-0.10,1721207384483
0.92,1.99,13.28,0.26,0.02,-0.34,1721207384493
-0.81,6.17,8.84,0.50,0.08,-0.34,1721207384503
0.17,-1.30,3.11,0.20,0.26,-0.08,1721207384513
0.68,-3.94,5.02,0.19,0.11,-0.03,1721207384523
2.65,-4.09,10.22,0.16,0.30,-0.36,1721207384533
-0.08,1.20,14.47,0.30,0.04,-0.59,1721207384543
-5.60,2.77,8.62,0.22,0.02,-0.36,1721207384553
-4.73,2.84,6.77,0.23,0.18,0.04,1721207384563
1.11,-1.37,6.23,-0.03,0.34,0.18,1721207384573
2.43,-0.53,9.84,-0.06,0.04,-0.22,1721207384583
0.43,1.98,8.13,-0.05,0.15,-0.57,1721207384593
-2.51,-2.25,7.83,-0.16,0.12,-0.32,1721207384603
-2.94,-2.25,1.85,-0.01,0.05,0.03,1721207384613
2.09,-2.90,7.79,-0.19,0.43,-0.12,1721207384623
1.64,0.02,18.38,-0.03,-0.02,-0.37,1721207384633
-1.95,2.18,10.61,-0.03,-0.00,-0.37,1721207384643
-3.53,-1.89,8.59,-0.24,0.13,-0.13,1721207384653
-0.80,-2.41,13.13,-0.19,0.22,0.05,1721207384663
3.16,-1.75,11.92,-0.13,0.14,0.09,1721207384673
3.41,0.45,9.87,-0.16,0.06,-0.16,1721207384683
-0.45,1.52,6.54,-0.16,0.13,-0.53,1721207384693
-3.10,-2.60,8.18,-0.29,0.09,-0.34,1721207384703
-3.80,-0.91,14.63,-0.27,0.14,0.10,1721207384713
-1.07,2.41,15.24,-0.23,0.13,0.28,1721207384723
1.49,7.32,10.38,-0.09,0.10,0.16,1721207384733
3.52,4.06,2.63,-0.22,0.05,-0.07,1721207384743
0.49,-3.28,5.21,-0.36,0.07,-0.19,1721207384753
1.19,-5.82,16.33,-0.39,0.31,-0.23,1721207384763
-0.39,-2.60,16.05,-0.13,-0.09,-0.18,1721207384773
-2.06,5.76,9.89,-0.01,0.10,-0.14,1721207384783
-1.31,6.27,12.62,0.03,0.12,-0.01,1721207384793
-0.88,2.42,12.10,0.05,-0.02,0.11,1721207384803
0.44,-0.36,5.30,0.11,0.12,0.03,1721207384813
1.10,-3.13,6.66,0.00,0.13,-0.12,1721207384823
-1.06,-1.01,13.02,-0.05,0.07,-0.19,1721207384833
-2.45,-1.72,15.14,0.14,0.02,-0.05,1721207384843
-2.12,3.93,13.51,0.31,0.16,0.04,1721207384853
0.01,1.82,6.21,0.29,-0.05,0.16,1721207384863
0.43,2.91,8.35,0.18,0.24,0.02,1721207384873
2.39,0.44,11.57,0.15,0.08,-0.13,1721207384883
-1.47,-4.42,7.52,0.10,-0.13,-0.16,1721207384893
-2.66,-4.23,8.43,0.17,0.14,-0.05,1721207384903
-1.94,0.61,10.79,0.24,-0.01,0.17,1721207384913
1.05,2.00,10.22,0.18,0.14,0.15,1721207384923
3.00,-1.12,10.83,0.10,0.02,-0.07,1721207384933
0.57,-3.10,14.74,-0.02,0.03,-0.31,1721207384943
-2.30,1.05,17.12,0.10,-0.02,-0.35,1721207384953
-3.71,4.08,11.80,0.14,-0.02,-0.12,1721207384963
-4.29,2.92,4.44,0.17,-0.05,0.02,1721207384973
-1.62,-2.61,5.66,0.05,0.03,0.16,1721207384983
2.45,0.37,13.13,0.09,0.05,0.15,1721207384993
2.43,-0.50,11.70,0.12,-0.06,-0.20,1721207385003
-1.42,3.10,12.62,0.06,-0.05,-0.44,1721207385013
-2.98,-0.55,10.10,0.16,-0.07,-0.20,1721207385023
-2.48,1.33,6.41,0.25,-0.01,0.19,1721207385033
1.12,6.15,4.83,0.30,0.12,0.18,1721207385043
3.17,6.22,4.94,0.15,-0.03,0.04,1721207385053
3.83,-4.58,8.21,-0.12,0.09,-0.18,1721207385063
0.81,-1.87,16.08,-0.04,0.06,-0.40,1721207385073
-3.19,5.44,13.71,0.14,-0.13,-0.29,1721207385083
-2.86,3.80,10.99,0.02,0.05,0.11,1721207385093
-0.95,-0.73,5.38,0.05,-0.04,0.24,1721207385103
2.98,-4.23,3.70,-0.10,0.15,0.07,1721207385113
1.71,-0.70,8.08,-0.10,-0.07,-0.25,1721207385123
-1.95,-0.83,11.54,-0.12,-0.13,-0.33,1721207385133
-5.67,2.65,14.58,0.12,-0.07,-0.07,1721207385143
-3.24,-1.18,4.83,-0.04,0.03,0.21,1721207385153
-2.39,-2.00,9.85,-0.42,-0.06,0.13,1721207385163
-1.00,-2.84,18.20,-0.29,-0.09,0.11,1721207385173
-0.58,-1.34,15.77,-0.12,-0.04,0.04,1721207385183
0.24,-1.32,6.27,-0.04,-0.18,0.13,1721207385193
1.59,-0.45,6.04,-0.18,0.03,0.22,1721207385203
2.09,2.50,10.41,-0.13,-0.08,0.05,1721207385213
1.51,1.30,8.09,-0.15,-0.07,-0.21,1721207385223
-0.78,-0.60,4.98,-0.04,-0.09,-0.17,1721207385233
-2.40,-3.60,6.05,-0.24,-0.03,-0.05,1721207385243
-2.84,3.04,20.28,-0.22,-0.12,0.11,1721207385253
1.50,3.79,17.59,-0.05,-0.02,0.24,1721207385263
4.27,-2.61,4.53,-0.21,-0.01,0.16,1721207385273
1.16,-1.60,7.03,-0.21,-0.07,-0.21,1721207385283
0.41,-0.60,13.79,-0.07,0.02,-0.35,1721207385293
-1.33,1.06,12.82,0.09,-0.09,-0.21,1721207385303
-1.05,2.70,10.73,0.10,-0.00,-0.03,1721207385313
1.43,1.95,9.72,0.13,-0.04,0.06,1721207385323
1.68,3.13,8.53,0.13,0.03,0.02,1721207385333
2.04,-0.22,6.82,0.10,0.08,-0.19,1721207385343
0.10,-4.32,13.87,0.07,-0.04,-0.36,1721207385353
-1.54,2.80,14.11,0.31,-0.04,-0.23,1721207385363
-0.27,5.63,10.31,0.17,0.10,-0.02,1721207385373
0.13,0.44,10.51,0.06,0.07,-0.03,1721207385382
2.25,-1.98,10.86,0.08,0.12,-0.08,1721207385392
2.40,-0.95,11.04,0.09,0.09,-0.28,1721207385402
-0.06,3.39,6.66,0.27,-0.00,-0.31,1721207385412
-1.07,0.40,6.16,0.08,0.18,-0.21,1721207385422
-0.59,-4.81,13.31,-0.02,0.13,-0.13,1721207385432
0.49,1.41,15.16,0.19,0.12,-0.01,1721207385442
2.03,3.43,8.33,0.10,0.19,-0.09,1721207385452
1.25,-3.75,12.74,-0.06,0.13,-0.26,1721207385462
-0.27,-2.23,11.89,0.18,0.18,-0.30,1721207385472
-0.47,1.23,6.12,0.22,0.21,-0.17,1721207385482
-1.40,5.03,10.37,0.19,0.23,-0.23,1721207385492
-1.17,-1.76,4.65,0.14,0.10,-0.07,1721207385502
-0.63,-1.07,8.84,-0.01,0.25,-0.08,1721207385512
1.47,1.77,6.09,0.08,0.18,-0.08,1721207385522
0.27,-0.55,11.65,-0.18,0.26,-0.36,1721207385532
-1.72,-1.14,14.74,0.02,0.06,-0.21,1721207385542
-0.93,3.12,3.87,0.20,0.25,-0.06,1721207385552
2.10,-4.53,5.21,-0.38,0.23,-0.15,1721207385562
-0.30,-4.01,21.93,-0.36,-0.00,-0.25,1721207385572
-1.23,4.89,21.48,0.30,0.27,-0.35,1721207385582
-0.79,2.28,2.61,0.12,0.14,-0.28,1721207385592
-4.90,4.98,7.33,-0.12,0.10,-0.06,1721207385602
0.86,-1.14,7.52,-0.15,0.35,0.11,1721207385612
3.98,0.49,11.35,-0.06,0.24,-0.12,1721207385622
1.96,0.04,5.23,0.03,0.01,-0.36,1721207385632
-1.54,-2.13,7.24,-0.15,0.20,-0.48,1721207385642
-3.15,-0.82,21.47,-0.10,0.24,-0.20,1721207385652
-2.65,3.99,16.73,0.08,0.08,0.03,1721207385662
-1.04,8.49,1.05,0.15,0.13,-0.02,1721207385672
2.01,-6.21,3.51,-0.20,0.29,-0.09,1721207385682
0.41,-5.71,13.09,-0.10,0.19,-0.19,1721207385692
-1.19,2.77,9.79,0.23,0.07,-0.25,1721207385702
-2.29,4.23,8.77,0.03,0.21,-0.22,1721207385712
-3.02,2.92,13.05,0.01,0.16,0.05,1721207385722
-1.35,-0.40,11.66,-0.09,0.21,0.22,1721207385732
1.63,0.19,12.28,-0.06,0.14,0.11,1721207385742
0.83,2.37,8.72,0.07,0.06,-0.17,1721207385752
-0.85,-3.61,1.08,-0.07,0.02,-0.23,1721207385762
-4.02,-8.19,5.70,-0.14,0.10,0.03,1721207385772
-1.01,-0.00,15.18,0.22,0.28,0.24,1721207385782
1.54,1.96,11.83,0.19,0.11,0.22,1721207385792
-0.89,2.72,15.33,0.02,0.06,-0.04,1721207385802
-0.66,4.27,14.12,0.13,0.11,-0.11,1721207385812
-0.52,-2.84,7.02,-0.04,-0.03,0.09,1721207385822
-1.57,-1.54,5.75,-0.04,0.09,0.12,1721207385832
-0.73,-4.26,10.17,-0.06,0.12,0.13,1721207385842
-2.09,-2.08,14.44,-0.01,-0.01,0.09,1721207385852
-0.30,2.44,7.69,0.18,-0.05,0.17,1721207385862
1.81,-5.91,5.01,-0.14,0.10,0.13,1721207385872
-0.50,2.03,19.16,0.03,-0.01,-0.04,1721207385882
-2.13,10.33,9.31,0.41,-0.00,-0.15,1721207385892
-1.60,3.30,2.14,0.00,0.03,0.09,1721207385902
-2.61,-7.02,6.35,-0.33,-0.15,0.28,1721207385912
-2.01,-6.09,17.59,-0.20,0.02,0.21,1721207385922
1.02,6.14,22.17,0.31,0.02,0.10,1721207385932
0.99,3.71,10.56,0.23,-0.16,0.04,1721207385942
-3.28,5.71,7.81,0.22,-0.33,0.16,1721207385952
-0.81,0.99,4.65,0.07,0.15,0.22,1721207385962
2.09,0.42,5.56,0.04,-0.18,0.18,1721207385972
0.70,2.30,3.33,0.06,-0.12,0.05,1721207385982
1.28,-0.19,10.85,-0.07,0.08,-0.03,1721207385992
0.49,-3.82,16.25,-0.05,-0.16,0.01,1721207386002
-2.51,1.72,14.81,0.10,-0.18,0.01,1721207386012
-3.04,3.53,9.26,0.10,-0.07,0.01,1721207386022
-1.59,-3.01,11.03,-0.03,-0.06,0.31,1721207386032
0.68,0.21,13.60,0.14,-0.04,0.32,1721207386042
1.82,6.23,2.20,0.31,-0.33,0.08,1721207386052
-0.10,10.50,-1.00,0.05,-0.09,-0.15,1721207386062
-2.15,-1.75,10.59,-0.49,0.10,-0.14,1721207386072
-3.16,-13.59,19.01,-0.51,-0.18,0.12,1721207386082
-4.97,-3.08,14.02,-0.04,-0.36,0.24,1721207386092
-1.59,1.07,7.63,-0.16,-0.03,0.33,1721207386102
2.14,-1.52,11.60,-0.19,-0.14,0.41,1721207386112
4.67,3.90,11.24,0.13,-0.08,0.30,1721207386122
6.36,4.53,8.43,-0.03,-0.05,-0.12,1721207386132
-0.04,0.32,12.35,-0.30,-0.28,-0.34,1721207386142
-3.14,-4.30,12.24,-0.18,-0.14,-0.23,1721207386152
-1.89,1.46,6.83,0.07,0.03,0.41,1721207386167
-1.33,5.04,8.08,0.04,0.03,0.44,1721207386171
5.93,2.64,10.46,-0.00,-0.02,0.32,1721207386181
6.94,-5.15,6.96,-0.07,-0.13,-0.07,1721207386191
3.22,0.05,12.04,-0.06,0.07,-0.50,1721207386201
-2.67,4.09,7.82,0.08,-0.24,-0.45,1721207386211
-3.45,4.16,10.20,0.08,0.05,-0.01,1721207386221
1.74,-2.31,4.19,0.05,-0.01,0.26,1721207386231
4.35,-7.26,-1.94,-0.36,-0.03,-0.03,1721207386241
0.35,-5.19,27.61,-0.64,0.21,-0.61,1721207386251
-1.36,5.31,36.11,0.23,-0.19,-0.43,1721207386261
-2.73,-5.23,-2.24,0.23,-0.13,0.08,1721207386271
1.50,-0.42,5.52,-0.16,0.42,-0.01,1721207386281
2.66,12.81,18.72,0.33,-0.29,-0.20,1721207386291
2.51,-0.24,4.19,0.11,0.06,-0.33,1721207386301
-4.60,-8.89,6.14,-0.02,-0.17,-0.35,1721207386311
-3.72,2.25,12.90,0.07,0.22,-0.12,1721207386321
-0.33,3.49,18.97,0.11,0.10,0.12,1721207386331
1.52,3.08,11.24,0.32,-0.03,0.20,1721207386341
4.74,-3.89,-0.26,0.17,0.21,0.02,1721207386351
1.18,-1.05,15.77,0.01,0.24,-0.41,1721207386361
-2.03,7.43,23.56,0.35,-0.09,-0.55,1721207386371
-4.67,5.98,0.29,0.51,-0.10,-0.07,1721207386381
-2.41,-1.60,-2.05,-0.01,0.27,0.29,1721207386391
0.58,-3.02,17.90,-0.02,0.42,0.17,1721207386401
2.02,0.20,13.25,0.26,-0.17,-0.29,1721207386411
-0.65,1.67,3.81,0.13,0.07,-0.41,1721207386421
-2.02,-4.88,12.16,-0.17,0.10,-0.09,1721207386431
-2.23,3.13,20.62,0.18,0.11,0.11,1721207386441
0.79,3.71,7.68,0.28,0.09,0.13,1721207386451
2.53,0.94,3.88,-0.07,0.13,-0.13,1721207386461
1.48,3.12,10.65,-0.06,0.12,-0.30,1721207386471
-0.84,-0.24,5.57,-0.08,0.03,-0.33,1721207386481
-2.88,-3.82,10.23,-0.21,0.11,-0.19,1721207386491
-1.30,-2.33,9.80,0.04,0.09,0.09,1721207386501
2.58,2.63,8.30,-0.17,0.19,0.03,1721207386511
3.22,2.42,14.77,-0.24,0.06,-0.36,1721207386521
-0.07,-1.66,14.02,-0.13,-0.03,-0.42,1721207386531
-2.29,-4.00,2.54,-0.13,0.10,-0.24,1721207386541
-2.33,-3.71,7.42,-0.39,0.27,-0.17,1721207386551
-1.99,-0.88,20.36,-0.18,0.10,-0.21,1721207386561
-1.08,0.57,10.73,0.11,-0.03,-0.20,1721207386571
-0.36,-4.78,4.24,-0.33,0.22,-0.12,1721207386581
-0.92,2.19,20.60,-0.28,0.18,-0.11,1721207386591
1.16,7.44,17.49,0.07,0.14,-0.25,1721207386601
0.78,0.64,0.90,0.03,-0.07,-0.32,1721207386611
-2.01,-8.80,3.71,-0.28,0.18,-0.20,1721207386621
-3.92,-3.91,19.84,-0.13,0.19,-0.10,1721207386631
-1.43,7.30,14.36,0.25,0.08,-0.06,1721207386641
0.79,5.50,4.86,0.07,0.22,-0.12,1721207386651
-0.79,0.88,10.24,0.01,-0.01,-0.15,1721207386661
-0.18,-2.22,17.48,0.10,0.18,-0.05,1721207386671
-1.28,1.45,10.44,0.26,0.05,-0.04,1721207386681
-1.99,6.20,2.88,0.16,0.21,-0.19,1721207386691
-0.55,0.23,10.98,0.03,0.15,-0.17,1721207386701
0.42,-8.29,14.95,0.06,-0.05,0.08,1721207386711
-1.65,1.25,12.93,0.35,0.15,0.04,1721207386721
0.30,3.80,5.02,0.22,0.23,-0.11,1721207386731
-1.29,3.60,7.26,0.08,0.02,-0.17,1721207386741
-0.71,0.82,12.81,0.14,0.21,-0.08,1721207386751
-0.27,-4.10,8.72,0.11,-0.03,0.03,1721207386761
-2.83,0.45,0.10,0.05,-0.00,0.03,1721207386771
-0.26,-4.64,13.83,-0.42,0.47,-0.03,1721207386781
-0.98,3.78,26.50,0.21,-0.09,-0.08,1721207386791
0.68,3.46,-0.29,0.42,-0.03,-0.05,1721207386801
-0.67,-3.79,0.84,-0.25,0.10,0.06,1721207386811
-5.41,2.01,18.10,0.09,-0.06,0.15,1721207386821
1.94,-0.59,8.88,0.07,0.15,-0.01,1721207386831
0.51,-0.01,12.12,-0.07,-0.02,-0.16,1721207386841
-2.37,-0.43,10.25,-0.07,-0.03,-0.16,1721207386851
-2.61,-0.26,16.30,-0.09,0.10,-0.02,1721207386861
-2.04,2.63,9.94,0.15,-0.02,0.12,1721207386871
0.21,-0.26,6.31,-0.17,0.17,0.10,1721207386881
0.72,3.88,16.90,0.04,0.01,0.06,1721207386891
0.57,3.12,5.66,0.11,-0.00,-0.01,1721207386901
-1.22,2.96,6.32,-0.15,0.04,-0.23,1721207386911
-3.52,-2.52,10.04,-0.18,-0.03,-0.03,1721207386921
-3.42,-4.88,11.90,-0.19,0.01,0.30,1721207386931
1.26,3.34,12.92,0.09,0.02,0.39,1721207386941
4.49,4.55,9.20,-0.01,0.04,0.09,1721207386951
-0.02,4.16,10.70,-0.05,-0.13,-0.22,1721207386961
-2.42,-4.14,12.78,-0.26,0.07,-0.19,1721207386971
-4.14,1.80,13.53,0.12,-0.19,0.18,1721207386981
-1.84,-0.37,2.50,-0.02,0.11,0.38,1721207386991
-0.61,1.10,7.98,-0.11,-0.06,0.33,1721207387001
1.98,2.04,14.05,-0.09,0.03,0.16,1721207387011
2.49,1.02,11.10,-0.04,-0.13,-0.02,1721207387021
-0.85,-4.38,6.09,-0.28,-0.12,0.00,1721207387031
-3.91,-1.35,14.75,-0.23,-0.04,0.09,1721207387041
-2.23,-2.26,12.02,-0.03,-0.10,0.34,1721207387051
1.49,0.97,5.58,0.08,-0.06,0.31,1721207387061
4.32,-2.61,3.83,-0.06,-0.05,0.20,1721207387071
1.10,6.30,16.56,-0.13,0.02,-0.10,1721207387081
-1.26,3.20,16.22,0.02,-0.18,-0.14,1721207387091
-1.84,-4.76,8.00,-0.13,-0.06,0.13,1721207387101
-1.39,-1.29,9.22,-0.01,-0.11,0.23,1721207387111
3.21,1.57,8.38,0.18,-0.03,0.35,1721207387121
3.89,2.30,6.57,0.08,-0.04,0.09,1721207387131
1.45,0.32,13.08,-0.01,-0.12,-0.20,1721207387141
-0.94,1.61,16.80,0.01,-0.08,-0.21,1721207387151
-2.14,1.06,10.29,-0.00,-0.14,0.04,1721207387161
-0.51,-0.25,7.45,-0.04,0.01,0.25,1721207387171
1.17,-0.61,3.78,0.06,-0.03,0.25,1721207387181
2.58,-8.49,6.90,-0.13,0.04,0.04,1721207387191
2.61,-1.27,25.06,0.06,-0.02,-0.20,1721207387201
0.13,8.93,13.42,0.41,-0.22,-0.11,1721207387211
-0.86,4.64,3.93,-0.09,0.09,0.01,1721207387221
0.29,-8.01,12.46,-0.21,0.03,0.07,1721207387231
0.97,-2.56,13.52,0.23,-0.04,0.03,1721207387241
1.75,4.43,-2.23,0.38,0.02,-0.04,1721207387251
1.25,-2.46,5.17,-0.01,0.13,-0.07,1721207387261
2.16,4.37,24.23,0.30,-0.29,-0.13,1721207387271
0.54,1.77,6.38,0.50,-0.06,-0.02,1721207387281
1.06,-3.73,-1.13,0.06,0.13,-0.06,1721207387291
-1.78,5.82,19.39,-0.02,0.13,-0.19,1721207387301
-1.81,5.98,18.22,0.24,-0.13,-0.11,1721207387311
-1.21,-8.27,1.95,0.06,0.03,0.01,1721207387321
0.49,-5.79,1.43,0.00,0.13,0.03,1721207387331
3.41,5.51,22.46,-0.22,0.35,-0.22,1721207387341
0.79,16.63,29.96,0.44,-0.17,-0.19,1721207387351
-1.86,-2.45,-7.35,0.17,-0.22,-0.12,1721207387361
-2.51,-5.86,7.65,-0.40,0.37,-0.06,1721207387371
0.44,3.06,20.76,-0.00,0.15,0.13,1721207387381
1.82,3.98,6.47,0.09,-0.22,-0.18,1721207387391
-0.80,-3.32,4.02,-0.12,0.08,-0.53,1721207387401
-5.05,1.55,15.07,0.02,0.01,-0.29,1721207387411
-2.51,4.73,15.80,-0.03,0.15,0.20,1721207387421
2.14,-1.54,5.84,-0.05,0.00,0.27,1721207387431
5.13,-0.06,0.40,0.03,0.16,-0.07,1721207387441
4.24,-1.74,-0.77,-0.11,-0.04,-0.45,1721207387451
-7.18,-2.20,15.46,-0.28,0.14,-0.62,1721207387461
-4.51,-0.11,20.71,0.02,0.11,-0.31,1721207387471
-3.33,6.59,-3.38,0.18,-0.00,0.20,1721207387481
3.15,-8.23,1.91,-0.86,0.33,0.34,1721207387491
-11.07,-6.90,40.22,-0.56,0.70,-0.17,1721207387501
2.44,1.73,12.61,0.72,-0.35,-0.31,1721207387511
-0.25,-6.55,-21.53,-0.42,0.07,-0.35,1721207387521
-2.89,-2.93,13.59,-0.40,0.41,-0.40,1721207387531
6.68,9.72,7.62,-0.13,0.36,-0.28,1721207387541
-4.22,-4.54,-0.73,-0.17,-0.08,0.16,1721207387551
0.68,0.77,10.84,-0.08,0.54,0.17,1721207387561
5.50,3.58,17.89,-0.03,0.03,0.03,1721207387571
-0.33,2.75,5.28,0.02,-0.39,0.02,1721207387581
1.25,-3.13,7.60,-0.11,0.29,-0.12,1721207387591
0.89,-2.91,20.07,-0.15,-0.11,-0.24,1721207387601
-2.56,8.32,17.14,0.09,-0.03,-0.31,1721207387611
-2.41,1.06,4.92,0.11,-0.05,-0.04,1721207387621
-2.26,-4.86,4.90,-0.11,0.05,0.13,1721207387631
-0.03,-0.48,15.01,0.05,0.14,0.02,1721207387641
2.25,1.05,14.33,0.17,0.07,-0.10,1721207387651
-0.94,3.92,7.85,0.15,-0.20,-0.08,1721207387661
-1.04,3.61,13.76,0.05,0.26,-0.18,1721207387671
0.17,2.14,14.54,0.31,-0.06,-0.10,1721207387681
-1.34,3.56,7.41,0.34,0.02,0.05,1721207387691
-0.21,2.00,5.65,0.37,0.00,0.07,1721207387701
-0.17,-0.20,4.74,0.24,-0.05,-0.03,1721207387711
0.57,4.93,6.32,0.28,0.04,-0.14,1721207387721
1.43,1.58,6.68,0.13,0.05,-0.14,1721207387731
-0.25,-1.29,10.87,0.05,0.00,-0.14,1721207387741
-0.20,-2.98,7.80,0.17,0.01,-0.12,1721207387751
-0.66,-1.31,7.65,-0.06,0.06,-0.17,1721207387761
-0.92,1.42,17.40,0.01,0.03,-0.14,1721207387771
-1.30,-0.28,8.76,0.09,-0.12,-0.09,1721207387781
-2.48,-3.39,11.25,-0.22,0.10,-0.14,1721207387791
-1.72,0.97,21.19,0.06,0.09,-0.14,1721207387801
-1.53,3.45,7.40,0.11,-0.15,-0.06,1721207387811
-2.72,1.67,2.13,-0.18,-0.05,0.02,1721207387821
-0.57,-8.01,8.81,-0.30,0.12,0.13,1721207387831
-0.56,1.94,13.96,0.16,-0.09,0.06,1721207387841
1.98,2.22,6.08,-0.04,-0.00,-0.12,1721207387851
-1.39,3.49,12.52,-0.21,-0.17,-0.17,1721207387861
-3.12,3.84,6.76,-0.12,-0.02,-0.11,1721207387871
-1.06,-5.88,10.72,-0.37,0.18,0.10,1721207387881
0.41,-3.90,16.91,-0.20,-0.04,0.24,1721207387891
0.72,7.83,11.41,0.06,-0.12,0.17,1721207387901
2.13,0.37,7.02,-0.28,0.00,-0.05,1721207387911
-0.66,-2.38,17.47,-0.32,-0.05,-0.08,1721207387921
-0.56,-0.78,9.36,-0.04,-0.08,-0.07,1721207387931
-1.06,0.49,1.81,0.02,-0.07,0.04,1721207387941
-0.31,1.21,8.15,-0.08,0.20,0.11,1721207387951
-0.18,-2.80,13.32,-0.06,-0.16,0.06,1721207387961
1.60,0.45,13.11,0.11,-0.00,0.04,1721207387971
2.98,-4.02,6.82,0.07,-0.07,-0.03,1721207387981
-1.70,-1.21,13.35,-0.04,-0.09,-0.10,1721207387991
-1.73,7.57,16.22,0.29,0.02,-0.11,1721207388001
1.57,1.28,5.00,0.27,-0.06,0.08,1721207388011
2.02,-2.43,3.18,0.09,0.05,0.06,1721207388021
1.33,-1.41,12.93,0.00,0.13,-0.19,1721207388031
-1.42,4.10,13.55,0.19,-0.14,-0.21,1721207388041
-0.88,-1.35,6.64,0.02,0.03,0.07,1721207388051
1.94,-2.84,15.54,-0.08,0.14,0.06,1721207388061
2.53,1.15,13.90,0.11,-0.05,-0.08,1721207388071
1.87,4.52,13.65,-0.01,0.16,-0.22,1721207388081
-0.45,1.84,14.31,0.05,0.04,-0.17,1721207388091
-1.83,-3.63,5.60,0.07,-0.00,0.02,1721207388101
1.31,-3.36,9.38,0.04,0.29,0.02,1721207388111
1.95,3.14,13.08,0.26,-0.03,-0.19,1721207388121
0.49,4.41,9.73,0.27,0.12,-0.21,1721207388131
-0.68,3.60,11.00,0.29,0.17,-0.22,1721207388141
-0.41,0.46,6.55,0.20,0.10,-0.11,1721207388151
-1.18,3.19,10.57,0.11,0.21,-0.27,1721207388161
-2.04,-2.43,2.43,0.01,0.13,-0.03,1721207388176
-2.72,-1.30,2.79,-0.06,0.18,0.03,1721207388180
0.49,-4.71,11.06,-0.10,0.15,0.09,1721207388190
2.03,4.09,12.24,0.21,0.07,-0.00,1721207388200
2.46,0.78,4.94,-0.10,0.14,-0.24,1721207388210
-1.50,-4.29,16.68,-0.37,-0.01,-0.34,1721207388220
-3.95,1.21,17.99,0.07,0.03,-0.16,1721207388230
-1.10,-0.27,6.24,0.04,0.13,0.16,1721207388240
1.51,1.26,6.49,-0.09,0.03,0.18,1721207388250
4.28,-2.89,11.43,-0.17,0.23,-0.20,1721207388260
2.12,-1.24,15.38,0.00,0.00,-0.41,1721207388270
-2.86,8.87,14.43,0.03,-0.01,-0.32,1721207388280
-3.86,3.25,5.04,0.01,0.05,-0.09,1721207388290
-0.67,-4.39,4.16,-0.25,0.16,0.20,1721207388300
2.71,3.01,8.84,0.02,0.12,0.13,1721207388310
2.17,-0.82,5.59,-0.19,0.03,-0.15,1721207388320
-4.52,-3.00,13.28,-0.38,-0.13,-0.43,1721207388330
-3.00,-3.08,14.75,-0.07,0.10,-0.16,1721207388340
-0.21,-1.27,8.65,-0.10,0.07,0.37,1721207388350
1.57,3.16,12.44,-0.09,0.22,0.23,1721207388360
4.37,7.99,15.67,0.18,0.15,-0.11,1721207388370
1.03,1.29,0.42,0.14,-0.25,-0.33,1721207388380
-0.31,-5.25,13.16,-0.22,0.50,-0.37,1721207388390
-2.80,1.91,21.08,0.10,-0.11,-0.06,1721207388400
-4.51,4.45,0.61,0.11,-0.21,0.13,1721207388410
0.25,-5.95,4.43,-0.02,0.31,0.14,1721207388420
1.89,-2.60,8.88,0.23,-0.01,0.09,1721207388430
2.01,6.24,12.61,0.31,0.19,-0.12,1721207388440
1.06,5.21,8.54,0.13,0.01,-0.34,1721207388450
-4.43,-6.89,11.99,-0.26,-0.14,-0.23,1721207388460
-3.69,-2.14,19.19,0.07,0.05,0.11,1721207388470
0.09,4.17,3.68,0.23,-0.00,0.19,1721207388480
1.39,0.70,4.01,-0.16,0.14,-0.01,1721207388490
2.42,-4.12,18.98,-0.21,0.18,-0.32,1721207388500
0.54,-4.19,19.15,0.01,0.05,-0.42,1721207388510
-4.07,6.93,6.48,0.23,-0.09,-0.27,1721207388520
-3.52,3.77,4.52,0.07,0.11,0.01,1721207388530
-1.22,-0.78,10.37,0.13,0.04,0.07,1721207388540
0.20,-1.07,11.21,0.10,0.04,0.01,1721207388550
0.51,3.52,8.98,0.25,-0.05,-0.20,1721207388560
-1.55,2.72,8.30,-0.02,0.04,-0.30,1721207388570
-4.31,2.07,14.20,0.04,-0.15,-0.05,1721207388580
0.06,-2.71,15.17,0.22,0.24,0.21,1721207388590
1.98,6.38,2.37,0.52,-0.13,0.18,1721207388600
2.23,5.06,-1.27,0.15,0.09,-0.05,1721207388610
0.27,-3.90,20.08,-0.30,0.23,-0.27,1721207388620
-3.70,1.32,13.61,0.44,-0.29,-0.31,1721207388630
-3.85,-3.93,-5.98,0.07,0.08,-0.08,1721207388640
-2.68,1.82,11.59,-0.11,0.07,0.18,1721207388650
1.47,4.02,20.19,0.23,-0.19,0.38,1721207388660
2.15,0.17,9.05,0.08,-0.13,0.07,1721207388670
0.46,2.69,6.62,0.01,-0.05,-0.27,1721207388680
-1.26,2.91,8.69,-0.06,-0.04,-0.18,1721207388690
-3.18,0.23,9.01,-0.06,-0.13,0.13,1721207388700
-1.50,-1.05,7.70,-0.03,0.01,0.33,1721207388710
1.05,-0.41,6.12,0.01,-0.02,0.13,1721207388720
3.95,-1.02,9.06,-0.15,0.02,-0.01,1721207388730
-0.12,2.54,13.45,-0.17,-0.09,-0.19,1721207388740
-3.46,1.52,11.12,-0.12,-0.16,-0.05,1721207388750
-0.49,-4.98,4.22,-0.14,0.02,0.15,1721207388760
1.39,-6.47,7.53,-0.24,0.06,0.16,1721207388770
0.39,3.37,14.28,-0.10,-0.10,-0.09,1721207388780
0.11,-0.91,9.67,-0.23,-0.07,-0.14,1721207388790
-3.00,1.99,17.10,-0.15,-0.13,-0.07,1721207388800
-1.96,2.16,9.67,-0.01,-0.07,0.11,1721207388810
2.38,-5.38,3.53,-0.25,0.10,0.16,1721207388820
-0.57,-0.30,10.62,-0.10,-0.16,-0.02,1721207388830
-1.03,7.39,7.29,0.13,0.08,0.01,1721207388840
1.69,-4.37,9.46,-0.29,0.05,0.01,1721207388850
0.57,-4.69,14.42,-0.12,-0.33,0.14,1721207388860
2.41,4.86,13.71,0.00,0.23,-0.13,1721207388870
1.49,-1.95,13.52,-0.13,-0.07,-0.17,1721207388880
-3.45,-0.09,10.36,0.12,-0.30,-0.09,1721207388890
1.32,-5.71,7.95,0.03,0.29,0.01,1721207388900
0.41,4.48,18.59,0.18,-0.11,-0.02,1721207388910
-0.24,7.12,12.54,0.28,-0.07,-0.08,1721207388920
1.53,-0.67,12.20,-0.02,0.06,-0.00,1721207388929
0.29,-1.38,10.80,0.22,-0.09,0.03,1721207388939
1.95,0.64,-1.70,0.38,0.13,-0.04,1721207388949
0.54,6.70,11.66,0.18,0.14,-0.26,1721207388959
-0.24,9.74,17.89,0.42,-0.24,-0.01,1721207388969
1.28,-10.46,1.17,0.03,0.16,0.08,1721207388979
1.44,-6.65,18.38,-0.16,0.18,-0.16,1721207388989
0.15,8.83,20.05,0.43,-0.15,-0.18,1721207388999
-0.49,0.05,-1.46,0.18,0.07,-0.08,1721207389009
-2.46,-2.23,8.45,0.09,0.19,-0.07,1721207389019
0.34,-0.62,12.27,0.28,0.09,-0.02,1721207389029
0.31,4.63,10.36,0.21,0.04,-0.04,1721207389039
0.12,3.02,8.25,0.03,0.08,-0.04,1721207389049
-0.13,-0.23,9.11,-0.03,0.07,0.07,1721207389059
1.58,-1.38,6.89,0.01,0.07,0.10,1721207389069
3.67,1.33,0.95,0.03,0.09,-0.11,1721207389079
1.98,-6.05,3.06,-0.45,0.13,-0.43,1721207389089
-3.10,-3.29,20.47,-0.21,-0.04,-0.45,1721207389099
-5.13,0.35,13.77,0.25,0.01,-0.06,1721207389109
-1.64,3.99,6.39,-0.01,0.16,0.21,1721207389119
2.46,3.89,7.00,-0.08,0.02,0.21,1721207389129
4.05,-3.29,3.63,-0.50,0.08,-0.08,1721207389139
0.21,-11.47,29.83,-0.76,0.10,-0.62,1721207389149
-2.05,9.86,27.03,0.49,-0.17,-0.34,1721207389159
-1.49,4.09,-18.71,-0.03,-0.03,0.03,1721207389169
3.27,1.73,8.75,-0.49,0.11,0.08,1721207389179
-1.90,-6.62,9.88,-0.21,0.89,-0.15,1721207389189
0.26,6.93,13.03,0.07,0.26,-0.20,1721207389199
1.32,-1.27,4.95,-0.17,-0.08,-0.28,1721207389209
-3.39,1.83,15.04,-0.12,-0.00,-0.00,1721207389219
0.44,-3.12,8.71,-0.13,0.03,0.16,1721207389229
4.31,-2.16,14.16,-0.11,0.16,-0.11,1721207389239
1.69,3.42,14.06,0.09,-0.03,-0.41,1721207389249
-2.71,5.26,11.44,0.09,0.01,-0.42,1721207389259
-3.60,-0.90,7.53,0.06,0.06,-0.08,1721207389269
-1.81,-2.43,5.43,0.07,0.10,0.14,1721207389279
0.23,1.05,9.08,0.13,0.15,0.09,1721207389289
2.08,0.03,8.19,0.14,0.04,-0.08,1721207389299
0.52,-2.21,9.48,0.00,-0.03,-0.14,1721207389309
-1.22,-0.50,14.75,0.01,0.18,-0.24,1721207389319
-0.36,-2.09,11.29,0.05,0.02,-0.13,1721207389329
-2.40,-0.10,8.37,0.13,-0.03,-0.15,1721207389339
-0.95,-0.12,12.80,0.11,0.21,-0.08,1721207389349
-0.54,4.97,13.17,0.32,-0.04,-0.03,1721207389359
-0.65,5.67,6.01,0.15,0.02,-0.09,1721207389369
-0.74,-2.62,7.62,-0.17,0.01,-0.30,1721207389379
-3.07,-0.97,15.62,-0.04,-0.09,-0.21,1721207389389
-3.47,2.32,10.64,0.16,0.10,-0.02,1721207389399
-2.10,-1.15,9.07,0.02,0.08,0.07,1721207389409
0.53,1.15,5.63,0.28,-0.04,0.18,1721207389419
5.11,5.93,15.18,0.09,0.36,-0.09,1721207389429
1.19,6.02,16.16,0.22,-0.37,-0.20,1721207389439
-3.40,-6.75,3.62,0.05,-0.11,-0.20,1721207389449
-0.26,-0.19,14.49,0.18,0.33,-0.03,1721207389459
-0.40,8.34,8.11,0.29,-0.30,0.05,1721207389469
-0.44,2.47,4.37,-0.03,0.01,0.12,1721207389479
3.28,-3.07,10.98,0.12,0.21,-0.04,1721207389489
2.94,-1.39,8.93,0.18,0.05,-0.29,1721207389499
-2.22,5.26,8.06,0.19,-0.14,-0.33,1721207389509
-5.22,1.33,3.69,0.02,-0.11,-0.06,1721207389519
-4.11,2.70,12.63,0.04,0.02,0.31,1721207389529
1.65,-2.73,7.20,-0.07,0.02,0.31,1721207389539
2.54,-1.83,11.61,-0.16,-0.10,0.03,1721207389549
0.01,2.15,14.57,-0.16,-0.05,-0.37,1721207389559
-3.40,-0.94,12.51,-0.14,-0.26,-0.14,1721207389569
-4.15,-1.47,11.43,-0.13,0.01,0.21,1721207389579
0.92,-2.11,14.21,-0.02,0.11,0.31,1721207389589
3.30,4.19,4.79,0.16,-0.18,0.16,1721207389599
3.62,1.93,1.55,-0.32,0.02,-0.18,1721207389609
-0.46,4.33,19.60,-0.32,-0.15,-0.33,1721207389619
-3.54,-0.58,10.23,0.11,-0.14,-0.13,1721207389629
-1.21,-8.83,-1.45,-0.30,0.12,0.11,1721207389639
-3.17,-2.52,15.88,-0.44,-0.17,0.09,1721207389649
0.16,1.93,22.80,0.05,-0.02,0.21,1721207389659
3.39,3.66,7.31,0.27,-0.03,0.14,1721207389669
3.26,1.18,0.57,-0.01,0.03,-0.11,1721207389679
2.23,3.67,10.89,-0.05,0.09,-0.39,1721207389689
-1.92,-1.30,9.09,-0.12,-0.10,-0.33,1721207389699
-6.01,-2.66,9.45,-0.14,-0.08,-0.01,1721207389709
-0.88,-0.78,11.14,0.04,0.07,0.38,1721207389719
6.57,1.42,11.44,-0.00,0.19,0.29,1721207389729
4.52,1.31,13.65,-0.07,-0.09,-0.31,1721207389739
0.21,2.82,11.59,0.03,-0.09,-0.58,1721207389749
-3.62,0.05,8.85,-0.03,0.02,-0.31,1721207389759
-4.82,-5.60,10.09,-0.02,0.03,0.15,1721207389769
-0.62,-1.14,8.53,0.19,0.12,0.22,1721207389779
3.65,0.35,7.68,0.04,0.07,0.12,1721207389789
1.31,8.85,21.66,0.15,0.00,-0.18,1721207389799
-0.08,1.54,9.11,0.29,-0.04,-0.23,1721207389809
0.64,-9.56,3.97,-0.03,0.12,-0.08,1721207389819
-0.77,7.17,14.95,0.15,0.06,-0.09,1721207389829
0.52,7.10,4.31,0.32,0.04,-0.09,1721207389839
0.17,3.10,6.84,0.12,0.10,0.01,1721207389849
1.79,-4.89,8.82,0.02,0.20,-0.10,1721207389859
0.86,-3.46,13.06,-0.08,0.07,-0.28,1721207389869
-1.91,2.49,16.24,0.00,0.01,-0.24,1721207389879
-1.10,-0.10,10.63,0.10,0.11,0.02,1721207389889
0.65,0.09,10.13,0.13,0.17,0.15,1721207389899
2.96,1.24,10.31,0.12,0.19,-0.05,1721207389909
2.33,-0.09,6.32,-0.03,0.08,-0.48,1721207389919
-2.80,2.30,11.06,-0.17,0.03,-0.46,1721207389929
-5.91,1.03,15.64,-0.08,0.08,-0.11,1721207389939
-1.78,0.91,8.85,0.20,0.15,0.28,1721207389949
4.52,2.51,-2.81,0.19,0.10,0.19,1721207389959
5.32,-3.08,-6.68,-0.47,0.10,-0.18,1721207389969
-0.63,-5.90,31.93,-0.65,0.30,-0.70,1721207389979
-6.53,6.51,40.33,0.63,-0.55,-0.50,1721207389989
-5.74,-1.04,-25.19,-0.01,-0.21,-0.03,1721207389999
-5.89,-4.17,17.24,-0.83,0.53,0.34,1721207390009
-4.99,-4.83,51.01,-0.24,0.49,0.26,1721207390019
3.46,6.53,18.76,0.18,-0.39,-0.25,1721207390029
1.98,1.71,-0.12,-0.26,0.17,-0.67,1721207390039
-5.53,-1.64,13.88,-0.17,-0.15,-0.26,1721207390049
-3.57,1.53,7.56,-0.04,0.33,0.20,1721207390059
2.12,1.62,8.28,0.01,0.04,0.35,1721207390069
2.44,0.79,4.91,0.08,0.16,-0.05,1721207390079
3.69,-1.54,9.71,0.01,0.33,-0.25,1721207390089
0.66,5.35,14.79,0.15,-0.08,-0.33,1721207390099
-2.47,3.02,6.82,-0.05,-0.00,-0.24,1721207390109
-4.53,-3.47,12.14,-0.14,0.14,-0.17,1721207390119
1.96,3.02,20.34,0.14,0.09,-0.00,1721207390663
1.17,-2.75,12.41,0.10,-0.13,0.01,1721207390667
3.65,1.53,7.24,0.22,0.21,-0.14,1721207390677
1.34,7.89,12.20,0.19,-0.02,-0.29,1721207390687
-2.11,5.98,0.83,0.33,-0.17,-0.17,1721207390697
-0.04,-13.72,1.16,-0.21,0.32,-0.14,1721207390707
0.71,0.49,16.23,0.04,-0.06,-0.10,1721207390717
1.10,0.96,7.23,-0.03,0.05,-0.08,1721207390727
1.32,1.23,21.76,-0.11,0.15,-0.24,1721207390737
1.90,3.75,5.97,0.40,-0.10,-0.18,1721207390747
1.15,-0.02,-0.99,-0.17,0.27,-0.36,1721207390757
-0.67,-5.88,14.43,-0.43,0.34,-0.52,1721207390767
-3.22,3.12,22.08,-0.09,0.07,-0.46,1721207390777
-4.18,6.87,4.21,0.19,0.03,0.01,1721207390787
-0.00,-2.85,-1.05,-0.23,0.21,0.18,1721207390797
1.31,-4.16,18.98,-0.23,0.24,-0.04,1721207390807
2.83,9.03,15.06,0.22,-0.00,-0.30,1721207390817
1.75,0.48,-1.26,-0.34,0.08,-0.54,1721207390827
-8.88,-2.80,30.21,-0.36,-0.14,-0.53,1721207390837
-5.34,5.59,13.31,0.33,-0.08,-0.05,1721207390847
1.15,-0.31,-8.63,-0.22,0.27,0.22,1721207390857
2.14,-11.75,15.57,-0.68,0.42,-0.14,1721207390867
6.74,6.42,25.67,0.11,0.31,-0.67,1721207390877
-0.91,9.03,-1.82,0.62,-0.32,-0.49,1721207390887
-5.59,0.92,-3.76,-0.31,0.36,-0.48,1721207390897
-4.09,2.12,22.97,0.06,0.16,0.03,1721207390907
-0.95,1.23,18.45,0.20,-0.37,0.23,1721207390917
0.46,-0.04,4.75,-0.11,0.09,-0.13,1721207390927
-0.63,-9.27,9.71,-0.13,0.04,-0.41,1721207390937
-4.37,-1.92,14.47,0.05,0.07,-0.21,1721207390947
-1.86,5.26,10.70,0.25,0.18,-0.15,1721207390957
0.15,3.23,8.27,0.10,0.09,0.03,1721207390967
-1.31,-3.46,6.62,0.07,-0.14,0.15,1721207390977
1.20,-6.01,8.87,-0.13,0.31,0.00,1721207390987
1.98,3.53,21.38,0.11,-0.09,-0.19,1721207390997
-3.55,5.29,4.59,0.06,-0.25,-0.35,1721207391007
-4.57,-7.23,9.89,-0.26,0.20,-0.24,1721207391017
-3.16,-9.73,18.28,-0.04,0.03,0.23,1721207391027
0.54,2.77,10.88,0.20,0.13,0.26,1721207391037
3.96,5.65,4.12,0.25,0.01,-0.07,1721207391047
0.36,3.84,5.21,0.07,-0.05,-0.35,1721207391057
-3.20,5.37,9.44,0.29,-0.10,-0.20,1721207391067
-3.12,-8.73,4.83,-0.14,-0.01,0.14,1721207391077
-2.51,-6.00,15.86,-0.25,0.05,0.14,1721207391087
-0.58,12.36,18.92,0.06,-0.04,0.01,1721207391097
-0.17,2.04,13.61,0.05,-0.07,-0.17,1721207391107
-1.38,-3.43,7.75,0.28,-0.15,0.08,1721207391117
0.30,0.57,3.41,0.00,0.01,0.27,1721207391127
2.54,3.90,24.00,-0.22,-0.10,0.17,1721207391137
1.31,4.37,10.45,0.34,-0.32,-0.02,1721207391147
1.15,-1.95,-12.65,0.10,-0.20,-0.19,1721207391157
-2.11,-0.45,15.37,-0.35,0.20,-0.28,1721207391167
-10.10,-7.72,34.03,0.06,-0.16,-0.04,1721207391177
-6.30,0.06,10.43,0.21,-0.39,0.12,1721207391187
0.82,4.92,12.77,-0.17,0.29,0.17,1721207391197
2.76,7.80,10.87,0.28,-0.33,0.35,1721207391207
5.11,-5.26,-2.50,-0.21,-0.04,0.01,1721207391217
1.43,-1.26,4.32,-0.18,-0.15,-0.33,1721207391227
0.06,-5.52,9.75,-0.28,0.04,-0.48,1721207391237
-2.99,0.17,26.05,-0.11,-0.11,-0.11,1721207391247
-2.34,8.38,4.04,0.45,-0.27,0.11,1721207391257
0.78,-3.81,-6.84,-0.50,0.21,0.07,1721207391267
0.06,-6.26,22.49,-0.69,-0.03,-0.19,1721207391277
-3.16,3.27,29.68,0.05,0.38,-0.37,1721207391287
-4.56,4.61,-1.81,0.13,-0.38,-0.01,1721207391297
-2.68,-4.41,9.91,-0.67,0.31,0.10,1721207391307
-0.55,3.06,29.13,0.03,-0.55,0.09,1721207391317
3.67,1.20,-6.72,0.26,-0.20,-0.00,1721207391327
5.11,-3.31,2.59,-0.26,0.44,-0.40,1721207391337
-3.21,-10.20,21.37,-0.05,-0.29,-0.57,1721207391347
-3.54,15.43,21.81,0.24,-0.40,-0.20,1721207391357
-1.76,3.24,3.96,0.01,0.27,0.18,1721207391367
1.02,-11.70,15.02,-0.45,0.19,0.05,1721207391377
1.55,-2.65,18.92,0.17,-0.01,-0.42,1721207391387
1.05,7.69,1.79,0.59,-0.04,-0.26,1721207391397
1.29,-2.07,3.84,0.07,0.44,-0.26,1721207391407
-1.53,5.53,17.66,0.28,-0.24,-0.29,1721207391417
0.02,5.22,5.83,0.24,0.15,-0.21,1721207391427
1.06,-3.15,8.77,-0.03,0.23,-0.04,1721207391437
-0.07,-3.21,6.23,0.04,0.05,-0.11,1721207391447
2.77,-4.31,8.84,0.02,0.33,-0.20,1721207391457
1.26,7.93,16.82,0.28,0.12,-0.29,1721207391467
0.25,-0.62,7.82,-0.03,0.13,-0.30,1721207391477
-1.66,-5.23,13.74,-0.23,0.19,-0.27,1721207391487
-2.11,2.86,15.50,0.14,0.16,-0.23,1721207391497
0.38,3.17,0.92,0.20,0.24,-0.06,1721207391507
0.09,-2.11,1.29,0.10,0.22,-0.16,1721207391517
-0.10,1.87,11.25,0.24,0.37,-0.29,1721207391527
-1.08,-0.67,11.63,0.06,0.10,-0.27,1721207391537
-2.73,1.06,20.00,-0.08,0.18,-0.11,1721207391547
-0.48,8.08,10.29,0.23,0.18,0.16,1721207391557
4.11,-1.06,-0.36,-0.23,0.33,0.17,1721207391567
2.92,-5.10,13.04,-0.16,0.33,-0.33,1721207391577
-0.06,1.19,11.80,0.15,0.10,-0.74,1721207391587
-6.02,-1.10,10.21,-0.14,0.15,-0.52,1721207391597
-7.69,2.06,19.85,-0.08,0.18,0.07,1721207391607
-2.48,6.17,11.46,0.07,0.26,0.38,1721207391617
3.84,8.05,7.37,0.09,0.23,0.36,1721207391627
6.25,3.54,4.47,-0.13,0.29,-0.22,1721207391637
1.91,-6.19,15.18,-0.30,0.05,-0.67,1721207391647
-4.47,-1.57,16.19,0.13,0.06,-0.46,1721207391657
-5.41,-0.07,4.30,-0.07,0.32,0.03,1721207391667
-3.07,1.45,11.61,0.11,0.10,0.36,1721207391677
2.11,4.09,2.71,0.24,0.23,0.30,1721207391687
4.72,-0.44,4.33,0.08,0.32,-0.09,1721207391697
0.89,-5.25,3.04,-0.14,-0.04,-0.28,1721207391707
-1.79,-7.51,22.00,-0.32,0.50,-0.42,1721207391717
-0.62,9.46,24.89,0.31,0.04,-0.11,1721207391727
-2.50,7.00,-0.55,0.02,-0.01,0.05,1721207391737
-1.35,-10.67,9.51,-0.42,0.30,0.08,1721207391747
2.72,-9.37,17.79,-0.15,0.29,0.07,1721207391757
-0.36,10.12,4.44,0.26,-0.03,-0.20,1721207391767
-3.28,-0.06,0.12,-0.16,0.16,-0.43,1721207391777
-3.87,-7.31,14.11,-0.09,-0.02,0.07,1721207391787
-2.11,-3.52,12.14,0.03,0.32,0.51,1721207391797
2.38,1.33,12.68,-0.09,0.20,0.29,1721207391807
5.43,2.52,16.33,-0.18,0.11,-0.04,1721207391817
2.45,8.40,16.73,0.05,0.11,-0.30,1721207391827
-2.74,-2.06,2.46,0.04,-0.12,-0.35,1721207391837
-4.34,-7.22,7.06,-0.15,0.24,-0.08,1721207391847
-1.58,1.77,14.44,0.13,0.16,0.23,1721207391857
-1.55,5.47,9.47,0.12,0.09,0.01,1721207391867
-2.48,2.24,6.03,0.21,-0.01,-0.01,1721207391877
0.34,-4.30,9.61,0.09,0.24,0.20,1721207391887
0.38,3.15,12.57,0.20,0.08,0.17,1721207391897
-0.44,1.75,12.11,-0.12,0.14,-0.18,1721207391907
-1.92,-0.99,21.57,0.04,-0.08,-0.19,1721207391917
-2.15,6.93,8.43,0.64,-0.02,0.25,1721207391927
-1.41,1.62,-1.33,0.16,0.02,0.30,1721207391937
0.18,0.36,20.02,-0.01,0.23,0.27,1721207391947
4.04,-0.92,14.46,0.35,-0.12,-0.03,1721207391957
0.73,4.90,-0.07,0.26,-0.03,-0.23,1721207391967
-2.54,-3.31,2.51,-0.05,-0.04,-0.02,1721207391977
-2.37,0.15,13.19,0.04,0.08,0.19,1721207391987
0.90,2.11,10.25,0.28,0.07,0.21,1721207391997
1.10,-4.27,12.63,-0.26,0.02,0.13,1721207392007
-0.69,6.28,22.95,0.20,-0.23,0.11,1721207392017
0.30,0.91,-0.11,-0.06,-0.11,0.16,1721207392027
0.22,0.60,9.00,-0.23,0.15,0.03,1721207392037
0.28,-2.92,6.44,-0.00,-0.09,-0.01,1721207392047
-0.95,-2.87,12.91,-0.16,0.07,0.19,1721207392057
-1.89,5.14,9.83,0.17,-0.18,0.16,1721207392067
0.23,5.66,3.51,-0.09,0.06,0.13,1721207392077
1.74,-2.68,11.13,-0.37,-0.05,0.07,1721207392087
-1.07,-5.53,14.88,-0.31,-0.13,-0.01,1721207392097
-4.42,3.03,13.05,-0.08,-0.09,-0.19,1721207392107
-3.22,-3.05,6.44,-0.26,-0.06,0.13,1721207392117
-1.33,0.65,12.67,-0.11,-0.10,0.54,1721207392127
3.46,2.94,10.64,-0.01,0.18,0.34,1721207392137
3.73,4.56,9.76,-0.04,-0.19,-0.00,1721207392147
1.51,-3.44,7.04,-0.18,-0.08,-0.14,1721207392157
-1.95,0.84,15.41,-0.04,0.06,-0.21,1721207392167
-3.36,2.80,5.98,0.26,-0.24,0.14,1721207392177
0.38,-2.65,4.51,-0.14,0.13,0.41,1721207392187
3.57,-0.57,24.52,-0.12,-0.04,0.27,1721207392197
2.56,4.58,14.24,0.18,-0.19,-0.00,1721207392207
2.12,0.22,-0.58,-0.03,-0.04,-0.25,1721207392217
-2.90,-6.82,12.14,-0.17,0.04,-0.14,1721207392227
-4.42,5.71,13.69,0.28,-0.17,-0.05,1721207392237
-1.14,-0.34,2.32,0.15,0.05,0.29,1721207392247
1.43,-4.61,16.14,-0.10,0.02,0.26,1721207392257
2.23,1.50,15.78,0.23,-0.15,0.03,1721207392267
1.61,3.24,7.23,0.08,-0.04,-0.07,1721207392277
0.28,0.11,7.75,0.15,-0.13,0.10,1721207392287
0.79,-3.46,8.08,0.20,0.09,0.11,1721207392297
0.82,-0.92,10.51,0.18,-0.02,0.02,1721207392307
-0.08,10.31,12.03,0.22,-0.12,0.07,1721207392317
1.17,6.77,11.59,0.02,0.02,0.10,1721207392327
2.19,-8.95,10.67,-0.07,0.04,0.06,1721207392337
-0.57,-1.37,6.95,0.17,-0.23,0.02,1721207392347
0.09,3.49,1.25,0.13,0.11,-0.01,1721207392357
-0.13,-3.06,14.37,-0.12,0.01,-0.05,1721207392367
-1.70,0.74,20.08,0.28,-0.18,0.13,1721207392377
1.75,2.29,2.88,0.28,0.00,0.29,1721207392387
4.36,0.86,12.05,-0.12,0.12,0.15,1721207392397
3.55,0.32,13.10,0.09,-0.15,-0.20,1721207392407
0.21,-0.02,7.14,0.12,0.02,-0.40,1721207392417
-2.26,-0.93,5.68,0.09,-0.06,-0.17,1721207392427
-2.91,1.28,11.92,-0.02,0.10,-0.10,1721207392436
-1.04,3.49,13.63,0.14,0.04,0.01,1721207392446
1.42,4.01,7.16,-0.01,-0.00,0.05,1721207392456
1.08,-1.00,11.51,-0.15,0.03,-0.11,1721207392466
0.95,0.19,8.80,0.03,-0.02,-0.24,1721207392476
0.53,-1.47,3.62,-0.07,-0.04,-0.20,1721207392486
-2.14,-2.89,10.58,-0.38,0.02,-0.25,1721207392496
-3.36,0.86,23.08,-0.05,0.02,-0.18,1721207392506
-0.63,0.82,5.94,0.11,0.01,0.07,1721207392516
2.57,1.37,9.88,-0.16,0.19,0.05,1721207392526
2.89,1.31,10.06,0.06,-0.06,-0.13,1721207392536
0.48,2.39,7.81,-0.03,0.13,-0.43,1721207392546
-1.39,-2.32,8.07,-0.03,-0.02,-0.52,1721207392556
-2.95,-2.55,7.39,0.05,0.03,-0.12,1721207392566
-2.58,-3.55,8.90,-0.22,0.11,0.04,1721207392576
-0.53,1.84,16.19,0.01,-0.02,0.02,1721207392586
3.28,2.14,4.00,0.22,-0.01,-0.06,1721207392596
-0.47,0.24,3.88,-0.08,0.10,-0.30,1721207392606
-3.69,2.19,21.38,-0.18,0.07,-0.34,1721207392616
-2.21,-3.10,13.95,-0.17,-0.12,0.01,1721207392626
-1.67,-6.43,5.17,-0.42,-0.05,0.13,1721207392636
0.57,-1.42,15.09,-0.24,0.20,-0.02,1721207392646
3.26,3.06,8.91,0.07,-0.03,-0.03,1721207392656
-0.17,-2.56,14.42,-0.36,0.06,-0.40,1721207392671
0.24,0.44,21.72,-0.22,0.06,-0.34,1721207392675
-3.61,5.64,10.43,0.06,-0.18,-0.28,1721207392685
-2.01,-3.87,1.55,-0.19,0.15,-0.05,1721207392695
-1.06,-4.60,10.42,-0.12,0.03,-0.00,1721207392705
-0.36,3.29,12.87,0.20,0.04,-0.06,1721207392715
0.23,0.04,5.17,0.13,-0.17,-0.19,1721207392725
-2.12,1.33,11.35,0.17,0.14,-0.30,1721207392735
-1.93,3.18,8.70,0.23,0.12,-0.22,1721207392745
-1.65,4.87,11.37,0.23,0.10,0.07,1721207392755
0.76,2.94,9.79,0.29,0.03,0.15,1721207392765
1.20,5.40,3.46,0.39,-0.18,0.04,1721207392775
2.41,-3.10,2.56,-0.13,0.14,-0.21,1721207392785
0.41,-9.99,30.79,-0.63,0.12,-0.46,1721207392795
-4.61,11.24,25.87,0.49,-0.42,-0.28,1721207392805
-4.41,-1.24,-10.99,0.05,-0.05,0.06,1721207392815
-2.38,-0.82,20.55,-0.16,0.27,0.41,1721207392825
3.64,8.95,14.92,0.37,0.40,0.31,1721207392835
4.73,-1.06,3.38,0.18,-0.15,-0.01,1721207392845
-0.48,-0.28,10.06,-0.06,-0.03,-0.43,1721207392855
-2.85,4.08,17.37,0.23,-0.14,-0.26,1721207392865
-4.41,2.64,5.10,0.36,-0.22,0.17,1721207392875
-1.03,0.08,-2.23,0.26,0.13,0.26,1721207392885
1.06,-2.07,8.08,0.02,0.19,0.05,1721207392895
0.31,1.47,10.21,0.23,-0.31,-0.05,1721207392905
-0.57,0.46,5.62,0.12,0.15,-0.03,1721207392915
-1.07,0.56,1.92,0.05,-0.15,0.14,1721207392925
0.00,-8.83,5.76,-0.43,0.05,0.27,1721207392935
0.17,-2.84,24.82,-0.31,-0.02,-0.03,1721207392945
0.77,-3.94,16.35,0.03,-0.24,-0.19,1721207392955
-2.03,1.38,10.62,-0.08,-0.06,-0.05,1721207392965
-1.82,3.38,13.70,-0.18,0.13,0.12,1721207392975
-1.03,2.00,8.60,-0.00,-0.25,0.28,1721207392985
3.11,-5.89,2.49,-0.21,0.12,0.10,1721207392995
1.70,-4.70,13.85,-0.20,0.01,-0.19,1721207393005
-1.22,4.10,12.33,0.13,-0.27,-0.11,1721207393015
0.79,2.46,4.32,0.08,-0.02,0.22,1721207393025
2.99,3.85,10.46,0.01,0.08,0.13,1721207393035
2.66,-2.31,13.73,-0.06,-0.07,-0.16,1721207393045
0.22,0.08,9.79,0.09,-0.05,-0.21,1721207393055
-1.59,1.03,1.95,0.13,-0.04,-0.09,1721207393065
-1.76,0.85,10.74,-0.03,0.04,0.12,1721207393075
0.49,0.71,9.83,0.13,-0.09,0.17,1721207393085
3.56,-0.78,12.92,-0.10,0.16,-0.02,1721207393095
1.86,-1.81,17.34,-0.13,-0.16,-0.21,1721207393105
-0.56,0.66,13.04,-0.05,-0.00,-0.05,1721207393115
0.08,3.59,14.02,0.09,0.15,-0.01,1721207393125
2.23,-1.36,5.11,0.20,-0.04,0.08,1721207393135
1.32,3.73,6.85,0.25,0.09,-0.17,1721207393145
1.67,1.63,11.05,0.14,0.10,-0.35,1721207393155
-2.03,3.96,13.70,0.19,-0.08,-0.27,1721207393165
-2.63,-2.49,5.14,0.10,0.01,-0.03,1721207393175
-0.14,1.38,11.71,0.06,0.16,0.04,1721207393185
1.09,2.38,4.60,0.25,-0.05,-0.09,1721207393195
-0.45,-1.96,6.37,-0.01,0.15,-0.27,1721207393205
-1.77,-1.64,17.85,0.01,0.03,-0.12,1721207393215
-1.57,1.51,11.05,0.19,-0.07,0.03,1721207393225
1.89,3.84,3.80,0.05,0.18,-0.01,1721207393235
3.20,0.79,14.56,-0.18,0.12,-0.17,1721207393245
-0.38,2.20,17.96,-0.04,-0.06,-0.21,1721207393255
-0.96,-3.61,5.11,-0.17,-0.01,-0.22,1721207393265
-0.95,-1.30,10.86,-0.23,0.10,-0.14,1721207393275
1.31,-0.33,11.65,-0.14,0.15,-0.08,1721207393285
0.76,0.83,6.78,-0.08,0.00,-0.17,1721207393295
-0.81,-1.47,7.84,-0.09,0.01,-0.32,1721207393305
-1.25,4.02,9.19,0.14,0.08,-0.20,1721207393315
-0.60,-0.72,10.36,-0.31,0.16,-0.09,1721207393325
-0.83,-2.82,21.46,-0.34,-0.02,-0.07,1721207393335
-0.63,5.25,8.12,0.05,0.02,0.02,1721207393345
2.52,0.79,3.57,-0.27,0.24,-0.26,1721207393355
1.14,-2.47,11.85,-0.20,-0.24,-0.20,1721207393365
-1.52,-1.14,8.87,-0.14,0.22,-0.19,1721207393375
-1.79,1.46,12.67,-0.09,0.14,-0.22,1721207393385
-1.65,-1.68,8.48,-0.24,-0.04,-0.14,1721207393395
-0.95,7.27,15.30,0.00,0.13,0.06,1721207393405
0.58,-3.58,5.14,-0.21,0.08,-0.10,1721207393415
-0.34,-11.57,16.85,-0.58,0.06,-0.31,1721207393425
0.34,9.51,21.11,0.24,0.05,-0.29,1721207393435
-1.55,3.75,4.82,-0.04,0.04,-0.24,1721207393445
-3.90,-5.33,11.13,-0.05,-0.16,-0.02,1721207393455
-0.20,-0.95,7.73,0.22,0.23,0.17,1721207393465
2.07,2.14,5.86,0.19,0.21,-0.12,1721207393475
1.10,-2.11,7.37,0.07,-0.06,-0.22,1721207393485
-1.54,-0.02,8.99,0.14,0.07,-0.34,1721207393495
-1.77,6.11,15.92,0.14,0.17,-0.27,1721207393505
-2.61,-0.01,9.65,0.01,-0.10,-0.15,1721207393515
-2.97,-6.35,9.69,-0.16,0.04,-0.01,1721207393525
-0.47,-0.38,18.86,-0.02,0.28,-0.12,1721207393535
-0.66,7.83,11.31,0.25,-0.27,-0.14,1721207393545
-0.70,0.26,4.28,0.03,0.18,-0.20,1721207393555
-0.74,-4.52,15.10,0.12,0.11,-0.13,1721207393565
-2.13,6.53,11.66,0.28,-0.13,0.00,1721207393575
0.31,9.27,14.21,0.23,0.16,-0.03,1721207393585
1.36,8.69,9.36,0.47,-0.12,0.01,1721207393595
0.17,-3.21,2.00,0.08,-0.05,-0.09,1721207393605
0.90,-3.39,16.99,-0.01,0.20,-0.17,1721207393615
-0.72,7.07,11.18,0.43,-0.25,-0.16,1721207393625
-0.66,-0.60,1.37,0.14,0.09,-0.09,1721207393635
-2.22,4.70,10.63,0.29,0.03,0.01,1721207393645
0.45,1.13,4.37,0.21,0.14,-0.04,1721207393655
0.39,-1.09,11.09,-0.13,0.03,-0.09,1721207393665
-0.65,-1.11,12.28,-0.01,-0.13,-0.05,1721207393675
-1.55,0.91,13.14,-0.10,0.05,-0.07,1721207393685
-1.57,-1.24,16.45,0.07,-0.10,0.00,1721207393695
0.18,0.59,1.75,0.15,-0.08,0.12,1721207393705
1.53,0.29,4.18,-0.26,0.09,-0.08,1721207393715
-0.77,0.92,15.17,-0.16,-0.01,-0.18,1721207393725
-2.26,-2.86,2.39,0.05,-0.18,-0.09,1721207393735
-0.73,-5.53,0.14,-0.28,0.13,0.11,1721207393745
-0.22,-0.45,13.64,-0.29,0.02,-0.03,1721207393755
1.04,-0.68,18.75,-0.23,-0.03,-0.12,1721207393765
-0.78,0.11,16.43,-0.09,-0.14,-0.05,1721207393775
-1.33,-2.10,3.94,-0.18,0.02,0.07,1721207393785
-0.26,-1.83,10.12,-0.38,0.22,-0.11,1721207393795
1.01,4.27,16.38,-0.09,-0.15,0.01,1721207393805
0.85,2.88,5.96,-0.04,0.02,-0.04,1721207393815
1.48,-8.46,13.58,-0.39,0.12,-0.04,1721207393825
0.11,5.53,18.31,-0.02,-0.18,-0.05,1721207393835
0.50,7.07,7.19,0.03,0.04,-0.01,1721207393845
-0.38,-3.15,10.47,-0.14,0.04,-0.08,1721207393855
-0.78,-1.74,12.74,0.09,0.02,-0.04,1721207393865
-1.18,7.35,7.59,0.19,0.02,0.04,1721207393875
0.27,1.47,8.71,0.07,-0.00,0.04,1721207393885
2.33,-3.78,15.02,-0.01,0.09,-0.03,1721207393895
1.13,9.74,15.41,0.31,-0.04,0.06,1721207393905
1.12,5.70,3.42,0.30,0.07,0.06,1721207393915
1.85,-7.14,3.83,-0.05,0.09,-0.08,1721207393925
1.15,-0.80,12.64,0.10,0.07,-0.22,1721207393935
-0.45,1.83,8.21,0.08,0.02,-0.08,1721207393945
-0.57,1.51,11.61,0.07,0.07,0.01,1721207393955
2.37,2.88,5.17,0.26,0.08,0.05,1721207393965
3.70,-3.98,4.75,-0.18,0.20,-0.16,1721207393975
-0.13,-3.95,17.83,-0.15,-0.01,-0.50,1721207393985
-4.97,1.42,8.58,0.20,0.03,-0.51,1721207393995
-5.31,-2.58,4.14,-0.07,0.14,0.01,1721207394005
-2.05,-1.69,13.86,0.05,0.12,0.37,1721207394015
2.83,1.73,9.59,0.10,0.18,0.13,1721207394025
3.49,1.13,11.05,-0.11,0.06,-0.13,1721207394035
1.98,1.15,15.07,-0.13,0.17,-0.33,1721207394045
-0.38,0.06,12.38,-0.10,0.04,-0.32,1721207394055
-2.62,8.48,6.91,0.12,-0.01,-0.01,1721207394065
1.37,-4.70,4.29,-0.40,0.30,0.05,1721207394075
1.12,-4.90,19.72,-0.22,0.02,-0.06,1721207394085
0.31,5.09,10.39,0.12,0.06,-0.23,1721207394095
-0.46,2.69,6.00,-0.16,0.19,-0.29,1721207394105
-3.03,3.71,14.21,0.00,-0.08,-0.12,1721207394115
-1.45,1.71,10.50,0.11,0.19,0.14,1721207394125
1.27,3.91,8.27,0.01,0.16,0.13,1721207394135
3.11,4.15,11.61,0.08,0.18,-0.10,1721207394145
3.03,-3.92,11.41,-0.10,0.02,-0.14,1721207394155
0.36,4.40,11.49,0.27,-0.05,-0.14,1721207394165
2.59,-1.62,3.16,0.15,0.25,-0.19,1721207394175
-2.16,0.18,10.01,0.16,-0.02,-0.30,1721207394185
-1.92,1.32,9.26,0.30,0.15,-0.20,1721207394195
-2.04,-2.00,8.01,0.14,0.16,-0.10,1721207394205
-0.27,0.03,10.38,0.15,0.17,0.00,1721207394215
1.00,1.94,7.57,0.26,0.20,-0.03,1721207394225
-0.21,-2.80,5.81,0.02,0.04,-0.23,1721207394235
1.03,-8.76,18.07,-0.11,0.27,-0.17,1721207394245
-0.41,8.43,16.22,0.39,0.03,-0.21,1721207394255
-2.99,6.22,2.33,-0.03,0.13,-0.23,1721207394265
-2.29,-3.07,9.63,-0.13,0.10,-0.02,1721207394275
-0.09,-10.91,6.85,-0.17,0.16,0.14,1721207394285
-1.63,1.92,8.42,0.00,0.14,-0.15,1721207394295
0.37,6.31,12.16,-0.00,0.26,-0.31,1721207394305
-0.13,-3.56,16.11,-0.27,-0.06,-0.13,1721207394315
-4.62,-4.35,8.35,-0.15,-0.10,0.04,1721207394325
0.94,0.93,10.62,-0.20,0.54,-0.11,1721207394335
2.31,3.47,13.03,-0.04,-0.09,-0.17,1721207394345
-3.08,1.76,6.22,-0.05,-0.09,-0.29,1721207394355
-3.41,-1.63,6.58,0.09,0.14,-0.14,1721207394365
-2.26,1.68,15.10,0.04,0.33,-0.01,1721207394375
-1.35,6.00,13.96,0.05,-0.05,0.06,1721207394385
-1.74,-3.88,6.12,-0.18,-0.13,0.09,1721207394395
-1.12,5.82,17.24,0.17,0.27,0.09,1721207394405
1.97,3.23,3.02,0.33,-0.21,0.24,1721207394415
2.06,-4.92,7.52,-0.12,0.23,0.14,1721207394425
3.56,2.11,21.86,0.17,0.10,-0.10,1721207394435
-0.99,0.85,3.62,0.11,-0.34,-0.18,1721207394445
-3.25,1.36,11.97,0.02,0.30,-0.03,1721207394455
0.78,5.99,14.01,0.51,0.09,0.15,1721207394465
1.54,5.95,7.88,0.15,0.06,0.14,1721207394475
0.02,0.58,15.74,-0.14,-0.10,-0.08,1721207394485
-2.83,1.07,10.39,0.05,-0.10,-0.14,1721207394495
-3.10,1.63,5.01,0.02,0.09,-0.00,1721207394505
-1.78,-1.14,8.03,-0.08,-0.10,0.31,1721207394515
-0.28,-2.35,8.90,-0.03,-0.05,0.32,1721207394525
2.69,-6.96,8.17,-0.07,0.11,0.10,1721207394535
-0.18,4.49,11.44,-0.04,-0.08,-0.24,1721207394545
0.00,0.03,9.26,-0.13,-0.07,-0.01,1721207394555
-2.41,-4.86,14.89,-0.19,0.02,0.12,1721207394565
-2.44,-4.99,5.50,0.02,-0.17,0.20,1721207394575
1.03,0.94,10.76,-0.15,0.13,0.16,1721207394585
3.11,3.80,17.23,-0.03,-0.02,0.10,1721207394595
-0.64,0.21,4.32,0.01,-0.22,-0.07,1721207394605
-1.31,-6.97,5.16,-0.25,-0.01,-0.07,1721207394615
-0.67,1.53,11.00,0.05,-0.09,0.08,1721207394625
-0.84,2.79,7.82,-0.07,-0.11,0.12,1721207394635
0.74,-2.82,12.64,-0.29,0.00,0.19,1721207394645
0.51,-1.95,17.64,-0.27,-0.08,-0.01,1721207394655
0.25,-3.02,17.20,-0.28,-0.01,-0.06,1721207394665
1.00,-6.14,9.01,-0.20,0.05,0.14,1721207394680
1.12,1.09,14.66,-0.07,0.19,0.13,1721207394684
2.09,13.96,20.57,0.13,-0.07,0.12,1721207394694
1.34,2.38,4.81,0.26,-0.17,0.08,1721207394704
3.90,-12.85,0.26,-0.04,0.16,-0.23,1721207394714
-2.93,9.56,21.83,0.12,-0.13,-0.41,1721207394724
-4.47,8.94,13.01,0.32,-0.10,-0.17,1721207394734
-1.48,-5.85,-2.48,0.32,0.08,0.18,1721207394744
2.48,-2.74,9.06,0.17,0.36,0.05,1721207394754
4.12,6.03,14.30,0.22,-0.14,-0.16,1721207394764
1.49,1.01,5.87,0.03,0.09,-0.33,1721207394774
-1.55,0.47,12.91,0.17,0.03,-0.22,1721207394784
0.23,3.00,0.51,0.30,-0.01,0.12,1721207394794
2.05,-3.69,4.11,-0.20,0.27,-0.12,1721207394804
-1.97,-1.71,23.47,-0.07,-0.14,-0.38,1721207394814
-2.72,-1.03,14.63,0.12,0.08,-0.17,1721207394824
-0.10,-3.94,15.67,0.03,0.26,0.24,1721207394834
2.79,7.47,7.37,0.53,0.09,0.15,1721207394844
6.28,8.01,-14.61,0.16,0.21,-0.16,1721207394854
7.62,-10.62,6.33,-0.75,0.47,-0.64,1721207394864
-11.37,-8.68,41.24,-0.07,0.59,-0.77,1721207394874
-10.60,18.84,20.26,1.03,-0.29,-0.12,1721207394884
-3.93,0.33,-14.40,-0.60,0.38,0.36,1721207394894
-0.39,-12.03,23.67,-0.46,0.57,0.07,1721207394904
-3.36,6.25,28.99,0.64,-0.94,-0.04,1721207394914
4.65,0.14,-19.49,-0.09,0.15,-0.33,1721207394924
-2.10,-6.60,21.86,-0.63,0.24,-0.57,1721207394934
-10.70,6.54,34.57,0.50,-0.79,-0.29,1721207394944
-2.96,11.41,-14.04,0.53,0.03,0.28,1721207394954
2.44,-11.74,1.59,-0.58,0.48,0.25,1721207394964
2.95,-5.46,28.90,-0.14,0.36,0.10,1721207394974
-3.91,11.04,24.72,0.49,-0.66,-0.18,1721207394984
1.52,2.73,-8.98,-0.15,0.26,-0.49,1721207394994
-5.06,-5.36,16.63,-0.19,-0.05,-0.20,1721207395004
-5.56,-1.82,9.45,0.05,0.26,0.18,1721207395014
1.50,0.30,7.38,-0.06,0.37,0.10,1721207395024
1.56,0.09,8.99,0.03,0.11,-0.21,1721207395034
-1.46,-1.96,7.50,-0.04,0.14,-0.22,1721207395044
-1.55,1.37,14.15,0.00,0.31,-0.08,1721207395054
-1.49,-3.99,14.03,-0.16,0.12,-0.03,1721207395064
-4.42,-2.15,11.35,-0.06,-0.17,0.29,1721207395074
1.31,0.57,6.37,0.08,0.33,0.28,1721207395084
4.29,-1.55,8.52,-0.09,0.07,-0.03,1721207395094
-2.16,-1.64,11.82,-0.12,-0.07,-0.15,1721207395104
-3.11,-4.84,4.43,-0.15,0.11,0.02,1721207395114
-1.43,-3.79,18.05,-0.20,0.26,0.06,1721207395124
-1.07,7.05,18.29,0.06,0.04,0.16,1721207395134
0.22,9.13,7.65,0.11,-0.11,0.27,1721207395144
1.65,-7.62,3.95,-0.27,0.04,0.13,1721207395154
-0.98,-9.09,20.50,-0.30,0.01,-0.05,1721207395164
-2.13,8.74,11.29,0.31,-0.20,0.03,1721207395174
-0.08,5.26,8.92,0.03,0.11,0.17,1721207395184
-3.88,6.88,12.60,0.24,-0.45,0.23,1721207395194
-2.54,3.23,4.66,0.19,0.02,0.35,1721207395204
2.20,-1.51,8.20,0.14,0.13,0.27,1721207395214
2.74,2.96,13.45,0.08,-0.06,0.11,1721207395224
0.59,3.09,13.45,0.21,-0.27,0.13,1721207395234
0.29,-0.63,7.34,0.30,-0.15,0.25,1721207395244
2.38,0.57,7.11,0.25,-0.09,0.16,1721207395254
0.90,5.19,9.50,0.20,-0.18,-0.06,1721207395264
-2.99,1.43,7.96,0.12,-0.14,-0.24,1721207395274
-4.02,-4.43,7.72,0.14,-0.02,0.14,1721207395284
-0.85,3.35,9.68,0.27,0.03,0.43,1721207395294
2.56,4.18,7.89,0.02,-0.07,0.27,1721207395304
2.51,-2.39,14.55,-0.19,-0.08,0.00,1721207395314
1.02,-4.03,16.48,-0.11,-0.22,-0.19,1721207395324
-4.62,9.68,8.21,0.15,-0.46,-0.08,1721207395334
-4.18,2.58,-1.73,-0.25,-0.09,0.23,1721207395344
0.10,-11.94,9.17,-0.57,-0.01,0.39,1721207395354
0.38,-1.39,18.09,-0.06,-0.28,0.16,1721207395364
0.79,2.35,-0.18,-0.02,-0.25,-0.01,1721207395374
1.30,-0.35,14.58,-0.44,0.03,0.05,1721207395384
2.30,1.86,22.12,0.02,-0.18,0.37,1721207395394
1.92,1.85,1.49,0.01,-0.34,0.18,1721207395404
1.75,0.74,9.19,-0.21,0.13,-0.17,1721207395414
0.12,1.92,6.79,0.13,-0.46,0.03,1721207395424
0.01,-4.30,6.01,-0.17,0.14,0.17,1721207395434
0.12,-1.16,23.51,0.07,-0.24,0.16,1721207395444
3.23,11.71,5.51,0.44,-0.28,0.22,1721207395454
5.30,-2.74,-3.88,-0.35,0.06,-0.09,1721207395464
-1.91,-10.29,23.08,-0.62,-0.33,-0.50,1721207395474
0.71,6.67,25.58,0.45,-0.19,-0.30,1721207395484
-0.75,-0.40,-5.32,0.17,-0.06,-0.04,1721207395494
-3.67,0.22,15.31,-0.11,-0.04,0.03,1721207395504
0.71,-0.91,13.88,0.21,-0.03,0.05,1721207395514
1.94,5.32,7.68,0.27,-0.04,-0.11,1721207395524
1.50,-1.46,9.09,0.11,0.04,-0.25,1721207395534
0.47,0.99,9.82,0.16,-0.08,-0.30,1721207395544
-0.48,4.66,12.73,0.18,0.09,-0.29,1721207395554
-0.24,-0.41,9.64,0.10,0.01,-0.04,1721207395564
0.85,0.26,3.21,0.18,0.01,-0.04,1721207395574
4.34,-3.11,6.31,-0.03,0.20,-0.24,1721207395584
1.52,-0.34,18.41,-0.02,-0.04,-0.49,1721207395594
-2.36,1.74,13.01,0.23,0.04,-0.46,1721207395604
-2.34,-2.72,3.64,0.13,0.10,-0.15,1721207395614
-0.27,-5.88,8.07,-0.09,0.18,0.09,1721207395624
1.56,0.94,22.48,0.10,0.26,-0.13,1721207395634
3.07,3.93,10.49,0.51,0.03,-0.16,1721207395644
3.27,5.25,0.14,0.15,0.22,-0.14,1721207395654
1.89,-2.40,8.35,-0.19,0.23,-0.26,1721207395664
-0.88,-0.21,17.31,0.01,0.12,-0.49,1721207395674
-3.13,0.02,0.62,0.13,0.01,-0.34,1721207395684
-3.67,2.94,15.70,-0.27,0.41,-0.18,1721207395694
-2.32,2.32,20.05,0.11,0.10,-0.02,1721207395704
-1.19,-0.45,3.35,-0.04,0.07,-0.07,1721207395714
1.25,0.96,16.30,-0.22,0.32,-0.15,1721207395724
0.50,0.65,7.71,0.09,-0.15,-0.20,1721207395734
-3.07,1.82,9.99,-0.13,0.27,-0.27,1721207395744
-3.35,-1.95,6.24,0.07,-0.03,-0.20,1721207395754
-4.14,0.38,13.74,-0.13,0.13,0.15,1721207395764
0.66,-0.17,15.83,-0.04,0.17,0.15,1721207395774
3.53,0.09,6.97,0.12,-0.03,0.10,1721207395784
4.81,1.32,5.28,-0.01,0.33,-0.28,1721207395794
-0.49,5.79,7.50,0.12,-0.16,-0.45,1721207395804
-2.92,-1.22,3.79,-0.19,0.14,-0.22,1721207395814
-1.53,-7.17,21.55,-0.34,0.32,0.04,1721207395824
-1.36,2.20,12.08,0.23,-0.17,0.08,1721207395834
2.77,-2.04,0.91,-0.21,0.28,-0.02,1721207395844
-1.25,2.31,15.17,0.10,-0.09,-0.21,1721207395854
-1.76,-3.27,5.73,-0.06,-0.02,-0.28,1721207395864
-3.22,-10.17,22.14,-0.30,0.18,-0.11,1721207395874
-2.64,5.38,17.09,0.50,-0.05,0.10,1721207395884
-0.60,1.63,-0.37,0.10,0.14,0.04,1721207395894
-4.18,9.50,11.13,0.23,-0.17,0.01,1721207395904
1.61,-0.57,2.65,0.16,0.13,-0.01,1721207395914
-1.06,-7.93,8.44,-0.18,-0.02,-0.05,1721207395924
0.60,-2.23,18.02,0.13,0.26,-0.07,1721207395934
-0.05,1.52,9.59,0.28,-0.09,-0.03,1721207395944
-3.69,6.46,7.69,0.29,-0.03,-0.03,1721207395954
-0.54,-2.77,2.96,0.07,0.02,0.09,1721207395964
-0.70,0.45,16.38,-0.13,0.01,0.17,1721207395974
1.61,4.40,24.67,0.16,0.04,-0.04,1721207395984
-0.21,-0.37,3.18,0.23,-0.31,-0.15,1721207395994
-2.79,-2.19,7.47,0.11,0.21,-0.22,1721207396004
-2.97,0.28,12.32,0.26,-0.02,0.11,1721207396014
-1.97,7.71,6.97,0.30,-0.21,0.28,1721207396024
3.98,3.49,9.54,0.27,0.22,0.22,1721207396034
3.80,2.39,3.27,0.39,-0.23,-0.03,1721207396044
1.41,3.98,0.69,-0.01,0.11,-0.33,1721207396054
-3.67,3.42,16.82,-0.02,-0.35,-0.26,1721207396064
-7.12,2.68,13.70,0.16,-0.18,0.22,1721207396074
-0.81,-4.71,13.01,-0.13,0.17,0.57,1721207396084
3.30,0.33,13.86,0.14,-0.20,0.54,1721207396094
5.19,2.37,4.09,0.04,-0.07,0.08,1721207396104
2.33,5.35,5.24,0.15,-0.28,-0.22,1721207396114
1.11,-2.80,3.45,-0.07,0.12,-0.21,1721207396124
-3.26,-3.69,9.09,-0.13,-0.22,-0.01,1721207396134
-3.03,4.61,14.20,-0.20,-0.06,0.08,1721207396144
0.42,3.41,21.58,-0.09,-0.05,0.14,1721207396154
-1.00,-5.38,5.92,-0.09,-0.25,0.03,1721207396164
-2.37,-3.52,11.32,-0.22,0.08,-0.07,1721207396174
-2.99,-1.30,5.29,-0.05,-0.36,0.27,1721207396184
-1.32,2.98,11.18,-0.29,0.09,0.25,1721207396194
6.82,-0.27,14.03,-0.04,-0.18,0.21,1721207396204
2.58,7.38,3.55,0.11,-0.27,-0.08,1721207396214
-2.07,-8.12,-1.99,-0.63,-0.13,-0.37,1721207396224
-6.20,-14.65,29.46,-0.73,0.01,-0.17,1721207396234
-4.70,-0.08,27.96,0.21,-0.27,0.33,1721207396244
1.38,1.07,0.85,-0.02,-0.13,0.44,1721207396254
3.89,6.32,9.74,-0.08,-0.11,0.38,1721207396264
6.02,2.63,10.23,-0.04,-0.02,-0.12,1721207396274
2.96,-0.10,7.84,0.09,-0.22,-0.40,1721207396284
-1.26,-3.12,1.99,-0.10,-0.09,-0.31,1721207396294
-4.03,-1.64,14.88,-0.11,-0.20,0.06,1721207396304
0.03,4.79,25.17,0.12,0.07,0.19,1721207396314
4.31,6.68,13.67,0.28,-0.21,0.21,1721207396324
3.60,0.62,2.98,-0.10,-0.00,-0.31,1721207396334
2.15,-4.14,14.20,-0.12,-0.01,-0.50,1721207396344
-1.89,-0.96,6.93,0.22,-0.15,-0.44,1721207396354
-3.51,0.79,4.78,0.13,0.16,-0.15,1721207396364
0.12,0.86,11.37,0.13,0.05,0.04,1721207396374
3.18,-1.59,16.48,-0.06,0.13,-0.17,1721207396384
1.39,8.42,21.35,0.32,-0.06,-0.37,1721207396394
0.47,9.51,0.72,0.33,0.07,-0.32,1721207396404
0.34,-4.58,4.48,-0.11,0.30,-0.37,1721207396414
-2.94,-3.91,12.43,0.09,0.01,-0.38,1721207396424
-1.15,1.98,5.20,0.11,0.14,-0.23,1721207396434
0.43,0.50,10.84,0.06,0.17,-0.08,1721207396444
2.73,11.24,7.38,0.48,0.10,-0.11,1721207396454
4.63,-5.17,-10.59,-0.38,0.14,-0.20,1721207396464
-1.88,-6.82,32.59,-0.50,0.46,-0.61,1721207396474
-3.16,4.79,23.81,0.40,-0.05,-0.70,1721207396484
-8.34,-1.94,2.56,-0.51,0.18,-0.47,1721207396494
-6.62,3.03,26.27,-0.12,0.18,-0.11,1721207396504
0.21,-0.92,4.66,0.08,0.25,0.14,1721207396514
1.38,8.43,8.61,-0.11,0.34,-0.13,1721207396524
1.88,-0.08,6.25,-0.15,0.21,-0.32,1721207396534
0.67,-2.38,12.84,-0.17,0.36,-0.69,1721207396544
-12.72,9.67,3.79,-0.02,-0.23,-0.13,1721207396554
-6.25,-5.77,4.10,-0.60,0.45,0.69,1721207396564
13.52,-12.58,27.32,-0.19,0.41,1.17,1721207396574
14.90,8.52,13.97,0.31,0.44,0.08,1721207396584
13.77,10.11,-3.53,0.15,-0.11,-1.26,1721207396594
-3.37,-2.73,7.01,-0.22,-0.24,-1.85,1721207396604
-23.35,-2.57,22.81,0.07,0.50,-1.30,1721207396614
-17.36,3.56,15.62,0.20,0.14,-0.26,1721207396624
-12.48,-6.23,8.85,-0.31,0.21,0.85,1721207396634
-0.30,-3.39,15.65,0.11,0.33,1.19,1721207396644
12.05,-1.22,8.49,0.15,0.45,0.53,1721207396654
8.89,10.79,14.49,0.13,0.04,-0.53,1721207396664
3.19,0.72,2.57,0.08,-0.16,-0.97,1721207396674
-9.64,-2.47,18.72,-0.03,0.06,-0.26,1721207396689
-10.30,1.32,18.90,0.20,-0.02,0.09,1721207396693
-4.01,4.00,6.32,0.10,0.22,0.70,1721207396703
3.63,-0.29,12.99,0.15,0.22,0.66,1721207396713
7.04,0.10,10.19,0.13,0.11,0.03,1721207396723
4.81,2.48,9.79,-0.00,0.08,-0.49,1721207396733
-3.35,0.43,10.76,0.09,-0.05,-0.45,1721207396743
-7.57,-1.61,9.43,-0.00,0.07,-0.04,1721207396753
-3.06,4.16,12.20,0.28,0.13,0.49,1721207396763
1.16,-0.71,2.94,-0.02,0.05,0.40,1721207396773
3.17,-7.13,14.07,-0.28,0.18,0.05,1721207396783
1.92,5.27,20.44,0.28,-0.01,-0.17,1721207396793
-1.94,0.28,-0.79,0.07,-0.13,-0.29,1721207396803
-7.04,-5.84,7.60,-0.24,0.04,0.12,1721207396813
0.67,2.83,14.45,0.32,0.09,0.51,1721207396823
3.14,0.89,3.58,-0.15,0.06,0.21,1721207396833
0.58,2.72,18.12,-0.02,-0.08,-0.25,1721207396843
-0.88,-1.65,1.51,0.23,-0.23,-0.16,1721207396853
-6.41,2.82,3.62,-0.10,0.11,-0.06,1721207396863
-4.07,-0.26,12.74,-0.13,-0.15,0.27,1721207396873
-1.23,-0.50,14.23,0.05,-0.22,0.65,1721207396883
3.88,2.21,13.65,0.06,0.10,0.45,1721207396893
4.67,3.63,13.49,0.05,-0.29,0.05,1721207396903
0.17,0.14,3.34,-0.06,-0.32,-0.07,1721207396913
-0.98,0.56,20.94,-0.19,0.18,-0.06,1721207396923
-0.98,9.10,6.50,0.56,-0.44,0.32,1721207396933
4.27,-5.42,0.10,-0.40,0.20,0.35,1721207396943
22.16,3.76,19.90,-0.34,-0.26,-0.05,1721207396953
5.54,13.81,0.86,0.60,0.02,-0.14,1721207396963
3.47,4.86,0.77,-0.17,0.13,-0.36,1721207396973
-5.60,0.79,13.26,-0.06,-0.45,-0.08,1721207396983
-4.13,-4.75,9.75,-0.13,-0.29,0.10,1721207396993
0.44,-0.38,14.45,-0.10,0.18,0.14,1721207397003
2.66,4.00,12.85,0.06,-0.09,-0.00,1721207397013
2.48,0.83,2.03,-0.14,-0.12,-0.12,1721207397023
-1.79,-2.14,7.19,-0.18,-0.14,-0.20,1721207397033
-2.23,-2.81,14.13,-0.21,0.11,-0.10,1721207397043
-1.56,4.65,13.73,0.14,-0.21,0.07,1721207397053
1.22,-0.71,3.62,-0.13,-0.00,0.17,1721207397063
2.61,-3.11,12.92,-0.23,-0.03,-0.03,1721207397073
1.51,5.41,15.12,0.12,-0.08,-0.35,1721207397083
-2.05,1.68,-0.29,-0.03,-0.21,-0.38,1721207397093
-5.23,-10.08,13.13,-0.57,0.09,-0.19,1721207397103
-2.33,4.64,27.71,0.20,0.00,0.04,1721207397113
0.43,3.25,-3.54,0.20,-0.26,0.16,1721207397123
1.36,-5.51,8.31,-0.33,0.27,-0.06,1721207397133
-2.61,-5.31,23.78,0.12,-0.08,-0.22,1721207397143
-2.55,4.52,13.89,0.13,-0.12,-0.29,1721207397153
-0.86,3.14,14.26,-0.07,0.05,-0.04,1721207397163
-0.94,4.53,12.57,-0.01,-0.12,-0.07,1721207397173
0.74,-1.66,7.13,-0.14,0.06,-0.21,1721207397183
0.15,-2.61,11.82,-0.05,-0.04,-0.18,1721207397193
1.00,1.09,6.39,0.06,0.14,-0.18,1721207397203
-0.25,0.91,1.76,0.08,-0.02,-0.20,1721207397213
-0.65,1.19,13.77,-0.04,0.18,-0.24,1721207397223
0.90,2.94,14.17,0.15,0.04,-0.19,1721207397233
-1.94,3.53,5.01,-0.01,-0.09,-0.22,1721207397243
-2.06,-3.19,10.03,-0.30,0.15,-0.18,1721207397253
-0.12,-1.86,16.64,-0.07,0.07,-0.06,1721207397263
0.90,0.48,11.14,0.08,0.07,-0.03,1721207397273
0.81,-4.02,2.07,-0.08,0.01,-0.16,1721207397283
0.06,-1.26,11.99,0.02,0.15,-0.33,1721207397293
0.24,2.68,11.05,0.28,0.13,-0.27,1721207397303
-1.22,6.87,2.07,0.38,0.02,-0.17,1721207397313
-0.81,4.45,7.59,0.05,0.24,-0.12,1721207397323
-0.99,-0.48,19.81,-0.21,0.09,-0.16,1721207397333
-1.98,-3.54,15.77,-0.14,-0.06,-0.15,1721207397343
0.28,-0.13,12.62,-0.08,0.16,-0.03,1721207397353
2.46,0.36,12.27,-0.02,0.15,0.04,1721207397363
1.39,4.20,6.84,0.30,-0.00,-0.16,1721207397373
1.96,7.59,3.52,0.34,0.28,-0.39,1721207397382
-0.14,-1.79,10.00,0.02,0.08,-0.28,1721207397392
-3.76,-4.73,12.27,-0.02,-0.04,-0.11,1721207397402
-3.94,2.01,19.00,0.12,0.14,0.10,1721207397412
0.95,4.91,12.33,0.33,0.15,0.35,1721207397422
3.50,8.52,8.75,0.43,0.06,0.13,1721207397432
4.00,-4.59,3.77,0.13,0.19,-0.32,1721207397442
-1.65,-1.61,13.92,0.11,-0.06,-0.45,1721207397452
-4.53,6.31,6.73,0.40,0.09,-0.16,1721207397462
-1.98,-1.18,-5.20,0.12,0.12,0.28,1721207397472
2.03,-5.39,5.41,-0.16,0.20,0.28,1721207397482
3.60,2.05,8.05,0.09,0.08,-0.06,1721207397492
1.52,-2.32,23.79,-0.42,0.34,-0.35,1721207397502
-2.62,5.39,32.31,0.50,-0.13,-0.30,1721207397512
-1.99,-7.20,-14.11,0.15,-0.02,0.07,1721207397522
-0.53,1.81,18.72,-0.39,0.59,0.11,1721207397532
0.30,0.38,17.92,0.35,-0.53,-0.02,1721207397542
4.15,3.20,-4.66,-0.07,0.37,-0.35,1721207397552
-2.29,-6.67,14.06,-0.41,0.20,-0.33,1721207397562
-3.99,-4.10,15.57,-0.15,0.03,-0.13,1721207397572
0.28,1.33,11.92,-0.05,0.33,0.13,1721207397582
3.73,2.51,-6.71,0.04,-0.07,0.11,1721207397592
2.76,-8.09,18.46,-0.71,0.55,-0.42,1721207397602
-3.08,9.79,41.81,0.45,-0.89,-0.37,1721207397612
-4.61,5.47,-17.93,0.48,-0.19,-0.20,1721207397622
-4.67,-2.49,7.74,-0.84,0.61,0.05,1721207397632
2.55,5.83,20.04,-0.02,0.26,0.46,1721207397642
1.38,-3.76,-1.00,0.20,-0.53,0.27,1721207397652
3.54,-0.69,-5.86,-0.11,0.20,-0.29,1721207397662
-2.04,0.38,19.00,-0.24,0.33,-0.50,1721207397672
0.28,8.74,29.57,-0.10,0.34,-0.31,1721207397682
-5.07,3.46,-0.66,0.24,-0.37,0.00,1721207397692
-2.58,-7.22,-3.42,-0.30,0.36,0.09,1721207397702
1.02,-3.57,19.21,-0.15,0.32,0.30,1721207397712
4.17,11.65,26.61,0.13,-0.15,-0.05,1721207397722
1.02,5.56,6.86,0.14,-0.25,-0.37,1721207397732
-4.85,-8.52,2.76,-0.31,0.11,-0.26,1721207397742
-2.96,-4.51,17.29,-0.11,0.25,0.24,1721207397752
3.23,5.78,8.75,0.33,-0.04,0.43,1721207397762
4.28,4.08,4.40,0.14,0.06,-0.00,1721207397772
0.26,0.20,4.08,0.21,-0.19,-0.30,1721207397782
-0.06,-1.24,11.00,0.05,0.32,-0.16,1721207397792
-1.11,-0.05,14.48,0.02,0.03,-0.01,1721207397802
-2.27,1.99,12.70,0.04,0.08,-0.07,1721207397812
-1.31,2.50,9.70,0.17,0.01,-0.03,1721207397822
-0.31,0.03,2.69,0.24,-0.12,0.17,1721207397832
1.56,-9.38,8.24,-0.35,0.22,0.07,1721207397842
2.05,-1.51,28.15,-0.15,-0.03,-0.17,1721207397852
-2.64,6.78,6.98,0.45,-0.28,-0.32,1721207397862
-4.38,-1.13,-6.91,-0.12,0.22,-0.20,1721207397872
-1.06,-1.68,18.82,-0.08,0.21,0.37,1721207397882
4.81,-1.29,17.71,-0.15,0.30,0.21,1721207397892
3.92,-2.74,19.58,0.01,0.02,-0.29,1721207397902
-0.58,8.83,6.52,0.34,-0.20,-0.33,1721207397912
-2.73,3.61,-3.60,-0.00,0.06,-0.06,1721207397922
-4.72,-2.86,10.76,-0.05,0.09,0.18,1721207397932
1.06,-1.60,12.02,0.10,-0.21,0.20,1721207397942
-1.39,-0.92,8.40,-0.21,-0.04,-0.05,1721207397952
-0.53,0.93,19.49,0.05,0.07,-0.13,1721207397962
-0.53,1.46,1.93,0.18,-0.13,0.00,1721207397972
-3.03,5.28,11.10,-0.03,0.07,0.08,1721207397982
0.58,0.25,14.33,0.11,-0.07,0.22,1721207397992
1.69,-3.34,11.48,-0.03,-0.04,0.10,1721207398002
1.27,1.47,9.64,0.09,-0.09,-0.10,1721207398012
-0.64,0.59,6.97,-0.10,-0.12,-0.05,1721207398022
-0.20,2.29,12.88,0.27,-0.04,0.15,1721207398032
3.30,-1.24,-3.10,0.21,0.01,0.16,1721207398042
2.86,1.17,16.34,-0.31,0.30,-0.08,1721207398052
-1.72,5.31,36.82,0.14,-0.29,-0.24,1721207398062
-2.05,3.71,2.05,0.34,-0.31,-0.26,1721207398072
-2.63,-2.65,1.13,-0.29,0.24,-0.11,1721207398082
-8.33,-6.81,14.65,-0.16,0.21,0.19,1721207398092
1.03,6.94,12.33,0.18,0.05,0.33,1721207398102
2.72,1.89,3.98,-0.06,0.02,0.13,1721207398112
1.83,-4.40,11.71,-0.26,-0.05,-0.10,1721207398122
-0.67,2.39,14.16,0.01,-0.04,-0.27,1721207398132
-1.85,3.77,0.04,0.16,-0.15,-0.06,1721207398142
-0.40,-6.62,4.41,-0.35,0.18,0.20,1721207398152
-0.24,-6.40,20.22,-0.18,-0.10,0.17,1721207398162
0.98,5.46,13.83,0.35,-0.05,-0.14,1721207398172
1.45,4.25,4.32,-0.03,-0.04,-0.09,1721207398182
-2.43,4.18,11.96,-0.20,-0.11,-0.04,1721207398192
-1.68,-4.61,6.90,-0.17,0.02,-0.07,1721207398202
-1.87,-6.27,5.09,-0.14,-0.06,-0.06,1721207398212
-2.19,0.30,9.31,-0.13,-0.01,0.06,1721207398222
0.31,-0.71,20.28,-0.29,0.02,0.17,1721207398232
2.14,7.12,20.00,-0.01,-0.12,0.29,1721207398242
3.36,2.99,1.93,-0.12,0.01,-0.01,1721207398252
1.09,2.83,8.58,-0.24,-0.06,-0.34,1721207398262
-1.65,-2.19,8.38,-0.10,-0.11,-0.33,1721207398272
-3.51,-2.68,15.72,-0.24,0.03,-0.12,1721207398282
-2.90,8.52,12.93,0.21,-0.16,0.16,1721207398292
1.03,-3.24,-2.38,0.05,-0.02,0.28,1721207398302
1.29,-3.71,17.91,-0.29,0.31,-0.03,1721207398312
2.04,12.97,18.96,0.41,-0.20,-0.10,1721207398322
0.52,4.85,-4.28,0.42,-0.22,-0.09,1721207398332
-0.55,-5.95,5.26,-0.22,0.13,-0.10,1721207398342
-1.38,-4.44,20.38,0.05,-0.49,-0.14,1721207398352
-0.33,5.10,13.41,0.26,-0.13,0.09,1721207398362
1.33,-1.04,4.03,0.01,-0.01,0.24,1721207398372
2.43,-5.24,9.47,-0.10,0.04,0.01,1721207398382
1.56,-1.20,10.19,0.19,-0.22,-0.27,1721207398392
-0.04,0.32,9.31,0.07,0.05,-0.29,1721207398402
-2.09,4.51,15.67,0.11,-0.08,-0.08,1721207398412
-1.20,-6.17,8.46,-0.08,-0.17,0.22,1721207398422
1.48,-2.83,16.10,0.01,0.12,0.14,1721207398432
3.32,-1.59,10.46,0.17,-0.06,-0.08,1721207398442
-0.19,5.94,8.08,0.21,-0.18,-0.12,1721207398452
0.85,3.75,10.92,0.02,0.16,-0.07,1721207398462
0.39,-5.17,11.41,-0.04,-0.09,0.02,1721207398472
0.01,-1.84,11.03,0.15,0.00,-0.07,1721207398482
0.50,-2.64,0.19,-0.03,-0.06,-0.03,1721207398492
-1.04,-1.54,17.04,-0.22,0.02,0.01,1721207398502
0.07,4.42,22.46,0.43,-0.00,0.00,1721207398512
0.48,1.52,-2.83,0.29,-0.16,0.06,1721207398522
0.00,0.81,13.13,-0.16,0.24,-0.13,1721207398532
-3.05,3.40,36.05,0.18,-0.04,-0.35,1721207398542
-4.50,5.46,4.33,0.54,-0.35,0.03,1721207398552
1.44,-5.09,-5.38,-0.02,0.26,0.32,1721207398562
5.74,-1.00,13.42,0.17,0.22,0.04,1721207398572
1.51,6.32,5.95,0.23,-0.06,-0.54,1721207398582
-4.13,1.99,12.45,-0.08,-0.21,-0.57,1721207398592
-5.26,2.48,11.81,0.24,0.06,-0.04,1721207398602
-0.69,-3.55,2.09,-0.15,0.07,0.31,1721207398612
1.49,2.07,10.28,-0.06,0.01,0.13,1721207398622
3.27,-4.25,7.53,-0.21,0.01,-0.39,1721207398632
-2.28,1.61,25.44,-0.07,-0.18,-0.46,1721207398642
-3.39,3.89,10.36,0.54,-0.12,0.04,1721207398652
1.04,-4.30,-6.41,-0.20,0.18,0.18,1721207398662
1.44,0.69,16.84,-0.26,0.12,-0.04,1721207398672
3.52,5.78,9.28,0.16,-0.01,-0.36,1721207398682
-3.03,-4.20,7.11,-0.33,-0.09,-0.18,1721207398697
-1.43,-5.63,15.50,-0.32,0.03,-0.07,1721207398701
0.25,-5.75,15.86,-0.12,-0.03,0.13,1721207398711
3.21,9.18,15.99,-0.02,0.20,-0.11,1721207398721
3.86,7.86,6.74,-0.03,-0.17,-0.28,1721207398731
0.00,-6.86,0.26,-0.24,-0.02,-0.58,1721207398741
-4.00,-6.02,8.68,-0.26,0.04,-0.48,1721207398751
-3.95,0.99,16.27,-0.25,0.02,-0.09,1721207398761
-0.74,2.98,17.94,-0.22,0.16,0.11,1721207398771
-0.57,3.83,9.33,0.06,-0.14,-0.10,1721207398781
0.21,-5.60,-0.54,-0.11,0.04,-0.07,1721207398791
2.62,-2.90,13.48,-0.19,0.30,-0.05,1721207398801
2.82,6.48,15.98,0.11,-0.05,-0.14,1721207398811
1.87,3.07,10.94,-0.09,0.04,-0.51,1721207398821
-3.92,1.77,11.57,0.07,-0.26,-0.40,1721207398831
-5.39,-1.14,3.97,0.09,0.08,-0.01,1721207398841
2.19,2.45,5.46,0.15,0.30,0.27,1721207398851
4.29,-3.19,7.29,-0.10,-0.01,-0.04,1721207398861
-1.12,-0.46,18.37,-0.18,-0.14,-0.60,1721207398871
-3.60,8.80,13.46,0.35,-0.04,-0.54,1721207398881
-4.84,-6.98,0.87,-0.32,-0.04,-0.03,1721207398891
-4.27,-5.94,28.23,-0.55,0.08,0.20,1721207398901
3.42,12.24,20.40,0.53,-0.01,0.30,1721207398911
2.39,-4.79,-16.53,0.10,-0.32,-0.06,1721207398921
-1.10,-10.25,17.76,-0.50,0.49,-0.35,1721207398931
6.00,6.51,25.87,0.20,0.55,-0.40,1721207398941
-1.32,15.95,4.51,0.58,-0.10,-0.23,1721207398951
-5.76,-7.87,0.95,-0.16,-0.05,-0.11,1721207398961
0.19,-6.03,7.77,0.04,0.28,0.11,1721207398971
1.05,9.06,15.08,0.23,0.23,0.04,1721207398981
1.53,4.06,7.40,0.11,-0.29,-0.20,1721207398991
-0.92,-10.67,2.42,-0.22,-0.02,-0.26,1721207399001
-3.18,-3.16,23.83,-0.13,0.15,-0.28,1721207399011
-1.91,10.61,13.61,0.51,-0.24,0.05,1721207399021
1.57,4.17,0.80,0.13,0.11,0.11,1721207399031
3.50,-3.01,8.44,-0.21,-0.32,0.01,1721207399041
-1.30,-2.35,12.16,0.05,-0.09,-0.09,1721207399051
1.23,2.59,15.27,0.06,0.04,-0.14,1721207399061
-1.08,5.95,5.36,0.17,-0.41,-0.09,1721207399071
-1.19,0.94,2.26,0.05,-0.03,0.05,1721207399081
2.49,-1.01,6.51,0.05,0.05,0.07,1721207399091
3.65,0.97,12.13,-0.04,-0.06,-0.08,1721207399101
2.13,4.19,12.27,0.06,-0.20,-0.25,1721207399111
-0.16,0.62,8.18,-0.13,-0.13,-0.40,1721207399121
-0.82,-2.97,10.58,-0.18,-0.12,-0.22,1721207399131
-2.50,-0.87,10.81,-0.14,-0.20,-0.12,1721207399140
-1.73,2.32,14.10,-0.04,-0.00,-0.04,1721207399150
-0.29,-0.37,3.68,-0.04,-0.16,0.05,1721207399160
1.94,-3.49,13.90,-0.34,0.18,-0.08,1721207399170
1.95,2.32,22.01,0.16,-0.20,-0.11,1721207399180
0.30,4.09,-2.90,0.24,-0.30,-0.15,1721207399190
-0.80,-5.64,3.00,-0.50,0.07,-0.21,1721207399200
-5.46,-5.04,27.72,-0.10,-0.13,-0.06,1721207399210
-1.55,1.04,20.12,0.24,-0.14,-0.16,1721207399220
-1.22,3.45,-1.38,-0.00,-0.24,-0.19,1721207399230
-1.31,-7.95,6.57,-0.50,0.09,-0.14,1721207399240
0.64,-2.96,25.44,-0.21,0.14,-0.17,1721207399250
-1.33,8.93,11.24,0.38,-0.42,-0.13,1721207399260
2.02,-1.45,-1.15,-0.35,0.27,-0.26,1721207399270
-4.74,-8.77,22.57,-0.51,0.15,-0.19,1721207399280
-0.71,8.48,17.35,0.13,-0.22,-0.25,1721207399290
0.34,-2.46,-5.43,-0.20,0.02,-0.17,1721207399300
0.14,-7.44,8.07,-0.29,-0.05,-0.09,1721207399310
2.72,4.78,15.90,0.09,0.41,-0.39,1721207399320
0.82,8.13,14.98,0.19,-0.15,-0.30,1721207399330
-0.43,3.39,5.98,0.01,0.09,-0.21,1721207399340
-0.54,-0.64,7.68,0.00,0.01,-0.27,1721207399350
-1.96,3.60,10.20,0.18,0.01,-0.46,1721207399360
-1.79,-2.30,6.95,0.02,-0.02,-0.24,1721207399370
-1.97,1.49,10.31,0.02,0.13,-0.06,1721207399380
0.80,3.85,7.44,0.14,-0.06,-0.15,1721207399390
2.15,-2.14,13.91,-0.34,0.15,-0.28,1721207399400
-0.71,5.01,21.82,0.07,-0.09,-0.40,1721207399410
-0.87,0.67,-7.86,0.29,-0.19,-0.30,1721207399420
-1.31,-11.26,3.78,-0.61,0.32,-0.28,1721207399430
-9.92,-3.18,31.87,-0.05,0.58,-0.20,1721207399440
-1.79,-2.61,12.44,0.53,-0.06,-0.03,1721207399450
1.64,6.43,9.35,0.06,0.35,-0.06,1721207399460
3.21,13.61,16.94,0.29,-0.04,-0.26,1721207399470
0.65,-0.81,0.51,0.04,-0.15,-0.39,1721207399480
-1.67,-6.29,2.80,-0.12,0.11,-0.42,1721207399490
-0.30,-5.72,10.07,-0.05,0.11,-0.27,1721207399500
-1.47,-0.86,18.38,0.06,0.00,-0.07,1721207399510
0.67,6.48,8.62,0.42,0.05,-0.05,1721207399520
3.78,-2.14,6.81,-0.11,0.20,-0.27,1721207399530
-0.25,-3.75,22.37,-0.08,0.01,-0.38,1721207399540
-2.82,3.94,12.71,0.42,0.07,-0.33,1721207399550
0.49,1.48,2.70,0.11,0.17,0.03,1721207399560
2.48,-0.26,16.53,0.02,0.23,0.14,1721207399570
4.94,3.22,12.75,0.42,0.24,-0.16,1721207399580
3.64,-1.70,1.77,0.19,0.08,-0.48,1721207399590
-1.76,5.04,18.36,0.24,0.20,-0.59,1721207399600
-1.54,13.05,2.89,0.78,0.14,-0.16,1721207399610
-0.05,-9.95,-5.49,-0.12,0.35,-0.25,1721207399620
-1.34,-7.89,17.18,-0.09,0.07,-0.25,1721207399630
0.26,4.25,19.13,0.42,-0.11,-0.27,1721207399640
-2.15,4.21,3.80,0.17,0.25,-0.23,1721207399650
-2.11,-4.59,10.09,-0.18,0.19,-0.11,1721207399660
-0.16,1.89,18.36,0.23,0.31,-0.15,1721207399670
1.64,5.95,-0.66,0.36,0.13,-0.25,1721207399680
0.51,0.68,-0.50,-0.27,0.35,-0.38,1721207399690
6.05,-1.92,16.34,-0.39,0.39,-0.48,1721207399700
-1.16,1.74,7.01,0.25,0.21,-0.33,1721207399710
0.17,-1.14,-1.42,-0.08,0.27,-0.15,1721207399720
0.01,-3.39,6.43,-0.43,0.32,-0.19,1721207399730
2.62,0.02,19.20,-0.23,0.21,-0.49,1721207399740
0.07,4.91,14.07,0.35,0.13,-0.50,1721207399750
-1.68,0.07,-1.99,-0.25,0.23,-0.41,1721207399760
-7.26,-3.85,13.80,-0.62,0.36,-0.25,1721207399770
-0.91,-8.13,16.39,-0.30,0.33,-0.06,1721207399780
2.68,-3.23,18.49,-0.26,0.39,-0.13,1721207399790
1.32,11.27,4.70,0.33,-0.02,-0.25,1721207399800
1.19,-3.24,-6.73,-0.46,0.41,-0.43,1721207399810
-3.11,-8.86,23.11,-0.61,0.12,-0.26,1721207399820
-5.24,8.77,33.73,0.31,-0.28,-0.09,1721207399830
0.06,7.83,-5.10,-0.15,0.29,-0.16,1721207399840
-4.47,-1.76,5.25,-0.53,0.05,-0.24,1721207399850
0.30,-4.79,15.46,-0.25,0.62,-0.16,1721207399860
-0.28,-2.88,11.29,-0.14,0.15,0.01,1721207399870
1.00,2.48,12.49,-0.18,0.35,-0.13,1721207399880
1.70,0.41,8.83,0.01,0.15,-0.22,1721207399890
-1.19,2.23,11.08,0.09,0.40,-0.39,1721207399900
-2.03,12.53,14.03,0.34,0.11,-0.16,1721207399910
-4.20,5.70,4.30,0.10,0.05,0.06,1721207399920
0.51,-8.99,13.00,-0.37,0.60,0.11,1721207399930
0.66,2.58,16.46,0.25,0.11,-0.01,1721207399940
1.38,-5.52,-2.49,0.12,0.15,-0.03,1721207399950
0.31,6.08,17.74,0.29,0.79,-0.14,1721207399960
0.15,16.68,16.77,0.58,0.11,-0.24,1721207399970
-2.15,-6.20,6.88,-0.23,0.15,-0.08,1721207399980
-2.27,-4.97,15.02,0.13,0.28,0.12,1721207399990
0.27,-1.72,-1.72,0.15,0.16,0.07,1721207400000
0.34,-3.80,21.92,-0.05,0.54,-0.14,1721207400010
-2.11,6.74,9.44,0.82,-0.11,-0.33,1721207400020
-4.65,-0.56,-9.79,0.27,0.46,-0.15,1721207400030
-1.13,-13.36,20.27,-0.43,0.28,0.48,1721207400040
-4.86,-8.87,50.48,0.05,0.10,0.39,1721207400050
-0.51,21.00,9.55,1.15,-0.65,-0.12,1721207400060
2.72,-1.48,-33.47,0.31,0.01,-0.32,1721207400070
-4.40,-20.23,9.79,-0.97,0.89,-0.15,1721207400080
2.87,-0.71,52.90,-0.80,1.42,-0.25,1721207400090
-2.58,12.31,19.69,0.95,0.02,-0.38,1721207400100
-7.51,-16.18,-20.86,-0.31,-0.08,0.11,1721207400110
-1.44,5.52,25.12,0.14,0.39,0.56,1721207400120
-2.67,7.40,-8.71,0.12,-1.13,0.37,1721207400130
9.21,-12.14,27.72,-1.03,1.14,-0.24,1721207400140
8.79,24.94,40.55,1.07,-1.35,0.01,1721207400150
1.94,-9.73,-34.20,0.25,0.12,-0.16,1721207400160
-5.47,6.85,21.44,-0.49,0.94,0.01,1721207400170
0.24,10.82,18.94,0.31,-0.91,0.24,1721207400180
5.49,-2.87,-10.16,0.06,0.63,0.23,1721207400190
1.26,-6.29,12.62,-0.06,-0.19,0.08,1721207400200
-0.62,1.84,16.26,0.10,-0.30,-0.06,1721207400210
-2.08,14.42,10.15,0.39,0.10,-0.08,1721207400220
-1.30,-2.93,-8.41,-0.15,-0.19,0.21,1721207400230
-2.52,-15.85,20.65,-0.76,0.34,0.34,1721207400240
1.53,4.11,39.18,0.13,0.17,0.22,1721207400250
0.01,3.19,2.12,0.09,-0.34,0.06,1721207400260
2.51,5.59,15.70,-0.37,0.36,0.03,1721207400270
0.09,6.61,7.41,0.62,-0.20,0.36,1721207400280
3.70,1.63,-4.91,0.12,0.41,0.26,1721207400290
2.45,-3.37,9.18,-0.24,-0.01,0.02,1721207400300
12.52,2.19,11.03,-0.31,0.09,-0.24,1721207400310
-1.27,0.45,5.36,0.27,0.27,-0.01,1721207400320
-0.93,-4.70,3.58,-0.13,-0.00,0.44,1721207400330
0.10,4.31,16.10,-0.02,0.14,0.27,1721207400340
0.25,-4.60,5.16,-0.14,-0.24,0.03,1721207400350
-0.86,1.73,14.88,-0.14,0.32,-0.06,1721207400360
-0.02,-0.80,6.24,0.14,-0.15,0.26,1721207400370
-1.70,0.89,-1.84,-0.10,-0.15,0.41,1721207400380
4.86,-4.38,12.18,-0.42,0.48,0.20,1721207400390
4.06,-2.95,30.83,-0.29,-0.12,-0.05,1721207400400
-4.20,5.69,12.79,0.15,-0.43,-0.22,1721207400410
-2.55,1.85,-2.13,-0.26,0.14,0.09,1721207400420
-0.12,2.36,6.59,-0.18,0.03,0.48,1721207400430
2.43,-3.72,10.30,-0.23,0.15,0.33,1721207400440
1.48,2.08,13.79,-0.12,-0.11,-0.05,1721207400450
0.85,3.88,10.36,-0.04,-0.09,-0.06,1721207400460
0.55,-0.49,13.54,-0.28,-0.03,0.11,1721207400470
0.35,7.91,16.56,0.06,-0.04,0.20,1721207400480
2.09,2.57,2.91,0.18,-0.06,0.12,1721207400490
0.20,-4.24,3.60,-0.10,0.07,-0.04,1721207400500
-0.70,1.91,16.35,0.07,0.00,-0.11,1721207400510
0.33,-0.36,8.51,0.21,-0.13,0.06,1721207400520
-0.07,2.86,7.45,0.15,-0.03,0.18,1721207400530
2.12,0.38,10.62,0.08,0.09,0.03,1721207400540
2.08,3.54,14.29,0.17,-0.00,-0.20,1721207400550
-0.49,-0.19,8.58,0.08,-0.09,-0.27,1721207400560
-3.50,-2.93,10.81,-0.04,0.00,-0.20,1721207400570
-2.70,0.08,10.58,0.12,0.01,0.19,1721207400580
0.61,-3.19,9.21,-0.10,0.09,0.24,1721207400590
2.60,2.03,13.27,0.15,0.02,0.01,1721207400600
2.60,-0.99,6.05,0.08,0.00,-0.18,1721207400610
-0.94,-1.45,10.91,-0.07,-0.03,-0.20,1721207400620
-2.47,0.63,15.90,0.06,0.11,-0.09,1721207400630
-1.20,-0.98,8.01,0.20,-0.01,0.18,1721207400640
-3.11,-5.03,2.83,-0.13,-0.21,-0.23,1721207401186
-1.77,-4.44,11.63,-0.16,0.16,-0.05,1721207401191
-3.93,4.58,20.94,0.11,-0.13,0.15,1721207401201
-1.39,-1.03,5.41,0.06,-0.14,0.31,1721207401211
1.25,-8.94,6.78,-0.15,0.01,0.20,1721207401221
0.80,0.02,15.40,0.03,-0.18,0.08,1721207401231
-0.02,8.78,9.13,0.31,-0.22,-0.09,1721207401241
-2.17,4.31,-1.60,0.13,-0.19,-0.08,1721207401251
0.60,-4.42,9.46,-0.20,0.26,0.10,1721207401261
0.09,-2.70,9.94,-0.09,-0.23,0.24,1721207401271
0.22,2.76,11.65,-0.13,-0.02,-0.06,1721207401281
2.72,3.30,12.36,0.15,-0.10,-0.06,1721207401291
0.79,-1.80,3.36,-0.12,-0.26,0.08,1721207401301
-1.03,7.18,15.85,-0.07,-0.04,-0.03,1721207401311
2.34,-0.92,8.34,-0.12,-0.12,0.10,1721207401321
1.75,-2.68,27.22,-0.69,0.32,-0.12,1721207401331
-2.35,1.87,17.51,0.14,-0.59,-0.19,1721207401341
-3.82,-7.11,-11.74,-0.15,-0.09,0.04,1721207401351
0.08,-2.08,20.98,-0.19,0.37,0.32,1721207401361
4.60,9.95,5.86,0.41,-0.64,0.44,1721207401371
4.95,12.39,9.27,0.15,0.35,-0.11,1721207401381
3.65,2.49,7.16,0.07,-0.39,-0.30,1721207401391
-3.21,-5.21,-1.44,-0.33,-0.16,-0.21,1721207401401
-5.02,-1.29,15.60,-0.33,0.19,-0.09,1721207401411
-2.72,-3.33,10.49,0.08,-0.18,0.12,1721207401421
-1.27,-2.07,5.95,-0.02,-0.09,0.40,1721207401431
2.61,2.55,10.16,-0.05,0.07,0.23,1721207401441
4.13,0.95,12.80,-0.11,-0.03,-0.08,1721207401451
0.00,-1.41,10.20,-0.17,-0.08,-0.34,1721207401461
-4.34,1.92,9.92,0.04,-0.19,-0.16,1721207401471
-3.58,-6.51,8.55,-0.29,0.01,0.20,1721207401481
-1.97,-3.71,23.56,-0.31,-0.11,0.33,1721207401491
2.73,9.97,18.96,0.10,-0.09,0.18,1721207401501
3.47,2.96,-0.38,-0.01,-0.20,0.03,1721207401511
2.55,3.47,7.69,-0.14,0.04,-0.15,1721207401521
-0.63,-1.02,2.60,0.30,-0.19,-0.07,1721207401531
-2.18,-0.02,4.90,0.12,0.05,-0.12,1721207401541
-1.73,2.65,17.99,0.07,-0.21,0.13,1721207401551
-1.01,1.50,11.77,0.07,-0.27,0.39,1721207401561
3.55,-0.57,8.23,0.02,0.10,0.24,1721207401571
4.11,-0.02,9.56,0.10,-0.21,0.00,1721207401581
1.56,1.05,6.74,0.24,-0.21,-0.17,1721207401591
1.19,-2.60,8.20,0.15,-0.01,-0.20,1721207401601
-2.16,0.04,14.80,0.10,-0.12,-0.19,1721207401611
-2.46,2.39,12.12,0.26,-0.18,0.02,1721207401621
-0.04,3.82,3.56,0.27,-0.05,0.21,1721207401631
3.90,-2.58,7.22,0.07,0.13,0.07,1721207401641
2.27,-0.25,17.49,0.09,-0.06,-0.22,1721207401651
-0.59,6.08,12.47,0.34,-0.26,-0.28,1721207401661
-0.02,-4.00,1.57,-0.07,0.11,-0.23,1721207401671
-1.86,-1.30,12.39,0.01,-0.14,-0.03,1721207401681
-0.87,3.43,8.81,0.24,-0.05,0.12,1721207401691
2.39,-5.04,7.40,0.03,0.09,0.03,1721207401701
2.78,1.06,13.60,0.19,-0.00,-0.14,1721207401711
0.70,2.61,7.97,0.17,-0.13,-0.24,1721207401721
-0.90,2.35,15.13,0.01,0.11,-0.23,1721207401731
0.00,-4.50,7.76,0.14,-0.09,0.05,1721207401741
0.43,-0.75,4.15,-0.01,0.05,-0.03,1721207401751
2.45,3.03,14.06,0.03,0.12,-0.28,1721207401761
0.58,-5.57,12.04,-0.06,-0.03,-0.36,1721207401771
-3.93,2.63,14.20,0.24,-0.05,-0.21,1721207401781
0.26,2.19,1.93,0.13,0.27,-0.03,1721207401791
2.36,-0.65,10.66,-0.12,0.06,-0.07,1721207401801
0.05,-0.82,11.79,0.11,-0.01,-0.38,1721207401811
-1.51,-1.79,6.06,0.01,0.11,-0.40,1721207401821
-2.13,-2.43,19.97,-0.19,0.15,-0.24,1721207401831
-1.90,2.57,13.24,0.28,-0.04,-0.09,1721207401841
1.08,3.68,-0.80,-0.00,0.23,-0.04,1721207401851
5.53,-2.99,11.08,-0.39,0.30,-0.25,1721207401861
0.15,-0.17,14.47,-0.02,-0.06,-0.54,1721207401871
-1.51,3.99,9.47,0.02,0.23,-0.56,1721207401881
-3.79,-2.50,6.89,-0.25,0.02,-0.25,1721207401891
-4.73,4.33,19.27,-0.19,0.09,-0.08,1721207401901
0.29,0.15,6.01,0.12,0.01,0.04,1721207401911
2.47,-0.89,1.60,-0.32,0.30,-0.10,1721207401921
2.36,-0.27,19.49,-0.33,0.24,-0.51,1721207401931
-0.39,1.81,11.04,0.24,-0.13,-0.37,1721207401941
-2.75,-1.47,-2.19,-0.04,0.18,-0.19,1721207401951
-2.74,-4.80,18.70,-0.32,0.32,-0.11,1721207401961
0.65,9.77,20.60,0.25,0.09,0.01,1721207401971
2.95,0.64,3.16,-0.16,0.07,-0.05,1721207401981
-0.70,-2.40,9.53,-0.33,0.07,-0.43,1721207401991
0.91,-5.20,8.59,-0.13,0.25,-0.33,1721207402001
-0.13,-4.22,12.30,-0.25,0.23,-0.14,1721207402011
-1.96,1.71,11.78,0.09,0.05,-0.21,1721207402021
-0.19,3.24,5.39,0.12,0.18,-0.25,1721207402031
-1.67,1.34,11.63,-0.06,0.10,-0.09,1721207402041
-0.86,4.84,15.18,-0.00,0.21,0.01,1721207402051
2.16,3.67,10.38,0.04,0.15,0.01,1721207402061
1.07,-3.30,5.86,-0.16,0.09,-0.13,1721207402071
-0.82,-3.26,11.94,-0.17,0.29,-0.23,1721207402081
0.20,7.83,12.69,0.25,0.11,-0.17,1721207402091
-1.36,-0.82,3.34,0.07,-0.03,-0.10,1721207402101
-4.78,1.02,13.11,-0.06,0.28,-0.11,1721207402111
-1.21,3.96,13.89,0.22,0.22,0.02,1721207402121
-0.71,-5.54,1.93,-0.01,0.02,0.14,1721207402131
0.43,-4.57,14.99,-0.19,0.58,-0.01,1721207402141
2.07,6.85,22.61,0.18,0.13,-0.15,1721207402151
-1.13,5.87,8.18,0.31,-0.16,-0.09,1721207402161
-2.29,-2.03,4.87,-0.06,0.24,0.01,1721207402171
1.18,0.22,16.47,0.07,0.28,0.11,1721207402181
-0.68,3.99,1.08,0.35,-0.25,0.05,1721207402191
-1.13,-0.89,1.82,-0.05,0.33,-0.15,1721207402201
-0.82,0.01,17.77,0.05,0.12,-0.13,1721207402211
-2.91,-4.74,1.41,0.16,-0.18,0.12,1721207402221
-0.68,-5.80,12.42,-0.36,0.61,0.10,1721207402231
2.87,3.58,32.02,-0.08,0.17,-0.03,1721207402241
-0.11,0.23,7.18,0.34,-0.40,-0.06,1721207402251
-1.99,-3.20,0.32,-0.00,0.30,-0.11,1721207402261
-2.14,6.49,11.73,0.13,-0.11,0.02,1721207402271
-0.84,3.30,9.75,0.19,0.12,0.11,1721207402281
-1.00,-1.74,7.52,-0.12,0.00,0.02,1721207402291
-2.26,-4.92,8.86,-0.13,-0.10,0.03,1721207402301
0.09,-1.47,11.32,0.08,0.16,0.19,1721207402311
2.11,2.90,11.89,0.16,0.08,0.13,1721207402321
1.27,5.70,17.79,0.10,0.06,-0.07,1721207402331
0.95,4.04,16.48,0.35,-0.15,0.03,1721207402341
-1.71,4.47,1.82,0.05,-0.18,0.10,1721207402351
-1.15,3.65,11.82,-0.18,0.07,0.02,1721207402361
1.11,-5.18,10.47,-0.05,-0.14,0.11,1721207402371
1.14,0.21,16.98,0.06,0.20,-0.04,1721207402381
0.24,1.51,8.01,0.28,-0.34,-0.03,1721207402391
-2.06,1.09,-3.31,0.13,0.02,0.19,1721207402401
3.14,-4.11,15.05,-0.04,0.61,0.09,1721207402411
1.03,12.36,16.60,0.57,-0.39,0.09,1721207402421
0.30,5.76,-9.95,0.25,-0.05,0.01,1721207402431
3.08,-10.52,11.64,-0.61,0.28,0.10,1721207402441
-2.67,-3.66,34.79,0.25,-0.78,0.14,1721207402451
1.06,-4.11,4.91,0.19,0.20,-0.39,1721207402461
-4.61,6.96,17.22,0.15,-0.20,-0.28,1721207402471
-5.83,6.70,0.55,0.32,-0.15,0.21,1721207402481
-1.00,-4.70,-0.62,-0.34,0.32,0.29,1721207402491
1.46,-7.45,14.41,-0.29,-0.01,-0.05,1721207402501
-2.49,-1.98,14.94,0.01,-0.09,-0.10,1721207402511
-2.83,8.27,6.28,0.42,-0.24,0.32,1721207402521
3.48,-6.31,10.06,-0.46,0.41,0.52,1721207402531
4.71,2.52,36.46,0.02,-0.02,0.16,1721207402541
1.40,11.06,-1.60,0.38,-0.57,-0.35,1721207402551
2.90,3.09,1.02,-0.75,0.68,-0.57,1721207402561
-3.60,1.95,19.33,-0.00,-0.46,0.10,1721207402571
-0.43,-9.70,-19.99,0.26,-0.44,0.38,1721207402581
1.89,-4.95,9.60,-0.50,0.88,0.09,1721207402591
-4.82,-4.25,28.25,-0.31,-0.16,-0.16,1721207402601
-2.83,9.40,20.01,0.30,-0.91,-0.10,1721207402611
-2.74,-2.83,-5.61,-0.12,0.17,-0.12,1721207402621
-4.66,-5.43,-1.24,0.02,-0.12,0.25,1721207402631
2.68,-12.81,3.31,-0.54,0.27,0.19,1721207402641
1.09,2.11,29.10,-0.35,-0.20,-0.12,1721207402651
-1.50,1.78,8.08,0.20,-0.39,-0.01,1721207402661
0.23,-0.82,2.70,-0.43,0.23,0.07,1721207402671
-1.72,5.81,13.19,0.09,-0.11,0.23,1721207402681
3.00,-8.77,4.12,-0.49,0.12,-0.08,1721207402691
-3.98,4.50,27.43,-0.27,-0.28,-0.37,1721207402701
-4.99,-1.56,6.98,0.09,-0.24,-0.11,1721207402711
-2.30,0.58,9.32,-0.44,0.14,0.26,1721207402721
1.55,-1.93,21.11,-0.28,-0.05,0.48,1721207402731
2.39,2.02,16.09,0.03,-0.09,0.23,1721207402741
4.20,3.19,6.50,0.20,-0.10,0.04,1721207402751
2.39,3.60,10.19,-0.01,0.03,-0.24,1721207402761
-0.75,6.00,17.82,0.16,-0.15,-0.30,1721207402771
-1.45,-1.82,8.37,0.21,-0.17,0.00,1721207402781
-0.99,1.91,10.38,0.17,0.08,0.14,1721207402791
1.66,3.11,10.57,0.34,-0.01,0.12,1721207402801
3.09,-3.28,9.59,0.22,-0.03,-0.00,1721207402811
0.82,-1.84,13.68,0.23,-0.03,-0.19,1721207402821
-1.50,9.79,12.06,0.55,-0.05,-0.24,1721207402831
0.04,-0.64,1.03,0.39,-0.01,0.03,1721207402841
1.12,-13.31,2.93,0.12,0.13,0.02,1721207402851
0.11,1.70,15.45,0.44,0.06,-0.13,1721207402861
0.91,15.10,12.20,0.68,-0.02,-0.01,1721207402871
2.91,3.04,3.99,0.16,0.13,0.05,1721207402881
3.01,-8.30,9.42,-0.24,0.15,-0.19,1721207402891
0.59,0.32,14.60,0.10,-0.03,-0.43,1721207402901
-1.33,-4.92,4.32,-0.03,0.12,-0.38,1721207402911
-2.86,-4.36,6.24,0.20,0.13,-0.14,1721207402921
-1.49,-5.10,-0.38,0.18,0.12,0.01,1721207402931
-0.47,-0.36,25.32,-0.05,0.35,-0.22,1721207402941
-1.46,11.00,27.45,0.53,-0.09,-0.27,1721207402951
-2.58,3.55,-1.68,-0.01,0.01,-0.10,1721207402961
-1.22,-6.70,7.79,-0.55,0.34,0.08,1721207402971
1.34,-0.39,18.66,0.00,0.06,-0.06,1721207402981
2.38,1.69,1.23,0.28,-0.02,-0.25,1721207402991
0.16,-2.40,-2.06,-0.11,0.13,-0.37,1721207403001
0.86,-0.70,14.01,-0.23,0.29,-0.42,1721207403011
-2.24,16.50,17.66,0.56,0.05,-0.10,1721207403021
-0.91,7.52,-20.06,0.30,-0.10,0.29,1721207403031
-2.08,-21.08,-4.41,-1.48,0.63,-0.03,1721207403041
16.94,-0.34,57.43,-0.47,1.03,-0.45,1721207403051
2.86,4.98,32.05,1.10,-0.22,-0.15,1721207403061
-0.30,2.12,-16.66,-0.49,0.02,-0.12,1721207403071
-1.55,13.00,21.17,-0.32,0.15,-0.13,1721207403081
-2.42,-8.74,8.75,0.38,-0.73,-0.00,1721207403091
1.98,-6.72,-10.30,-0.23,0.65,-0.15,1721207403101
-0.27,3.65,11.11,-0.11,0.27,-0.44,1721207403111
-5.49,-8.85,15.82,-0.44,-0.08,-0.21,1721207403121
-5.68,0.29,29.44,-0.14,0.08,0.19,1721207403131
0.81,10.84,14.37,0.44,0.03,0.37,1721207403141
3.44,3.56,-4.80,-0.22,0.05,0.20,1721207403151
4.65,-12.24,6.53,-0.47,0.29,-0.17,1721207403161
2.50,-2.75,14.31,0.17,-0.06,-0.44,1721207403171
-3.88,2.75,-6.42,0.33,-0.26,-0.37,1721207403181
-4.28,2.04,26.18,-0.46,0.26,0.09,1721207403196
-0.14,16.96,33.37,0.10,0.13,0.19,1721207403200
-2.14,-5.51,-3.18,0.13,-0.30,0.39,1721207403210
3.52,-6.83,5.51,-0.51,0.63,0.28,1721207403220
10.59,7.34,0.82,-0.09,0.69,-0.22,1721207403230
1.27,2.60,19.39,0.02,0.15,-0.70,1721207403240
-6.46,2.81,16.19,0.09,-0.30,-0.36,1721207403250
-7.50,-9.46,1.04,-0.11,0.07,0.23,1721207403260
-0.12,-1.10,18.67,-0.17,0.48,0.66,1721207403270
6.05,9.96,14.87,0.43,-0.03,0.36,1721207403280
5.13,0.55,2.09,0.21,-0.14,-0.15,1721207403290
1.19,-10.81,9.66,0.03,0.10,-0.33,1721207403300
-2.50,4.84,18.43,0.30,0.01,-0.20,1721207403310
-4.34,14.31,18.44,0.19,0.05,-0.15,1721207403320
-4.41,5.14,6.50,0.23,-0.22,0.04,1721207403330
-1.94,-10.48,-5.66,0.24,0.00,0.36,1721207403340
1.31,-9.11,4.92,-0.11,0.24,0.44,1721207403350
-2.18,8.44,22.19,0.25,-0.11,-0.09,1721207403360
0.16,1.95,14.73,0.40,-0.50,-0.40,1721207403370
-4.35,-0.97,3.93,0.08,0.06,-0.29,1721207403380
-2.17,1.07,11.91,0.23,0.19,0.23,1721207403390
0.96,-6.09,2.29,-0.13,-0.14,0.44,1721207403400
0.45,3.55,17.48,0.03,0.15,0.02,1721207403410
3.60,-3.13,10.21,0.31,-0.14,-0.41,1721207403420
-3.80,2.17,9.31,0.24,-0.20,-0.29,1721207403430
-6.09,5.43,2.94,0.37,-0.02,0.11,1721207403440
-0.57,-5.11,1.55,-0.21,0.11,0.35,1721207403450
1.43,7.26,20.32,0.18,0.03,0.17,1721207403460
5.11,5.89,2.52,0.46,-0.19,-0.05,1721207403470
0.74,-0.15,-17.16,-0.14,-0.20,-0.16,1721207403480
2.67,-14.04,24.92,-1.38,0.78,-0.31,1721207403490
5.74,17.62,52.58,0.38,-1.46,0.11,1721207403500
1.92,-4.66,-15.68,0.74,0.12,0.02,1721207403510
-3.32,2.10,-0.09,-0.53,0.53,-0.04,1721207403520
5.74,1.07,18.54,-0.05,-0.20,0.12,1721207403530
-0.32,5.25,22.62,0.09,0.56,-0.07,1721207403540
-1.64,6.94,5.26,0.37,-0.21,-0.33,1721207403550
-2.01,1.93,3.44,-0.19,0.30,-0.17,1721207403560
-1.13,5.04,11.62,-0.04,-0.04,0.28,1721207403570
-0.54,-3.47,-5.22,-0.19,-0.12,0.13,1721207403580
6.00,-6.06,16.22,-0.39,0.26,0.04,1721207403590
5.48,3.23,16.46,0.37,-0.02,-0.14,1721207403600
1.20,-3.39,1.70,-0.28,0.04,-0.48,1721207403610
-6.44,7.85,15.03,-0.07,-0.23,-0.40,1721207403620
-4.78,-4.49,-0.04,-0.22,0.20,0.06,1721207403630
-3.78,-10.35,19.84,-0.52,0.19,0.27,1721207403640
-1.75,2.70,15.42,0.10,-0.08,0.26,1721207403650
2.26,0.99,11.14,-0.45,0.14,0.15,1721207403660
0.17,1.53,16.56,-0.46,-0.25,0.09,1721207403670
0.12,0.70,10.69,-0.32,0.06,-0.10,1721207403680
0.21,1.04,3.41,-0.08,-0.11,0.07,1721207403690
-0.22,-3.36,4.56,-0.38,0.19,0.02,1721207403700
-2.08,0.65,14.43,-0.15,-0.10,-0.04,1721207403710
-2.01,2.23,10.18,-0.04,-0.11,0.04,1721207403720
-0.82,2.22,12.18,-0.14,0.05,0.21,1721207403730
1.19,7.11,15.78,0.01,-0.05,0.36,1721207403740
1.67,4.17,8.57,0.11,-0.15,0.16,1721207403750
0.97,-8.00,5.47,-0.18,-0.07,-0.13,1721207403760
-1.23,1.37,15.26,-0.06,-0.04,-0.25,1721207403770
-1.67,7.21,13.35,0.28,-0.23,0.07,1721207403780
-2.03,1.10,2.53,0.29,-0.08,0.32,1721207403790
0.99,-1.83,5.75,0.22,0.03,0.30,1721207403800
1.81,3.65,15.46,0.23,-0.15,0.13,1721207403810
1.79,3.08,12.23,0.10,-0.17,0.02,1721207403820
0.29,-2.14,14.74,-0.08,-0.11,-0.08,1721207403830
-1.14,-2.02,11.96,0.14,-0.27,0.15,1721207403840
0.32,-3.68,5.18,0.17,-0.05,0.19,1721207403850
2.45,0.57,10.55,0.31,-0.07,0.11,1721207403860
3.69,0.90,13.37,0.34,-0.06,-0.01,1721207403870
1.61,2.32,7.80,0.42,-0.20,-0.02,1721207403880
0.04,3.66,5.48,0.23,0.08,-0.20,1721207403890
0.23,-3.65,11.24,0.00,-0.16,-0.11,1721207403900
-0.60,-3.84,15.60,0.16,-0.07,0.05,1721207403910
1.80,-2.78,10.35,0.21,0.12,0.07,1721207403920
1.56,2.05,8.54,0.26,-0.14,-0.03,1721207403930
2.22,3.96,7.32,0.27,0.11,-0.19,1721207403939
1.68,-3.24,8.32,0.05,-0.05,-0.25,1721207403949
-2.30,0.18,12.78,0.15,-0.09,-0.20,1721207403959
-0.70,0.77,8.46,0.26,0.10,-0.09,1721207403969
1.18,0.57,3.56,0.06,0.02,0.02,1721207403979
0.61,-5.53,12.71,-0.28,0.07,-0.16,1721207403989
-0.49,-4.69,21.95,0.17,0.00,-0.30,1721207403999
-0.71,4.99,9.42,0.47,0.03,-0.13,1721207404009
0.25,5.64,3.39,0.17,0.11,-0.10,1721207404019
0.04,1.43,5.74,-0.07,0.07,-0.21,1721207404029
-0.92,1.12,11.25,-0.08,0.12,-0.37,1721207404039
-2.43,6.66,10.59,0.00,-0.01,-0.23,1721207404049
-1.36,-1.91,6.70,-0.43,0.12,-0.02,1721207404059
-0.90,1.39,19.20,-0.42,0.08,-0.11,1721207404069
1.34,-3.94,10.32,-0.24,-0.09,-0.14,1721207404079
1.94,-10.22,4.33,-0.43,0.16,-0.10,1721207404089
0.18,-0.24,11.04,-0.13,0.07,-0.37,1721207404099
-1.42,4.24,9.63,0.13,-0.03,-0.41,1721207404109
-3.33,2.14,10.26,-0.10,0.10,-0.29,1721207404119
-4.50,2.20,15.62,-0.11,-0.10,-0.02,1721207404129
-1.43,-1.01,10.68,-0.27,0.05,0.26,1721207404139
5.32,-2.10,13.67,-0.26,0.21,0.19,1721207404149
6.34,1.20,11.24,-0.02,-0.00,-0.21,1721207404159
2.07,3.39,-0.40,0.17,-0.10,-0.55,1721207404169
-1.48,-3.36,3.01,-0.22,0.19,-0.63,1721207404179
-1.34,-2.60,14.67,-0.25,-0.33,-0.23,1721207404189
-3.37,4.30,14.65,0.24,0.21,0.19,1721207404199
1.93,3.76,6.21,0.07,0.08,0.36,1721207404209
2.81,-7.90,13.36,-0.52,0.11,0.07,1721207404219
2.53,-2.04,30.04,-0.22,0.07,-0.27,1721207404229
1.95,4.10,15.63,0.15,-0.02,-0.32,1721207404239
-0.43,9.25,14.59,-0.00,0.24,-0.35,1721207404249
-3.87,5.64,6.20,0.44,-0.24,-0.14,1721207404259
-3.89,4.30,-8.27,0.59,0.07,0.11,1721207404269
2.70,-7.14,2.73,-0.09,0.48,0.02,1721207404279
-0.16,7.85,15.78,0.24,0.25,-0.18,1721207404289
3.08,-3.77,-2.84,0.24,0.17,-0.23,1721207404299
0.76,-7.42,21.16,-0.32,0.32,-0.14,1721207404309
-2.30,2.77,23.51,0.41,-0.02,-0.09,1721207404319
2.27,4.33,2.48,0.33,0.15,0.01,1721207404329
0.56,-2.82,1.72,-0.13,-0.05,-0.06,1721207404339
-0.49,-1.90,13.96,-0.06,0.15,-0.20,1721207404349
0.92,-1.49,13.66,0.12,0.14,-0.31,1721207404359
-2.34,-0.20,4.78,0.06,-0.05,-0.25,1721207404369
-3.42,-4.04,10.35,-0.26,0.21,-0.10,1721207404379
-2.03,0.77,18.31,-0.03,-0.01,0.12,1721207404389
0.23,-0.71,8.80,0.02,0.08,-0.01,1721207404399
0.35,0.62,7.13,-0.13,-0.06,-0.13,1721207404409
0.58,-1.90,10.22,-0.21,0.14,-0.20,1721207404419
0.20,-1.32,16.59,-0.15,0.13,-0.25,1721207404429
-2.38,1.12,9.90,-0.02,-0.15,-0.21,1721207404439
-0.09,-1.24,18.19,-0.16,0.42,-0.14,1721207404449
-1.50,3.58,13.33,0.17,-0.26,-0.03,1721207404459
-2.54,3.41,0.65,-0.05,-0.01,-0.09,1721207404469
0.58,1.78,13.86,-0.02,0.27,-0.12,1721207404479
-2.54,-1.02,4.95,0.08,-0.31,-0.09,1721207404489
-3.83,-2.46,8.50,-0.16,0.19,-0.04,1721207404499
0.21,4.53,19.42,0.21,0.19,0.05,1721207404509
1.84,2.94,8.17,0.17,-0.12,0.04,1721207404519
-0.98,1.31,10.00,-0.01,-0.07,-0.07,1721207404529
-0.49,0.19,9.88,0.17,-0.01,-0.03,1721207404539
0.96,-0.49,11.55,0.10,0.04,0.07,1721207404549
1.04,3.79,10.67,0.26,-0.18,0.10,1721207404559
1.64,1.54,3.81,0.15,-0.04,0.04,1721207404569
1.99,0.63,9.26,0.03,0.05,-0.08,1721207404579
2.53,-2.12,13.57,0.08,0.05,-0.14,1721207404589
0.35,-0.58,12.85,0.06,-0.06,-0.15,1721207404599
-1.43,2.61,16.70,0.08,0.04,-0.12,1721207404609
-1.29,3.07,9.88,0.25,0.00,-0.02,1721207404619
-1.23,-2.15,1.36,-0.06,-0.05,0.04,1721207404629
-0.38,-2.34,9.95,-0.08,0.12,0.10,1721207404639
1.44,-0.39,9.80,0.10,0.03,0.06,1721207404649
2.47,-3.19,9.95,-0.08,0.01,-0.01,1721207404659
2.57,-0.45,12.25,0.17,0.01,-0.11,1721207404669
3.22,1.22,5.67,0.07,0.19,-0.27,1721207404679
-2.23,-0.87,12.40,-0.25,0.11,-0.40,1721207404689
-6.32,-2.28,14.93,-0.06,-0.00,-0.39,1721207404699
-5.31,-2.94,9.51,-0.08,0.16,-0.05,1721207404709
-2.69,0.90,8.60,-0.03,0.09,0.29,1721207404719
1.19,-0.26,3.06,-0.25,0.07,0.18,1721207404729
2.39,0.04,15.28,-0.36,0.19,-0.13,1721207404739
-0.19,0.20,13.45,-0.17,-0.15,-0.34,1721207404749
-2.49,-2.16,6.46,-0.40,0.09,-0.33,1721207404759
-3.64,-1.79,13.44,-0.44,0.04,-0.04,1721207404769
-3.64,1.12,10.35,-0.29,-0.02,0.00,1721207404779
-1.18,2.89,7.60,-0.20,-0.01,0.17,1721207404789
1.11,4.64,8.43,-0.13,0.11,0.16,1721207404799
2.00,1.56,9.00,-0.20,0.02,-0.00,1721207404809
1.80,2.39,12.67,-0.26,-0.01,-0.14,1721207404819
-0.48,5.13,11.32,-0.00,-0.13,-0.18,1721207404829
-1.50,-1.64,5.67,-0.06,-0.04,-0.11,1721207404839
-2.75,0.37,10.70,-0.06,0.02,0.04,1721207404849
-1.39,4.98,12.47,0.13,0.01,0.12,1721207404859
0.78,2.20,8.91,0.02,-0.00,0.14,1721207404869
0.96,2.00,11.57,-0.03,-0.05,0.11,1721207404879
1.20,-0.88,10.66,-0.01,-0.06,0.07,1721207404889
1.15,1.16,11.71,0.02,-0.04,-0.02,1721207404899
1.36,0.36,10.93,0.07,-0.01,0.03,1721207404909
0.08,2.12,14.17,0.07,-0.06,0.02,1721207404919
1.28,2.83,11.07,0.18,-0.01,-0.04,1721207404929
0.91,0.82,6.81,0.12,-0.03,-0.07,1721207404939
0.38,1.11,10.27,0.15,0.04,-0.07,1721207404949
0.88,0.21,12.40,0.18,0.01,-0.03,1721207404959
1.07,1.78,12.31,0.20,-0.03,0.04,1721207404969
1.62,1.86,10.14,0.19,0.04,0.00,1721207404979
1.85,-4.18,8.38,0.06,0.04,-0.09,1721207404989
0.66,3.83,13.04,0.29,0.05,-0.13,1721207404999
1.35,0.41,6.95,0.30,0.04,-0.11,1721207405009
1.05,-2.43,10.80,0.22,0.13,-0.06,1721207405019
1.51,2.54,11.11,0.41,0.11,-0.09,1721207405029
0.90,-2.21,7.59,0.11,0.12,-0.25,1721207405039
-0.34,-0.29,16.03,0.14,0.10,-0.29,1721207405049
-1.21,1.63,11.13,0.35,0.08,-0.22,1721207405059
-0.91,0.11,4.25,0.22,0.15,-0.17,1721207405069
-0.27,-3.62,9.11,0.07,0.19,-0.22,1721207405079
-0.09,0.24,14.54,0.22,0.16,-0.26,1721207405089
-0.43,4.38,7.13,0.19,0.07,-0.25,1721207405099
-1.38,-1.99,6.95,-0.00,0.09,-0.15,1721207405109
-0.11,-0.73,14.43,0.03,0.25,-0.12,1721207405119
0.22,0.00,9.20,0.09,0.09,-0.21,1721207405129
-1.60,-0.21,5.29,-0.11,0.07,-0.23,1721207405139
-2.03,-1.62,13.21,-0.15,0.24,-0.15,1721207405149
-0.51,2.79,14.11,0.16,0.14,0.11,1721207405159
1.60,5.99,3.61,0.07,0.18,0.01,1721207405169
1.67,0.21,9.17,-0.28,0.16,-0.23,1721207405179
-0.15,0.82,13.92,-0.06,0.07,-0.20,1721207405189
-1.31,0.96,6.10,-0.19,0.21,-0.24,1721207405204
-2.82,3.25,13.66,-0.13,0.30,-0.24,1721207405208
-3.07,3.26,9.97,-0.06,-0.02,0.04,1721207405218
-1.48,-3.75,7.63,-0.33,0.15,0.26,1721207405228
3.44,-1.02,14.83,-0.10,0.23,0.29,1721207405238
7.28,4.27,8.60,0.05,0.16,-0.15,1721207405248
2.58,2.27,7.17,-0.12,0.00,-0.65,1721207405258
-6.51,-1.28,8.77,-0.06,-0.04,-0.60,1721207405268
-8.74,-0.60,12.77,-0.05,0.21,-0.08,1721207405278
-4.65,1.07,13.25,0.01,0.18,0.40,1721207405288
0.74,-2.00,8.37,-0.05,0.05,0.47,1721207405298
4.39,4.52,11.41,0.08,0.26,0.13,1721207405308
5.26,1.93,11.33,0.10,0.02,-0.25,1721207405318
-0.65,-2.74,7.55,-0.04,-0.13,-0.36,1721207405328
-3.96,-1.99,12.39,-0.12,0.17,-0.27,1721207405338
-4.15,1.51,10.29,0.07,-0.02,0.04,1721207405348
-0.22,-0.79,10.24,-0.02,0.18,0.31,1721207405358
3.31,1.73,14.53,0.11,0.19,0.14,1721207405368
2.19,3.72,7.61,0.17,-0.15,-0.15,1721207405378
-0.43,-3.39,11.79,-0.27,0.18,-0.32,1721207405388
-2.64,0.28,18.94,0.08,-0.09,-0.12,1721207405398
-3.67,5.29,6.02,0.23,-0.01,0.08,1721207405408
-1.01,-4.59,4.74,0.03,0.08,0.32,1721207405418
0.80,-5.30,5.07,-0.03,0.06,0.25,1721207405428
3.77,2.49,16.85,0.01,0.22,0.00,1721207405438
3.85,4.86,13.87,0.25,-0.01,-0.22,1721207405448
-0.86,2.66,6.58,0.04,-0.10,-0.38,1721207405458
-4.87,-1.26,9.37,-0.01,-0.15,-0.08,1721207405468
-3.46,-2.58,8.75,-0.09,0.01,0.27,1721207405478
-0.22,1.54,9.82,0.07,0.01,0.15,1721207405488
1.94,-2.77,5.44,-0.03,-0.04,0.02,1721207405498
-0.81,-0.10,5.48,0.06,-0.12,0.01,1721207405508
1.81,-0.74,17.10,-0.03,0.45,-0.13,1721207405518
0.45,5.74,20.67,0.16,-0.11,-0.10,1721207405528
-0.95,1.53,2.75,-0.00,-0.22,0.03,1721207405538
-0.17,-1.34,16.06,-0.14,0.18,-0.00,1721207405548
1.48,0.60,16.71,0.24,-0.22,0.15,1721207405558
0.23,5.00,1.13,0.17,-0.15,0.01,1721207405568
2.20,-1.23,4.64,-0.04,0.09,-0.15,1721207405578
2.55,4.27,18.82,0.18,0.20,-0.28,1721207405588
-1.14,2.37,5.59,0.14,-0.07,-0.51,1721207405598
-6.84,0.48,7.02,0.03,-0.13,-0.28,1721207405608
-3.54,-0.12,11.15,0.24,0.24,0.21,1721207405618
0.85,0.05,11.77,0.14,0.11,0.34,1721207405628
1.73,3.05,9.72,0.17,-0.17,0.09,1721207405638
3.20,1.42,8.86,0.11,0.05,-0.24,1721207405648
0.06,2.36,10.03,0.11,-0.06,-0.32,1721207405658
-3.18,-0.16,8.80,-0.06,0.00,-0.15,1721207405668
-3.16,-2.43,9.94,-0.03,0.01,-0.01,1721207405678
-0.85,0.51,11.15,0.03,0.05,0.13,1721207405688
1.13,-1.70,7.78,-0.02,0.02,0.10,1721207405698
0.83,-0.46,9.03,0.01,0.03,-0.10,1721207405708
1.12,-1.06,8.71,0.04,0.04,-0.12,1721207405718
-0.79,0.97,9.59,-0.02,0.04,-0.11,1721207405728
-1.41,0.43,8.75,-0.05,0.01,-0.14,1721207405738
-0.55,-4.79,7.65,-0.21,0.06,-0.00,1721207405748
-1.31,-2.04,14.03,-0.17,0.09,-0.04,1721207405758
-1.72,0.96,10.84,-0.00,-0.06,-0.04,1721207405768
-0.10,-0.56,3.19,-0.13,0.08,0.04,1721207405778
0.14,-1.52,13.51,-0.28,0.16,0.04,1721207405788
-0.12,-1.01,11.45,-0.04,-0.09,-0.01,1721207405798
-0.91,2.34,6.60,-0.14,0.04,-0.06,1721207405808
-0.80,2.67,11.56,-0.24,-0.00,0.06,1721207405818
0.77,-1.61,15.04,-0.25,0.03,0.15,1721207405828
0.34,-0.92,16.55,-0.25,0.02,-0.05,1721207405838
-1.25,6.64,7.36,-0.01,-0.18,0.05,1721207405848
0.34,1.94,4.13,-0.06,0.12,0.09,1721207405858
1.25,-1.52,13.13,-0.05,-0.01,0.13,1721207405868
0.92,-0.19,14.34,0.03,-0.14,-0.01,1721207405878
-0.32,1.55,7.51,0.04,-0.09,-0.04,1721207405888
-0.47,-2.42,14.09,-0.22,0.05,-0.05,1721207405898
-1.49,1.08,15.26,0.09,-0.20,0.05,1721207405908
0.06,-0.16,3.43,0.11,0.01,0.14,1721207405918
1.50,0.99,10.32,0.08,0.06,0.02,1721207405928
0.28,5.21,8.36,0.35,-0.23,0.06,1721207405938
1.92,-0.19,10.07,0.01,0.23,0.01,1721207405948
0.83,-4.11,18.51,-0.00,-0.18,0.12,1721207405958
1.64,3.28,6.42,0.24,-0.09,0.14,1721207405968
4.66,-1.31,7.07,-0.06,0.18,-0.09,1721207405978
2.31,-1.09,16.82,0.02,-0.10,-0.33,1721207405988
-2.29,0.65,9.13,0.20,-0.04,-0.34,1721207405998
-2.77,1.05,10.36,0.02,0.13,-0.09,1721207406008
-1.65,2.41,9.59,0.16,-0.03,0.18,1721207406018
1.19,-0.62,11.93,-0.05,0.23,-0.02,1721207406028
1.75,0.67,18.63,0.09,0.01,-0.17,1721207406038
-0.67,-3.05,7.18,0.04,-0.08,-0.16,1721207406048
-1.85,2.69,15.97,0.02,0.27,-0.28,1721207406058
-0.07,6.02,5.34,0.37,-0.08,-0.15,1721207406068
0.05,-0.73,-0.34,-0.07,0.15,-0.08,1721207406078
-1.60,1.62,15.68,0.14,0.03,-0.27,1721207406088
-0.00,-1.90,-0.61,0.06,-0.08,-0.28,1721207406098
-1.83,-6.00,15.28,-0.46,0.28,-0.34,1721207406108
-0.18,3.56,21.18,0.19,0.08,-0.27,1721207406118
0.89,1.08,-0.98,0.05,0.05,-0.24,1721207406128
1.42,2.21,11.19,-0.17,0.24,-0.36,1721207406138
0.39,-3.32,11.91,-0.07,0.24,-0.29,1721207406148
-1.13,2.62,15.35,-0.11,0.09,-0.21,1721207406158
-1.09,2.66,3.71,-0.00,-0.01,-0.24,1721207406168
1.42,-8.33,11.26,-0.44,0.49,-0.18,1721207406178
-0.13,2.51,16.11,0.15,-0.03,-0.08,1721207406188
1.50,2.70,0.49,-0.05,0.17,-0.14,1721207406198
1.03,-1.85,11.46,-0.26,0.04,-0.41,1721207406208
0.88,1.07,15.67,0.00,0.33,-0.45,1721207406218
-3.12,6.18,8.07,0.08,0.17,-0.30,1721207406228
-5.52,-1.92,4.84,-0.32,0.02,-0.12,1721207406238
-2.47,4.02,15.57,-0.08,0.23,0.06,1721207406248
2.80,-3.25,9.04,-0.08,0.26,-0.02,1721207406258
0.37,-1.54,13.16,-0.21,0.05,-0.12,1721207406268
-0.51,2.67,11.53,0.03,0.16,-0.24,1721207406278
-0.10,2.09,6.78,0.01,0.26,-0.19,1721207406288
-2.75,-3.01,12.01,-0.03,0.04,0.03,1721207406298
-2.20,-1.84,11.30,0.15,0.07,0.15,1721207406308
0.14,-1.88,8.47,0.03,0.21,0.12,1721207406318
0.33,1.65,8.86,0.21,0.14,0.03,1721207406328
1.39,2.82,11.68,0.10,0.29,-0.02,1721207406338
0.39,-3.01,10.57,0.12,-0.11,0.14,1721207406348
-2.01,-1.06,6.19,0.11,0.07,0.04,1721207406358
0.51,1.52,8.14,0.09,0.23,0.05,1721207406368
0.86,-4.53,9.40,-0.22,0.13,0.02,1721207406378
-0.59,-0.61,20.76,-0.12,0.09,-0.16,1721207406388
-3.80,0.80,7.14,0.17,-0.15,-0.24,1721207406398
-2.70,-5.56,5.69,-0.17,0.32,0.15,1721207406408
-2.11,0.84,21.71,-0.21,-0.13,0.34,1721207406418
-0.45,7.84,13.31,0.23,-0.06,0.19,1721207406428
1.66,-3.44,3.20,-0.11,-0.06,0.01,1721207406438
-1.37,-3.35,17.28,-0.20,0.15,0.03,1721207406448
-1.14,8.86,13.75,0.29,-0.16,0.11,1721207406458
-0.87,1.85,1.87,0.03,-0.15,0.14,1721207406468
-1.38,4.23,10.12,0.24,-0.01,0.22,1721207406478
2.08,-2.92,2.22,0.19,-0.15,0.40,1721207406488
0.42,1.12,12.66,-0.15,0.12,0.16,1721207406498
2.52,10.99,16.41,0.32,-0.11,-0.07,1721207406508
1.51,-5.74,1.76,-0.20,-0.20,-0.01,1721207406518
-2.77,-3.81,20.33,-0.24,0.16,0.19,1721207406528
1.91,0.16,11.32,0.31,-0.32,0.41,1721207406538
3.94,2.62,3.37,0.00,0.04,0.22,1721207406548
4.08,7.65,12.48,0.11,-0.05,-0.05,1721207406558
0.57,1.88,8.45,0.06,-0.27,-0.15,1721207406568
-4.88,1.33,11.51,-0.10,-0.10,-0.05,1721207406578
-3.79,-5.58,8.42,-0.21,-0.09,0.05,1721207406588
-3.41,-1.71,20.22,-0.33,-0.04,0.20,1721207406598
-1.77,3.71,11.20,0.15,-0.30,0.40,1721207406608
1.49,1.65,-4.33,0.11,-0.14,0.36,1721207406618
