AccX,AccY,AccZ,GyrX,GyrY,GyrZ,Time
2.57,0.29,11.52,0.06,-0.17,0.26,1721206754141
5.53,-4.90,9.64,0.01,-0.37,0.34,1721206754146
8.82,2.88,5.20,0.10,0.13,0.44,1721206754156
15.04,-0.34,9.26,-0.12,0.33,-0.14,1721206754166
7.58,-2.93,13.80,0.06,-0.24,-1.09,1721206754176
-6.68,-2.82,8.75,0.16,-0.20,-1.38,1721206754186
-17.56,1.17,7.14,0.05,-0.11,-0.64,1721206754196
-17.32,0.49,11.88,-0.07,0.00,0.42,1721206754206
-7.87,-1.01,13.40,-0.09,-0.09,1.04,1721206754216
4.42,0.62,12.79,0.04,0.10,0.99,1721206754226
12.61,1.88,5.20,-0.06,0.04,0.53,1721206754236
12.75,0.07,9.40,-0.18,0.12,-0.18,1721206754246
11.04,3.32,11.08,0.27,0.09,-0.56,1721206754256
5.32,2.43,3.58,-0.06,-0.04,-0.83,1721206754266
-5.76,3.88,11.40,-0.07,-0.09,-0.83,1721206754276
-8.04,-2.20,9.22,-0.08,0.00,-0.29,1721206754286
-8.16,4.45,15.73,0.01,0.15,0.21,1721206754296
-5.21,5.68,8.61,-0.04,-0.01,0.29,1721206754306
-3.64,3.17,11.10,-0.21,-0.05,0.31,1721206754316
-1.08,1.60,10.57,-0.12,-0.03,0.48,1721206754326
2.19,-1.46,8.51,-0.13,-0.05,0.52,1721206754336
3.76,2.45,9.78,-0.07,-0.03,0.31,1721206754346
4.21,2.11,10.50,-0.02,-0.05,0.05,1721206754356
1.07,3.46,11.58,-0.06,-0.06,-0.05,1721206754366
-0.79,-0.47,10.95,-0.10,-0.08,0.02,1721206754376
-1.98,1.31,11.82,-0.07,0.00,0.14,1721206754386
-1.40,-0.02,7.81,-0.07,-0.04,0.16,1721206754396
-2.43,-1.78,9.98,-0.11,-0.03,0.06,1721206754406
-3.14,-0.24,12.14,0.00,-0.07,0.13,1721206754416
-2.56,-0.59,9.88,-0.05,-0.05,0.32,1721206754426
-0.09,0.20,9.27,-0.05,-0.04,0.36,1721206754436
1.40,-2.53,10.04,-0.12,-0.02,0.15,1721206754446
0.08,-0.27,10.79,-0.03,-0.10,-0.07,1721206754456
-1.95,-1.67,9.67,-0.07,-0.10,0.03,1721206754466
-3.07,-1.19,9.80,-0.08,-0.12,0.24,1721206754476
-1.86,-2.01,10.67,-0.09,-0.10,0.34,1721206754486
0.25,-0.98,11.45,-0.10,-0.10,0.30,1721206754496
0.67,0.76,10.97,-0.02,-0.18,0.25,1721206754506
0.42,0.66,9.59,-0.09,-0.13,0.21,1721206754516
-0.40,1.41,10.72,-0.02,-0.15,0.23,1721206754526
0.20,-0.03,10.47,-0.06,-0.13,0.30,1721206754536
0.59,-0.19,9.44,-0.09,-0.16,0.28,1721206754546
0.53,0.26,11.38,-0.09,-0.17,0.22,1721206754556
-0.12,0.32,9.36,-0.04,-0.22,0.23,1721206754566
-0.94,-1.12,9.53,-0.02,-0.22,0.31,1721206754576
-0.47,0.80,10.14,0.03,-0.16,0.35,1721206754586
0.25,-0.73,9.50,0.03,-0.21,0.37,1721206754596
0.17,1.95,11.22,0.05,-0.16,0.30,1721206754606
0.05,-1.70,7.96,0.08,-0.30,0.37,1721206754616
0.28,-0.43,11.90,-0.05,-0.14,0.34,1721206754626
1.20,0.53,10.64,0.08,-0.27,0.38,1721206754636
1.65,1.08,11.38,0.02,-0.17,0.34,1721206754646
1.92,0.34,9.08,0.16,-0.23,0.25,1721206754656
1.07,-0.75,7.93,-0.01,-0.19,0.18,1721206754666
0.54,1.72,11.78,0.09,-0.16,0.20,1721206754676
0.84,1.87,9.47,0.10,-0.18,0.23,1721206754686
1.85,0.48,8.93,-0.00,-0.13,0.23,1721206754696
1.82,-0.91,10.59,-0.03,-0.18,0.16,1721206754706
1.59,-0.68,13.78,-0.03,-0.13,0.08,1721206754716
1.33,-1.04,9.79,0.10,-0.19,0.09,1721206754726
1.46,-0.55,9.22,0.00,-0.05,0.11,1721206754736
1.33,0.17,11.02,0.03,-0.09,0.03,1721206754746
0.91,0.18,11.56,0.03,-0.11,-0.04,1721206754756
1.38,1.26,11.08,0.03,-0.12,0.04,1721206754766
2.09,-0.85,8.45,0.01,-0.10,0.03,1721206754776
2.20,0.71,10.26,0.04,-0.07,-0.14,1721206754786
1.26,-1.58,9.56,-0.04,-0.05,-0.32,1721206754796
-2.38,0.69,13.05,0.06,-0.13,-0.32,1721206754806
-3.58,-0.68,8.56,0.09,-0.10,-0.16,1721206754816
-2.15,-1.71,10.50,-0.01,-0.02,0.01,1721206754826
0.04,1.61,15.51,0.11,-0.01,-0.03,1721206754836
1.67,0.65,7.85,0.14,-0.09,-0.13,1721206754846
1.52,1.87,9.11,0.03,-0.06,-0.21,1721206754856
1.89,1.33,10.46,0.03,-0.00,-0.32,1721206754866
0.40,0.14,5.78,0.06,-0.16,-0.29,1721206754876
0.76,0.36,11.06,-0.13,0.15,-0.26,1721206754886
1.75,-0.12,11.89,-0.00,-0.08,-0.24,1721206754896
2.12,0.66,9.17,-0.03,-0.01,-0.31,1721206754906
1.92,-0.45,9.15,-0.03,0.02,-0.43,1721206754916
-0.84,-0.30,10.65,-0.03,-0.05,-0.52,1721206754926
-2.43,-0.12,10.55,-0.04,0.02,-0.43,1721206754936
-1.77,-2.47,10.54,-0.09,0.02,-0.22,1721206754946
-1.00,0.18,11.82,-0.01,-0.04,-0.14,1721206754956
1.29,-0.34,8.83,-0.06,0.01,-0.22,1721206754966
1.58,-0.45,9.96,-0.05,-0.04,-0.31,1721206754976
1.88,-1.24,7.64,-0.07,0.04,-0.37,1721206754986
1.56,-1.22,9.35,-0.11,0.07,-0.42,1721206754996
1.35,-0.04,11.81,-0.12,0.11,-0.48,1721206755006
0.42,1.32,10.32,-0.06,0.01,-0.47,1721206755016
0.19,0.51,9.15,-0.18,0.11,-0.44,1721206755026
0.04,-0.19,10.77,-0.14,0.03,-0.39,1721206755036
0.34,0.55,10.59,-0.15,0.14,-0.46,1721206755046
0.40,1.96,11.44,-0.16,0.11,-0.52,1721206755056
-0.10,1.53,10.37,-0.09,0.12,-0.48,1721206755066
0.69,0.27,9.25,-0.11,0.20,-0.49,1721206755076
0.29,-0.17,12.25,-0.12,0.10,-0.61,1721206755086
-1.52,4.22,11.01,0.15,0.00,-0.63,1721206755096
-1.98,0.15,5.34,-0.02,0.12,-0.54,1721206755106
-3.00,-0.23,12.57,-0.09,0.12,-0.49,1721206755116
-1.51,1.54,9.24,0.11,0.13,-0.48,1721206755126
0.06,-1.48,7.23,-0.11,0.19,-0.52,1721206755136
-1.89,1.42,14.20,-0.03,0.13,-0.58,1721206755146
-0.85,-0.76,12.53,0.04,0.15,-0.50,1721206755156
-1.37,-1.15,9.87,0.10,0.04,-0.40,1721206755166
0.12,-2.19,8.13,0.00,0.23,-0.49,1721206755176
0.09,-0.90,13.02,0.04,0.14,-0.61,1721206755186
-1.15,2.89,11.51,0.18,0.15,-0.61,1721206755196
-0.36,1.21,9.34,0.02,0.27,-0.59,1721206755206
-1.74,-0.18,12.28,0.01,0.08,-0.51,1721206755216
-0.80,-0.86,9.40,0.09,0.19,-0.45,1721206755226
-0.27,-2.24,8.24,0.07,0.07,-0.34,1721206755236
-2.33,-0.68,8.39,0.13,0.01,-0.43,1721206755246
-0.90,-0.30,11.40,0.09,0.37,-0.53,1721206755256
-0.07,0.12,13.12,0.03,0.21,-0.42,1721206755266
-1.01,0.64,11.47,0.02,0.14,-0.33,1721206755276
-0.85,0.90,11.07,0.11,0.16,-0.34,1721206755286
-1.29,-0.85,8.86,0.11,0.05,-0.32,1721206755296
-1.89,-1.72,7.98,0.10,0.08,-0.26,1721206755306
-1.02,-2.64,8.65,0.08,0.15,-0.24,1721206755316
-0.59,-0.70,12.02,0.08,0.17,-0.25,1721206755326
0.01,0.42,10.19,0.06,0.28,-0.25,1721206755336
0.35,0.43,10.90,0.04,0.16,-0.25,1721206755346
-0.61,1.32,12.30,0.05,0.08,-0.15,1721206755356
-0.67,0.12,12.05,-0.03,0.05,-0.11,1721206755366
-1.75,-1.33,9.43,0.11,-0.14,-0.05,1721206755376
-1.21,-2.76,4.74,0.03,0.11,0.00,1721206755386
-0.90,-3.45,7.98,-0.06,0.12,-0.10,1721206755396
-1.17,-2.94,8.56,0.07,0.11,-0.15,1721206755406
1.14,-2.48,11.42,-0.02,0.34,-0.10,1721206755416
-0.46,0.99,13.65,0.10,0.03,-0.01,1721206755426
-0.18,2.26,10.76,0.08,0.16,0.05,1721206755436
0.82,1.79,10.90,0.10,-0.08,0.09,1721206755446
-0.94,-0.63,6.48,0.10,-0.12,0.06,1721206755456
-1.84,-2.37,7.72,0.10,0.03,0.01,1721206755466
-2.29,-1.64,8.04,0.13,-0.06,0.07,1721206755476
-2.03,-0.46,9.38,0.09,0.06,0.19,1721206755486
-0.46,-0.09,10.84,0.08,0.06,0.22,1721206755496
0.72,-1.94,9.39,-0.03,0.06,0.16,1721206755506
0.40,-1.57,12.16,0.01,-0.01,0.10,1721206755516
0.50,-1.08,10.94,0.04,0.03,0.10,1721206755526
0.01,0.41,13.42,0.02,0.03,0.09,1721206755536
-0.65,1.12,10.36,0.14,-0.11,0.14,1721206755546
-0.40,0.55,8.89,-0.03,-0.01,0.18,1721206755556
0.56,1.21,13.77,-0.02,-0.00,0.16,1721206755566
0.50,0.09,10.37,0.04,-0.10,0.05,1721206755576
-0.04,-0.11,10.97,-0.03,-0.01,-0.03,1721206755586
-0.29,1.66,11.26,0.09,-0.05,-0.02,1721206755596
-0.63,0.18,7.09,0.03,-0.10,0.01,1721206755606
-0.84,0.64,9.57,0.00,-0.06,-0.01,1721206755616
0.44,1.60,10.41,0.08,-0.01,-0.02,1721206755626
1.49,0.31,10.38,0.03,-0.03,-0.06,1721206755636
0.89,1.07,11.11,0.05,-0.07,-0.14,1721206755646
0.09,0.24,8.07,0.03,-0.04,-0.27,1721206755656
-0.81,0.34,10.05,-0.00,-0.02,-0.26,1721206755666
-1.43,0.19,8.54,0.06,-0.06,-0.13,1721206755676
-0.71,0.21,9.31,-0.01,0.04,-0.09,1721206755686
0.26,-0.06,10.10,0.02,-0.07,-0.08,1721206755696
0.22,0.13,10.21,-0.05,-0.06,-0.19,1721206755706
-0.61,0.04,11.31,-0.05,-0.12,-0.26,1721206755716
-1.79,0.96,10.37,0.03,-0.11,-0.18,1721206755726
-2.32,-1.59,6.03,-0.08,-0.08,-0.12,1721206755736
-2.11,1.61,12.77,-0.07,-0.03,-0.04,1721206755746
-1.26,1.77,7.79,0.02,-0.16,0.00,1721206755756
-1.28,1.36,10.99,-0.21,0.03,-0.07,1721206755766
-0.87,0.84,12.65,-0.06,-0.15,0.01,1721206755776
-0.12,-0.70,7.97,-0.17,-0.09,0.07,1721206755786
0.45,0.41,10.49,-0.12,-0.11,0.04,1721206755796
2.05,0.77,9.36,-0.09,-0.05,-0.02,1721206755806
2.13,0.06,9.77,-0.12,-0.09,-0.04,1721206755816
1.12,-0.31,9.38,-0.14,-0.15,-0.08,1721206755826
1.28,-0.86,10.99,-0.16,-0.09,-0.12,1721206755836
0.67,-0.47,11.24,-0.16,-0.10,-0.18,1721206755846
-0.41,-1.14,10.34,-0.16,-0.12,-0.14,1721206755856
-1.96,-0.78,9.11,-0.16,-0.14,-0.13,1721206755866
-1.82,-1.83,7.86,-0.20,-0.11,-0.09,1721206755876
-0.72,-1.68,10.49,-0.22,-0.03,-0.02,1721206755886
0.07,-1.55,11.16,-0.22,-0.12,0.07,1721206755896
0.66,0.48,12.28,-0.21,-0.07,-0.03,1721206755906
1.03,1.36,12.28,-0.19,-0.12,-0.12,1721206755916
0.30,0.95,9.66,-0.28,-0.11,-0.16,1721206755926
-0.99,0.25,10.78,-0.27,-0.14,-0.15,1721206755936
-1.26,0.74,9.79,-0.24,-0.10,-0.16,1721206755946
-0.72,0.22,11.15,-0.25,-0.07,-0.14,1721206755956
0.45,1.94,13.46,-0.18,-0.08,-0.07,1721206755966
0.42,0.48,10.66,-0.13,-0.15,-0.10,1721206755976
0.34,1.53,11.31,-0.11,-0.10,-0.21,1721206755986
0.78,0.38,10.08,0.02,-0.17,-0.14,1721206755996
0.10,-0.75,8.77,0.04,-0.05,-0.20,1721206756006
0.27,0.49,12.53,0.17,-0.08,-0.20,1721206756016
0.28,0.96,8.27,0.25,-0.07,-0.15,1721206756026
0.94,1.25,10.72,0.14,-0.01,-0.13,1721206756036
1.32,1.07,10.37,0.23,-0.08,-0.12,1721206756046
1.32,-1.29,7.46,0.14,-0.03,-0.16,1721206756056
1.61,0.39,11.11,0.10,-0.01,-0.23,1721206756066
1.58,0.54,12.25,0.14,-0.01,-0.30,1721206756076
1.25,-2.85,10.25,0.06,-0.04,-0.32,1721206756086
0.52,-0.52,11.59,0.07,0.05,-0.39,1721206756096
1.42,-1.65,10.31,0.08,-0.00,-0.34,1721206756106
0.58,-2.42,9.06,0.10,0.01,-0.31,1721206756116
1.06,-3.17,8.85,0.08,0.09,-0.33,1721206756126
0.99,-2.18,10.39,0.10,0.09,-0.40,1721206756136
-0.39,-1.35,12.77,0.02,0.09,-0.44,1721206756151
1.05,0.59,12.85,0.09,0.10,-0.40,1721206756155
0.44,-0.70,8.82,0.06,0.09,-0.44,1721206756165
0.58,-2.62,9.25,0.00,0.19,-0.47,1721206756175
-0.19,-2.83,11.44,0.05,0.15,-0.53,1721206756185
-0.51,-0.46,11.11,0.12,0.16,-0.46,1721206756195
-0.54,-0.15,10.10,0.09,0.18,-0.39,1721206756205
0.50,2.67,12.34,0.16,0.22,-0.40,1721206756215
1.36,0.18,8.18,0.09,0.20,-0.51,1721206756225
-0.10,0.45,12.37,0.04,0.21,-0.61,1721206756235
-1.00,-1.28,10.55,0.04,0.15,-0.60,1721206756245
-1.75,-0.12,10.78,0.08,0.24,-0.58,1721206756255
-0.80,-0.27,9.83,0.05,0.24,-0.53,1721206756265
-0.85,1.25,10.89,0.09,0.26,-0.55,1721206756275
-1.43,-0.26,9.57,0.10,0.19,-0.57,1721206756285
-2.42,-1.41,9.02,0.08,0.19,-0.51,1721206756295
-1.49,1.25,10.69,0.11,0.30,-0.33,1721206756305
-1.06,0.77,8.66,0.09,0.19,-0.32,1721206756315
-0.77,-1.28,8.27,0.03,0.20,-0.36,1721206756325
-1.29,-1.83,8.44,0.04,0.19,-0.36,1721206756335
-1.21,0.05,10.62,0.05,0.26,-0.30,1721206756345
-1.09,2.78,9.15,0.14,0.16,-0.23,1721206756355
-0.88,-0.12,6.95,-0.09,0.20,-0.22,1721206756365
-1.63,-0.74,13.18,-0.08,0.18,-0.24,1721206756375
-1.13,-4.02,9.45,-0.07,0.15,-0.18,1721206756385
-1.21,0.64,15.10,-0.00,0.21,-0.16,1721206756395
0.06,2.34,10.09,0.15,0.16,-0.07,1721206756405
0.65,0.59,9.12,-0.07,0.25,-0.09,1721206756415
-0.17,0.22,8.85,-0.03,0.14,-0.11,1721206756425
0.14,-0.65,8.09,-0.18,0.26,-0.11,1721206756435
0.07,1.04,10.38,-0.07,0.13,-0.12,1721206756445
0.28,-0.17,9.75,-0.12,0.20,-0.14,1721206756455
-1.20,0.37,10.48,-0.05,0.09,-0.19,1721206756465
-2.10,0.57,10.41,-0.12,0.19,-0.18,1721206756475
-2.10,1.20,12.70,-0.12,0.16,-0.07,1721206756485
-1.74,0.35,9.75,-0.10,0.10,-0.00,1721206756495
-0.50,-1.25,8.57,-0.18,0.11,-0.01,1721206756505
0.47,0.59,10.65,-0.08,0.13,-0.03,1721206756515
1.24,0.28,9.11,-0.11,0.12,-0.09,1721206756525
-0.18,1.00,9.72,-0.13,0.05,-0.15,1721206756535
-0.51,-0.48,11.00,-0.20,0.12,-0.12,1721206756545
-1.04,-0.20,10.65,-0.14,0.05,0.01,1721206756555
0.52,-0.21,7.28,-0.14,0.16,0.06,1721206756565
0.71,-0.78,9.85,-0.20,0.12,-0.07,1721206756575
0.37,1.41,11.63,-0.14,0.10,-0.20,1721206756585
-0.15,-0.06,10.98,-0.14,0.07,-0.11,1721206756595
-1.00,-0.63,11.63,-0.20,0.09,0.01,1721206756605
0.41,1.96,11.69,-0.08,0.17,0.04,1721206756615
1.91,-1.34,8.95,-0.09,0.08,0.00,1721206756625
0.17,1.51,9.96,-0.04,0.15,-0.13,1721206756635
0.49,0.13,8.88,-0.01,0.10,-0.14,1721206756645
-1.53,-1.33,11.99,-0.17,0.07,-0.06,1721206756655
-1.21,4.15,14.95,0.01,0.16,-0.03,1721206756665
-0.14,0.54,9.51,0.04,0.03,0.04,1721206756675
0.01,1.55,9.87,-0.07,0.22,0.02,1721206756685
-0.36,-1.70,6.41,0.05,0.05,-0.05,1721206756695
-0.20,-1.40,7.33,0.00,0.20,-0.09,1721206756705
-0.01,1.67,12.86,0.08,0.11,-0.15,1721206756715
-1.06,2.10,11.71,0.13,0.05,-0.17,1721206756725
-1.21,-1.84,8.42,0.05,0.05,-0.08,1721206756735
0.34,-0.88,9.59,0.08,0.18,-0.02,1721206756745
0.76,0.28,9.42,0.18,0.12,-0.09,1721206756755
-0.40,0.27,11.67,0.08,0.16,-0.22,1721206756765
-2.84,1.67,13.72,0.16,0.13,-0.25,1721206756775
-2.09,-2.05,9.33,0.03,0.15,-0.13,1721206756785
-2.37,1.24,10.18,0.09,0.06,-0.05,1721206756795
0.33,-1.32,5.88,0.15,0.11,-0.05,1721206756805
0.59,-1.60,10.77,0.04,0.17,-0.14,1721206756815
-0.48,0.34,12.09,0.20,0.09,-0.22,1721206756825
-0.83,0.23,11.43,0.10,0.17,-0.14,1721206756835
-1.77,2.76,12.42,0.14,0.01,-0.02,1721206756845
-0.65,-0.63,6.93,0.11,0.08,0.07,1721206756855
0.30,-2.14,8.66,0.03,0.17,-0.01,1721206756865
-0.17,0.20,9.84,0.11,0.11,-0.12,1721206756875
-0.29,-0.05,9.85,0.02,0.14,-0.16,1721206756885
-1.69,-1.00,10.72,0.05,0.03,-0.06,1721206756895
-0.73,-3.05,9.86,0.05,0.13,0.07,1721206756905
-0.25,-1.07,11.30,0.08,0.10,0.10,1721206756915
1.03,1.24,9.48,0.17,0.13,0.02,1721206756925
1.26,-2.22,8.83,0.01,0.12,-0.06,1721206756935
0.03,0.69,12.73,0.09,0.11,-0.10,1721206756945
0.12,0.77,13.12,0.08,0.16,-0.06,1721206756955
-1.42,2.28,11.47,0.18,0.00,0.01,1721206756965
-0.50,-1.39,7.76,0.03,0.15,0.01,1721206756975
-0.17,2.25,14.08,0.10,0.16,-0.09,1721206756985
-0.50,2.50,10.35,0.16,0.06,-0.09,1721206756995
-1.59,-0.31,9.59,0.03,0.11,-0.08,1721206757005
-1.53,1.07,10.99,0.15,0.05,-0.04,1721206757015
0.58,0.37,8.44,0.16,0.12,0.08,1721206757025
1.74,0.70,8.40,0.17,0.14,0.06,1721206757035
1.69,0.84,8.15,0.17,0.17,-0.18,1721206757045
-0.33,-0.31,9.01,0.12,0.06,-0.32,1721206757055
-2.46,0.04,11.24,0.13,0.08,-0.18,1721206757065
-2.73,1.03,10.05,0.14,0.19,-0.06,1721206757075
-1.79,0.56,9.05,0.02,0.04,0.00,1721206757085
-0.45,0.57,9.10,0.01,0.05,0.07,1721206757095
0.24,-0.59,9.16,-0.08,0.15,-0.07,1721206757105
-2.90,0.40,10.27,-0.07,-0.02,-0.16,1721206757115
-4.90,-1.26,8.45,-0.10,-0.03,0.09,1721206757125
-3.99,-1.04,9.80,-0.10,0.07,0.39,1721206757135
-0.53,0.28,9.92,-0.06,0.07,0.47,1721206757145
1.79,0.97,9.98,-0.11,0.04,0.31,1721206757155
1.80,-0.58,12.37,-0.17,-0.01,0.12,1721206757165
-1.21,1.20,10.80,-0.08,-0.16,0.09,1721206757175
-1.87,-1.56,8.15,-0.21,0.00,0.26,1721206757185
-1.83,0.94,10.30,-0.12,-0.08,0.38,1721206757195
0.40,-1.60,7.82,-0.17,0.02,0.35,1721206757205
0.52,-0.64,10.94,-0.11,-0.05,0.30,1721206757215
-0.10,-3.27,8.48,-0.15,-0.10,0.28,1721206757225
-1.16,1.64,11.54,-0.08,-0.08,0.31,1721206757235
-0.60,-2.43,8.43,-0.17,-0.17,0.38,1721206757245
-0.55,-1.74,12.62,-0.20,-0.10,0.34,1721206757255
1.70,-3.11,9.97,-0.15,-0.12,0.34,1721206757265
0.14,-0.80,11.29,-0.21,-0.11,0.29,1721206757275
0.04,1.77,12.13,-0.14,-0.06,0.19,1721206757285
0.06,2.73,10.35,-0.07,-0.17,0.18,1721206757295
-0.91,-0.06,7.83,-0.14,-0.19,0.25,1721206757305
-0.67,-0.94,10.18,-0.12,-0.14,0.33,1721206757315
-0.17,0.34,10.49,-0.04,-0.15,0.25,1721206757325
0.23,2.00,8.51,0.06,-0.21,0.26,1721206757335
1.61,-2.20,8.19,-0.10,-0.09,0.28,1721206757345
0.77,-0.04,14.00,0.03,-0.17,0.36,1721206757355
1.52,5.30,12.39,0.10,-0.07,0.29,1721206757365
1.86,-0.45,10.22,0.08,-0.24,0.23,1721206757375
2.24,-1.87,12.77,-0.02,-0.12,0.04,1721206757385
2.31,0.81,11.79,0.23,-0.17,0.13,1721206757395
-0.27,1.30,5.06,0.15,-0.15,0.07,1721206757405
-2.10,5.36,10.40,0.22,-0.12,0.11,1721206757415
0.62,-4.07,6.30,0.08,-0.11,0.12,1721206757425
1.92,-0.94,13.31,0.01,-0.09,0.15,1721206757435
1.13,-1.51,10.50,0.17,-0.19,0.08,1721206757445
1.25,-0.35,11.46,0.15,-0.09,0.07,1721206757455
2.44,-2.21,9.28,0.04,-0.04,0.10,1721206757465
0.80,-0.02,12.27,0.04,-0.10,-0.05,1721206757475
0.28,-0.26,10.60,0.08,-0.09,-0.14,1721206757485
0.77,1.00,11.00,0.15,-0.08,-0.02,1721206757495
1.34,-2.65,8.97,0.05,0.02,0.05,1721206757505
0.03,1.51,13.41,0.08,-0.02,-0.03,1721206757515
-0.35,-1.84,7.93,0.04,-0.06,-0.17,1721206757525
-1.44,0.21,12.29,0.05,-0.08,-0.18,1721206757535
0.21,-0.37,9.81,0.16,0.01,-0.03,1721206757545
0.48,-0.51,10.49,0.05,-0.03,0.08,1721206757555
0.80,1.56,9.10,0.12,0.02,-0.06,1721206757565
0.82,-2.74,6.08,0.08,-0.08,-0.17,1721206757575
0.24,-2.13,13.62,-0.01,0.03,-0.21,1721206757585
-0.70,1.69,13.52,0.26,-0.11,-0.10,1721206757595
0.47,-0.54,7.37,0.12,0.04,-0.01,1721206757605
0.56,1.17,8.35,0.21,-0.02,-0.09,1721206757615
0.62,-0.05,9.00,0.11,0.04,-0.27,1721206757625
-0.61,2.41,13.88,0.20,-0.01,-0.19,1721206757635
-0.96,-1.92,6.39,0.07,-0.01,-0.02,1721206757645
-0.69,0.43,8.91,0.03,0.07,-0.05,1721206757655
0.86,-0.80,7.63,0.13,-0.03,-0.10,1721206757665
0.62,-1.84,9.81,0.08,0.07,-0.13,1721206757675
-1.11,-2.16,12.86,0.09,-0.00,-0.14,1721206757685
-1.89,1.93,11.04,0.22,-0.01,-0.07,1721206757695
-0.28,1.36,10.54,0.10,0.05,0.06,1721206757705
1.67,-0.38,10.16,0.02,0.04,0.09,1721206757715
2.28,0.00,8.60,-0.04,0.05,-0.12,1721206757725
1.81,-0.14,9.20,-0.06,0.02,-0.25,1721206757735
-0.50,0.21,10.22,-0.05,-0.02,-0.24,1721206757745
-1.06,0.53,10.13,-0.09,0.06,-0.12,1721206757755
-0.20,1.68,11.56,-0.15,0.02,0.02,1721206757765
1.10,0.78,10.91,-0.26,0.07,0.00,1721206757775
1.22,0.94,12.45,-0.20,0.01,-0.10,1721206757785
1.93,1.07,11.83,-0.22,0.11,-0.15,1721206757795
0.76,3.39,8.15,-0.15,-0.02,-0.16,1721206757805
-0.05,0.58,6.61,-0.33,0.08,-0.22,1721206757815
-0.18,-1.32,11.71,-0.25,0.04,-0.18,1721206757825
0.70,-1.91,8.33,-0.14,0.08,-0.09,1721206757835
1.32,0.47,8.34,-0.23,0.16,-0.15,1721206757845
0.47,2.09,9.80,-0.15,0.07,-0.34,1721206757855
-1.52,-0.19,8.92,-0.11,0.04,-0.41,1721206757865
-1.00,-5.72,9.44,-0.26,0.13,-0.21,1721206757875
0.04,-0.52,14.91,-0.22,0.21,-0.10,1721206757885
0.72,1.24,13.41,-0.18,0.07,-0.23,1721206757895
0.47,0.90,10.58,-0.11,0.08,-0.35,1721206757905
-0.88,0.35,8.48,-0.15,0.14,-0.32,1721206757915
-1.31,2.73,8.34,-0.02,0.08,-0.18,1721206757925
0.45,-0.08,7.02,-0.08,0.19,-0.12,1721206757935
0.39,-0.67,9.39,-0.06,0.15,-0.22,1721206757945
-0.39,0.94,9.86,-0.03,0.17,-0.35,1721206757955
-2.14,0.23,10.32,0.05,0.04,-0.30,1721206757965
-1.67,-0.61,10.69,-0.02,0.27,-0.19,1721206757975
-0.85,-2.48,11.73,-0.03,0.08,-0.10,1721206757985
0.12,2.28,14.70,0.00,0.27,-0.24,1721206757995
-0.96,2.70,8.91,0.23,-0.02,-0.20,1721206758005
-2.21,-1.97,5.04,-0.05,0.22,-0.28,1721206758015
-2.95,-2.14,12.57,-0.00,0.08,-0.18,1721206758025
-0.75,-1.13,13.57,0.07,0.18,0.04,1721206758035
0.31,-0.00,15.16,0.06,0.14,-0.07,1721206758045
-0.12,2.21,12.04,0.14,0.10,-0.28,1721206758055
-1.26,-2.00,10.52,0.03,0.11,-0.24,1721206758065
-2.60,3.18,15.75,0.18,0.19,-0.14,1721206758075
-1.19,-0.73,5.84,0.32,-0.11,-0.00,1721206758085
-0.13,4.58,11.79,0.25,0.36,-0.06,1721206758095
0.28,0.25,6.99,0.35,-0.13,-0.11,1721206758105
-0.94,-1.04,9.12,0.09,0.29,-0.15,1721206758115
-1.32,0.20,11.62,0.36,-0.10,-0.10,1721206758125
-1.08,-1.34,6.36,0.21,0.13,-0.07,1721206758135
-0.61,1.82,13.01,0.22,0.16,-0.05,1721206758145
-0.70,-3.92,9.63,0.11,0.15,-0.08,1721206758160
-1.47,-4.97,9.84,-0.01,0.11,-0.11,1721206758164
-1.25,2.26,16.06,0.30,0.10,-0.11,1721206758174
-0.78,-1.68,5.92,0.19,-0.03,-0.05,1721206758184
-2.07,3.33,6.32,0.20,0.04,-0.04,1721206758194
0.54,-4.00,5.49,0.07,0.14,-0.05,1721206758204
-0.88,0.38,12.80,0.06,0.10,-0.11,1721206758214
0.45,0.15,9.46,0.15,0.07,-0.13,1721206758224
0.28,0.23,10.33,-0.01,0.10,-0.10,1721206758234
-0.49,1.41,11.60,0.06,0.03,-0.10,1721206758244
-0.16,-2.13,10.21,-0.05,0.07,-0.09,1721206758254
0.55,0.53,14.39,0.05,0.07,-0.07,1721206758264
0.77,-0.65,7.97,0.01,0.02,-0.14,1721206758274
-2.18,3.87,7.75,-0.08,0.01,-0.28,1721206758284
-2.78,-0.84,6.53,-0.24,0.02,-0.24,1721206758294
-4.00,-1.75,11.38,-0.20,0.00,-0.01,1721206758304
-3.51,-1.55,8.05,-0.08,-0.00,0.22,1721206758314
-0.68,3.11,10.36,-0.16,0.10,0.18,1721206758324
2.13,0.18,8.76,-0.14,-0.11,0.13,1721206758334
1.69,-4.87,8.87,-0.26,0.06,0.04,1721206758344
-0.31,-1.57,12.60,-0.09,-0.05,-0.07,1721206758354
-0.48,2.11,11.33,-0.08,-0.03,-0.01,1721206758364
-1.17,3.31,11.15,-0.08,-0.04,0.14,1721206758374
-1.27,0.86,8.28,-0.21,-0.04,0.16,1721206758384
-0.49,-1.92,9.87,-0.33,-0.04,0.15,1721206758394
-0.99,-0.89,10.86,-0.21,-0.02,0.11,1721206758404
-1.56,-1.19,10.31,-0.23,-0.11,0.19,1721206758414
-1.48,1.17,9.51,-0.16,-0.09,0.29,1721206758424
0.29,-3.98,8.80,-0.19,-0.04,0.32,1721206758434
0.82,-0.77,12.29,-0.19,-0.08,0.28,1721206758444
0.85,4.47,15.03,-0.11,-0.13,0.19,1721206758454
0.29,4.24,11.44,-0.02,-0.14,0.17,1721206758464
-0.47,1.18,6.23,-0.07,-0.16,0.15,1721206758474
1.22,-7.14,7.24,-0.22,-0.04,0.14,1721206758484
-0.54,-0.51,16.94,-0.05,-0.11,0.14,1721206758494
-0.19,2.55,12.57,0.20,-0.19,0.20,1721206758504
1.12,3.13,9.61,0.15,-0.06,0.25,1721206758514
1.05,2.21,13.46,0.17,-0.13,0.20,1721206758524
0.79,3.04,11.73,0.23,-0.15,0.03,1721206758534
0.42,0.82,9.52,0.23,-0.15,-0.05,1721206758544
-0.88,2.28,7.69,0.40,-0.17,0.08,1721206758554
-0.04,0.40,7.17,0.29,-0.06,0.15,1721206758564
0.86,3.30,13.10,0.33,-0.08,0.17,1721206758574
1.43,-2.82,5.35,0.30,-0.15,0.05,1721206758584
1.71,0.84,8.77,0.21,-0.05,-0.05,1721206758594
1.02,-1.63,7.63,0.27,-0.18,0.03,1721206758604
0.44,-1.66,11.33,0.18,-0.05,0.01,1721206758614
2.45,-4.48,12.23,0.18,-0.07,-0.04,1721206758624
1.39,-1.75,12.73,0.15,-0.10,-0.10,1721206758634
0.74,-0.98,12.16,0.18,-0.05,-0.12,1721206758644
1.32,2.39,8.54,0.20,-0.00,-0.08,1721206758654
1.82,0.37,9.00,0.12,0.05,-0.08,1721206758664
1.48,-3.14,7.61,0.03,0.02,-0.17,1721206758674
0.71,-4.79,10.99,-0.04,0.01,-0.24,1721206758684
-0.45,-0.67,11.10,0.12,-0.02,-0.12,1721206758694
0.35,-2.97,15.99,-0.07,0.17,-0.14,1721206758704
1.15,2.65,13.23,0.34,-0.09,-0.03,1721206758714
2.73,-0.12,3.82,0.07,0.23,-0.18,1721206758724
-0.25,0.56,6.29,0.03,-0.04,-0.27,1721206758734
-1.70,-1.72,9.19,-0.12,0.17,-0.31,1721206758744
-1.63,-1.23,12.65,0.17,-0.00,-0.04,1721206758754
0.47,0.30,5.87,0.07,0.10,0.09,1721206758764
2.69,0.23,9.90,-0.01,0.13,-0.08,1721206758774
1.36,0.77,14.34,-0.09,0.07,-0.32,1721206758784
-1.23,3.45,14.14,0.06,0.07,-0.39,1721206758794
-2.60,-5.44,11.16,-0.10,0.12,-0.22,1721206758804
-3.25,1.08,13.29,0.09,0.15,-0.03,1721206758814
0.20,-1.01,5.21,-0.01,0.16,0.05,1721206758824
2.56,5.38,9.22,0.05,0.12,-0.01,1721206758834
4.41,0.09,6.28,-0.03,0.20,-0.20,1721206758844
0.34,1.54,15.74,-0.09,0.09,-0.49,1721206758854
-2.49,2.22,7.78,0.05,-0.03,-0.39,1721206758864
-3.40,2.49,10.03,-0.20,0.26,-0.14,1721206758874
-2.09,0.24,9.76,-0.17,0.06,-0.05,1721206758884
-0.73,-2.53,11.18,-0.15,0.10,-0.06,1721206758894
-0.75,-0.52,10.72,0.04,0.07,-0.17,1721206758904
-0.96,2.66,8.76,-0.12,0.04,-0.21,1721206758914
-1.28,3.11,13.82,-0.10,0.02,-0.03,1721206758924
-0.03,0.32,6.12,-0.05,0.04,0.03,1721206758934
2.42,-2.84,6.53,-0.27,0.16,0.01,1721206758944
2.38,-4.17,11.02,-0.18,0.08,-0.17,1721206758954
0.83,0.23,12.37,-0.11,0.06,-0.36,1721206758964
-1.06,1.62,10.18,-0.01,0.04,-0.30,1721206758974
-2.90,-0.24,4.28,-0.09,0.03,-0.11,1721206758984
-0.30,-1.80,11.86,-0.30,0.23,0.03,1721206758994
1.89,-0.85,14.54,-0.22,0.12,0.03,1721206759004
3.34,-1.44,11.00,-0.32,0.16,-0.21,1721206759014
0.03,-3.83,13.45,-0.36,0.07,-0.36,1721206759024
-2.62,-1.12,10.47,-0.19,0.03,-0.33,1721206759034
-2.54,4.19,7.69,-0.06,0.12,-0.04,1721206759044
0.28,1.56,9.17,-0.13,0.19,0.13,1721206759054
1.50,0.16,10.59,-0.14,0.10,0.06,1721206759064
2.63,0.45,12.57,-0.19,0.27,-0.17,1721206759074
2.08,1.09,12.31,-0.08,0.08,-0.34,1721206759084
-1.81,1.16,9.70,0.00,0.03,-0.34,1721206759094
-2.26,-0.15,12.93,0.03,0.19,-0.25,1721206759104
-3.08,2.72,11.96,0.22,0.10,-0.09,1721206759114
-1.47,5.73,8.83,0.24,0.18,0.00,1721206759124
-0.64,-0.69,8.84,0.12,0.12,-0.04,1721206759134
-1.16,0.55,12.55,0.10,0.11,-0.12,1721206759144
-0.35,2.87,11.78,0.22,0.16,-0.15,1721206759154
-2.17,-1.64,7.99,0.14,-0.05,-0.07,1721206759164
-2.49,-1.07,8.71,0.19,0.10,0.04,1721206759174
-0.15,-2.48,8.18,0.14,0.16,0.02,1721206759184
1.05,-0.73,10.31,0.04,0.14,-0.10,1721206759194
0.10,-2.23,12.14,0.11,0.08,-0.16,1721206759204
-1.67,-1.88,11.71,0.11,0.05,-0.19,1721206759214
-2.12,-1.54,11.18,0.02,0.09,-0.16,1721206759224
-2.23,0.24,13.73,0.13,0.13,-0.12,1721206759234
-0.84,-2.22,5.54,0.13,-0.01,-0.08,1721206759244
-1.94,-3.83,3.81,0.02,0.08,-0.01,1721206759254
-0.71,-1.09,11.57,0.01,0.27,-0.07,1721206759264
-1.43,-0.51,10.96,0.10,-0.08,-0.13,1721206759274
-2.24,3.34,11.44,0.11,0.08,-0.10,1721206759284
-2.29,2.52,9.28,0.13,0.01,0.02,1721206759294
-0.41,-2.10,8.42,-0.09,0.03,0.15,1721206759304
0.57,0.34,11.69,0.04,0.00,0.12,1721206759314
2.35,0.33,8.43,0.08,-0.01,0.04,1721206759324
0.48,1.90,9.70,0.10,-0.02,-0.08,1721206759334
0.06,-1.49,8.63,0.02,0.01,-0.12,1721206759344
-1.33,-0.14,16.06,-0.09,0.01,-0.01,1721206759354
-1.72,3.05,16.47,0.05,-0.01,-0.03,1721206759364
-1.81,2.77,11.92,0.06,-0.03,-0.07,1721206759374
-2.88,1.58,7.94,-0.01,-0.08,0.06,1721206759384
-1.98,2.00,9.70,-0.04,0.05,0.19,1721206759394
0.20,0.66,7.47,0.04,-0.04,0.24,1721206759404
1.19,1.88,8.14,0.07,-0.05,0.17,1721206759414
2.29,-1.74,6.80,0.09,-0.02,0.13,1721206759424
1.97,1.39,13.67,-0.01,0.05,0.04,1721206759434
1.23,0.89,11.02,0.12,-0.20,0.01,1721206759444
-0.28,2.17,9.11,-0.04,0.12,-0.10,1721206759454
-2.39,-2.16,9.24,-0.06,-0.16,-0.09,1721206759464
-4.04,-1.88,8.50,-0.05,-0.04,0.16,1721206759474
-1.68,-0.50,6.30,-0.03,0.00,0.38,1721206759484
0.41,-2.11,6.94,-0.12,-0.09,0.35,1721206759494
1.73,-0.95,11.16,-0.14,-0.01,0.14,1721206759504
2.92,-5.10,17.93,-0.31,-0.06,0.01,1721206759514
-1.99,1.96,17.04,-0.08,-0.25,0.03,1721206759524
-0.25,2.25,5.21,-0.07,0.08,0.10,1721206759534
-1.84,-1.12,0.46,-0.17,-0.31,0.25,1721206759544
-0.79,-0.67,10.29,-0.16,0.11,0.16,1721206759554
2.20,-0.26,12.73,0.04,-0.07,0.07,1721206759564
1.23,-2.34,8.73,-0.16,-0.12,0.03,1721206759574
-1.31,0.51,12.50,-0.10,-0.18,0.06,1721206759584
0.51,0.05,13.13,-0.10,-0.06,0.11,1721206759594
1.53,4.99,11.74,0.05,-0.03,0.13,1721206759604
3.44,3.93,8.85,-0.05,0.06,-0.03,1721206759614
1.80,-0.03,7.81,-0.10,-0.12,-0.18,1721206759624
-0.70,-2.86,10.96,-0.17,-0.07,-0.27,1721206759634
-1.72,-1.12,13.52,-0.02,-0.08,-0.13,1721206759644
-0.24,0.19,8.37,0.04,0.00,0.06,1721206759654
0.45,-0.59,10.27,0.08,-0.01,0.03,1721206759664
1.28,0.94,11.02,0.09,-0.00,-0.03,1721206759674
1.55,2.51,12.19,0.05,0.02,-0.13,1721206759684
1.79,-0.89,10.23,0.07,0.00,-0.14,1721206759694
0.11,-1.30,13.30,0.09,0.01,-0.22,1721206759704
-0.23,-2.50,8.03,0.17,-0.08,-0.09,1721206759714
0.61,0.66,11.27,0.02,0.13,0.03,1721206759724
1.83,0.63,13.15,0.20,0.05,-0.07,1721206759734
2.05,-1.45,9.24,0.13,0.04,-0.21,1721206759744
0.71,3.19,11.02,0.24,0.12,-0.30,1721206759754
-1.14,0.70,7.95,0.23,0.05,-0.23,1721206759764
-1.58,-0.90,11.58,0.08,0.12,-0.12,1721206759774
-0.96,2.23,10.35,0.33,0.03,0.05,1721206759784
1.99,-1.39,3.59,0.16,0.20,0.02,1721206759794
1.70,-1.19,6.29,0.14,0.09,-0.10,1721206759804
0.31,-2.19,8.71,0.06,0.10,-0.25,1721206759814
-3.09,2.04,19.95,0.14,0.07,-0.30,1721206759824
-3.24,0.09,14.34,0.29,0.03,0.04,1721206759834
-0.65,1.07,7.88,0.14,0.13,0.28,1721206759844
3.21,1.34,9.54,0.01,0.22,0.17,1721206759854
3.78,2.22,6.44,0.05,-0.01,-0.12,1721206759864
1.82,-2.45,5.36,-0.03,0.12,-0.33,1721206759874
-1.60,-1.47,9.92,-0.03,0.07,-0.29,1721206759884
-3.73,1.07,12.54,0.01,0.09,-0.13,1721206759894
-3.02,1.91,11.41,0.03,-0.00,0.10,1721206759904
-0.35,1.13,8.26,0.04,0.09,0.26,1721206759914
1.98,-0.30,6.06,-0.04,0.11,0.09,1721206759924
1.64,-1.19,11.18,-0.12,0.01,-0.13,1721206759934
-0.63,3.16,13.84,0.02,0.05,-0.21,1721206759944
-1.00,2.00,9.97,-0.01,0.02,-0.10,1721206759954
-1.81,-0.05,7.95,-0.15,0.01,0.05,1721206759964
1.02,-2.59,7.98,-0.15,0.09,0.12,1721206759974
2.46,-1.02,9.51,-0.21,0.12,0.01,1721206759984
1.24,2.91,11.80,-0.09,0.01,-0.27,1721206759994
-1.31,2.71,7.11,-0.09,-0.08,-0.33,1721206760004
-2.56,-4.51,10.78,-0.34,0.00,-0.05,1721206760014
-1.13,-2.19,13.17,-0.25,0.08,0.24,1721206760024
4.38,1.44,11.53,-0.09,0.22,0.15,1721206760034
4.11,1.03,6.48,-0.08,-0.08,-0.22,1721206760044
-0.13,-1.41,6.55,-0.07,0.07,-0.49,1721206760054
-2.79,-0.96,12.99,-0.00,0.06,-0.39,1721206760064
-2.47,1.96,15.21,-0.05,0.08,-0.16,1721206760074
-1.75,4.17,13.85,-0.02,0.04,0.04,1721206760084
0.59,2.08,8.68,-0.00,0.10,0.05,1721206760094
0.52,-2.37,6.58,-0.03,-0.03,-0.04,1721206760104
0.59,-2.18,7.80,0.04,0.16,-0.21,1721206760114
-0.28,0.68,8.85,0.10,0.03,-0.23,1721206760124
-1.53,-0.51,12.06,0.00,0.07,-0.07,1721206760134
-1.70,3.58,12.31,0.17,0.03,0.01,1721206760144
0.06,0.20,10.06,0.06,0.10,0.06,1721206760154
1.20,-2.62,11.33,0.00,0.08,-0.14,1721206760169
1.29,-0.24,13.38,0.02,0.16,-0.23,1721206760173
-0.90,-1.55,8.40,0.05,-0.02,-0.36,1721206760183
-2.58,-4.52,8.03,-0.04,0.10,-0.21,1721206760193
-1.06,-0.02,15.14,0.07,0.21,-0.08,1721206760203
-0.23,-0.56,14.11,0.09,0.02,-0.11,1721206760213
-1.22,-0.88,9.79,0.12,-0.01,-0.17,1721206760223
-0.03,-2.07,10.18,0.10,0.17,-0.16,1721206760233
-0.60,4.47,12.00,0.26,0.09,-0.20,1721206760243
-1.84,7.97,4.19,0.45,-0.06,-0.26,1721206760253
-1.57,-2.26,4.86,0.02,0.21,-0.16,1721206760263
-1.31,-1.29,15.36,-0.04,0.09,-0.12,1721206760273
-1.85,1.95,10.02,0.13,-0.11,-0.10,1721206760283
-1.52,0.83,6.04,-0.00,0.08,-0.16,1721206760293
-1.07,-2.55,12.23,-0.04,0.12,-0.12,1721206760303
-1.98,1.21,15.45,0.26,-0.07,0.07,1721206760313
0.81,-0.75,7.50,0.20,0.05,0.06,1721206760323
2.64,5.16,12.80,0.19,0.14,0.04,1721206760333
2.72,6.40,5.62,0.25,-0.02,-0.27,1721206760343
-1.47,-5.90,2.93,-0.16,-0.03,-0.36,1721206760353
-5.21,-3.38,17.89,-0.08,0.02,-0.16,1721206760363
-2.73,4.07,14.16,0.37,0.01,0.17,1721206760373
0.66,3.46,11.55,-0.01,0.21,0.13,1721206760383
-2.06,5.48,9.62,0.15,-0.28,0.01,1721206760393
0.14,3.72,6.46,0.07,0.14,0.10,1721206760403
0.40,-1.77,6.02,-0.08,-0.02,0.09,1721206760413
-0.90,-2.01,8.19,-0.03,-0.03,-0.00,1721206760423
-1.84,-0.27,4.17,0.06,-0.12,0.11,1721206760433
-0.68,1.27,6.81,-0.05,0.00,0.34,1721206760443
2.87,-2.17,9.87,-0.11,0.01,0.42,1721206760453
3.92,-4.52,14.34,-0.15,0.05,0.04,1721206760463
0.15,-2.13,13.69,-0.07,-0.12,-0.30,1721206760473
-2.81,1.45,15.74,-0.11,0.03,-0.24,1721206760483
-5.33,-1.19,8.15,-0.03,-0.21,0.11,1721206760493
-3.53,1.86,7.83,-0.17,0.08,0.38,1721206760503
2.55,-3.75,7.11,-0.22,-0.01,0.35,1721206760513
2.58,-2.14,13.13,-0.37,-0.05,0.04,1721206760523
1.32,1.71,13.70,-0.13,-0.07,-0.13,1721206760533
-0.07,-3.45,4.21,-0.19,-0.09,-0.06,1721206760543
-1.88,-0.38,12.99,-0.25,0.00,0.02,1721206760553
-0.62,6.47,11.75,0.10,-0.09,0.07,1721206760563
2.63,0.15,5.02,-0.13,0.06,0.12,1721206760573
1.54,-3.83,11.61,-0.13,-0.06,-0.04,1721206760583
1.02,-4.54,12.89,-0.22,0.06,-0.20,1721206760593
-1.15,5.72,18.79,0.03,-0.08,-0.10,1721206760603
-0.51,4.41,11.53,0.10,0.00,0.05,1721206760613
0.90,-0.07,9.44,0.03,0.04,0.04,1721206760623
1.99,1.24,10.90,0.11,0.07,-0.16,1721206760633
0.65,0.27,6.06,0.23,-0.04,-0.25,1721206760643
-2.62,1.96,11.14,0.20,0.03,-0.17,1721206760653
-1.63,0.46,8.88,0.28,0.05,0.01,1721206760663
0.02,-5.16,7.04,0.08,0.03,0.15,1721206760673
1.20,1.28,12.69,0.16,0.07,0.07,1721206760683
1.47,3.84,11.71,0.25,-0.02,-0.04,1721206760693
1.70,-1.19,8.19,0.10,0.08,0.02,1721206760703
1.50,-7.51,8.99,0.04,0.13,-0.09,1721206760713
-0.28,-1.84,15.81,0.16,-0.03,-0.09,1721206760723
-0.54,6.61,13.35,0.30,0.08,0.06,1721206760733
2.04,4.08,9.05,0.23,0.18,0.15,1721206760743
3.59,-2.96,3.57,0.23,0.11,0.08,1721206760753
3.53,-3.32,5.86,0.01,0.25,-0.36,1721206760763
-0.12,1.48,14.65,0.14,0.01,-0.53,1721206760773
-4.22,5.67,12.44,0.23,0.12,-0.38,1721206760783
-3.30,0.08,4.59,0.16,0.13,0.08,1721206760793
1.07,-8.87,5.53,-0.21,0.34,0.21,1721206760803
3.37,2.05,19.19,-0.03,0.23,-0.13,1721206760813
2.56,3.75,12.58,0.14,0.06,-0.47,1721206760823
-1.16,4.35,7.27,0.02,0.13,-0.43,1721206760833
-3.48,-0.49,9.99,-0.11,0.25,-0.25,1721206760843
-2.77,-7.22,10.45,-0.21,0.16,-0.12,1721206760853
-1.95,2.02,15.78,-0.02,0.22,-0.15,1721206760863
0.01,3.63,9.66,0.08,0.15,-0.07,1721206760873
-0.57,3.42,4.95,0.14,0.11,-0.02,1721206760883
0.19,-3.46,3.54,-0.07,0.25,-0.18,1721206760893
-0.34,0.40,13.97,-0.03,0.17,-0.26,1721206760903
0.47,8.46,12.93,0.12,0.17,-0.19,1721206760913
0.49,1.58,6.20,-0.14,0.11,-0.02,1721206760923
-0.37,-3.15,8.38,-0.17,0.20,-0.11,1721206760933
0.37,-3.60,10.97,-0.15,0.24,-0.16,1721206760943
-0.68,-1.70,13.14,-0.12,0.11,-0.11,1721206760953
-2.35,1.34,12.01,-0.02,0.09,-0.11,1721206760963
-2.48,3.75,11.93,-0.04,0.14,-0.07,1721206760973
-2.20,-2.92,8.80,-0.14,0.02,0.18,1721206760983
-0.23,-1.96,4.62,0.03,0.07,0.25,1721206760993
5.82,-0.94,7.34,-0.15,0.47,0.02,1721206761003
0.54,-1.23,9.02,-0.01,-0.31,-0.22,1721206761013
-3.69,-1.88,10.73,-0.09,0.32,-0.35,1721206761023
-3.45,6.29,19.40,0.09,0.06,-0.06,1721206761033
-2.94,-2.67,12.65,-0.22,0.01,0.32,1721206761043
-0.65,1.77,12.23,0.06,0.08,0.39,1721206761053
2.58,1.52,1.38,0.09,0.13,0.15,1721206761063
0.74,-2.05,5.08,-0.14,0.12,-0.04,1721206761073
-1.71,-2.33,13.65,0.07,0.01,0.00,1721206761083
-3.14,-0.65,6.79,0.17,-0.07,0.18,1721206761093
-0.51,0.79,10.28,-0.13,0.29,0.28,1721206761103
2.56,-4.21,16.53,-0.11,-0.00,0.24,1721206761113
1.06,0.42,14.47,0.11,0.00,0.07,1721206761123
1.19,-2.60,6.22,0.11,0.05,-0.03,1721206761133
-2.29,-0.82,11.37,0.03,0.05,-0.06,1721206761143
-1.58,9.72,14.60,0.30,0.14,0.00,1721206761153
-1.53,2.09,4.74,0.10,-0.21,0.12,1721206761163
-2.25,-7.70,11.66,-0.25,0.06,0.16,1721206761173
-0.20,-0.16,14.75,0.21,0.04,0.16,1721206761183
0.24,5.19,3.25,0.12,-0.12,0.05,1721206761193
-1.98,2.18,10.30,-0.02,0.06,-0.07,1721206761203
-2.84,-0.39,9.82,0.23,-0.22,0.11,1721206761213
-0.72,-2.38,9.62,0.03,0.11,0.28,1721206761223
1.40,4.42,14.72,0.14,-0.05,0.19,1721206761233
1.64,11.56,12.81,0.15,-0.09,0.01,1721206761243
-0.23,0.78,10.15,-0.06,-0.26,0.06,1721206761253
-2.01,-9.65,10.10,-0.14,-0.15,0.23,1721206761263
-0.14,1.47,10.55,0.17,-0.04,0.31,1721206761273
3.05,4.03,4.54,0.09,-0.07,0.22,1721206761283
2.48,1.09,11.99,-0.04,-0.00,0.03,1721206761293
1.80,0.41,9.15,0.28,-0.19,-0.01,1721206761303
-0.27,1.96,2.37,0.13,-0.07,0.03,1721206761313
-0.77,0.01,1.38,-0.17,-0.06,0.04,1721206761323
-0.85,-0.56,18.56,-0.36,0.15,-0.03,1721206761333
0.14,-0.01,17.33,0.09,-0.19,0.09,1721206761343
0.01,-2.85,5.22,-0.12,-0.09,0.07,1721206761353
-1.02,4.77,13.58,-0.19,0.01,-0.06,1721206761363
0.82,-2.03,14.77,-0.36,-0.08,0.10,1721206761373
-1.04,-0.07,12.96,-0.19,-0.17,0.04,1721206761383
-1.88,0.04,-5.04,-0.12,-0.19,-0.09,1721206761393
0.84,-10.65,7.80,-0.63,0.26,-0.02,1721206761403
1.46,-4.02,22.23,-0.16,-0.12,0.24,1721206761413
2.08,10.87,11.42,0.32,-0.02,-0.06,1721206761423
2.30,-2.29,4.31,-0.25,-0.06,-0.24,1721206761433
-4.79,1.60,26.17,-0.44,-0.14,-0.38,1721206761443
-4.81,-3.46,14.06,-0.11,-0.08,-0.15,1721206761453
-2.46,-0.57,3.34,-0.24,0.10,0.13,1721206761463
1.55,-0.52,5.64,-0.00,-0.06,0.23,1721206761473
2.67,2.48,10.37,0.07,0.14,0.09,1721206761483
2.42,9.02,11.11,0.17,0.04,-0.12,1721206761493
1.24,-2.99,4.79,-0.06,-0.04,-0.35,1721206761503
-2.88,-4.08,12.41,-0.11,-0.08,-0.31,1721206761513
-3.07,1.44,14.24,0.00,0.07,-0.08,1721206761523
-1.70,3.21,16.02,0.15,0.00,0.22,1721206761533
2.30,-1.82,3.07,0.11,0.03,0.24,1721206761543
4.91,-1.26,14.17,-0.08,0.27,-0.24,1721206761553
1.01,-2.54,14.58,0.21,-0.23,-0.43,1721206761563
-4.02,2.53,8.32,0.15,-0.03,-0.31,1721206761573
-3.45,-3.03,7.80,0.14,0.06,0.18,1721206761583
-0.63,3.08,10.59,0.31,0.08,0.34,1721206761593
2.97,3.81,2.95,0.24,-0.01,0.11,1721206761603
3.36,-2.10,9.07,-0.18,0.16,-0.15,1721206761613
-0.39,0.26,16.28,0.06,-0.09,-0.25,1721206761623
-1.65,-3.34,8.02,0.07,0.01,0.04,1721206761633
-0.53,-2.97,13.05,0.01,0.14,0.25,1721206761643
1.60,-0.87,11.13,0.19,-0.03,0.29,1721206761653
3.85,4.67,9.41,0.13,0.21,0.09,1721206761663
3.35,1.52,10.46,0.05,0.02,-0.15,1721206761673
-0.08,-2.01,10.14,0.03,0.03,-0.16,1721206761683
-1.19,-5.08,14.26,0.05,0.13,-0.07,1721206761693
-1.79,6.27,10.21,0.34,0.02,0.10,1721206761703
1.52,7.21,5.04,0.17,0.20,0.19,1721206761713
3.38,-2.76,8.93,-0.01,0.08,0.02,1721206761723
3.03,-4.00,17.06,0.06,0.23,-0.28,1721206761733
-0.33,5.56,11.74,0.26,0.00,-0.34,1721206761743
-3.10,11.91,5.71,0.18,0.10,-0.14,1721206761753
-1.14,-0.43,5.69,-0.08,0.24,0.01,1721206761763
-0.29,-8.90,5.73,-0.14,0.00,0.05,1721206761773
0.24,0.01,8.05,-0.07,0.22,-0.05,1721206761783
0.89,-0.10,13.28,-0.18,0.13,-0.22,1721206761793
-1.92,0.04,17.24,0.01,-0.03,-0.21,1721206761803
-1.99,4.56,7.05,0.22,0.08,0.02,1721206761813
0.36,2.87,9.76,-0.07,0.21,0.11,1721206761823
1.99,0.64,11.99,-0.05,0.04,0.03,1721206761833
1.58,-5.26,5.47,-0.13,0.05,-0.07,1721206761843
-1.01,1.51,10.92,0.00,0.17,-0.32,1721206761853
-1.68,3.38,8.24,0.12,0.04,-0.27,1721206761863
-3.11,-3.11,10.82,-0.13,0.03,0.02,1721206761873
-2.23,0.85,11.51,0.07,0.06,0.21,1721206761883
1.23,3.97,-0.54,0.12,0.13,0.20,1721206761893
4.34,-2.53,4.66,-0.29,0.13,0.04,1721206761903
1.62,-4.65,19.96,-0.16,0.02,-0.29,1721206761913
-1.67,0.17,10.46,0.16,-0.12,-0.33,1721206761923
-4.19,4.83,9.05,-0.13,0.09,-0.04,1721206761933
-1.20,-3.54,15.96,-0.33,0.18,0.23,1721206761943
-0.13,-4.54,17.03,-0.14,-0.10,0.34,1721206761953
2.57,2.07,8.80,0.06,0.21,-0.21,1721206761963
1.21,-0.38,6.09,0.03,-0.14,-0.39,1721206761973
-4.36,3.67,7.33,0.16,-0.11,-0.11,1721206761983
-2.66,-2.74,9.75,0.00,0.36,0.12,1721206761993
-0.91,-1.41,18.91,0.06,-0.01,0.30,1721206762003
3.02,3.57,10.26,0.11,0.02,0.11,1721206762013
2.62,3.08,7.38,0.05,-0.06,-0.20,1721206762023
-0.06,-2.58,9.01,0.03,0.10,-0.30,1721206762033
-4.50,-4.67,6.45,0.08,-0.15,-0.06,1721206762043
-5.20,-3.85,1.76,0.09,0.00,0.15,1721206762053
1.24,-1.98,17.77,-0.04,0.32,0.29,1721206762063
4.57,7.35,23.08,0.28,-0.01,0.20,1721206762073
3.02,3.76,4.53,0.17,-0.13,-0.20,1721206762083
-2.32,-3.37,0.46,-0.03,-0.12,-0.26,1721206762093
-3.73,-4.49,9.20,-0.16,0.18,-0.10,1721206762103
-0.52,1.68,17.52,0.06,-0.08,0.11,1721206762113
-0.28,-1.27,11.65,-0.00,-0.09,0.00,1721206762123
-2.65,3.11,13.12,0.06,-0.09,-0.09,1721206762133
-1.13,1.57,9.28,0.10,0.09,-0.04,1721206762143
1.51,3.17,10.79,0.05,0.07,0.09,1721206762153
0.29,1.97,2.83,0.14,-0.24,0.17,1721206762163
1.03,-0.75,11.82,0.01,-0.00,0.04,1721206762178
1.02,0.56,13.29,0.12,-0.08,-0.02,1721206762182
0.56,2.31,11.88,0.01,-0.05,-0.09,1721206762192
-1.49,1.62,14.94,0.03,-0.04,-0.13,1721206762202
-3.93,3.00,8.93,0.14,-0.08,-0.11,1721206762212
-1.86,1.27,12.33,-0.03,0.14,0.29,1721206762222
2.22,3.12,13.95,0.08,0.02,0.39,1721206762232
3.62,4.62,3.73,0.16,-0.16,0.08,1721206762242
1.97,-6.33,0.80,-0.20,-0.02,-0.19,1721206762252
-2.91,-4.10,17.70,-0.26,-0.01,-0.19,1721206762262
-2.25,4.52,17.97,0.25,-0.08,0.03,1721206762272
-0.56,4.56,0.53,0.08,-0.08,0.11,1721206762282
-0.62,1.59,4.96,-0.28,0.04,0.08,1721206762292
1.12,-8.71,14.35,-0.41,0.06,0.04,1721206762302
-1.61,-2.94,18.39,-0.16,-0.15,-0.17,1721206762312
-2.31,0.41,8.99,0.09,-0.14,-0.10,1721206762322
-1.21,-3.29,5.45,-0.09,0.01,0.30,1721206762332
1.15,-1.73,9.43,0.02,0.07,0.34,1721206762342
1.36,11.14,9.99,0.32,-0.07,-0.00,1721206762352
1.91,8.80,2.49,0.21,-0.14,-0.16,1721206762362
-0.53,-9.82,5.89,-0.31,-0.09,-0.10,1721206762372
-2.50,-5.62,19.46,-0.23,-0.01,-0.10,1721206762382
-2.07,9.42,13.74,0.10,-0.18,0.12,1721206762392
0.28,0.61,4.20,-0.10,-0.05,0.32,1721206762402
1.81,-5.82,8.68,-0.17,0.03,0.19,1721206762412
2.77,-4.80,17.17,-0.16,0.02,-0.20,1721206762422
-0.51,9.17,14.51,0.23,-0.23,-0.18,1721206762432
-2.63,2.35,4.06,0.03,-0.18,0.02,1721206762442
-0.22,0.91,15.91,-0.12,0.08,0.30,1721206762452
3.06,-6.09,6.45,0.12,-0.11,0.19,1721206762462
1.98,2.27,15.27,0.02,0.16,-0.27,1721206762472
-1.77,-0.37,11.20,0.31,-0.35,-0.18,1721206762482
-2.39,3.43,5.94,0.15,0.06,0.08,1721206762492
1.74,2.94,9.91,0.42,0.10,0.24,1721206762502
2.65,-1.97,4.80,0.20,-0.07,0.15,1721206762512
1.84,9.32,10.62,0.23,0.03,-0.13,1721206762522
2.49,-7.20,3.27,-0.13,-0.08,-0.18,1721206762532
-1.75,-8.20,12.02,-0.28,-0.03,-0.07,1721206762542
-0.63,-4.11,15.29,0.16,-0.01,0.06,1721206762552
1.19,-0.68,11.04,0.24,-0.00,0.10,1721206762562
1.80,7.83,12.74,0.37,0.05,0.05,1721206762572
2.93,-1.13,8.77,0.04,0.04,-0.07,1721206762582
-0.24,0.45,20.37,-0.00,-0.01,-0.26,1721206762592
0.06,2.20,6.03,0.25,0.01,-0.18,1721206762602
0.93,1.05,2.21,-0.12,0.12,0.01,1721206762612
2.14,4.82,17.65,-0.10,0.27,-0.18,1721206762622
1.62,0.29,8.39,0.14,-0.13,-0.32,1721206762632
-0.28,-4.12,7.47,-0.26,0.23,-0.34,1721206762642
-1.66,2.83,17.54,-0.03,0.05,-0.30,1721206762652
-2.57,6.50,2.97,0.14,-0.01,-0.11,1721206762662
-1.39,-0.36,4.85,-0.22,0.19,-0.05,1721206762672
-1.31,-2.45,8.49,0.05,-0.04,-0.03,1721206762682
0.85,-5.39,10.98,-0.23,0.24,-0.15,1721206762692
-0.43,3.62,23.42,-0.09,0.02,-0.17,1721206762702
-2.31,11.56,17.51,0.17,0.01,-0.17,1721206762712
-1.89,-3.97,-3.79,-0.04,-0.17,-0.02,1721206762722
-0.58,-3.12,-2.69,-0.12,0.16,0.04,1721206762732
5.12,-2.08,7.69,-0.07,0.33,-0.11,1721206762742
0.80,1.86,12.26,-0.03,-0.21,-0.30,1721206762752
-3.93,0.63,16.11,-0.20,0.05,-0.55,1721206762762
-5.01,-2.70,16.06,-0.06,-0.06,-0.26,1721206762772
-3.32,-5.88,6.24,-0.28,0.06,0.29,1721206762782
1.80,2.43,13.37,-0.17,0.26,0.27,1721206762792
2.32,3.02,9.98,0.15,-0.29,-0.09,1721206762802
2.45,-6.47,11.93,-0.34,0.21,-0.43,1721206762812
-3.09,0.36,19.94,-0.03,-0.34,-0.12,1721206762822
-3.95,4.74,7.00,0.08,0.18,0.02,1721206762832
-0.44,1.88,12.71,-0.13,-0.01,0.20,1721206762842
-2.32,4.10,7.28,0.36,-0.36,0.23,1721206762852
4.20,-5.98,1.74,0.09,0.30,0.18,1721206762862
1.88,-4.52,10.83,-0.06,-0.13,0.02,1721206762872
1.45,5.78,10.86,0.25,0.05,-0.11,1721206762882
-0.02,-4.58,15.16,-0.26,0.03,-0.28,1721206762892
-4.49,8.73,18.70,0.44,-0.50,0.08,1721206762902
-0.97,-1.29,-5.07,0.40,0.12,0.35,1721206762912
1.19,-7.90,5.27,-0.32,0.16,0.27,1721206762922
3.45,4.32,21.62,-0.11,-0.19,-0.08,1721206762932
0.92,-2.67,8.11,0.13,-0.25,-0.40,1721206762942
-3.82,-3.82,7.36,-0.04,0.14,-0.33,1721206762952
-3.91,2.19,9.38,0.23,-0.07,-0.02,1721206762962
0.22,2.74,4.89,0.12,-0.07,0.23,1721206762972
2.60,2.74,14.42,-0.12,0.07,-0.11,1721206762982
0.68,-0.57,11.33,0.24,-0.29,-0.33,1721206762992
-1.96,0.91,1.80,-0.01,0.01,-0.35,1721206763002
-2.96,-2.07,9.89,-0.21,-0.02,-0.08,1721206763012
-2.03,2.25,15.74,0.01,-0.15,0.12,1721206763022
-1.30,6.05,13.22,0.04,0.03,-0.05,1721206763032
-0.22,-0.72,9.71,-0.08,-0.18,-0.11,1721206763042
-0.78,-3.00,14.69,-0.31,-0.08,0.04,1721206763052
0.01,4.94,10.98,0.06,-0.19,-0.02,1721206763062
2.58,-8.60,-0.52,-0.07,-0.50,0.36,1721206763072
4.10,0.58,8.40,0.16,0.41,0.31,1721206763082
9.41,4.88,10.59,0.13,-0.06,-0.13,1721206763092
2.64,2.91,9.88,-0.18,-0.22,-0.87,1721206763102
-7.64,-3.51,16.74,-0.31,-0.11,-1.15,1721206763112
-14.86,-0.29,13.72,0.06,-0.27,-0.46,1721206763122
-14.30,-0.35,4.59,0.04,-0.04,0.72,1721206763132
-1.96,-1.13,9.05,-0.02,0.27,1.51,1721206763142
10.12,-1.92,11.46,-0.06,0.23,1.41,1721206763152
12.99,3.65,8.22,0.04,0.17,0.44,1721206763162
14.24,2.29,5.22,-0.04,-0.33,-0.56,1721206763172
4.96,-4.07,12.14,-0.34,-0.12,-1.13,1721206763182
0.41,2.45,20.60,0.12,-0.44,-1.27,1721206763192
-10.70,0.15,0.59,0.13,-0.34,-0.80,1721206763202
-11.58,-3.93,16.45,-0.54,0.23,-0.06,1721206763212
-4.44,3.61,25.78,0.06,0.03,0.65,1721206763222
1.60,2.71,0.96,0.29,-0.02,0.55,1721206763232
5.48,-4.10,-0.91,-0.06,0.16,0.01,1721206763242
4.46,1.18,7.58,0.16,0.10,-0.35,1721206763252
2.28,-1.42,7.10,0.20,-0.09,-0.63,1721206763262
-2.93,6.10,17.13,0.10,-0.16,-0.45,1721206763272
-2.40,1.10,11.01,-0.02,0.05,-0.12,1721206763282
0.23,-7.53,11.69,-0.30,0.08,-0.05,1721206763292
-0.45,5.07,12.50,0.08,-0.06,-0.29,1721206763302
2.04,-6.38,4.72,-0.17,0.12,-0.42,1721206763312
-2.99,-0.84,19.17,0.13,-0.13,-0.33,1721206763322
-2.55,8.54,7.14,0.35,0.09,-0.17,1721206763332
-1.30,6.38,3.81,-0.02,0.10,-0.09,1721206763342
1.40,-7.67,12.50,-0.38,0.13,-0.03,1721206763352
3.10,1.49,18.29,0.24,0.15,-0.28,1721206763362
3.16,0.25,-2.37,0.32,0.01,-0.52,1721206763372
-1.07,-4.25,14.34,-0.29,0.24,-0.61,1721206763382
-2.24,6.79,24.64,0.33,0.07,-0.40,1721206763392
-1.24,4.18,-1.07,0.18,0.13,-0.22,1721206763402
1.21,-3.20,12.05,-0.27,0.41,-0.13,1721206763412
3.04,-2.64,14.52,0.22,0.27,-0.27,1721206763422
3.01,2.28,-0.31,0.31,0.31,-0.57,1721206763432
-0.06,-1.66,6.04,-0.05,0.31,-0.70,1721206763442
-3.99,1.16,23.88,0.13,0.28,-0.57,1721206763452
-2.59,6.19,9.37,0.59,0.27,-0.22,1721206763462
1.67,-5.43,-4.75,-0.16,0.43,-0.03,1721206763472
1.75,-4.70,23.17,-0.33,0.47,-0.39,1721206763482
0.13,3.40,15.21,0.57,0.16,-0.57,1721206763492
-1.46,1.06,-3.77,0.13,0.35,-0.39,1721206763502
-2.30,-1.16,17.83,-0.34,0.49,-0.30,1721206763512
-2.21,-3.91,19.75,0.24,0.26,-0.13,1721206763522
0.09,4.72,-0.86,0.37,0.45,-0.00,1721206763532
2.72,-1.60,1.93,-0.26,0.56,-0.25,1721206763542
-2.44,1.29,19.92,0.10,0.19,-0.45,1721206763552
-3.35,0.40,3.73,0.38,0.38,-0.15,1721206763562
-2.47,-2.87,5.65,-0.31,0.53,0.13,1721206763572
-1.67,5.97,27.11,-0.03,0.24,0.20,1721206763582
2.73,2.85,8.28,0.26,0.24,0.21,1721206763592
3.38,0.01,-0.33,-0.05,0.39,-0.06,1721206763602
0.91,0.79,8.76,-0.21,0.44,-0.37,1721206763612
-3.92,-1.73,14.04,-0.09,0.12,-0.22,1721206763622
-6.03,3.65,12.50,0.12,0.22,0.13,1721206763632
-3.12,1.14,5.66,-0.16,0.31,0.36,1721206763642
-0.68,4.83,15.22,-0.18,0.26,0.46,1721206763652
3.23,-0.42,6.17,-0.06,0.20,0.32,1721206763662
3.51,-8.98,6.27,-0.50,0.28,0.13,1721206763672
-1.13,-1.33,20.27,-0.10,0.03,-0.06,1721206763682
-2.58,1.95,6.68,0.27,0.04,0.06,1721206763692
-4.11,4.52,6.00,-0.14,0.27,0.26,1721206763702
-0.30,-0.37,15.63,-0.31,0.22,0.45,1721206763712
2.79,-0.76,8.24,-0.06,-0.09,0.52,1721206763722
3.92,-0.82,-0.44,-0.04,0.15,0.24,1721206763732
2.55,-0.06,8.37,-0.28,0.30,-0.20,1721206763742
-2.89,1.36,10.92,-0.06,-0.22,-0.23,1721206763752
-4.37,-6.92,12.05,-0.36,0.20,0.12,1721206763762
-2.78,2.00,24.15,-0.22,0.02,0.56,1721206763772
1.34,4.86,9.94,0.01,-0.04,0.60,1721206763782
5.84,1.21,4.54,-0.24,0.22,0.23,1721206763792
2.19,3.88,7.71,-0.10,-0.12,-0.17,1721206763802
-2.28,-12.58,2.99,-0.46,-0.13,-0.16,1721206763812
-6.38,-0.68,33.01,-0.57,0.18,-0.10,1721206763822
-1.27,20.38,26.22,0.44,-0.09,-0.05,1721206763832
-4.34,-2.81,-15.45,0.13,-0.54,0.35,1721206763842
-2.54,0.22,8.93,-0.22,0.70,0.61,1721206763852
3.46,4.24,9.34,0.19,-0.23,0.44,1721206763862
2.79,-4.18,5.86,0.10,0.01,-0.04,1721206763872
-0.80,1.50,16.22,0.11,-0.09,-0.18,1721206763882
-3.34,-0.88,8.28,0.26,-0.28,0.14,1721206763892
-2.71,3.08,13.26,0.12,0.14,0.37,1721206763902
0.82,-1.57,11.11,0.25,-0.25,0.41,1721206763912
1.76,-3.24,4.33,0.12,-0.10,0.20,1721206763922
1.11,-1.75,10.23,0.08,-0.08,0.06,1721206763932
-0.93,-2.48,11.92,0.05,-0.18,0.03,1721206763942
-2.19,3.45,14.63,0.22,-0.19,0.09,1721206763952
-3.46,4.09,7.41,0.26,-0.37,0.37,1721206763962
0.62,-3.54,10.34,-0.21,-0.05,0.62,1721206763972
4.97,-1.87,20.13,-0.05,-0.14,0.50,1721206763982
3.45,3.62,7.69,0.16,-0.43,0.07,1721206763992
1.41,5.10,7.75,-0.12,-0.06,-0.27,1721206764002
-3.61,-3.80,14.95,-0.27,-0.49,-0.09,1721206764012
-5.18,-6.53,10.51,-0.04,-0.37,0.41,1721206764022
3.13,-0.70,10.21,0.01,0.12,0.52,1721206764032
4.47,6.80,7.41,0.05,-0.39,0.15,1721206764042
1.81,3.22,3.51,0.06,-0.30,-0.24,1721206764052
1.64,-2.55,4.51,0.04,-0.13,-0.22,1721206764062
-0.85,-1.18,7.22,-0.17,-0.25,-0.03,1721206764072
0.08,-0.65,15.53,-0.28,-0.11,0.08,1721206764082
0.44,0.60,15.50,-0.05,-0.29,-0.03,1721206764092
0.22,1.47,2.72,0.19,-0.32,-0.15,1721206764102
0.19,0.16,-2.41,0.07,-0.14,-0.10,1721206764112
0.22,-3.72,5.43,-0.43,-0.08,0.15,1721206764122
0.78,-0.54,-1.26,0.04,0.28,-0.05,1721206764649
2.18,-1.81,0.17,-0.11,0.32,-0.04,1721206764653
2.92,1.32,9.78,-0.22,0.33,-0.25,1721206764662
1.98,3.05,10.83,-0.08,0.14,-0.40,1721206764672
-0.02,-0.18,4.76,-0.17,0.18,-0.36,1721206764682
-1.44,-1.07,0.81,-0.28,0.22,-0.26,1721206764692
-1.03,-8.08,15.30,-0.66,0.44,-0.28,1721206764702
-1.83,1.40,28.97,-0.11,0.10,-0.29,1721206764712
-0.18,0.64,14.67,0.02,0.26,-0.14,1721206764722
0.35,7.78,6.56,-0.02,0.16,-0.22,1721206764732
-1.46,4.17,-4.64,-0.10,0.03,-0.30,1721206764742
-2.08,-6.81,5.17,-0.55,0.46,-0.41,1721206764752
-3.57,-1.97,24.84,-0.25,0.09,-0.25,1721206764762
-4.46,7.97,13.69,0.05,0.10,-0.06,1721206764772
-2.09,0.57,3.81,-0.43,0.28,0.02,1721206764782
1.35,-4.96,9.28,-0.48,0.29,0.07,1721206764792
3.52,-7.00,6.51,-0.26,0.13,-0.06,1721206764802
2.06,0.43,16.82,-0.23,0.38,-0.46,1721206764812
-1.12,10.09,18.77,0.04,0.01,-0.56,1721206764822
-6.78,0.38,3.32,-0.23,-0.02,-0.24,1721206764832
-3.83,-5.79,14.58,-0.42,0.49,0.23,1721206764842
3.01,-1.11,16.23,0.03,0.25,0.53,1721206764852
5.18,8.36,6.26,0.26,0.24,0.13,1721206764862
3.17,5.58,6.07,0.12,0.09,-0.41,1721206764872
-0.35,-2.24,10.22,-0.03,0.12,-0.41,1721206764882
-1.18,-2.54,13.51,0.03,0.29,-0.10,1721206764892
-2.23,4.60,13.98,0.12,0.20,-0.02,1721206764902
-1.45,10.69,12.47,0.25,0.20,-0.09,1721206764912
-1.99,0.06,3.84,0.14,0.01,0.02,1721206764922
-1.44,-11.55,7.12,-0.26,0.30,0.14,1721206764932
1.24,-0.75,24.77,0.01,0.26,0.12,1721206764942
-1.24,6.13,10.21,0.48,-0.18,-0.15,1721206764952
-3.47,2.65,-0.72,0.18,0.07,-0.16,1721206764962
-3.75,-3.79,3.62,0.28,0.22,0.22,1721206764972
2.07,-9.12,11.41,0.01,0.32,0.45,1721206764982
0.94,5.11,22.83,0.12,-0.03,0.21,1721206764992
-1.11,10.97,9.98,0.54,0.01,-0.27,1721206765002
-1.41,-7.42,0.93,-0.10,-0.02,-0.23,1721206765012
-10.38,-9.56,12.41,0.01,-0.07,0.40,1721206765022
-1.54,-3.88,12.43,0.14,0.41,0.43,1721206765032
3.77,1.69,16.39,-0.01,-0.03,0.13,1721206765042
-1.06,-0.02,3.78,0.11,-0.29,-0.19,1721206765052
-0.96,-4.28,9.93,-0.17,0.36,-0.12,1721206765062
-0.86,-2.89,20.02,-0.09,-0.17,0.28,1721206765072
-1.73,1.25,15.29,0.02,-0.12,0.29,1721206765082
0.34,-0.29,8.26,0.17,-0.11,0.16,1721206765092
1.42,0.40,6.44,0.01,-0.01,0.05,1721206765102
-0.13,7.07,13.10,0.06,-0.09,-0.00,1721206765112
-2.52,3.33,8.50,0.13,-0.25,0.02,1721206765122
-1.66,-6.39,4.39,-0.10,-0.02,0.19,1721206765132
0.34,-1.00,9.92,0.07,-0.01,0.30,1721206765142
3.26,8.31,8.75,0.17,-0.09,0.21,1721206765152
3.18,4.90,10.96,-0.02,-0.12,-0.02,1721206765162
0.60,-0.54,10.94,0.03,-0.19,-0.18,1721206765172
-1.42,-4.32,7.20,-0.11,-0.14,-0.03,1721206765182
-2.26,-0.72,14.85,-0.29,-0.06,0.10,1721206765192
-0.15,5.35,13.22,0.19,-0.13,0.16,1721206765202
1.61,-2.71,-2.98,0.12,-0.14,0.16,1721206765212
2.36,-2.86,11.26,-0.01,0.22,0.01,1721206765222
1.68,4.76,15.24,0.28,-0.22,-0.08,1721206765232
-1.36,6.53,9.34,-0.07,-0.09,-0.19,1721206765242
-2.81,6.77,15.91,-0.03,-0.11,-0.09,1721206765252
-2.64,-6.29,1.10,-0.22,-0.25,0.09,1721206765262
-2.75,-5.12,4.40,-0.25,-0.04,0.24,1721206765272
1.00,-6.40,17.19,-0.39,0.05,0.19,1721206765282
1.42,0.47,26.70,0.14,-0.18,0.21,1721206765292
1.15,13.88,4.27,0.62,-0.28,0.19,1721206765302
3.74,8.59,-5.94,-0.08,0.02,0.15,1721206765312
2.99,-12.06,9.91,-0.72,-0.07,-0.09,1721206765322
0.26,-12.87,25.74,-0.38,-0.09,-0.36,1721206765332
-3.09,8.43,18.05,0.32,-0.32,-0.24,1721206765342
-2.96,4.57,-3.66,0.02,-0.18,0.31,1721206765352
1.08,-2.90,7.51,-0.29,0.17,0.43,1721206765362
6.06,-1.54,14.34,-0.05,0.04,0.09,1721206765372
3.54,4.57,8.58,0.08,-0.17,-0.41,1721206765382
-0.79,-3.27,4.81,-0.12,-0.16,-0.56,1721206765392
-5.61,-2.91,10.69,-0.13,-0.18,-0.19,1721206765402
-3.81,0.24,15.03,-0.21,0.03,0.18,1721206765412
1.29,-0.13,19.02,-0.24,-0.08,0.26,1721206765422
2.58,0.58,9.36,-0.04,-0.12,0.06,1721206765432
4.02,-2.14,4.12,-0.17,0.08,-0.29,1721206765442
0.34,4.11,13.92,0.09,-0.09,-0.41,1721206765452
-2.73,8.80,3.58,0.39,-0.13,-0.25,1721206765462
0.23,-7.05,3.93,-0.30,0.19,-0.24,1721206765472
-3.35,-3.79,27.83,-0.23,-0.28,-0.06,1721206765482
-0.71,6.19,8.73,0.43,-0.06,0.15,1721206765492
4.49,-1.87,-2.03,-0.13,0.20,0.04,1721206765502
-0.33,2.93,23.28,0.02,-0.12,-0.36,1721206765512
-0.40,6.02,12.91,0.60,-0.15,-0.32,1721206765522
1.32,-1.44,-3.49,0.06,0.20,-0.22,1721206765532
-3.72,-2.29,18.22,-0.19,-0.09,-0.17,1721206765542
-1.28,0.95,14.31,0.32,-0.07,0.00,1721206765552
2.60,1.67,0.66,0.27,0.15,0.10,1721206765562
3.46,-5.08,2.80,-0.01,0.07,-0.16,1721206765572
0.48,-3.95,18.21,0.03,-0.02,-0.52,1721206765582
-1.99,3.81,20.66,0.29,-0.03,-0.41,1721206765592
-3.46,7.34,6.58,0.28,0.03,-0.05,1721206765602
-0.21,-1.91,3.47,0.00,0.12,0.15,1721206765612
2.19,-4.02,15.65,-0.11,0.22,-0.02,1721206765622
1.49,-0.36,15.60,0.05,-0.03,-0.26,1721206765632
0.16,-2.28,8.91,0.05,-0.02,-0.26,1721206765642
0.15,0.50,8.29,0.18,0.17,-0.16,1721206765652
0.54,-0.37,5.22,0.30,0.12,-0.15,1721206765662
-0.70,-1.99,6.37,0.16,0.14,-0.27,1721206765672
-2.74,12.00,15.29,0.40,0.08,-0.26,1721206765682
-1.84,6.01,8.39,0.09,0.10,-0.03,1721206765692
-2.28,-9.28,16.51,-0.49,0.05,0.04,1721206765702
-0.25,-2.82,15.56,-0.01,0.05,0.07,1721206765712
4.16,2.69,3.06,-0.00,0.19,-0.04,1721206765722
2.84,1.99,9.84,-0.07,0.10,-0.39,1721206765732
-2.48,6.88,7.02,0.38,-0.06,-0.53,1721206765742
-3.47,-1.51,0.82,-0.12,0.14,-0.24,1721206765752
-4.21,-4.48,15.17,-0.36,0.01,0.11,1721206765762
1.62,0.87,14.88,-0.04,0.21,0.25,1721206765772
5.42,-1.69,7.33,-0.12,0.02,0.06,1721206765782
2.99,-0.31,11.76,-0.05,0.04,-0.44,1721206765792
0.97,1.96,11.53,0.27,0.11,-0.60,1721206765802
-3.34,4.37,10.16,0.05,0.07,-0.38,1721206765812
-4.98,6.84,7.50,0.18,0.01,-0.08,1721206765822
-0.33,-6.43,-2.05,-0.01,0.12,0.14,1721206765832
2.16,-5.29,6.22,-0.02,0.22,0.06,1721206765842
2.54,-4.24,17.38,-0.17,0.26,-0.31,1721206765852
-0.81,5.06,31.21,-0.17,-0.12,-0.51,1721206765862
-3.93,9.35,15.46,0.28,-0.05,-0.23,1721206765872
-1.88,-3.88,-7.25,-0.10,0.15,0.12,1721206765882
0.83,-6.47,7.30,-0.09,0.21,0.20,1721206765892
6.85,2.54,12.29,0.29,0.15,-0.11,1721206765902
-0.34,2.14,7.11,0.25,-0.11,-0.61,1721206765912
-5.25,1.61,15.90,-0.11,0.11,-0.49,1721206765922
-4.05,6.96,18.48,0.14,0.15,0.00,1721206765932
-2.10,3.46,4.86,0.23,0.07,0.36,1721206765942
2.99,3.06,3.23,0.24,0.27,0.18,1721206765952
5.36,-3.18,5.18,0.11,0.14,-0.27,1721206765962
-0.52,-2.09,10.83,-0.00,-0.04,-0.50,1721206765972
-2.76,0.64,10.72,0.08,0.09,-0.35,1721206765982
-3.22,2.79,12.15,0.04,0.26,-0.12,1721206765992
-1.70,1.12,4.98,0.22,0.01,0.13,1721206766002
1.81,-4.93,3.65,0.01,0.31,0.11,1721206766012
3.84,-1.55,14.59,0.01,0.23,-0.19,1721206766022
1.90,-1.98,14.09,0.01,0.15,-0.57,1721206766032
-3.60,1.32,14.92,0.06,0.12,-0.57,1721206766042
-5.99,2.66,6.03,0.24,-0.03,-0.07,1721206766052
-1.34,-1.88,1.24,-0.09,0.38,0.28,1721206766062
2.65,-7.60,11.68,-0.28,0.30,0.11,1721206766072
2.17,-0.95,16.35,-0.03,0.09,-0.39,1721206766082
0.55,6.97,11.77,0.03,0.22,-0.56,1721206766092
-4.07,-1.27,10.51,-0.26,0.12,-0.36,1721206766102
-5.38,-8.91,12.89,-0.23,0.06,0.08,1721206766112
-0.12,-1.56,12.58,0.09,0.38,0.26,1721206766122
2.49,3.00,8.73,0.00,0.12,-0.10,1721206766132
0.32,5.86,14.76,0.08,0.11,-0.41,1721206766142
-2.25,5.07,9.17,0.31,0.08,-0.31,1721206766152
-3.90,-2.58,5.97,-0.08,0.16,-0.10,1721206766162
-4.67,-0.75,9.73,0.06,-0.07,0.21,1721206766172
0.23,0.63,9.30,0.02,0.29,0.15,1721206766182
1.19,5.04,15.56,0.21,0.04,-0.01,1721206766192
-1.34,5.27,8.50,0.32,-0.08,-0.09,1721206766202
-1.53,2.15,7.95,0.13,0.20,-0.06,1721206766212
-1.95,-0.81,8.05,-0.07,-0.07,0.14,1721206766222
-1.81,-1.36,13.93,-0.10,0.12,0.31,1721206766232
2.05,2.19,11.34,0.26,0.09,0.35,1721206766242
3.77,-2.37,-0.10,0.19,-0.09,0.20,1721206766252
3.99,-2.13,14.98,-0.19,0.42,-0.10,1721206766262
1.20,6.28,22.84,0.22,-0.13,-0.19,1721206766272
-4.26,6.45,-2.34,0.29,-0.28,-0.07,1721206766282
-3.65,-1.03,2.05,-0.18,0.29,0.15,1721206766292
-0.14,-8.74,12.13,-0.21,-0.07,0.48,1721206766302
1.13,-3.08,16.89,-0.07,0.06,0.33,1721206766312
1.38,9.36,12.00,0.35,-0.13,0.00,1721206766322
-1.18,2.81,-2.86,-0.03,-0.25,0.05,1721206766332
-2.56,0.40,10.21,-0.26,0.09,0.35,1721206766342
3.92,-4.48,8.90,-0.13,0.11,0.36,1721206766352
1.41,-4.01,9.43,-0.31,-0.18,-0.01,1721206766362
-1.70,1.27,18.81,-0.28,-0.05,-0.19,1721206766372
-2.49,1.24,12.90,0.01,-0.08,0.10,1721206766382
-1.78,-5.00,1.04,-0.16,-0.16,0.37,1721206766392
1.35,-1.49,14.36,-0.38,0.16,0.28,1721206766402
2.25,12.18,21.05,-0.01,-0.07,0.07,1721206766412
-0.37,1.18,1.00,-0.04,-0.36,-0.06,1721206766422
-1.90,-6.81,4.47,-0.42,0.12,-0.04,1721206766432
-1.27,-1.42,19.09,-0.24,-0.05,0.10,1721206766442
-1.37,5.30,18.10,-0.08,-0.21,0.28,1721206766452
0.47,3.73,3.84,0.17,-0.18,0.31,1721206766462
4.22,-6.45,-2.93,-0.05,-0.01,0.19,1721206766472
4.11,-1.25,9.18,-0.02,0.11,-0.08,1721206766482
0.99,1.71,14.89,0.18,-0.05,-0.29,1721206766492
-0.35,6.94,18.58,0.16,-0.16,-0.23,1721206766502
-0.69,4.23,6.53,0.14,-0.07,0.05,1721206766512
0.85,-7.60,6.05,-0.26,0.05,0.06,1721206766522
0.90,-1.15,18.76,-0.03,0.04,-0.13,1721206766532
0.54,7.17,11.06,0.34,-0.02,-0.29,1721206766542
-0.83,2.86,3.00,0.17,-0.17,-0.20,1721206766552
-1.84,-5.98,-1.53,-0.06,-0.02,-0.07,1721206766562
-1.09,-15.56,11.22,-0.40,0.23,-0.26,1721206766572
-2.90,4.20,33.81,0.11,-0.26,-0.06,1721206766582
-2.22,10.27,4.50,0.53,-0.13,0.28,1721206766592
4.94,-0.52,2.07,-0.22,0.33,0.31,1721206766602
3.66,-4.73,20.87,-0.16,-0.08,-0.17,1721206766612
0.16,-8.20,10.81,0.04,-0.15,-0.41,1721206766622
-2.77,5.76,9.48,0.15,-0.04,-0.22,1721206766632
0.05,5.21,5.17,0.26,0.11,0.19,1721206766642
6.15,0.56,5.94,0.24,0.15,0.16,1721206766657
6.34,1.33,10.37,0.09,0.34,-0.07,1721206766661
3.58,-2.51,16.22,-0.09,-0.04,-0.61,1721206766671
-3.13,10.13,15.98,0.23,-0.08,-0.50,1721206766681
-2.54,-6.45,0.26,-0.12,0.19,-0.07,1721206766691
-1.20,-7.45,13.45,-0.11,0.22,0.02,1721206766701
2.07,-1.51,12.22,0.14,0.13,-0.10,1721206766711
0.70,4.28,18.12,0.03,0.14,-0.44,1721206766721
-2.03,11.72,10.80,0.43,-0.05,-0.31,1721206766731
-0.64,-3.79,-4.45,0.03,0.31,-0.08,1721206766741
-2.00,-8.09,15.91,-0.23,0.27,-0.12,1721206766751
-2.55,3.22,18.80,0.21,0.04,-0.23,1721206766761
-0.88,-0.74,7.92,-0.08,0.17,-0.12,1721206766771
-1.53,0.30,13.15,0.15,0.04,0.03,1721206766781
0.20,9.69,-4.31,0.47,0.08,0.00,1721206766791
2.27,-1.09,-2.21,-0.18,0.33,-0.21,1721206766801
-1.19,-5.29,17.88,-0.06,0.02,-0.40,1721206766811
-4.65,-1.94,13.17,0.18,0.06,-0.23,1721206766821
-3.28,3.53,14.35,-0.16,0.16,0.14,1721206766831
1.69,2.09,20.28,-0.11,0.19,0.24,1721206766841
4.30,1.30,11.85,0.02,0.03,0.04,1721206766851
4.48,-1.19,2.20,-0.20,0.20,-0.26,1721206766861
0.08,0.42,8.56,-0.06,0.09,-0.63,1721206766871
-3.60,0.70,7.07,0.18,0.12,-0.51,1721206766881
-5.84,-3.34,12.68,-0.18,0.20,-0.09,1721206766891
-5.74,4.79,18.41,0.06,0.02,0.25,1721206766901
0.56,3.96,3.59,0.15,0.06,0.46,1721206766911
6.87,-5.58,10.24,-0.42,0.38,0.36,1721206766921
4.98,3.51,15.53,0.04,0.03,-0.06,1721206766931
3.76,4.61,-3.59,0.50,-0.12,-0.52,1721206766941
-3.63,-5.12,-2.99,-0.10,0.11,-0.74,1721206766951
-14.07,7.32,29.08,-0.12,-0.02,-0.32,1721206766961
-3.69,8.07,12.16,0.36,0.09,0.28,1721206766971
-1.62,-14.05,-2.79,-0.44,0.12,0.53,1721206766981
5.52,-7.62,21.55,-0.56,0.69,0.35,1721206766991
6.75,14.33,20.36,0.40,0.01,0.07,1721206767001
1.89,1.36,-6.76,0.08,-0.32,-0.45,1721206767011
-4.16,-9.04,8.19,-0.41,0.28,-0.61,1721206767021
-3.00,-3.35,23.27,0.00,-0.01,0.02,1721206767031
-6.27,9.79,11.21,0.21,-0.09,0.40,1721206767041
-1.51,3.70,3.33,0.04,0.23,0.41,1721206767051
4.31,-6.88,10.38,-0.14,0.02,0.39,1721206767061
3.58,-4.91,14.10,-0.09,0.02,0.10,1721206767071
1.37,6.34,18.06,0.03,0.08,-0.28,1721206767081
-1.90,9.02,8.00,0.25,-0.21,-0.27,1721206767091
-5.06,-10.07,-3.29,-0.01,-0.18,0.08,1721206767101
-2.30,-7.42,7.83,0.12,0.25,0.50,1721206767111
2.14,3.20,26.36,-0.07,0.24,0.43,1721206767121
1.46,5.37,18.14,-0.02,-0.30,0.11,1721206767131
0.79,-4.82,-3.24,0.09,-0.20,0.19,1721206767141
-0.30,-10.82,4.22,-0.37,0.16,0.28,1721206767151
-4.67,12.96,32.01,0.12,0.04,0.07,1721206767161
2.15,15.37,11.51,0.78,-0.21,-0.03,1721206767171
0.48,-8.17,-10.81,0.01,-0.29,0.01,1721206767181
-2.62,-11.41,9.99,-0.46,0.13,0.11,1721206767191
-1.75,1.00,24.34,-0.19,-0.19,0.20,1721206767201
-0.67,14.06,11.69,0.41,-0.27,0.03,1721206767211
-1.31,2.98,-1.15,0.23,-0.22,-0.07,1721206767221
-2.79,-10.98,5.80,-0.38,-0.12,0.16,1721206767231
-1.06,-0.67,18.05,-0.09,-0.15,0.38,1721206767241
1.91,7.86,6.96,0.13,-0.20,0.20,1721206767251
3.03,-1.63,8.83,-0.15,-0.12,0.03,1721206767261
2.27,-5.80,14.10,0.11,-0.20,0.08,1721206767271
1.42,4.37,4.96,0.28,-0.27,0.00,1721206767281
1.70,-3.24,17.07,-0.53,0.19,-0.35,1721206767291
-3.31,9.33,27.04,0.30,-0.50,-0.24,1721206767301
-4.85,7.07,-16.26,0.76,-0.49,0.15,1721206767311
3.59,-5.95,0.58,-0.55,0.65,0.46,1721206767321
5.24,11.76,28.98,-0.31,-0.32,0.20,1721206767331
5.27,-5.09,11.94,0.17,-0.41,-0.41,1721206767341
-2.62,8.88,6.94,0.27,-0.27,-0.52,1721206767351
-3.43,-1.51,-7.98,-0.10,-0.17,0.12,1721206767361
-3.27,-12.54,12.73,-0.60,0.24,0.31,1721206767371
2.45,0.97,25.22,0.16,-0.21,0.06,1721206767381
1.66,1.06,3.31,0.04,-0.19,-0.40,1721206767391
-1.81,2.77,9.70,-0.28,-0.00,-0.31,1721206767401
-2.27,0.46,13.79,-0.20,-0.07,-0.05,1721206767411
0.76,4.85,15.19,0.07,0.01,0.00,1721206767421
1.82,2.54,1.68,0.14,-0.11,-0.14,1721206767431
0.63,-12.09,2.21,-0.55,0.05,-0.28,1721206767441
-3.14,0.95,23.31,-0.19,-0.20,-0.29,1721206767451
-3.03,7.78,3.51,0.35,-0.22,-0.09,1721206767461
1.12,-6.29,-2.77,-0.24,0.19,0.17,1721206767471
0.74,0.38,18.98,-0.16,-0.09,-0.02,1721206767481
4.09,-2.96,16.00,-0.06,-0.04,-0.29,1721206767491
1.58,2.84,16.44,-0.20,0.06,-0.48,1721206767501
-2.95,12.76,8.74,0.08,-0.19,-0.29,1721206767511
-0.68,-1.70,1.46,-0.13,0.11,-0.05,1721206767521
-0.74,-9.45,12.97,-0.25,0.07,-0.14,1721206767531
-0.45,-3.03,12.62,-0.09,-0.02,-0.27,1721206767541
-0.54,12.44,15.76,0.02,0.09,-0.20,1721206767551
-1.77,11.92,6.24,0.22,-0.17,-0.04,1721206767561
0.64,-21.15,-4.18,-0.14,0.02,-0.01,1721206767571
1.02,-9.35,19.73,-0.22,0.41,-0.26,1721206767581
1.10,16.22,24.82,0.18,-0.11,-0.19,1721206767591
0.04,6.66,6.71,0.23,-0.05,-0.01,1721206767601
1.77,0.97,2.03,0.17,0.18,0.05,1721206767611
3.84,-8.10,3.89,0.12,0.18,-0.20,1721206767621
-0.87,-2.01,15.32,0.04,0.02,-0.46,1721206767631
-3.45,10.00,19.66,0.23,-0.02,-0.40,1721206767641
-3.10,2.92,5.97,0.18,-0.05,0.03,1721206767651
1.66,-9.46,3.83,-0.17,0.25,0.24,1721206767661
2.96,-4.04,16.64,-0.13,0.22,-0.11,1721206767671
0.67,4.50,16.07,0.22,0.04,-0.44,1721206767681
-2.53,-0.59,7.78,0.12,0.03,-0.27,1721206767691
-3.25,2.70,8.87,0.25,0.12,0.08,1721206767701
0.82,2.54,9.33,0.09,0.24,0.12,1721206767711
1.65,0.45,19.45,-0.07,0.08,-0.19,1721206767721
-0.36,0.62,5.63,0.38,-0.10,-0.16,1721206767731
-1.17,-4.06,-0.68,0.04,0.29,-0.17,1721206767741
-3.03,0.79,20.49,0.06,0.08,-0.18,1721206767751
-2.26,5.23,12.90,0.42,0.00,0.01,1721206767761
-0.45,4.10,5.32,0.11,0.16,0.17,1721206767771
1.08,-0.46,6.07,-0.02,0.00,0.10,1721206767781
0.93,-4.20,7.48,-0.28,0.08,-0.11,1721206767791
-0.76,3.21,18.14,-0.01,0.07,-0.27,1721206767801
-2.16,-0.03,4.43,0.18,-0.15,-0.05,1721206767811
-1.63,0.60,8.75,-0.10,0.22,0.13,1721206767821
1.52,5.21,16.34,0.03,0.08,0.10,1721206767831
2.30,0.07,6.17,0.01,-0.12,0.00,1721206767841
0.80,0.44,6.45,-0.09,0.13,-0.20,1721206767851
-0.36,-0.62,7.32,-0.03,-0.07,-0.17,1721206767861
-0.79,-5.42,14.34,-0.24,0.17,-0.09,1721206767871
-1.18,4.91,20.88,0.09,0.00,-0.08,1721206767881
-1.56,7.75,3.09,0.18,-0.19,0.06,1721206767891
1.04,-2.99,-0.52,-0.26,0.24,0.05,1721206767901
3.26,-8.59,13.26,-0.30,0.12,-0.02,1721206767911
2.10,2.95,14.55,0.04,-0.06,-0.17,1721206767921
0.23,2.74,13.49,-0.20,0.08,-0.38,1721206767931
-3.25,5.69,11.63,0.07,-0.12,-0.33,1721206767941
-2.25,-10.67,1.39,-0.42,0.08,0.13,1721206767951
-1.36,1.11,18.30,-0.23,0.07,0.31,1721206767961
6.08,2.35,7.14,0.18,0.13,0.04,1721206767971
3.41,-0.11,6.97,-0.26,0.05,-0.57,1721206767981
-2.84,0.86,17.27,-0.04,-0.21,-0.51,1721206767991
-5.41,3.06,9.54,0.13,0.09,-0.02,1721206768001
-0.76,4.48,7.37,-0.04,0.24,0.26,1721206768011
3.16,4.36,13.10,-0.02,0.03,0.09,1721206768021
3.05,-3.73,5.31,0.09,-0.08,-0.21,1721206768031
1.79,-9.13,3.22,-0.19,0.29,-0.43,1721206768041
-4.02,1.85,22.52,-0.17,-0.05,-0.46,1721206768051
-2.64,14.91,15.81,0.45,-0.03,-0.19,1721206768061
-3.03,-0.00,-2.33,0.15,0.13,-0.00,1721206768071
-3.04,-6.96,14.50,-0.21,0.25,0.14,1721206768081
3.13,-2.64,18.54,0.14,0.08,0.02,1721206768091
3.47,-1.16,10.21,-0.04,0.16,-0.36,1721206768101
-1.90,9.32,12.28,0.28,-0.04,-0.57,1721206768111
-4.74,-2.09,5.15,0.20,0.04,-0.32,1721206768121
-5.11,-7.25,10.69,0.18,0.15,0.15,1721206768131
1.13,5.87,8.08,0.53,0.31,0.32,1721206768141
3.53,1.39,5.21,0.11,0.12,0.00,1721206768151
0.13,-0.71,12.32,0.13,-0.11,-0.38,1721206768161
-2.35,2.03,3.80,0.35,0.08,-0.37,1721206768171
-1.64,-6.27,14.09,-0.28,0.37,-0.24,1721206768181
-2.14,1.30,24.65,0.19,-0.04,0.06,1721206768191
-1.17,10.92,-4.78,0.57,-0.02,0.04,1721206768201
1.24,-6.48,-1.96,-0.17,0.24,-0.11,1721206768211
-3.32,-9.01,18.57,-0.13,0.32,-0.15,1721206768221
-0.45,10.48,17.47,0.49,0.04,-0.23,1721206768231
-1.58,1.37,3.62,-0.20,0.07,-0.19,1721206768241
-4.16,-10.64,17.10,-0.29,0.03,0.03,1721206768251
2.60,6.22,12.50,0.52,0.29,0.41,1721206768261
6.42,3.08,0.08,0.05,0.02,0.10,1721206768271
0.88,1.93,13.58,-0.08,0.10,-0.41,1721206768281
0.57,3.35,5.48,0.38,0.07,-0.42,1721206768291
-0.90,-4.98,3.53,-0.37,0.19,-0.23,1721206768301
-4.13,0.60,24.67,-0.20,-0.02,0.02,1721206768311
-1.60,3.52,6.49,0.27,-0.03,0.18,1721206768321
2.76,-0.22,5.51,-0.22,0.34,0.06,1721206768331
1.02,4.31,17.55,0.00,0.03,-0.09,1721206768341
-0.26,-0.45,4.79,0.01,0.04,-0.18,1721206768351
-2.32,-3.14,12.36,-0.33,0.23,-0.20,1721206768361
-3.30,2.39,17.28,0.05,-0.06,0.02,1721206768371
-1.08,3.11,0.11,0.28,0.02,0.27,1721206768381
1.68,-7.87,4.12,-0.31,0.23,0.25,1721206768391
1.54,4.34,28.65,0.00,0.17,-0.02,1721206768401
1.01,13.30,9.50,0.49,-0.15,-0.17,1721206768411
0.06,-1.22,-5.94,-0.27,0.09,-0.26,1721206768421
-4.18,-5.49,17.13,-0.43,0.02,-0.10,1721206768431
-1.62,0.75,15.07,0.01,0.09,0.06,1721206768441
-0.95,2.58,7.04,-0.14,0.06,0.12,1721206768451
-0.01,-1.99,9.59,-0.18,0.02,0.18,1721206768461
1.21,-2.26,9.05,0.01,0.12,0.13,1721206768471
0.28,0.16,6.80,-0.02,-0.03,0.03,1721206768481
0.37,2.39,7.56,0.07,0.06,-0.08,1721206768491
-0.43,-2.68,19.77,-0.24,0.17,-0.16,1721206768501
-2.76,9.00,21.04,0.07,-0.18,-0.05,1721206768511
-1.43,0.48,-7.18,0.11,-0.13,0.18,1721206768521
0.89,-6.78,7.57,-0.51,0.43,0.12,1721206768531
1.91,6.11,21.82,0.03,-0.00,0.12,1721206768541
0.39,3.05,-1.53,0.31,-0.11,0.07,1721206768551
0.36,-5.60,3.24,-0.25,0.17,0.04,1721206768561
-2.57,4.00,21.81,-0.09,-0.10,0.12,1721206768571
-0.50,0.07,12.81,-0.07,-0.04,0.13,1721206768581
1.96,-2.37,13.75,-0.15,0.04,0.16,1721206768591
2.46,0.79,8.33,0.17,0.02,0.02,1721206768601
1.25,0.15,9.47,-0.03,0.13,-0.19,1721206768611
-1.52,6.56,14.06,0.29,-0.01,-0.13,1721206768621
-1.97,0.57,1.90,0.21,-0.07,0.18,1721206768631
0.41,-0.14,11.63,-0.07,0.23,0.26,1721206768641
2.68,1.82,11.75,0.19,-0.03,0.12,1721206768651
1.41,-5.48,15.65,-0.30,0.10,-0.22,1721206768666
-1.13,-1.82,21.41,-0.18,0.05,-0.24,1721206768670
-2.22,6.66,15.32,0.35,-0.05,0.02,1721206768680
-0.33,0.00,-0.18,0.10,0.13,0.30,1721206768690
0.95,-2.57,12.63,-0.03,0.14,0.25,1721206768700
2.72,0.27,12.12,0.15,0.03,-0.00,1721206768710
1.59,1.64,10.11,0.12,-0.01,-0.01,1721206768720
1.13,1.56,9.74,0.14,0.10,0.04,1721206768730
1.64,-0.00,10.62,0.08,0.15,-0.00,1721206768740
0.58,3.78,9.62,0.27,-0.02,-0.02,1721206768750
1.50,-3.78,4.94,-0.03,0.20,-0.07,1721206768760
-0.46,0.86,14.24,0.11,0.07,-0.21,1721206768770
-1.98,2.32,5.14,0.22,0.02,-0.06,1721206768780
-2.02,-0.95,12.34,-0.16,0.20,0.01,1721206768790
-1.98,1.44,17.25,0.25,-0.01,0.04,1721206768800
-0.01,-4.24,1.14,-0.02,0.04,0.20,1721206768810
1.47,1.59,16.54,-0.14,0.28,0.08,1721206768820
3.25,6.74,9.82,0.47,-0.08,-0.08,1721206768830
1.21,-0.85,-4.33,0.04,-0.01,-0.17,1721206768840
-2.36,0.32,19.07,-0.32,0.25,-0.28,1721206768850
-1.70,0.10,19.90,0.11,-0.02,-0.12,1721206768860
-1.30,3.11,2.39,0.05,0.00,0.15,1721206768870
0.42,2.99,5.83,-0.20,0.23,0.05,1721206768880
1.28,0.54,12.74,-0.02,0.05,-0.14,1721206768890
-0.11,1.36,6.85,0.09,-0.03,-0.21,1721206768900
-2.32,-3.06,9.03,-0.34,0.05,-0.19,1721206768910
-2.80,-0.31,21.86,-0.27,-0.02,0.08,1721206768920
-1.29,3.15,6.87,0.15,-0.12,0.26,1721206768930
3.72,-2.42,0.52,-0.21,0.19,0.12,1721206768940
1.40,-1.95,12.75,-0.13,-0.05,-0.22,1721206768950
-0.47,1.19,14.65,0.06,0.08,-0.37,1721206768960
-2.81,5.97,13.73,0.06,-0.08,-0.13,1721206768970
-4.51,4.24,3.39,0.04,-0.15,0.20,1721206768980
0.24,-6.63,4.02,-0.32,0.11,0.31,1721206768990
2.87,-0.34,16.44,-0.12,0.12,0.11,1721206769000
2.47,1.89,10.33,0.05,-0.14,-0.20,1721206769010
-2.20,-0.94,7.51,-0.22,-0.02,-0.34,1721206769020
-4.05,1.43,14.66,-0.09,-0.06,0.01,1721206769030
-1.92,1.52,9.75,0.06,-0.08,0.39,1721206769040
1.90,-5.28,7.37,-0.18,0.05,0.38,1721206769050
4.62,2.14,18.72,-0.12,0.11,0.04,1721206769060
1.40,5.05,13.57,0.10,-0.24,-0.26,1721206769070
-1.89,-1.93,7.02,-0.16,-0.06,-0.29,1721206769080
-2.80,1.98,16.35,-0.04,-0.02,0.07,1721206769090
-1.49,2.77,5.29,0.31,-0.13,0.24,1721206769100
-0.34,-1.92,1.28,0.09,-0.05,0.19,1721206769110
0.82,-0.78,13.75,-0.00,0.11,0.06,1721206769120
2.67,2.16,14.17,0.14,-0.03,-0.09,1721206769130
0.52,-0.16,10.30,0.03,-0.14,-0.07,1721206769140
-2.49,-1.43,9.47,0.06,-0.08,0.06,1721206769150
0.63,-1.95,10.26,0.03,0.09,0.20,1721206769160
1.68,2.00,13.66,0.11,-0.12,0.02,1721206769170
1.90,-1.41,8.85,0.10,-0.09,-0.13,1721206769180
-0.40,-2.17,9.37,0.00,-0.03,-0.20,1721206769190
-3.19,1.46,9.72,0.11,-0.12,-0.21,1721206769200
-2.59,0.95,8.69,-0.06,-0.04,-0.03,1721206769210
-1.50,-0.49,12.35,0.08,-0.10,0.08,1721206769220
1.95,0.19,7.06,0.03,0.03,0.02,1721206769230
0.51,-1.14,11.46,-0.26,-0.04,-0.20,1721206769240
-1.61,0.96,19.12,-0.09,-0.16,-0.25,1721206769250
-3.14,4.19,8.09,0.22,-0.18,-0.14,1721206769260
-2.17,0.45,1.31,0.03,-0.04,0.08,1721206769270
-1.06,-0.94,12.62,-0.09,-0.03,0.18,1721206769280
1.67,1.57,14.98,0.08,-0.08,0.14,1721206769290
4.30,3.46,10.70,0.06,0.02,-0.09,1721206769300
2.23,1.54,9.36,-0.05,-0.18,-0.26,1721206769310
-1.65,0.62,13.63,-0.05,-0.20,-0.22,1721206769320
-1.58,6.56,10.48,0.27,-0.01,-0.06,1721206769330
1.04,1.15,4.14,0.11,0.00,0.04,1721206769340
-1.39,-2.02,6.27,-0.02,-0.21,-0.02,1721206769350
-1.82,0.57,9.31,0.03,0.00,-0.09,1721206769360
-0.71,-1.32,12.58,0.06,-0.05,0.01,1721206769370
0.11,-1.05,10.25,0.10,-0.15,0.25,1721206769380
1.51,5.30,9.14,0.13,0.02,0.11,1721206769390
2.63,1.02,11.03,0.01,-0.07,-0.10,1721206769400
0.09,0.50,14.54,-0.03,-0.16,-0.25,1721206769410
-2.73,0.10,9.14,0.00,-0.10,-0.23,1721206769420
-4.35,-2.73,8.91,-0.09,-0.09,0.04,1721206769430
-1.82,1.58,9.10,0.09,-0.14,0.34,1721206769440
2.25,0.97,9.94,-0.05,0.05,0.17,1721206769450
3.42,3.73,14.11,0.17,-0.16,-0.08,1721206769460
0.70,3.75,0.84,0.12,-0.18,-0.26,1721206769470
-1.19,-8.41,8.45,-0.35,-0.03,-0.33,1721206769480
-2.19,-0.83,20.57,0.05,-0.12,0.03,1721206769490
-0.71,1.33,8.10,0.08,-0.10,0.10,1721206769500
0.86,1.54,9.91,0.00,-0.11,0.03,1721206769510
1.30,-0.97,8.92,-0.04,-0.16,-0.06,1721206769520
-0.88,0.29,12.01,-0.12,-0.02,-0.25,1721206769530
0.01,-0.12,8.91,0.00,-0.14,-0.15,1721206769540
-2.28,0.56,7.68,-0.02,-0.06,-0.07,1721206769550
-0.85,-1.34,6.83,-0.04,-0.04,0.05,1721206769560
2.13,-5.55,12.36,-0.24,0.05,-0.03,1721206769570
1.07,-0.71,20.52,-0.08,-0.16,-0.12,1721206769580
1.12,7.83,5.91,0.25,-0.15,-0.05,1721206769590
1.91,-2.77,-1.74,-0.09,0.05,-0.18,1721206769600
-1.02,-7.11,14.19,-0.19,-0.06,-0.30,1721206769610
-1.57,2.68,15.69,0.16,0.02,-0.20,1721206769620
-1.51,1.83,13.11,-0.16,-0.00,-0.13,1721206769630
0.11,5.36,17.36,0.01,-0.08,0.08,1721206769640
2.43,-0.69,5.55,-0.02,0.03,0.01,1721206769650
2.52,-2.64,8.55,-0.16,0.13,-0.32,1721206769660
0.03,0.21,11.55,0.13,-0.06,-0.43,1721206769670
-1.12,-5.97,7.15,-0.07,0.06,-0.31,1721206769680
-2.71,4.37,14.67,0.06,-0.01,0.03,1721206769690
1.10,6.09,10.15,0.17,0.11,0.05,1721206769700
4.93,-0.77,11.06,-0.02,0.13,-0.10,1721206769710
1.49,-2.18,10.38,0.03,-0.01,-0.43,1721206769720
-1.50,1.10,7.88,0.12,0.17,-0.53,1721206769730
-3.13,0.21,8.02,0.09,0.08,-0.23,1721206769740
-1.10,0.96,12.89,0.08,0.18,0.10,1721206769750
1.88,6.67,12.36,0.28,0.14,0.06,1721206769760
4.33,1.51,0.45,0.15,0.16,-0.22,1721206769770
1.74,-8.58,9.04,-0.41,0.18,-0.55,1721206769780
-4.29,4.74,22.31,0.12,-0.05,-0.59,1721206769790
-4.10,-2.77,4.87,0.12,0.19,-0.05,1721206769800
-2.18,-4.38,10.22,-0.02,0.17,0.18,1721206769810
1.32,7.08,11.02,0.31,0.12,0.04,1721206769820
3.41,5.56,8.14,0.06,0.21,-0.25,1721206769830
0.11,2.44,10.32,0.07,0.01,-0.39,1721206769840
-3.25,-5.99,5.84,-0.15,0.14,-0.38,1721206769850
-3.58,-1.45,13.72,-0.12,0.21,-0.04,1721206769860
-0.87,-0.19,8.88,-0.03,0.07,0.11,1721206769870
1.22,3.93,13.35,0.04,0.20,-0.05,1721206769880
2.00,5.08,7.23,0.23,0.02,-0.16,1721206769890
0.00,1.23,2.76,-0.13,0.12,-0.27,1721206769900
-1.58,-3.90,14.16,-0.34,0.20,-0.25,1721206769910
-1.75,-3.95,20.31,-0.27,0.10,-0.15,1721206769920
-1.73,1.80,13.64,0.06,-0.02,0.07,1721206769930
0.91,1.72,3.09,0.05,0.22,0.00,1721206769940
2.36,5.21,14.15,0.03,0.24,-0.17,1721206769950
0.50,4.38,12.39,0.26,-0.03,-0.13,1721206769960
0.22,-2.37,2.94,0.04,0.24,-0.12,1721206769970
-2.09,-2.37,12.01,-0.12,0.14,-0.09,1721206769980
-1.01,2.55,17.30,0.08,0.08,0.03,1721206769990
2.20,4.18,12.32,0.12,0.19,0.03,1721206770000
0.33,-1.83,4.21,0.05,-0.07,-0.11,1721206770010
-1.18,-1.84,7.41,-0.02,0.16,-0.17,1721206770020
0.12,4.21,10.17,0.21,0.21,-0.18,1721206770030
-0.31,-3.20,4.02,-0.06,0.04,-0.10,1721206770040
-2.72,-2.96,15.64,-0.05,0.13,0.01,1721206770050
-1.06,0.93,10.87,0.16,0.08,-0.03,1721206770060
2.30,0.74,13.75,-0.10,0.35,-0.03,1721206770070
0.69,2.79,14.64,0.16,-0.00,0.02,1721206770080
0.80,-0.03,4.02,0.04,0.01,-0.18,1721206770090
-0.95,0.85,6.36,0.10,0.09,-0.17,1721206770100
-2.11,-3.41,4.15,-0.10,0.10,-0.16,1721206770110
-3.01,-0.67,20.14,-0.21,0.15,-0.14,1721206770120
-2.14,4.01,9.56,0.24,-0.11,0.12,1721206770130
1.59,-2.44,5.54,-0.24,0.21,0.25,1721206770140
2.38,-0.54,15.36,-0.09,0.04,-0.02,1721206770150
1.00,-3.68,9.11,-0.12,-0.01,-0.22,1721206770160
-2.30,0.63,14.47,-0.07,0.04,-0.27,1721206770170
-3.46,0.42,8.28,0.08,0.03,-0.09,1721206770180
-2.52,-0.23,9.94,-0.03,-0.02,0.27,1721206770190
-0.72,3.56,6.13,0.17,0.01,0.20,1721206770200
2.97,0.67,7.60,0.00,0.17,0.01,1721206770210
0.92,-1.30,13.63,-0.11,-0.16,-0.04,1721206770220
-2.22,-0.23,9.28,0.00,-0.16,-0.10,1721206770230
-0.97,2.40,12.84,-0.06,0.19,0.04,1721206770240
-0.13,0.07,12.19,0.04,-0.07,0.17,1721206770250
-0.04,-0.51,6.98,0.06,-0.11,0.13,1721206770260
1.80,3.09,9.47,0.02,0.12,-0.00,1721206770270
1.09,-0.74,12.32,-0.04,-0.13,-0.09,1721206770280
-2.19,-1.92,9.92,0.00,-0.15,-0.13,1721206770290
-2.57,-0.45,9.74,0.02,-0.01,0.06,1721206770300
-0.27,2.24,16.16,0.04,0.03,0.15,1721206770310
1.19,5.87,16.26,0.21,0.01,0.08,1721206770320
2.22,4.94,4.08,0.25,-0.20,0.07,1721206770330
0.63,-3.51,-0.21,0.02,-0.08,0.01,1721206770340
2.43,-2.50,13.24,-0.03,0.19,-0.11,1721206770350
1.15,8.07,15.19,0.26,-0.19,-0.06,1721206770360
-1.60,3.94,3.26,0.06,-0.22,-0.10,1721206770370
-0.05,-6.71,11.72,-0.10,0.21,-0.10,1721206770380
0.14,-0.31,11.42,0.02,-0.07,-0.05,1721206770390
-1.78,4.95,12.80,-0.15,-0.10,-0.07,1721206770400
-0.89,-1.10,12.09,0.05,-0.03,0.02,1721206770410
2.11,-3.18,8.22,0.08,0.04,0.16,1721206770420
1.96,1.50,11.90,-0.08,-0.02,0.05,1721206770430
-0.58,7.44,14.26,-0.00,-0.17,-0.22,1721206770440
-1.25,4.80,8.10,0.04,-0.07,-0.23,1721206770450
-2.72,-4.77,1.12,-0.07,-0.20,0.04,1721206770460
-0.84,-5.36,5.49,-0.22,0.15,0.11,1721206770470
1.68,-1.41,14.83,-0.07,-0.03,0.06,1721206770480
1.42,4.34,12.76,0.07,-0.10,-0.05,1721206770490
2.29,4.20,11.05,0.13,0.03,-0.13,1721206770500
1.15,3.06,4.97,0.07,-0.10,-0.17,1721206770510
-2.34,-2.01,8.19,-0.34,-0.06,-0.25,1721206770520
-2.77,-1.56,21.07,-0.28,0.08,-0.32,1721206770530
-3.30,2.59,13.02,0.07,-0.15,-0.05,1721206770540
-2.70,-2.93,-1.98,-0.13,-0.16,0.36,1721206770550
3.48,-8.78,10.08,-0.26,0.28,0.23,1721206770560
4.37,6.31,18.14,0.12,-0.05,-0.21,1721206770570
2.00,2.02,5.20,0.07,-0.29,-0.26,1721206770580
-1.56,-0.76,8.90,-0.10,0.11,-0.33,1721206770590
-1.96,0.78,14.15,-0.01,-0.03,-0.15,1721206770600
-1.42,2.47,15.99,-0.10,0.03,0.12,1721206770610
0.41,0.19,10.49,0.05,-0.11,0.08,1721206770620
2.71,-2.36,2.91,0.01,-0.01,-0.02,1721206770630
2.27,1.73,8.98,0.02,0.14,-0.20,1721206770640
-0.57,1.52,10.76,0.04,-0.14,-0.30,1721206770650
-2.96,-1.92,10.35,0.00,-0.06,-0.17,1721206770660
-1.69,-0.28,12.03,-0.01,0.03,0.10,1721206770675
-0.41,1.04,12.60,-0.01,-0.04,0.11,1721206770679
1.12,2.56,14.66,0.00,-0.01,0.04,1721206770689
2.26,-0.06,10.44,0.12,-0.04,-0.05,1721206770699
1.47,-5.00,7.45,0.01,0.02,-0.19,1721206770709
-2.23,2.79,10.56,0.18,-0.09,-0.30,1721206770719
-1.31,6.47,6.75,0.19,0.14,-0.01,1721206770729
-0.40,-2.53,9.39,-0.01,0.04,0.13,1721206770739
0.93,-4.11,11.02,0.03,-0.02,0.04,1721206770749
3.09,-0.20,9.97,0.02,0.10,-0.16,1721206770759
0.99,1.23,14.42,-0.07,-0.04,-0.24,1721206770769
-2.43,-0.87,17.31,-0.01,-0.07,-0.17,1721206770779
-0.02,1.63,8.35,0.31,0.05,0.11,1721206770789
3.45,1.67,0.95,0.18,0.20,-0.02,1721206770799
1.36,-1.30,14.95,-0.07,0.11,-0.45,1721206770809
-2.36,3.88,10.86,0.30,-0.07,-0.41,1721206770819
-2.94,-0.74,1.67,0.09,0.16,-0.07,1721206770829
0.32,-0.90,13.34,-0.01,0.21,0.14,1721206770839
1.66,1.60,12.97,0.12,0.06,-0.19,1721206770849
-0.24,2.31,12.68,0.14,0.09,-0.38,1721206770859
-1.39,-0.98,4.28,0.03,0.04,-0.14,1721206770869
-0.57,0.19,8.84,-0.05,0.23,-0.10,1721206770879
0.50,-1.30,12.77,-0.07,0.09,-0.19,1721206770889
-1.56,6.14,16.02,0.06,0.07,-0.26,1721206770899
-0.10,-6.55,5.58,-0.07,0.06,-0.08,1721206770909
0.67,0.27,11.74,-0.05,0.20,-0.08,1721206770919
1.88,5.31,10.61,0.09,0.15,-0.22,1721206770929
-0.25,7.92,11.94,0.09,0.10,-0.37,1721206770939
-2.58,3.49,2.49,0.17,-0.01,-0.29,1721206770949
-2.39,-12.48,7.18,-0.37,0.25,-0.18,1721206770959
-1.00,1.32,19.07,-0.07,0.13,0.13,1721206770969
1.70,5.02,9.58,-0.10,0.12,-0.11,1721206770979
1.12,-2.21,13.73,-0.10,-0.02,-0.28,1721206770989
-1.22,-3.30,1.38,0.19,-0.04,-0.19,1721206770999
-1.77,1.57,8.22,-0.13,0.39,-0.27,1721206771009
-1.45,4.00,17.81,-0.07,0.02,-0.08,1721206771019
-1.73,-0.10,11.90,-0.11,-0.00,0.09,1721206771029
-0.04,0.33,4.48,0.14,0.06,0.00,1721206771039
2.13,-7.90,2.85,-0.24,0.19,-0.08,1721206771049
-0.89,2.72,22.78,-0.14,0.00,-0.18,1721206771059
-0.79,7.75,12.35,0.28,0.01,-0.25,1721206771069
-1.99,-1.19,-1.09,-0.01,-0.02,-0.04,1721206771079
-4.42,-7.36,8.07,-0.23,0.05,0.16,1721206771089
1.07,3.05,17.06,0.03,0.34,0.11,1721206771099
3.23,-0.50,14.75,-0.25,0.03,-0.10,1721206771109
-0.17,1.03,17.86,0.01,-0.11,-0.17,1721206771119
-1.48,1.54,1.34,0.23,0.02,-0.08,1721206771129
-0.46,-3.49,11.61,-0.17,0.28,-0.06,1721206771139
-0.68,5.07,14.45,0.36,-0.19,0.19,1721206771149
0.58,1.20,-0.09,0.18,0.10,0.08,1721206771159
1.11,-2.06,9.04,-0.05,0.10,-0.07,1721206771169
0.67,1.84,17.31,0.03,0.07,-0.25,1721206771179
-2.06,3.73,14.03,0.06,0.00,-0.19,1721206771189
-2.26,-1.22,2.04,0.05,-0.09,0.06,1721206771199
-0.38,-4.64,7.97,-0.08,0.21,0.08,1721206771209
0.94,1.42,16.16,0.06,-0.07,0.00,1721206771219
-0.11,5.07,9.67,0.11,-0.07,-0.23,1721206771229
-1.32,-0.89,6.27,-0.02,-0.06,-0.16,1721206771239
-2.28,-3.19,13.17,-0.11,0.06,0.03,1721206771249
-1.60,-1.45,10.18,0.05,-0.13,0.13,1721206771259
2.06,1.32,8.89,0.06,0.15,0.01,1721206771269
2.88,2.67,14.47,0.10,0.09,-0.14,1721206771279
-0.49,3.34,7.92,0.21,-0.26,-0.21,1721206771289
-3.03,2.43,-1.48,0.19,-0.12,-0.12,1721206771299
-1.48,-5.84,9.92,-0.25,0.28,-0.10,1721206771309
-1.99,3.37,22.89,0.13,-0.18,0.11,1721206771319
-0.44,3.16,1.75,0.17,-0.14,0.07,1721206771329
2.13,-4.22,11.36,-0.24,0.31,-0.10,1721206771339
0.13,3.68,18.78,0.19,-0.30,-0.01,1721206771349
-0.13,1.33,1.01,0.10,-0.08,0.08,1721206771359
1.01,0.94,13.13,-0.10,0.21,-0.09,1721206771369
2.27,1.52,16.03,0.14,-0.09,-0.14,1721206771379
-0.04,1.79,4.94,0.11,-0.14,-0.14,1721206771389
-1.07,-1.37,8.99,-0.07,0.17,-0.27,1721206771399
-2.32,-1.32,15.18,-0.01,-0.06,-0.10,1721206771409
-2.04,6.55,10.54,0.33,-0.05,0.10,1721206771419
1.52,-0.14,0.58,0.12,0.06,0.13,1721206771429
0.23,-4.50,9.32,-0.20,0.02,-0.09,1721206771439
-0.62,7.49,19.01,0.10,-0.03,-0.19,1721206771449
-0.19,3.09,4.90,0.08,-0.14,0.00,1721206771459
-1.71,-5.64,10.89,-0.32,0.09,-0.02,1721206771469
-0.56,0.69,15.09,0.05,-0.10,0.05,1721206771479
1.39,-0.16,2.12,-0.10,-0.04,0.03,1721206771489
0.98,-3.96,15.08,-0.32,0.08,-0.06,1721206771499
0.43,5.74,16.52,0.34,-0.11,-0.01,1721206771509
1.29,-2.37,2.36,-0.06,-0.04,-0.12,1721206771519
-2.49,6.22,11.65,-0.03,-0.29,-0.17,1721206771529
-0.47,0.09,11.57,-0.09,0.25,-0.06,1721206771539
-2.26,-4.27,10.54,-0.12,-0.17,-0.05,1721206771549
-3.19,-0.63,8.86,0.02,-0.07,0.07,1721206771559
0.31,4.17,9.38,0.10,0.16,0.18,1721206771569
2.15,-1.00,7.89,-0.04,-0.17,0.15,1721206771579
2.10,-2.70,11.65,-0.07,-0.02,-0.09,1721206771589
1.87,1.48,11.71,0.02,0.02,-0.29,1721206771599
-1.35,2.41,10.73,-0.03,-0.22,-0.12,1721206771609
-2.05,-4.49,8.76,-0.08,0.02,0.03,1721206771619
1.27,-2.41,12.61,-0.00,0.08,0.05,1721206771629
2.45,3.15,13.40,0.04,0.02,-0.09,1721206771639
1.75,3.21,11.13,0.13,-0.13,-0.18,1721206771649
1.54,1.42,7.47,0.13,0.15,-0.23,1721206771659
-1.15,-1.46,6.58,0.08,-0.01,-0.29,1721206771669
-1.98,2.67,8.88,0.16,-0.03,-0.14,1721206771679
-0.34,-3.47,7.65,-0.12,0.09,-0.01,1721206771689
-0.02,-2.28,19.51,-0.16,-0.03,0.00,1721206771699
2.22,1.82,11.19,0.12,0.04,-0.03,1721206771709
1.99,-1.80,3.44,-0.02,0.07,-0.25,1721206771719
-0.11,0.38,12.67,0.01,0.10,-0.45,1721206771729
-2.53,2.18,10.94,0.19,0.04,-0.24,1721206771739
-2.45,0.17,10.21,-0.03,0.17,-0.04,1721206771749
-1.07,-0.18,14.08,0.04,0.08,-0.08,1721206771759
0.22,4.54,6.24,0.13,0.01,-0.03,1721206771769
2.17,-1.53,9.97,-0.06,0.22,-0.12,1721206771779
0.33,1.82,13.24,0.21,-0.01,-0.34,1721206771789
-0.98,6.33,2.36,0.22,0.07,-0.20,1721206771799
-1.31,-3.17,12.34,-0.18,0.20,-0.18,1721206771809
-1.93,-1.79,13.65,0.10,-0.01,-0.12,1721206771819
-0.52,2.21,1.75,-0.01,0.11,0.07,1721206771829
2.50,-6.14,13.75,-0.30,0.28,-0.04,1721206771839
1.34,0.82,22.33,0.18,0.02,-0.34,1721206771849
-1.53,7.02,5.02,0.33,0.02,-0.33,1721206771859
-1.78,3.79,5.70,-0.03,0.25,-0.13,1721206771869
-1.04,-1.98,5.96,0.00,0.06,0.02,1721206771879
-0.06,-1.69,10.50,-0.14,0.18,-0.08,1721206771889
0.70,0.92,10.30,0.01,0.08,-0.17,1721206771899
-0.02,-1.32,7.79,-0.18,0.13,-0.18,1721206771909
-0.44,0.90,12.99,-0.07,0.12,-0.09,1721206771919
0.87,-5.71,12.87,-0.40,0.19,-0.13,1721206771929
-1.36,8.98,4.97,0.31,-0.08,-0.16,1721206771939
1.90,6.88,6.37,-0.12,0.67,-0.31,1721206771949
-3.93,-7.84,20.21,-0.42,0.04,-0.01,1721206771959
-1.63,-1.74,21.53,-0.12,0.12,-0.02,1721206771969
2.79,8.77,11.36,0.10,0.20,-0.06,1721206771979
1.92,0.95,8.23,-0.27,0.04,-0.11,1721206771989
-1.08,2.74,14.19,0.08,0.04,-0.20,1721206771999
-0.95,5.47,0.94,0.24,0.19,-0.21,1721206772009
-0.27,-7.63,6.18,-0.24,0.28,-0.12,1721206772019
0.12,0.75,19.98,0.01,0.18,-0.11,1721206772029
1.06,3.96,7.08,0.27,0.10,-0.01,1721206772039
1.61,-2.18,8.72,-0.06,0.28,-0.17,1721206772049
0.53,1.88,17.10,0.19,0.05,-0.20,1721206772059
-1.54,1.87,2.67,0.27,0.04,-0.12,1721206772069
-0.31,-4.31,8.24,-0.14,0.36,-0.13,1721206772079
-1.17,2.88,14.25,0.26,0.05,-0.08,1721206772089
-0.47,-0.55,1.30,0.15,0.19,-0.10,1721206772099
-0.17,-2.38,9.59,-0.05,0.25,0.01,1721206772109
-1.06,1.19,21.66,-0.02,0.25,-0.04,1721206772119
-0.28,7.39,10.48,0.35,0.04,-0.04,1721206772129
0.39,-4.45,-5.83,-0.15,0.05,-0.04,1721206772139
-0.63,-8.65,14.78,-0.28,0.32,-0.03,1721206772149
-0.87,3.85,14.23,0.23,0.04,-0.03,1721206772159
-0.72,-0.50,8.00,-0.26,0.27,-0.20,1721206772169
-2.44,0.36,23.65,-0.10,0.00,-0.15,1721206772179
-2.36,5.69,6.62,0.18,0.05,0.12,1721206772189
-2.49,-3.62,1.56,-0.33,0.10,0.13,1721206772199
0.50,-5.62,11.88,-0.18,0.25,0.06,1721206772209
2.46,-0.37,13.97,-0.11,0.22,-0.09,1721206772219
-0.92,3.36,13.45,-0.10,-0.19,-0.12,1721206772229
-3.61,-1.72,3.37,-0.08,-0.06,0.09,1721206772239
-0.71,-0.73,9.18,-0.09,0.28,0.24,1721206772249
2.73,-0.21,9.66,-0.00,0.07,0.15,1721206772259
2.02,-1.56,8.01,-0.14,-0.00,-0.04,1721206772269
0.01,1.70,16.30,-0.12,0.12,-0.22,1721206772279
-1.36,5.64,14.19,0.06,-0.04,-0.14,1721206772289
-3.16,1.22,6.20,-0.10,-0.07,0.03,1721206772299
-2.52,-1.52,16.16,-0.18,0.17,0.13,1721206772309
0.08,3.83,10.23,0.14,-0.10,0.23,1721206772319
1.19,0.99,3.50,-0.02,0.07,0.09,1721206772329
1.77,-5.60,16.08,-0.19,0.15,-0.05,1721206772339
-0.41,6.10,17.21,0.18,-0.12,-0.02,1721206772349
-0.05,4.61,7.84,0.10,-0.02,0.06,1721206772359
-0.28,1.47,13.34,0.11,0.00,0.08,1721206772369
0.74,1.79,6.46,0.24,-0.10,0.12,1721206772379
2.17,-2.04,8.72,-0.01,0.14,-0.03,1721206772389
0.12,6.18,13.21,0.24,-0.13,-0.10,1721206772399
-0.88,-3.65,2.91,-0.02,-0.05,-0.06,1721206772409
-1.23,-1.45,13.19,0.05,0.20,0.01,1721206772419
0.38,2.55,6.25,0.25,-0.08,0.11,1721206772429
-1.11,-0.59,8.86,-0.21,0.06,0.02,1721206772439
-0.85,1.93,16.72,0.14,-0.12,0.07,1721206772449
-0.23,-1.31,8.23,-0.13,0.05,0.04,1721206772459
-1.80,2.80,17.65,-0.09,-0.13,0.03,1721206772469
-0.29,-0.89,2.13,0.03,-0.12,0.14,1721206772479
0.28,-6.11,7.24,-0.38,0.15,0.15,1721206772489
0.18,0.84,21.21,0.04,-0.12,0.16,1721206772499
0.97,7.36,4.19,0.37,-0.22,0.17,1721206772509
1.81,1.85,5.72,-0.20,0.13,-0.02,1721206772519
-0.38,-1.50,15.55,-0.12,-0.29,-0.04,1721206772529
-2.79,-0.78,4.21,-0.12,-0.15,-0.11,1721206772539
-2.90,-0.27,13.42,-0.24,0.10,0.00,1721206772549
-0.84,-0.98,16.43,-0.03,-0.08,0.34,1721206772559
1.42,-2.98,8.42,0.03,-0.12,0.36,1721206772569
4.50,3.67,4.83,0.14,0.06,0.05,1721206772579
3.42,3.66,7.60,-0.07,0.01,-0.27,1721206772589
-2.24,-1.88,17.32,-0.10,-0.27,-0.23,1721206772599
-3.15,-2.34,10.37,0.11,-0.10,0.08,1721206772609
-1.17,-2.55,6.05,-0.15,0.05,0.16,1721206772619
0.48,0.99,14.98,-0.15,-0.08,0.11,1721206772629
-0.13,4.91,13.23,0.02,-0.15,0.01,1721206772639
1.51,1.58,4.75,0.12,-0.02,-0.05,1721206772649
0.51,-4.00,7.90,-0.05,0.04,-0.10,1721206772659
-1.10,-1.72,14.65,-0.02,-0.18,-0.06,1721206772669
-0.32,-0.31,10.46,0.02,-0.20,0.18,1721206772684
-0.28,2.12,8.71,0.07,-0.10,0.17,1721206772688
2.67,-2.94,6.05,0.10,-0.08,0.18,1721206772698
2.79,-2.11,11.66,0.11,0.02,-0.01,1721206772708
0.74,4.17,18.78,0.15,-0.03,-0.27,1721206772718
-1.39,6.73,8.77,0.37,-0.29,-0.07,1721206772728
-0.65,-1.32,-3.80,0.19,-0.04,0.22,1721206772738
2.95,-5.58,12.64,-0.12,0.20,0.07,1721206772748
1.25,3.07,16.69,0.19,-0.15,-0.09,1721206772758
-1.60,-0.45,3.81,0.06,-0.16,-0.22,1721206772768
-1.01,-0.46,14.37,-0.05,0.07,-0.05,1721206772778
-0.16,-0.26,8.81,0.15,-0.10,0.18,1721206772788
0.79,-1.92,13.22,-0.06,0.08,0.11,1721206772798
2.58,4.30,14.06,0.29,-0.02,-0.06,1721206772808
2.68,-4.08,1.02,0.12,-0.09,-0.14,1721206772818
0.51,-4.74,12.47,-0.11,0.04,-0.20,1721206772828
-0.63,8.25,18.95,0.30,0.04,-0.26,1721206772838
0.53,6.97,4.33,0.38,0.01,-0.07,1721206772848
0.89,-1.41,1.70,0.15,0.11,-0.11,1721206772858
1.80,-1.39,8.37,0.05,0.23,-0.44,1721206772868
-1.73,-2.02,10.54,-0.05,-0.04,-0.46,1721206772878
-4.45,1.79,17.18,0.00,0.09,-0.23,1721206772888
-1.81,0.69,8.74,0.23,0.05,0.07,1721206772898
1.40,-0.38,7.72,0.03,0.10,0.08,1721206772908
3.18,3.57,14.26,-0.05,0.16,-0.22,1721206772918
1.37,-0.74,12.56,-0.15,0.05,-0.57,1721206772928
-3.00,-0.92,11.41,0.01,0.01,-0.45,1721206772938
-3.13,0.06,3.08,0.09,0.12,-0.13,1721206772948
-0.91,4.47,6.95,0.02,0.20,-0.07,1721206772958
0.03,1.51,10.30,0.02,0.01,-0.18,1721206772968
-1.00,0.76,12.38,-0.03,0.11,-0.23,1721206772978
0.99,3.01,4.89,-0.08,0.12,-0.21,1721206772988
-0.28,-0.88,6.58,-0.29,0.02,-0.19,1721206772998
-1.32,-4.10,15.77,-0.33,0.15,-0.23,1721206773008
-0.91,0.14,16.67,-0.02,0.14,-0.29,1721206773018
-2.21,1.99,4.86,-0.02,-0.09,-0.15,1721206773028
-1.10,-3.55,10.17,-0.29,0.30,-0.02,1721206773038
0.87,4.55,15.84,0.03,0.12,-0.05,1721206773048
0.91,1.61,8.02,-0.03,-0.03,-0.15,1721206773058
-0.14,-4.70,8.33,-0.16,0.13,-0.15,1721206773068
-1.04,-2.91,15.94,-0.15,0.17,-0.19,1721206773078
0.31,6.51,15.35,0.07,0.09,-0.05,1721206773088
0.28,5.71,5.34,0.13,0.02,-0.04,1721206773098
-0.30,-1.65,4.03,0.09,0.05,-0.17,1721206773108
-0.65,-4.44,6.46,0.00,0.13,-0.12,1721206773118
-1.33,-1.13,18.88,-0.14,0.22,-0.15,1721206773128
-1.29,7.85,14.92,0.25,-0.13,-0.03,1721206773138
-2.07,2.15,1.38,-0.05,0.02,-0.02,1721206773148
-0.62,-0.83,13.80,-0.01,0.20,0.13,1721206773158
3.09,-5.16,12.89,0.16,0.12,0.07,1721206773168
0.87,-1.36,5.82,0.13,-0.04,-0.14,1721206773178
-1.63,9.11,12.42,0.11,0.08,-0.32,1721206773188
-2.57,8.40,9.64,0.39,-0.03,-0.13,1721206773198
-3.38,-12.58,-5.68,-0.16,-0.12,0.15,1721206773208
0.39,-9.89,19.80,-0.38,0.47,0.25,1721206773218
3.55,6.43,22.85,0.28,-0.18,0.18,1721206773228
1.11,6.01,-4.02,0.12,-0.10,-0.28,1721206773238
-0.85,-1.16,12.33,-0.11,0.25,-0.31,1721206773248
-2.79,-4.82,15.42,0.11,-0.18,0.16,1721206773258
-1.19,-3.32,10.83,-0.04,0.12,0.30,1721206773268
2.42,6.98,11.46,0.17,-0.01,0.10,1721206773278
3.20,0.96,3.64,-0.10,-0.15,-0.07,1721206773288
-1.99,-6.65,9.56,-0.12,0.05,-0.30,1721206773298
-1.31,1.47,10.55,0.12,0.08,-0.16,1721206773308
-1.73,3.14,16.03,-0.21,0.01,0.01,1721206773318
-1.64,2.35,16.42,0.01,-0.15,0.04,1721206773328
1.06,-1.58,0.04,0.12,-0.03,0.09,1721206773338
2.15,-5.67,8.06,-0.28,0.13,-0.01,1721206773348
0.40,-0.87,22.89,-0.11,-0.12,-0.12,1721206773358
-1.13,8.77,11.13,0.32,-0.12,-0.10,1721206773368
-1.29,3.39,4.61,-0.02,-0.04,-0.07,1721206773378
-2.50,2.14,11.64,0.10,-0.12,0.04,1721206773388
2.14,-4.93,2.91,0.04,0.08,0.13,1721206773398
2.34,-3.74,18.38,-0.39,0.17,-0.21,1721206773408
-0.85,11.38,5.14,0.55,-0.49,-0.07,1721206773418
5.00,-2.28,3.58,-0.10,0.68,-0.19,1721206773428
-1.11,7.52,22.02,0.11,-0.54,-0.31,1721206773438
-5.63,0.71,-0.20,0.26,-0.13,-0.20,1721206773448
0.22,0.62,14.64,-0.22,0.57,-0.03,1721206773458
-0.25,0.51,11.28,0.10,-0.48,0.17,1721206773468
-1.08,-5.01,10.13,-0.24,0.23,0.03,1721206773478
2.04,6.37,18.44,0.25,-0.07,0.02,1721206773488
1.37,-2.05,-0.99,0.04,-0.17,-0.10,1721206773498
-0.70,-1.68,10.28,-0.05,0.31,-0.25,1721206773508
0.19,7.75,9.77,0.31,-0.01,-0.24,1721206773518
-2.15,5.83,5.49,0.02,-0.05,-0.07,1721206773528
-2.13,-9.93,8.55,-0.21,-0.01,0.06,1721206773538
-1.55,-6.47,19.90,-0.30,0.16,-0.06,1721206773548
-1.07,10.64,20.15,0.15,-0.21,-0.04,1721206773558
0.32,6.19,-1.28,0.05,-0.03,0.08,1721206773568
1.17,-5.42,3.97,-0.18,0.06,0.13,1721206773578
2.02,-5.97,8.42,-0.05,-0.04,-0.11,1721206773588
1.94,-2.21,17.65,-0.35,0.26,-0.40,1721206773598
-2.87,4.92,23.51,-0.10,-0.27,-0.28,1721206773608
-3.02,5.81,8.30,0.03,-0.08,0.17,1721206773618
0.36,-5.40,2.54,-0.14,0.16,0.15,1721206773628
3.01,-8.65,7.85,-0.17,0.10,-0.24,1721206773638
-0.91,4.90,18.61,-0.13,-0.06,-0.44,1721206773648
-4.46,8.91,13.89,0.17,-0.08,-0.25,1721206773658
-1.52,-3.48,-0.11,0.10,0.11,0.30,1721206773668
0.95,-5.84,2.21,-0.06,0.08,0.31,1721206773678
3.85,-0.12,12.20,-0.14,0.11,-0.18,1721206773688
0.93,3.47,18.90,-0.04,-0.06,-0.49,1721206773698
-2.61,0.30,3.85,0.14,-0.20,-0.07,1721206773708
-1.45,-4.66,8.71,-0.23,0.39,0.08,1721206773718
0.90,0.22,20.45,-0.05,-0.03,0.10,1721206773728
1.86,4.59,14.80,0.06,-0.02,0.01,1721206773738
0.49,5.81,4.44,0.20,0.06,-0.22,1721206773748
-0.37,-8.02,4.46,-0.13,0.15,-0.26,1721206773758
-3.11,0.77,20.62,0.02,-0.02,-0.05,1721206773768
-1.12,8.17,15.58,0.23,0.08,0.06,1721206773778
0.18,3.41,6.93,0.04,0.01,0.12,1721206773788
0.39,-0.85,5.43,0.15,-0.01,0.11,1721206773798
3.16,-5.08,6.71,-0.03,0.20,-0.13,1721206773808
-0.33,0.77,18.59,0.01,-0.07,-0.17,1721206773818
-2.30,6.36,4.96,0.41,-0.07,0.02,1721206773828
0.66,-6.33,0.33,-0.03,0.24,0.18,1721206773838
1.91,1.60,19.40,0.17,0.07,0.07,1721206773848
2.50,9.97,8.41,0.43,-0.01,-0.16,1721206773858
0.70,-2.66,3.86,-0.09,0.13,-0.29,1721206773868
-2.52,-4.70,12.25,0.09,0.02,-0.14,1721206773878
-1.16,-1.27,7.18,0.05,0.15,0.04,1721206773888
0.22,2.06,15.40,-0.01,0.11,0.00,1721206773898
0.48,1.27,12.14,0.22,-0.04,-0.05,1721206773908
0.73,0.48,4.80,0.14,0.13,-0.13,1721206773918
1.22,0.52,7.80,-0.00,0.19,-0.16,1721206773928
-1.41,-2.83,13.23,-0.12,0.03,-0.22,1721206773938
-3.43,-0.04,23.18,-0.01,0.13,-0.17,1721206773948
-1.87,2.16,6.18,0.28,0.03,0.10,1721206773958
1.71,-1.41,1.38,-0.10,0.15,0.23,1721206773968
2.24,3.56,17.90,-0.05,0.17,-0.09,1721206773978
1.41,5.60,7.44,0.23,-0.03,-0.37,1721206773988
-1.73,-2.35,1.12,-0.05,0.06,-0.25,1721206773998
-2.53,-0.56,10.98,-0.06,0.14,-0.00,1721206774008
-0.36,2.07,11.50,-0.04,0.10,0.08,1721206774018
1.36,0.99,11.77,-0.06,0.06,0.00,1721206774028
1.94,4.01,12.19,0.04,0.06,-0.13,1721206774038
1.04,2.22,7.58,0.01,0.04,-0.24,1721206774048
-2.32,-2.99,6.34,-0.11,-0.08,-0.13,1721206774058
-1.62,-0.20,15.05,-0.15,0.25,-0.08,1721206774068
-0.54,3.33,12.16,0.13,-0.02,-0.00,1721206774078
-1.02,-3.38,2.13,-0.06,-0.06,0.09,1721206774088
0.00,2.67,16.12,-0.09,0.30,-0.02,1721206774098
2.17,4.17,11.01,0.16,-0.10,0.03,1721206774108
1.01,-3.27,4.96,-0.15,0.07,-0.10,1721206774118
-1.22,3.43,14.77,0.06,0.11,-0.18,1721206774128
-0.20,-2.49,4.21,-0.00,-0.03,-0.10,1721206774138
-2.55,-4.53,12.97,-0.18,0.00,0.07,1721206774148
-1.92,3.91,12.84,0.18,0.04,0.09,1721206774158
2.84,2.62,5.07,0.12,0.11,0.19,1721206774168
1.61,-3.74,8.49,-0.09,0.01,-0.02,1721206774178
-0.36,3.44,17.45,0.08,0.01,-0.12,1721206774188
-0.05,3.67,5.96,0.17,-0.05,-0.04,1721206774198
-1.02,-5.27,8.74,-0.20,0.18,-0.10,1721206774208
-0.83,-1.69,18.03,0.03,-0.07,0.07,1721206774218
-0.09,4.72,7.12,0.16,-0.03,0.09,1721206774228
0.39,0.47,5.86,0.00,0.02,-0.11,1721206774238
0.15,-2.24,10.11,0.01,0.12,-0.12,1721206774248
-1.13,-2.34,10.30,-0.02,-0.04,0.03,1721206774258
0.56,-0.04,13.35,-0.11,0.10,0.03,1721206774268
1.53,3.47,14.93,0.07,0.06,-0.03,1721206774278
0.77,-1.98,4.47,0.01,-0.16,-0.11,1721206774288
-1.49,-0.50,4.34,-0.07,0.05,-0.24,1721206774298
0.41,-1.48,14.23,-0.04,0.23,-0.12,1721206774308
-0.70,0.58,12.47,0.03,-0.11,-0.04,1721206774318
-3.60,2.28,5.90,0.02,-0.09,-0.10,1721206774328
1.36,-0.11,9.62,-0.00,0.34,0.02,1721206774338
1.07,-0.23,10.45,-0.01,-0.05,0.00,1721206774348
0.21,0.70,10.29,-0.05,-0.03,-0.07,1721206774358
0.31,4.38,14.24,0.04,0.08,-0.16,1721206774368
-1.78,1.57,7.07,0.09,-0.15,-0.18,1721206774378
-2.24,-3.49,8.77,-0.14,0.10,-0.01,1721206774388
-0.73,4.13,17.59,0.04,0.10,0.04,1721206774398
1.38,3.65,7.16,0.13,-0.04,0.02,1721206774408
1.03,-2.22,5.95,-0.08,0.05,-0.05,1721206774418
1.30,-2.07,15.26,-0.05,0.12,-0.19,1721206774428
0.57,4.62,13.18,0.19,-0.04,-0.14,1721206774438
-0.85,3.54,4.90,0.14,-0.05,-0.14,1721206774448
-1.38,0.50,9.77,0.05,0.10,-0.18,1721206774458
-1.71,0.64,10.64,0.19,-0.04,-0.08,1721206774468
-2.01,-0.46,4.05,0.08,0.02,0.02,1721206774478
-0.77,0.56,11.73,-0.06,0.25,-0.06,1721206774488
-0.90,1.55,10.93,0.19,-0.12,0.05,1721206774498
-0.24,0.11,4.29,0.04,0.09,0.09,1721206774508
1.71,2.29,12.51,0.06,0.17,0.05,1721206774518
0.39,0.47,8.06,-0.07,-0.09,-0.13,1721206774528
-1.89,-2.71,12.58,-0.21,0.02,-0.21,1721206774538
-2.75,-2.66,11.89,-0.05,-0.02,0.00,1721206774548
-2.07,-1.66,13.26,-0.19,0.07,0.18,1721206774558
-0.34,4.56,13.96,0.17,-0.16,0.28,1721206774568
2.59,0.79,3.80,-0.03,0.10,0.06,1721206774578
1.30,3.58,15.32,-0.08,0.01,-0.16,1721206774588
-2.04,-0.74,4.13,-0.01,-0.28,-0.22,1721206774598
-3.95,0.63,11.46,-0.19,0.17,-0.04,1721206774608
-0.38,-0.90,5.93,0.16,-0.10,0.24,1721206774618
1.10,-3.32,8.33,-0.17,0.12,0.26,1721206774628
-0.28,0.32,10.56,0.07,-0.02,0.01,1721206775182
0.41,-1.37,8.64,0.05,-0.02,0.06,1721206775187
1.42,-2.24,7.38,0.04,0.09,-0.05,1721206775196
0.28,1.30,6.52,0.06,-0.15,-0.12,1721206775206
0.17,4.44,9.52,0.07,0.16,-0.20,1721206775215
-0.10,0.61,15.39,-0.08,0.09,-0.19,1721206775225
-2.25,-1.27,7.38,-0.00,-0.18,-0.02,1721206775235
-1.67,-7.58,6.13,-0.28,0.15,0.08,1721206775245
2.40,-2.31,21.84,-0.24,0.23,0.04,1721206775255
1.38,5.33,8.64,0.26,-0.19,-0.07,1721206775265
-0.41,-3.79,-2.39,0.04,-0.00,-0.27,1721206775275
-2.07,1.36,18.90,-0.06,0.30,-0.19,1721206775285
-0.42,5.65,11.32,0.25,-0.09,-0.02,1721206775295
1.33,-3.87,2.23,-0.16,0.11,-0.07,1721206775305
-0.99,2.52,13.07,-0.07,0.09,-0.27,1721206775315
0.74,0.88,10.06,0.02,0.05,-0.31,1721206775325
-2.86,-3.87,11.23,-0.12,-0.05,-0.23,1721206775335
-3.59,-0.08,7.43,0.10,0.01,-0.10,1721206775345
-0.81,3.83,8.52,-0.00,0.16,0.04,1721206775355
1.63,1.66,14.40,-0.04,0.05,-0.03,1721206775365
0.88,-3.69,12.00,-0.09,-0.07,-0.18,1721206775375
-2.60,-2.01,12.24,-0.07,-0.05,-0.31,1721206775385
-2.40,0.29,15.44,-0.06,0.17,-0.19,1721206775395
-0.89,9.22,15.23,0.17,0.02,0.04,1721206775405
-0.53,5.31,3.17,0.31,-0.11,-0.00,1721206775415
0.88,-3.18,5.96,0.19,0.18,-0.07,1721206775425
1.09,1.46,12.26,0.22,-0.06,-0.04,1721206775435
0.35,3.91,5.68,0.12,-0.05,-0.17,1721206775445
-1.27,2.84,13.53,-0.01,0.10,-0.39,1721206775455
-1.56,-1.45,13.98,0.16,0.06,-0.03,1721206775465
-0.04,1.53,9.65,0.11,-0.00,0.14,1721206775475
1.09,3.74,9.95,0.15,0.02,-0.06,1721206775485
1.86,0.37,10.00,0.07,0.14,-0.14,1721206775495
-0.24,1.95,9.56,0.14,-0.03,-0.19,1721206775505
-1.20,-3.05,6.95,0.03,0.01,-0.16,1721206775515
-2.53,-0.02,13.55,0.11,0.07,-0.01,1721206775525
-1.74,2.64,6.76,0.18,-0.00,0.09,1721206775535
-0.14,5.66,10.28,0.08,0.09,-0.05,1721206775545
0.94,-0.86,4.11,0.07,-0.06,-0.00,1721206775555
-1.23,-7.15,5.49,-0.26,0.09,-0.05,1721206775565
-2.28,2.04,18.10,-0.05,-0.03,-0.12,1721206775575
-2.04,-3.07,9.54,-0.09,-0.11,0.07,1721206775585
-0.68,-1.09,10.84,-0.12,-0.01,0.26,1721206775595
3.55,1.62,9.20,0.00,0.10,-0.00,1721206775605
1.90,-0.60,11.60,-0.18,-0.04,-0.22,1721206775615
-2.34,1.56,8.15,-0.05,-0.15,-0.27,1721206775625
-4.23,-3.05,6.51,-0.30,0.07,-0.26,1721206775635
-3.91,-2.70,21.01,-0.30,-0.06,0.20,1721206775645
-1.34,3.03,11.30,-0.06,-0.13,0.40,1721206775655
3.09,-0.93,6.27,-0.25,0.11,0.16,1721206775665
3.57,2.62,11.97,-0.01,-0.03,-0.11,1721206775675
-0.06,-1.25,1.37,-0.01,-0.19,-0.23,1721206775685
-3.14,-2.07,9.53,-0.10,0.10,-0.19,1721206775695
-2.06,2.02,22.46,0.01,0.00,0.12,1721206775705
-0.45,6.82,12.07,0.02,-0.28,0.46,1721206775715
1.69,-2.87,-1.00,-0.15,0.02,0.12,1721206775725
5.69,-5.71,14.55,-0.25,0.23,-0.21,1721206775735
0.28,5.01,13.97,0.27,-0.38,-0.21,1721206775745
-1.89,-1.34,-3.03,0.08,-0.06,-0.17,1721206775755
-2.58,-6.02,16.95,-0.18,0.09,-0.05,1721206775765
-0.27,9.20,18.39,0.38,-0.10,0.23,1721206775775
2.66,2.14,0.80,0.06,-0.07,0.25,1721206775785
1.85,-5.28,12.56,-0.24,0.05,-0.08,1721206775795
1.71,-4.40,13.68,0.14,-0.14,-0.19,1721206775805
-0.78,0.14,7.47,0.07,0.01,-0.22,1721206775815
-1.77,3.38,13.35,0.14,0.00,0.04,1721206775825
1.15,5.39,8.66,0.20,-0.00,0.23,1721206775835
3.80,-1.26,9.85,0.03,0.12,-0.00,1721206775845
3.87,-7.11,9.72,-0.00,-0.02,-0.33,1721206775855
-1.67,0.94,16.10,-0.10,-0.06,-0.46,1721206775865
-4.63,2.02,18.42,0.14,-0.07,-0.18,1721206775875
-1.35,2.42,7.76,0.31,0.15,0.30,1721206775885
4.64,1.03,5.11,0.34,0.14,0.24,1721206775895
5.44,1.59,8.60,0.17,0.18,-0.34,1721206775905
-0.13,5.19,15.61,0.21,-0.01,-0.69,1721206775915
-3.84,1.83,3.72,0.37,0.01,-0.46,1721206775925
-3.07,-6.76,3.67,-0.00,0.22,-0.03,1721206775935
-0.27,1.50,18.95,0.09,0.17,0.07,1721206775945
1.63,3.33,6.42,0.31,0.00,-0.12,1721206775955
0.66,1.03,4.50,0.05,0.18,-0.37,1721206775965
-1.25,1.18,7.48,0.09,0.11,-0.29,1721206775975
-1.47,-3.47,11.07,-0.19,0.20,-0.19,1721206775985
-2.45,-1.66,22.06,-0.03,0.11,-0.19,1721206775995
-1.39,1.80,3.92,0.27,-0.01,0.00,1721206776005
3.29,0.26,1.02,-0.20,0.41,0.01,1721206776015
2.65,0.91,19.28,-0.19,0.10,-0.29,1721206776025
-0.61,4.29,4.89,0.31,-0.06,-0.37,1721206776035
-0.53,-7.12,0.49,-0.37,0.42,-0.38,1721206776045
-3.19,0.16,21.30,-0.19,0.02,-0.21,1721206776055
-1.84,2.37,8.12,0.10,0.08,0.10,1721206776065
1.96,1.18,13.77,-0.24,0.36,-0.02,1721206776075
1.84,-0.47,13.69,0.07,-0.03,-0.28,1721206776085
0.17,-0.23,6.84,-0.05,0.23,-0.35,1721206776095
-1.95,1.59,12.66,-0.09,0.10,-0.28,1721206776105
-4.27,2.57,13.17,0.07,0.06,-0.19,1721206776115
-3.85,-1.82,8.64,0.03,0.13,0.01,1721206776125
-0.82,-1.56,8.80,0.05,0.12,0.30,1721206776135
1.96,-0.13,8.51,0.11,0.16,0.16,1721206776145
4.11,2.91,15.13,0.09,0.23,-0.14,1721206776155
0.93,5.83,7.16,0.30,-0.12,-0.32,1721206776165
-3.20,-1.18,1.99,0.00,0.03,-0.18,1721206776175
-3.39,-4.47,13.70,-0.16,0.21,0.05,1721206776185
0.21,-4.53,17.53,0.01,0.16,0.17,1721206776195
1.71,3.52,10.61,0.22,0.01,0.05,1721206776205
-0.57,4.13,1.06,0.07,0.04,-0.30,1721206776215
-1.93,-4.61,9.44,-0.28,0.23,-0.09,1721206776225
-2.16,-4.29,21.58,-0.04,0.08,0.23,1721206776235
0.70,-3.84,7.59,0.19,-0.07,0.27,1721206776245
2.94,-1.93,7.99,-0.17,0.25,0.00,1721206776255
3.05,3.73,15.97,0.16,0.03,-0.18,1721206776265
0.05,-0.56,1.57,0.10,-0.12,-0.25,1721206776275
-4.01,-3.79,7.56,-0.27,0.09,-0.18,1721206776285
-1.58,-0.24,12.67,0.04,0.16,0.02,1721206776295
0.54,-1.89,9.52,-0.14,0.20,0.08,1721206776305
-0.88,-0.21,16.21,-0.22,-0.10,0.04,1721206776315
-1.49,0.97,10.54,0.10,-0.11,0.05,1721206776325
0.73,-6.94,4.51,-0.37,0.10,0.10,1721206776335
-2.04,-0.70,19.08,-0.26,-0.07,0.02,1721206776345
-0.99,2.10,6.99,0.16,-0.15,0.03,1721206776355
-0.56,-0.40,2.93,-0.18,0.09,0.01,1721206776365
-0.89,4.98,12.32,-0.02,-0.00,0.06,1721206776375
0.98,3.22,11.77,-0.15,0.05,0.01,1721206776385
-1.86,6.02,9.56,-0.10,-0.27,-0.03,1721206776395
-2.42,1.46,3.84,-0.01,-0.06,0.04,1721206776405
-0.86,-0.50,12.13,-0.07,0.10,0.21,1721206776415
-0.35,4.64,10.68,0.10,-0.26,0.34,1721206776425
2.92,3.19,10.93,-0.08,0.07,0.26,1721206776435
3.72,3.30,17.84,-0.07,-0.10,0.02,1721206776445
1.17,2.80,7.22,0.11,-0.32,-0.02,1721206776455
-0.18,1.21,6.62,0.02,0.04,-0.07,1721206776465
-0.47,0.58,16.60,0.04,-0.04,0.01,1721206776475
-1.86,2.28,9.55,0.19,-0.34,0.15,1721206776485
-0.15,4.62,6.06,0.26,0.03,0.13,1721206776495
2.90,3.61,11.61,0.16,0.03,0.07,1721206776505
2.38,1.55,8.20,0.26,-0.22,0.02,1721206776515
1.07,-0.57,3.47,0.20,-0.01,-0.06,1721206776525
1.36,4.25,14.73,0.10,0.15,-0.23,1721206776535
-2.09,2.86,9.95,0.07,-0.29,-0.16,1721206776545
-3.36,-5.60,12.30,-0.22,0.01,0.07,1721206776555
-1.31,-0.47,10.55,0.01,0.01,0.11,1721206776565
-0.04,-3.46,4.37,-0.14,-0.01,0.03,1721206776575
-0.77,-3.47,13.44,-0.06,-0.02,-0.00,1721206776585
1.69,-1.41,8.52,0.19,0.05,0.12,1721206776595
3.16,2.38,5.87,0.08,0.03,0.01,1721206776605
1.55,2.49,13.95,-0.14,-0.04,-0.21,1721206776615
0.37,5.76,17.33,-0.19,-0.04,-0.41,1721206776625
-2.66,0.99,6.17,-0.16,-0.14,-0.33,1721206776635
-4.47,-11.99,2.35,-0.40,-0.01,-0.17,1721206776645
-4.25,-1.77,13.91,-0.20,0.15,0.06,1721206776655
-1.82,5.48,7.74,0.09,-0.08,0.07,1721206776665
1.19,-0.98,6.16,-0.22,-0.03,0.23,1721206776675
1.91,1.74,18.46,-0.29,0.07,0.32,1721206776685
4.29,1.16,10.08,-0.12,0.04,0.12,1721206776695
5.65,-5.35,7.58,-0.38,0.05,-0.39,1721206776705
0.57,6.42,18.93,-0.10,-0.21,-0.36,1721206776715
-0.89,7.57,10.75,0.18,0.09,-0.25,1721206776725
0.81,-2.72,7.56,-0.12,0.17,-0.34,1721206776735
-3.36,3.47,11.86,0.17,-0.19,-0.19,1721206776745
-0.36,3.71,2.11,0.34,0.14,-0.08,1721206776755
0.89,-3.36,9.63,0.04,0.17,-0.02,1721206776765
-1.17,-1.87,12.70,0.19,-0.14,-0.03,1721206776775
0.83,-8.44,12.41,-0.13,0.21,-0.21,1721206776785
-1.27,5.70,20.70,0.15,-0.10,-0.26,1721206776795
-0.67,10.17,1.27,0.39,-0.02,-0.08,1721206776805
1.50,-8.35,7.18,-0.12,0.41,-0.20,1721206776815
-0.02,0.45,21.29,0.40,-0.07,-0.29,1721206776825
-1.25,2.34,0.68,0.34,-0.00,-0.19,1721206776835
-3.31,-2.04,13.11,-0.26,0.24,-0.29,1721206776845
-2.57,1.62,17.38,0.33,-0.02,-0.05,1721206776855
-0.44,-0.32,-3.38,0.19,0.07,0.20,1721206776865
1.67,-8.75,9.80,-0.17,0.26,0.04,1721206776875
0.34,-4.09,18.90,0.13,-0.03,-0.13,1721206776885
-1.85,9.32,14.40,0.28,0.04,0.00,1721206776895
0.12,5.79,4.91,0.20,0.08,0.30,1721206776905
2.63,-10.46,7.13,-0.25,0.16,0.20,1721206776915
0.95,-1.43,19.32,0.03,-0.01,-0.09,1721206776925
-0.33,3.20,-0.89,0.22,-0.11,-0.04,1721206776935
-0.98,-0.24,6.71,-0.19,0.30,0.03,1721206776945
-0.77,1.36,16.63,0.08,-0.06,0.12,1721206776955
0.50,-1.01,13.12,-0.10,0.07,0.12,1721206776965
1.39,3.88,9.68,0.13,-0.06,0.13,1721206776975
2.18,-0.34,2.34,-0.24,0.11,0.04,1721206776985
-0.20,-0.83,21.76,-0.25,0.02,-0.15,1721206776995
-1.54,5.18,9.82,0.26,-0.12,-0.08,1721206777005
-0.88,-0.68,-4.69,-0.10,0.10,0.16,1721206777015
0.32,-6.35,20.98,-0.37,0.21,0.13,1721206777025
2.29,16.66,20.13,0.53,-0.08,0.19,1721206777035
5.02,1.91,-13.42,0.06,-0.02,0.18,1721206777045
4.04,-15.61,18.76,-0.75,0.48,-0.47,1721206777055
0.13,7.93,36.31,0.26,-0.18,-0.52,1721206777065
-2.68,11.58,-7.52,0.21,-0.23,-0.23,1721206777075
-4.02,-2.71,-0.76,-0.42,0.31,-0.07,1721206777085
0.01,-3.68,23.92,-0.07,0.19,-0.10,1721206777095
-0.53,2.43,7.98,0.38,-0.15,-0.05,1721206777105
0.10,-4.40,-9.86,-0.01,0.14,-0.10,1721206777115
-0.31,-10.19,19.78,-0.22,0.28,-0.13,1721206777125
0.64,13.69,29.97,0.57,-0.16,-0.03,1721206777135
1.83,-1.23,-14.89,0.33,-0.16,-0.11,1721206777145
-0.11,-6.65,16.58,-0.52,0.46,-0.27,1721206777155
-1.12,8.45,30.44,0.12,0.10,-0.08,1721206777165
0.83,0.66,-1.26,0.12,-0.11,-0.07,1721206777175
-1.33,0.34,16.23,-0.02,-0.06,-0.20,1721206777190
-3.44,-3.44,12.08,0.13,-0.02,-0.28,1721206777194
-0.90,-3.82,11.43,-0.11,0.20,0.22,1721206777204
0.82,4.43,16.27,0.12,0.01,0.26,1721206777214
3.26,2.71,3.71,0.03,-0.09,-0.01,1721206777224
2.43,-5.57,12.64,-0.26,0.19,-0.20,1721206777234
2.10,-1.24,19.52,0.03,0.09,-0.36,1721206777244
-1.69,3.41,8.03,0.13,-0.07,-0.36,1721206777254
-4.61,0.11,6.54,-0.09,0.02,-0.21,1721206777264
-2.89,1.74,11.72,0.06,0.09,0.00,1721206777274
0.36,-1.23,7.89,-0.02,0.12,0.04,1721206777284
1.12,-3.36,9.75,-0.16,0.03,-0.08,1721206777294
0.49,-4.84,12.59,-0.11,0.03,-0.19,1721206777304
-0.51,-2.21,12.84,-0.07,0.13,-0.25,1721206777314
-1.10,2.73,16.94,0.02,0.08,-0.21,1721206777324
-1.22,4.92,10.95,0.16,-0.10,-0.01,1721206777334
-1.36,-1.49,4.48,-0.02,0.08,-0.09,1721206777344
0.95,1.25,10.28,0.06,0.23,-0.15,1721206777354
-0.09,1.70,7.25,0.12,-0.03,-0.10,1721206777364
-2.60,2.24,11.42,-0.04,0.09,-0.19,1721206777374
-3.46,10.69,13.84,0.39,-0.10,-0.03,1721206777384
-0.95,-1.89,-1.79,-0.01,-0.06,0.26,1721206777394
0.76,-2.57,16.56,-0.32,0.37,0.22,1721206777404
3.57,1.41,20.10,0.25,-0.01,-0.04,1721206777414
1.59,0.46,4.54,0.26,-0.09,-0.22,1721206777424
-4.40,7.43,7.62,0.30,-0.06,-0.20,1721206777434
-1.73,3.15,11.15,0.26,0.10,0.20,1721206777444
2.04,0.04,13.21,0.11,0.05,0.44,1721206777454
3.60,6.26,10.58,0.28,-0.10,0.02,1721206777464
3.21,3.26,3.40,0.22,-0.05,-0.33,1721206777474
-2.71,-1.47,5.21,-0.02,-0.10,-0.32,1721206777484
-4.64,-2.59,13.07,0.02,0.04,-0.05,1721206777494
-2.12,1.20,13.55,0.17,0.03,0.27,1721206777504
1.33,3.36,6.27,0.14,-0.03,0.30,1721206777514
4.44,1.65,7.85,-0.03,0.05,0.06,1721206777524
3.34,-1.43,5.48,-0.07,-0.14,-0.17,1721206777534
-0.40,-10.17,17.70,-0.43,0.16,-0.36,1721206777544
-3.61,5.22,29.65,0.51,-0.12,-0.17,1721206777554
-1.77,2.45,-6.34,0.35,-0.24,0.19,1721206777564
-0.42,3.22,4.74,-0.18,0.22,0.24,1721206777574
0.91,1.34,2.05,0.14,-0.34,0.13,1721206777584
4.05,-8.37,7.40,-0.66,0.41,-0.22,1721206777594
-1.78,5.72,32.35,0.13,-0.46,-0.12,1721206777604
-2.60,-1.45,-2.10,0.20,-0.22,-0.03,1721206777614
0.22,-5.23,14.16,-0.48,0.45,0.08,1721206777624
0.37,-0.89,14.28,0.22,-0.42,0.15,1721206777634
2.02,-3.03,1.11,-0.20,0.17,-0.13,1721206777644
-1.23,3.17,20.28,0.04,-0.19,-0.23,1721206777654
-2.65,1.10,2.63,0.22,-0.23,-0.09,1721206777664
-0.48,1.03,10.46,-0.22,0.34,-0.02,1721206777674
2.55,1.88,15.08,0.02,0.00,-0.05,1721206777684
1.18,3.01,5.35,-0.17,-0.08,-0.26,1721206777694
-1.59,5.43,11.38,0.00,-0.10,-0.41,1721206777704
-1.55,-1.59,3.48,-0.02,0.03,-0.18,1721206777714
-2.69,0.28,12.64,-0.26,0.11,0.06,1721206777724
0.47,4.79,18.70,0.02,0.01,0.06,1721206777734
3.15,4.23,8.49,0.04,0.03,-0.09,1721206777744
1.71,1.52,8.82,-0.17,0.06,-0.32,1721206777754
-0.89,-0.62,14.08,-0.05,-0.05,-0.27,1721206777764
-1.61,0.97,10.41,0.11,-0.00,-0.07,1721206777774
-0.28,3.37,9.79,0.11,0.03,-0.00,1721206777784
0.28,3.39,8.51,0.19,-0.03,-0.01,1721206777794
2.71,3.39,6.99,0.16,0.19,-0.16,1721206777804
2.68,-3.87,5.80,-0.10,-0.03,-0.34,1721206777814
-3.03,-0.65,14.08,-0.04,0.06,-0.49,1721206777824
-2.56,3.23,11.60,0.22,0.16,-0.28,1721206777834
-1.73,5.38,10.19,0.03,0.06,-0.04,1721206777844
-0.36,2.60,10.85,-0.06,0.00,0.09,1721206777854
2.26,-4.61,12.58,-0.22,0.14,-0.06,1721206777864
1.45,0.29,11.82,-0.03,-0.04,-0.36,1721206777874
-2.21,-0.11,7.65,-0.07,-0.02,-0.44,1721206777884
-4.53,-0.45,14.32,0.02,0.14,-0.16,1721206777894
-1.43,2.72,5.22,0.21,-0.00,0.13,1721206777904
1.32,2.73,7.97,-0.12,0.17,0.06,1721206777914
2.73,3.59,13.59,-0.05,0.06,-0.21,1721206777924
1.54,1.28,7.17,-0.15,0.04,-0.51,1721206777934
-4.07,-1.09,8.03,-0.17,-0.03,-0.50,1721206777944
-5.21,-4.93,7.59,-0.16,0.22,-0.21,1721206777954
-3.02,-0.60,12.96,-0.14,0.10,0.17,1721206777964
-0.40,9.38,10.13,0.07,0.00,0.28,1721206777974
3.34,3.03,6.70,-0.13,0.12,0.03,1721206777984
2.65,-3.58,10.36,-0.26,0.02,-0.29,1721206777994
-1.10,-0.24,11.48,-0.23,-0.06,-0.34,1721206778004
-4.22,2.91,18.25,-0.34,0.03,-0.12,1721206778014
-3.78,9.38,14.84,-0.04,-0.09,0.04,1721206778024
-1.54,-3.43,0.71,0.01,-0.11,0.25,1721206778034
1.77,-3.72,12.01,-0.13,0.28,0.21,1721206778044
2.04,9.49,15.53,0.19,-0.20,0.04,1721206778054
-4.04,-4.80,2.38,0.17,-0.46,0.01,1721206778064
6.83,-2.37,12.50,0.24,0.87,0.24,1721206778074
0.52,6.80,9.63,0.12,-0.58,-0.23,1721206778084
-5.43,4.88,10.50,-0.25,-0.17,-0.47,1721206778094
-4.75,-5.54,14.26,0.03,-0.19,-0.13,1721206778104
-4.52,-0.26,5.66,0.37,0.05,0.51,1721206778114
-0.05,0.89,0.23,0.43,-0.01,0.77,1721206778124
5.38,-0.94,11.05,0.09,0.18,0.50,1721206778134
7.33,5.40,20.02,0.15,-0.11,0.12,1721206778144
6.41,2.90,2.97,0.23,-0.29,-0.17,1721206778154
4.34,-6.22,5.56,-0.16,0.23,-0.58,1721206778164
-3.91,-1.87,20.36,-0.04,-0.33,-0.59,1721206778174
-6.86,1.11,11.28,0.23,-0.09,-0.10,1721206778184
-3.67,-1.71,4.68,0.09,0.09,0.37,1721206778194
1.30,-3.40,6.29,-0.00,0.03,0.41,1721206778204
4.56,4.58,13.30,-0.02,0.10,0.02,1721206778214
3.05,0.96,8.60,0.05,-0.16,-0.21,1721206778224
0.02,-6.25,5.42,-0.16,0.02,-0.30,1721206778234
-2.97,-2.80,13.54,-0.12,-0.04,-0.27,1721206778244
-3.13,-0.55,14.21,-0.20,-0.10,0.04,1721206778254
-1.18,8.47,16.25,-0.00,0.03,0.22,1721206778264
2.59,3.45,5.34,0.08,-0.04,0.15,1721206778274
3.14,-8.07,7.64,-0.18,0.07,-0.11,1721206778284
0.65,-1.12,11.33,-0.02,-0.08,-0.30,1721206778294
-1.91,8.03,12.42,-0.04,-0.01,-0.25,1721206778304
-1.96,3.71,11.94,0.10,0.02,0.08,1721206778314
0.82,-5.99,4.69,-0.06,-0.02,0.28,1721206778324
3.23,2.75,12.23,-0.05,0.12,-0.04,1721206778334
4.19,1.67,10.82,-0.08,0.01,-0.31,1721206778344
-1.32,1.91,14.17,-0.09,-0.11,-0.32,1721206778354
-2.35,2.03,4.85,0.24,-0.04,-0.02,1721206778364
0.75,-9.43,6.14,-0.19,0.25,0.03,1721206778374
0.42,5.04,24.28,0.11,-0.05,-0.06,1721206778384
0.13,16.97,8.86,0.43,-0.11,-0.13,1721206778394
1.34,-1.10,1.33,-0.01,0.18,-0.16,1721206778404
-0.83,-6.62,9.57,-0.03,-0.01,-0.16,1721206778414
-0.08,0.96,10.93,0.04,0.15,-0.15,1721206778424
0.07,-0.04,13.44,-0.06,0.05,-0.24,1721206778434
-1.70,4.74,8.97,0.15,-0.07,-0.19,1721206778444
-0.71,-1.33,5.37,-0.04,0.08,-0.06,1721206778454
0.69,-2.90,16.23,-0.19,0.12,-0.07,1721206778464
1.00,1.73,13.13,-0.02,-0.02,-0.13,1721206778474
-0.43,-1.30,9.34,-0.20,0.03,-0.31,1721206778484
-1.64,-3.12,14.89,-0.14,0.06,-0.23,1721206778494
-1.45,6.23,11.71,0.12,0.02,-0.02,1721206778504
0.44,7.28,5.94,0.06,0.09,-0.01,1721206778514
2.20,-2.55,9.07,-0.11,0.10,-0.15,1721206778524
1.12,-1.80,3.52,-0.00,-0.08,-0.22,1721206778534
0.62,1.71,4.28,-0.15,0.13,-0.25,1721206778544
0.61,-0.80,17.42,-0.20,0.19,-0.41,1721206778554
-1.70,1.13,14.92,-0.05,-0.08,-0.31,1721206778564
-3.71,3.01,6.45,-0.12,0.02,-0.16,1721206778574
-0.89,-4.86,15.10,-0.41,0.21,-0.02,1721206778584
2.17,4.96,17.49,0.01,0.09,-0.02,1721206778594
1.43,-1.25,4.89,-0.02,0.02,-0.38,1721206778604
-2.46,-4.62,11.33,-0.07,0.02,-0.43,1721206778614
-2.96,5.04,8.88,0.24,0.12,-0.20,1721206778624
-1.37,3.99,10.66,0.10,0.12,0.02,1721206778634
0.13,6.52,11.03,0.29,0.06,0.04,1721206778644
1.88,-1.52,1.56,0.30,0.13,-0.16,1721206778654
2.56,-6.21,4.57,-0.03,0.16,-0.40,1721206778664
0.01,3.74,21.43,0.05,0.17,-0.54,1721206778674
-4.76,5.96,11.96,0.22,-0.08,-0.52,1721206778684
-4.59,-6.61,1.89,0.11,0.13,-0.01,1721206778694
-1.48,-8.54,8.31,0.05,0.33,0.30,1721206778704
4.05,4.62,23.44,0.12,0.37,0.02,1721206778714
2.06,16.77,11.36,0.40,-0.15,-0.37,1721206778724
0.39,-10.47,0.85,-0.16,0.11,-0.65,1721206778734
-5.01,-3.67,18.01,-0.07,0.01,-0.25,1721206778744
-1.61,0.68,0.28,0.33,0.11,0.11,1721206778754
3.74,-4.82,6.31,-0.18,0.46,-0.02,1721206778764
-0.04,3.91,11.15,0.37,-0.22,-0.21,1721206778774
0.22,1.42,-2.39,0.13,0.26,-0.24,1721206778784
-0.09,-2.10,20.11,-0.33,0.45,-0.27,1721206778794
0.26,-0.02,12.69,0.10,-0.01,-0.29,1721206778804
-0.95,-4.03,2.10,-0.23,0.22,-0.36,1721206778814
-3.07,-5.01,15.59,-0.13,0.17,-0.18,1721206778824
-1.27,1.54,12.96,0.15,0.29,0.08,1721206778834
1.00,2.84,7.26,0.02,0.26,-0.02,1721206778844
2.00,3.03,11.20,-0.08,0.13,-0.15,1721206778854
0.54,6.54,7.81,0.11,0.23,-0.33,1721206778864
-0.76,-2.37,6.21,-0.24,0.22,-0.41,1721206778874
-3.79,-5.07,20.07,-0.28,0.23,-0.22,1721206778884
-2.99,5.46,11.27,0.09,0.11,0.04,1721206778894
0.16,-1.14,8.20,-0.31,0.36,0.04,1721206778904
0.07,-0.20,19.63,-0.03,0.19,0.06,1721206778914
1.96,6.45,4.93,0.26,0.16,0.03,1721206778924
2.98,-0.51,7.30,-0.15,0.38,-0.23,1721206778934
-0.71,-3.30,18.44,-0.06,0.01,-0.26,1721206778944
-3.91,3.55,6.04,0.20,0.11,-0.17,1721206778954
-3.26,1.86,6.58,-0.02,0.32,0.06,1721206778964
-2.22,4.11,14.02,0.19,0.14,0.32,1721206778974
1.89,1.55,6.85,0.17,0.27,0.25,1721206778984
2.70,-0.72,5.04,0.01,0.14,-0.03,1721206778994
0.18,0.30,7.24,-0.03,0.20,-0.26,1721206779004
-2.53,-0.36,13.58,-0.06,0.21,-0.17,1721206779014
-4.46,-0.09,14.53,0.02,0.07,0.18,1721206779024
-1.03,-5.09,9.79,-0.13,0.17,0.37,1721206779034
1.40,3.39,19.64,-0.16,0.26,0.17,1721206779044
0.97,11.37,16.44,-0.04,-0.04,-0.03,1721206779054
-1.89,-6.93,3.79,-0.35,0.01,-0.10,1721206779064
-4.89,-1.95,9.28,-0.03,0.15,0.06,1721206779074
-1.03,-1.30,2.33,0.08,0.03,0.33,1721206779084
-1.20,-0.11,15.11,-0.12,0.11,0.37,1721206779094
1.89,5.35,15.43,0.17,0.00,0.44,1721206779104
3.22,7.24,8.10,0.08,0.11,0.26,1721206779114
1.71,2.03,3.33,0.08,-0.13,0.04,1721206779124
1.34,-10.79,9.13,-0.30,0.22,-0.15,1721206779134
-5.04,1.06,22.33,-0.04,-0.27,0.02,1721206779144
-4.75,0.80,1.88,0.14,-0.11,0.50,1721206779154
0.82,-5.81,7.19,-0.16,0.17,0.69,1721206779164
4.97,1.23,13.84,-0.01,-0.10,0.42,1721206779174
5.64,4.38,9.89,0.04,-0.01,0.06,1721206779184
-1.20,-2.67,11.31,-0.03,-0.03,-0.29,1721206779199
-3.13,-2.45,12.12,-0.00,0.00,-0.15,1721206779203
-3.98,1.86,10.41,0.12,0.01,0.20,1721206779213
-1.17,-1.12,9.50,-0.10,-0.09,0.52,1721206779223
1.73,0.37,9.69,0.03,-0.10,0.50,1721206779233
4.87,-3.30,5.36,-0.00,0.04,0.20,1721206779243
3.32,-1.08,12.09,-0.12,-0.04,-0.14,1721206779253
-1.18,5.59,15.39,0.09,-0.21,-0.06,1721206779263
-2.76,-4.41,5.36,-0.08,-0.14,0.14,1721206779273
-1.47,-1.41,18.63,-0.18,0.14,0.21,1721206779283
2.82,15.72,18.67,0.29,-0.03,0.43,1721206779293
3.68,-1.83,2.46,0.01,-0.12,0.25,1721206779303
3.62,-8.03,14.25,-0.17,0.26,-0.29,1721206779313
1.03,10.45,16.12,0.37,-0.25,-0.24,1721206779323
-1.83,5.97,-0.43,0.28,-0.04,-0.18,1721206779333
-1.61,-4.27,10.39,0.15,0.09,-0.06,1721206779343
-0.02,3.56,12.96,0.41,0.03,0.08,1721206779353
1.60,4.22,4.32,0.27,0.02,0.02,1721206779363
1.55,-2.09,10.33,0.03,0.09,-0.25,1721206779373
-1.78,5.58,16.78,0.21,-0.09,-0.28,1721206779383
-3.47,3.03,7.57,0.14,-0.03,-0.14,1721206779393
-2.74,-5.81,7.36,-0.08,0.02,0.08,1721206779403
-0.56,-1.99,8.35,0.07,0.02,0.20,1721206779413
2.02,-1.43,7.96,0.02,0.07,0.11,1721206779423
2.11,0.83,10.90,0.15,-0.02,-0.14,1721206779433
0.48,4.07,4.30,0.24,-0.06,-0.21,1721206779443
-1.09,-0.24,8.05,-0.16,0.06,-0.17,1721206779453
-1.77,-0.61,22.79,-0.25,0.03,-0.07,1721206779463
-1.42,4.61,11.27,0.07,-0.08,0.04,1721206779473
0.80,-5.63,2.34,-0.49,0.11,-0.00,1721206779483
-0.64,-4.73,19.72,-0.33,-0.04,-0.15,1721206779493
-1.67,1.85,7.65,0.14,-0.11,-0.13,1721206779503
-1.02,0.19,1.68,-0.26,0.14,0.04,1721206779513
-1.16,2.58,15.72,-0.16,-0.06,0.19,1721206779523
2.53,-3.22,6.93,-0.12,-0.03,0.18,1721206779533
3.90,-0.49,12.77,-0.17,0.16,-0.14,1721206779543
2.27,1.18,14.44,-0.17,-0.11,-0.34,1721206779553
-1.73,1.10,15.82,-0.21,-0.09,-0.26,1721206779563
-3.02,5.30,15.56,0.00,-0.00,-0.06,1721206779573
-0.91,2.80,4.36,0.00,-0.01,0.18,1721206779583
0.58,-3.62,8.52,-0.17,0.13,0.05,1721206779593
1.42,2.34,12.71,0.10,-0.01,-0.14,1721206779603
0.06,2.97,4.75,0.05,-0.03,-0.21,1721206779613
-1.81,-5.82,12.23,-0.17,0.05,-0.13,1721206779623
-1.76,-2.93,21.36,-0.01,-0.02,0.18,1721206779633
-0.35,7.96,12.15,0.14,-0.03,0.22,1721206779643
3.78,5.55,7.21,0.19,0.08,0.12,1721206779653
3.93,-1.81,8.13,0.20,0.02,-0.18,1721206779663
0.64,-2.47,7.77,0.31,-0.02,-0.37,1721206779673
-2.12,1.76,4.66,0.33,0.01,-0.25,1721206779683
-3.70,0.41,10.98,0.14,0.10,-0.07,1721206779693
-2.51,4.77,10.85,0.31,-0.12,0.19,1721206779703
1.58,-2.10,4.10,0.04,0.12,0.22,1721206779713
2.85,-1.06,10.98,0.04,0.11,-0.08,1721206779723
1.33,-2.08,4.51,0.02,-0.09,-0.35,1721206779733
-3.06,-3.22,18.30,-0.24,0.18,-0.45,1721206779743
-4.37,0.84,13.45,0.28,-0.17,-0.13,1721206779753
-2.63,-1.83,1.92,-0.02,0.03,0.29,1721206779763
1.00,-1.31,13.57,-0.07,0.13,0.32,1721206779773
5.40,1.32,12.61,0.05,0.05,-0.05,1721206779783
2.37,1.47,5.39,-0.03,-0.05,-0.50,1721206779793
-2.47,-2.71,9.14,-0.11,0.05,-0.54,1721206779803
-4.56,0.19,13.20,-0.02,0.01,-0.17,1721206779813
-4.13,0.06,10.23,0.05,-0.04,0.13,1721206779823
-0.04,4.10,9.15,0.14,0.12,0.21,1721206779833
1.93,5.41,8.02,0.03,-0.04,0.01,1721206779843
1.12,0.16,7.87,-0.09,-0.08,-0.22,1721206779853
0.19,-7.08,12.86,-0.20,0.10,-0.26,1721206779863
-2.81,1.25,13.99,-0.05,-0.12,-0.17,1721206779873
-2.00,2.38,9.15,-0.05,0.06,0.03,1721206779883
-0.04,1.77,13.88,0.09,0.08,0.12,1721206779893
1.73,-2.77,4.72,0.12,-0.12,0.10,1721206779903
2.32,1.26,10.29,0.02,0.26,-0.18,1721206779913
1.83,6.73,17.89,0.13,0.00,-0.33,1721206779923
-2.46,4.56,12.48,0.07,-0.11,-0.26,1721206779933
-4.02,3.02,5.70,0.13,-0.05,-0.07,1721206779943
0.32,-4.87,7.67,-0.08,0.21,0.09,1721206779953
1.44,-2.21,12.31,0.01,-0.03,0.12,1721206779963
1.70,0.79,5.54,0.04,0.02,-0.09,1721206779973
0.67,3.96,10.62,0.16,0.06,-0.18,1721206779983
-0.98,1.33,-2.13,0.18,-0.20,-0.07,1721206779993
0.13,-7.11,13.80,-0.50,0.50,-0.16,1721206780003
0.12,7.90,31.01,0.14,-0.04,-0.20,1721206780013
-1.63,2.23,-1.24,0.02,-0.25,-0.14,1721206780023
-2.54,-5.54,9.62,-0.39,0.35,-0.01,1721206780033
1.02,-3.60,18.61,0.12,0.14,0.10,1721206780043
1.63,5.28,7.04,0.08,-0.03,0.06,1721206780053
-1.56,10.53,4.89,0.22,-0.22,-0.13,1721206780063
-1.66,2.12,-0.17,0.07,-0.02,-0.11,1721206780073
-2.16,-10.87,13.02,-0.44,0.06,0.05,1721206780083
-2.78,3.47,17.07,0.06,-0.19,0.05,1721206780093
-1.09,-3.71,7.65,-0.49,-0.00,0.08,1721206780103
-2.81,1.68,30.49,-0.20,-0.14,0.29,1721206780113
2.04,7.34,7.07,0.45,-0.27,0.51,1721206780123
4.84,-4.80,-5.91,-0.22,0.07,0.21,1721206780133
4.18,-3.15,20.12,-0.24,0.23,-0.33,1721206780143
0.27,8.13,14.98,0.32,-0.30,-0.52,1721206780153
-6.51,-0.91,0.79,0.00,-0.16,-0.10,1721206780163
-6.25,-4.43,14.49,0.00,-0.01,0.33,1721206780173
-0.27,1.19,16.63,0.04,-0.00,0.48,1721206780183
4.50,8.24,7.47,0.31,-0.13,0.48,1721206780193
6.04,-3.15,-0.56,0.11,-0.01,-0.09,1721206780203
-0.59,-0.48,11.34,0.19,-0.10,-0.48,1721206780213
-2.94,-2.59,6.82,0.27,-0.14,-0.11,1721206780223
-1.94,-2.29,9.36,-0.08,-0.01,0.19,1721206780233
-0.36,1.07,18.47,-0.05,-0.11,0.24,1721206780243
2.89,3.07,14.52,-0.03,-0.14,0.13,1721206780253
2.95,4.07,7.33,0.04,-0.08,-0.10,1721206780263
1.55,-9.02,5.94,-0.26,0.01,-0.26,1721206780273
-2.50,-4.80,18.35,-0.12,-0.10,-0.27,1721206780283
-3.04,6.45,7.43,0.27,-0.14,0.06,1721206780293
0.93,1.22,2.48,-0.04,0.10,0.39,1721206780303
3.03,2.54,13.72,0.05,0.04,0.07,1721206780313
3.96,0.05,6.10,0.06,-0.16,-0.22,1721206780323
0.54,1.01,7.64,-0.16,0.03,-0.43,1721206780333
-3.43,-0.83,16.16,-0.14,-0.07,-0.34,1721206780343
-2.67,4.72,8.29,0.12,-0.03,0.13,1721206780353
1.39,-2.38,3.90,-0.02,0.07,0.28,1721206780363
4.18,-5.55,14.29,-0.17,0.11,-0.01,1721206780373
1.71,10.76,15.81,0.11,-0.10,-0.35,1721206780383
-0.77,4.11,2.93,0.00,-0.14,-0.35,1721206780393
-1.95,-6.87,10.05,-0.28,0.12,-0.15,1721206780403
-1.55,-0.02,15.52,-0.00,-0.01,-0.06,1721206780413
-0.16,2.66,7.80,-0.02,-0.02,-0.02,1721206780423
-0.07,1.15,15.11,-0.07,0.03,-0.03,1721206780433
0.83,3.56,8.90,0.22,-0.06,-0.06,1721206780443
0.94,4.52,4.98,0.15,0.05,-0.19,1721206780453
0.35,-2.15,13.09,-0.04,0.09,-0.28,1721206780463
-2.37,1.83,13.89,0.06,-0.10,-0.22,1721206780473
-2.63,2.32,6.10,0.01,-0.05,-0.06,1721206780483
-0.02,-5.25,12.70,-0.16,0.11,0.06,1721206780493
0.79,2.82,15.68,0.10,-0.03,-0.06,1721206780503
0.54,1.79,5.62,0.06,-0.10,-0.18,1721206780513
-1.56,-3.86,12.18,-0.12,0.04,-0.20,1721206780523
-2.43,2.76,11.58,0.12,-0.08,-0.08,1721206780533
-0.82,4.21,4.50,0.05,-0.02,0.05,1721206780543
1.39,-5.44,11.97,-0.19,0.04,0.03,1721206780553
1.56,-0.32,13.16,0.05,-0.07,-0.10,1721206780563
1.36,3.13,2.72,0.01,-0.03,-0.20,1721206780573
-0.72,-0.42,10.95,-0.16,0.03,-0.24,1721206780583
-0.74,-5.19,13.40,-0.08,-0.01,-0.12,1721206780593
-0.39,-0.21,10.41,0.00,-0.03,-0.03,1721206780603
0.95,-0.87,6.31,-0.10,0.04,-0.02,1721206780613
1.08,-1.38,16.99,-0.15,0.07,-0.20,1721206780623
0.35,3.70,9.65,0.14,-0.10,-0.22,1721206780633
