AccX,AccY,AccZ,GyrX,GyrY,GyrZ,Time
2.10,-1.30,10.72,-0.04,-0.12,0.00,1721207123139
0.85,-1.55,10.01,-0.03,-0.14,0.06,1721207123145
1.09,-2.34,9.36,0.01,-0.09,0.12,1721207123155
1.73,-1.35,10.20,0.04,-0.06,0.08,1721207123165
1.35,-1.23,11.99,0.03,-0.10,-0.00,1721207123175
-0.43,0.63,11.29,0.09,-0.15,-0.03,1721207123185
-1.42,0.82,9.06,0.05,-0.08,-0.01,1721207123195
-2.05,-0.97,9.85,-0.03,-0.11,0.04,1721207123205
-2.24,-0.96,10.80,0.04,-0.13,0.13,1721207123215
-1.22,0.74,9.70,0.05,-0.12,0.19,1721207123225
-0.46,2.03,6.19,0.01,-0.14,0.18,1721207123235
0.45,1.20,12.25,-0.05,0.01,0.07,1721207123245
0.99,0.40,11.06,0.06,-0.15,0.09,1721207123255
0.15,1.05,8.25,-0.03,-0.11,0.14,1721207123265
1.48,-0.10,9.25,-0.01,-0.03,0.12,1721207123275
2.13,-8.48,5.49,0.01,-0.08,0.16,1721207123285
3.66,7.13,13.73,-0.01,0.26,0.10,1721207123295
4.19,2.61,20.68,-0.11,-0.04,-0.36,1721207123305
-4.03,-0.38,15.57,0.28,-0.27,-0.45,1721207123315
-5.95,4.72,-4.76,0.10,-0.09,0.15,1721207123325
-2.10,6.98,5.45,-0.36,0.28,0.47,1721207123335
2.88,-1.14,16.62,-0.09,-0.01,0.15,1721207123345
1.71,1.59,12.14,0.19,-0.16,-0.07,1721207123355
1.18,2.15,5.93,-0.17,0.13,-0.01,1721207123365
-1.59,2.22,13.66,-0.20,-0.09,-0.02,1721207123375
-2.06,-0.13,13.13,0.04,-0.04,-0.04,1721207123385
0.25,-1.69,9.02,-0.01,0.02,0.25,1721207123395
3.93,1.41,8.44,0.00,0.09,0.35,1721207123405
6.93,3.19,10.09,-0.09,0.24,-0.16,1721207123415
3.65,0.09,12.53,-0.04,0.00,-0.60,1721207123425
-2.22,-0.27,10.96,0.05,0.11,-0.43,1721207123435
-2.71,2.20,8.36,0.12,0.21,-0.02,1721207123445
0.77,2.19,8.03,-0.06,0.28,-0.06,1721207123455
-0.08,-0.81,12.96,-0.08,0.05,-0.34,1721207123465
-4.10,-0.37,10.12,0.13,-0.03,-0.27,1721207123475
-3.90,0.42,8.95,0.06,0.20,-0.07,1721207123485
-2.77,0.58,8.87,0.12,0.01,-0.01,1721207123495
-2.74,-0.01,8.71,0.05,0.04,-0.07,1721207123505
-1.19,-0.04,13.15,0.17,0.10,-0.04,1721207123515
0.18,0.39,9.82,0.13,0.07,-0.10,1721207123525
-2.93,3.14,8.60,0.14,-0.19,-0.29,1721207123535
-5.08,0.54,8.88,0.01,-0.01,-0.31,1721207123545
-5.58,0.74,12.99,0.09,-0.08,-0.09,1721207123555
-6.03,3.43,8.13,0.07,-0.22,-0.05,1721207123565
-6.10,3.20,14.35,0.08,-0.15,-0.17,1721207123575
-6.79,1.84,5.73,0.06,-0.43,-0.10,1721207123585
-9.57,6.75,10.30,0.04,-0.37,0.03,1721207123595
-6.90,3.67,10.84,0.02,-0.31,0.10,1721207123605
-6.72,4.63,12.74,0.04,-0.58,0.21,1721207123615
-5.90,7.61,5.68,0.02,-0.61,0.36,1721207123625
-3.38,6.52,9.36,-0.24,-0.49,0.32,1721207123635
-1.14,-0.49,10.44,-0.06,-0.92,0.69,1721207123645
11.90,0.46,12.25,0.06,0.21,1.24,1721207123655
16.29,-0.07,3.96,-0.40,-0.24,0.31,1721207123665
12.11,-4.48,16.63,-0.26,-0.04,-1.51,1721207123675
-0.10,-6.65,18.07,0.41,-1.07,-1.71,1721207123685
-19.22,-4.27,-4.56,0.11,-0.40,-0.37,1721207123695
-19.63,-3.69,9.15,-0.28,-0.43,1.13,1721207123705
0.64,-8.23,17.50,-0.09,-0.08,1.71,1721207123715
18.08,-5.52,20.70,0.18,0.01,1.31,1721207123725
17.12,-2.90,2.38,0.08,-0.55,0.35,1721207123735
14.69,-0.97,4.76,-0.10,0.12,-0.86,1721207123745
3.47,-5.00,13.70,-0.12,-0.71,-1.19,1721207123755
-5.74,-10.02,15.11,0.21,-0.20,-0.66,1721207123765
-4.58,-6.97,5.06,0.04,-0.04,0.10,1721207123775
-0.19,-1.25,11.52,-0.06,0.03,0.13,1721207123785
2.37,-1.79,8.81,0.05,-0.24,-0.25,1721207123795
1.44,-3.88,11.20,0.02,0.07,-0.44,1721207123805
-3.66,-6.65,6.78,-0.03,-0.42,-0.41,1721207123815
-6.56,-7.73,9.42,0.01,-0.17,-0.07,1721207123825
0.26,-6.85,22.96,0.23,0.33,0.44,1721207123835
8.23,0.75,13.69,0.37,0.09,0.42,1721207123845
7.92,0.17,3.25,0.00,-0.05,-0.54,1721207123855
0.96,1.93,-3.00,0.21,-0.38,-1.20,1721207123865
2.62,-9.13,11.37,-0.17,0.50,-0.74,1721207123875
0.25,-4.92,21.23,-0.02,-0.22,0.09,1721207123885
-1.01,-2.31,13.34,0.15,0.11,-0.07,1721207123895
0.69,2.97,11.19,0.35,0.02,-0.50,1721207123905
2.45,-1.00,1.71,-0.17,0.27,-0.51,1721207123915
-1.70,1.58,15.06,-0.19,0.14,-0.44,1721207123925
-3.84,-0.98,-5.62,-0.15,-0.22,-0.41,1721207123935
-5.31,-0.96,14.64,-0.40,0.56,-0.32,1721207123945
1.46,-5.37,12.74,-0.11,0.14,0.13,1721207123955
1.26,0.04,19.63,-0.19,0.23,0.04,1721207123965
-1.07,9.09,10.15,0.13,-0.28,-0.47,1721207123975
-3.57,5.42,4.72,-0.35,0.16,-0.60,1721207123985
-5.51,1.52,11.23,-0.23,-0.00,-0.08,1721207123995
-3.70,-3.07,9.03,-0.36,0.09,0.02,1721207124005
-4.07,-1.14,12.68,-0.07,-0.16,-0.12,1721207124015
-3.11,-0.46,15.24,0.09,0.18,-0.07,1721207124025
-1.71,4.18,6.80,0.22,-0.06,0.11,1721207124035
1.20,1.70,10.29,-0.10,0.03,0.16,1721207124045
3.71,3.16,7.70,0.12,-0.23,0.25,1721207124055
8.77,1.07,9.46,-0.27,0.35,0.05,1721207124065
7.82,-0.93,14.92,-0.04,-0.19,-0.35,1721207124075
2.17,-2.94,15.01,-0.05,0.03,-0.84,1721207124085
-5.00,3.17,7.93,0.07,-0.26,-0.57,1721207124095
-5.50,0.60,6.31,-0.34,0.11,0.11,1721207124105
1.18,3.08,16.30,-0.11,0.10,0.34,1721207124115
6.89,0.68,3.96,-0.20,-0.06,0.01,1721207124125
5.48,1.04,9.47,-0.35,0.19,-0.45,1721207124135
2.98,1.57,14.99,-0.15,0.09,-0.54,1721207124145
0.29,0.71,9.07,-0.08,-0.04,-0.17,1721207124155
2.35,4.84,12.17,-0.09,0.38,-0.08,1721207124165
4.46,2.78,12.55,-0.04,0.19,-0.26,1721207124175
0.36,-2.04,5.02,-0.10,-0.02,-0.55,1721207124185
-1.54,-2.09,9.56,-0.02,0.26,-0.56,1721207124195
-4.00,-2.64,11.31,0.05,0.15,-0.36,1721207124205
-6.65,-1.45,12.57,0.02,0.27,-0.23,1721207124215
-2.20,0.82,14.94,0.19,0.26,-0.02,1721207124225
2.82,4.63,9.95,0.31,0.09,0.21,1721207124235
3.93,-2.04,4.44,-0.08,0.14,-0.06,1721207124245
0.26,-3.49,15.61,-0.11,0.18,-0.52,1721207124255
-2.26,-7.91,13.04,-0.04,0.07,-0.67,1721207124265
-2.81,-3.68,14.65,0.21,0.06,-0.37,1721207124275
-1.87,-1.41,6.47,0.28,0.13,0.01,1721207124285
-0.00,4.10,11.45,0.08,0.34,-0.22,1721207124295
-0.54,4.67,5.21,0.24,-0.18,-0.61,1721207124305
-0.72,-3.93,7.12,-0.24,0.44,-0.83,1721207124315
-5.07,-5.30,20.59,-0.02,-0.01,-0.55,1721207124325
-6.84,-0.48,9.72,0.24,-0.05,-0.16,1721207124335
-3.90,4.04,5.25,0.19,0.26,-0.17,1721207124345
0.77,6.42,8.79,0.11,0.04,-0.30,1721207124355
1.31,-2.19,2.20,0.03,-0.08,-0.37,1721207124365
0.52,-1.99,16.27,-0.12,0.52,-0.41,1721207124375
0.46,1.15,14.45,0.25,-0.05,-0.41,1721207124385
0.43,0.42,7.86,0.00,0.11,-0.45,1721207124395
-2.00,6.55,14.23,0.21,0.05,-0.51,1721207124405
-3.21,0.48,5.91,0.01,0.07,-0.53,1721207124415
-5.74,-0.19,13.12,-0.13,0.04,-0.34,1721207124425
-4.14,1.70,10.99,0.06,-0.00,-0.02,1721207124435
-2.12,4.21,8.22,-0.03,0.08,0.05,1721207124445
1.08,1.13,11.29,-0.16,0.14,-0.09,1721207124455
1.65,-1.30,11.75,-0.16,0.01,-0.12,1721207124465
-0.97,-2.30,7.69,-0.19,-0.08,-0.25,1721207124475
-1.79,-0.56,9.54,-0.13,0.02,-0.35,1721207124485
-0.68,0.58,8.55,-0.11,0.08,-0.15,1721207124495
-4.35,-0.04,9.96,-0.19,-0.12,-0.11,1721207124505
-4.49,-1.56,12.52,-0.20,-0.01,-0.04,1721207124515
-1.05,-2.59,9.47,-0.18,-0.08,0.15,1721207124525
-1.91,1.17,9.03,-0.22,-0.16,0.20,1721207124535
0.68,-1.24,4.73,-0.04,-0.03,0.14,1721207124545
4.36,-6.17,8.43,-0.30,0.01,0.07,1721207124555
-2.71,3.36,15.78,-0.15,-0.46,0.00,1721207124565
-0.91,1.36,17.45,-0.15,0.04,0.08,1721207124575
2.87,-0.17,13.81,-0.10,-0.13,0.43,1721207124585
0.82,-3.44,3.05,-0.28,-0.13,0.16,1721207124595
0.21,-2.23,10.45,-0.08,0.02,-0.23,1721207124605
3.58,-5.25,11.14,-0.08,-0.01,-0.12,1721207124615
-3.86,0.88,14.07,0.01,-0.33,0.03,1721207124625
-1.36,-1.47,11.05,0.07,0.00,0.29,1721207124635
1.53,3.27,11.36,-0.01,-0.02,0.25,1721207124645
2.52,-1.62,11.37,0.01,-0.24,0.05,1721207124655
4.06,-2.42,7.84,0.15,0.02,0.03,1721207124665
1.49,-1.57,7.32,0.10,-0.03,-0.08,1721207124675
-2.46,0.04,10.33,0.11,-0.20,-0.00,1721207124685
-0.36,1.01,10.72,0.08,0.02,0.15,1721207124695
1.78,1.24,13.00,0.04,0.17,0.21,1721207124705
2.26,-2.88,8.50,0.05,-0.17,0.23,1721207124715
2.69,-0.04,8.20,0.09,0.09,0.10,1721207124725
2.35,1.36,11.39,0.07,0.06,-0.15,1721207124735
1.69,0.27,10.64,0.12,-0.04,0.02,1721207124745
1.55,-1.05,9.55,0.08,0.04,0.14,1721207124755
3.33,-1.97,11.96,0.09,0.21,0.04,1721207124765
2.76,2.21,8.63,0.25,0.03,-0.36,1721207124775
-1.28,3.56,8.86,0.20,-0.09,-0.23,1721207124785
-1.35,3.43,10.42,-0.02,0.19,-0.14,1721207124795
0.92,-0.90,9.97,-0.11,0.14,0.01,1721207124805
2.95,3.12,15.71,-0.13,0.18,0.08,1721207124815
5.54,0.29,11.21,0.01,0.13,-0.17,1721207124825
4.32,4.19,6.27,0.17,0.07,-0.67,1721207124835
-0.06,3.99,4.53,0.09,0.11,-0.90,1721207124845
-7.63,0.78,8.83,-0.09,0.06,-0.70,1721207124855
-11.29,-2.09,14.24,-0.07,0.08,-0.21,1721207124865
-6.66,-0.35,13.63,-0.05,0.16,0.42,1721207124875
1.46,1.64,11.23,-0.04,0.24,0.52,1721207124885
7.93,0.06,7.91,-0.14,0.18,0.02,1721207124895
7.33,-1.74,9.63,-0.09,0.11,-0.67,1721207124905
2.11,-6.51,9.56,-0.16,-0.00,-0.74,1721207124915
-5.15,0.91,12.27,-0.00,0.11,-0.61,1721207124925
-4.01,-1.67,10.60,-0.04,0.15,-0.23,1721207124935
-0.27,0.46,10.06,0.03,0.16,-0.05,1721207124945
1.86,0.05,10.65,-0.04,0.21,-0.21,1721207124955
3.40,-0.07,10.21,-0.10,0.22,-0.51,1721207124965
-0.37,-0.95,11.09,-0.08,0.25,-0.75,1721207124974
-3.65,-7.22,12.24,-0.12,0.08,-0.59,1721207124984
-7.52,-1.97,11.06,0.13,0.12,-0.27,1721207124994
-1.45,-3.01,5.66,0.09,0.19,0.04,1721207125004
2.88,0.31,15.31,0.07,0.19,0.02,1721207125014
-0.06,-3.35,4.49,0.33,-0.22,-0.30,1721207125024
-0.52,-3.10,10.02,-0.01,0.51,-0.49,1721207125034
-3.91,2.49,15.92,0.28,-0.19,-0.18,1721207125044
-5.83,-1.62,2.75,0.14,-0.03,0.06,1721207125054
-5.35,1.46,11.25,0.11,0.20,0.16,1721207125064
-0.27,-1.65,6.60,0.13,0.04,0.25,1721207125074
2.00,-2.49,16.14,-0.05,0.22,0.27,1721207125084
2.90,1.12,20.51,0.28,-0.12,0.13,1721207125094
0.61,5.05,4.77,0.46,-0.18,-0.06,1721207125104
1.33,1.93,5.88,0.12,0.12,-0.05,1721207125114
-2.75,-1.37,6.90,0.17,-0.32,0.09,1721207125124
-0.33,-2.28,8.80,0.12,0.29,0.08,1721207125134
-0.55,3.27,4.05,0.31,-0.13,-0.29,1721207125149
-0.90,0.70,2.16,0.07,-0.22,-0.35,1721207125153
-7.91,4.64,11.21,0.05,-0.01,-0.39,1721207125163
-7.45,-5.23,10.21,-0.08,-0.07,0.06,1721207125173
-7.07,4.21,17.02,0.18,-0.16,0.49,1721207125183
1.53,1.88,5.90,0.08,0.01,0.62,1721207125193
3.11,7.68,9.05,0.02,-0.22,0.34,1721207125203
6.91,1.17,5.52,-0.14,-0.05,-0.04,1721207125213
7.03,-1.35,14.42,-0.31,-0.00,-0.17,1721207125223
3.20,0.19,9.73,-0.05,-0.22,-0.28,1721207125233
1.26,-3.28,14.15,-0.43,0.20,-0.48,1721207125243
-4.94,2.80,12.05,0.13,-0.34,-0.48,1721207125253
-7.33,-4.75,-0.38,-0.28,-0.05,-0.29,1721207125263
-8.42,-2.59,12.04,-0.24,-0.18,0.25,1721207125273
-3.62,-2.07,5.21,-0.06,-0.04,0.42,1721207125283
0.89,-4.66,9.58,-0.24,-0.01,0.37,1721207125293
2.63,-4.92,8.08,-0.06,-0.25,0.54,1721207125303
3.18,7.46,1.46,-0.20,0.01,-0.12,1721207125313
6.70,-0.79,17.06,-0.46,-0.04,-0.48,1721207125323
-1.78,-3.19,17.96,-0.25,-0.39,-0.42,1721207125333
-6.24,0.64,6.37,-0.17,-0.10,-0.05,1721207125343
-3.35,-0.54,9.15,-0.26,-0.05,0.30,1721207125353
0.25,0.19,13.81,-0.26,-0.06,0.45,1721207125363
3.73,-5.02,11.58,-0.28,-0.13,0.17,1721207125373
3.09,0.70,11.61,-0.13,-0.09,-0.21,1721207125383
0.45,1.75,10.16,-0.08,-0.23,-0.27,1721207125393
0.13,2.31,11.73,-0.01,-0.02,-0.01,1721207125403
1.44,-3.59,9.75,-0.04,-0.04,0.14,1721207125413
0.54,2.70,13.09,-0.06,0.02,-0.13,1721207125423
1.56,4.72,12.60,0.04,-0.18,-0.29,1721207125433
2.51,1.06,11.47,0.03,0.01,-0.24,1721207125443
1.26,-3.93,9.84,0.05,0.04,-0.21,1721207125453
-2.84,0.67,8.69,0.22,-0.06,-0.28,1721207125463
-1.64,4.72,10.31,0.21,0.02,-0.19,1721207125473
1.20,0.33,11.83,0.13,0.05,0.02,1721207125483
1.69,-2.82,13.09,-0.02,0.06,-0.00,1721207125493
2.33,0.99,12.26,0.16,0.05,-0.21,1721207125503
2.23,1.38,6.73,0.20,-0.08,-0.35,1721207125513
2.48,-0.54,5.70,0.23,0.15,-0.37,1721207125523
0.12,-2.75,9.50,0.11,0.09,-0.33,1721207125533
-1.09,5.56,14.76,0.26,0.12,-0.22,1721207125543
1.12,-0.67,3.60,-0.02,0.03,-0.18,1721207125553
0.34,-1.67,12.14,-0.09,0.28,-0.40,1721207125563
0.38,-4.38,12.01,0.06,0.03,-0.50,1721207125573
-2.71,-0.19,13.54,0.01,0.10,-0.27,1721207125583
-0.07,1.82,9.94,0.09,0.26,-0.08,1721207125593
2.13,1.05,8.67,-0.04,0.21,-0.14,1721207125603
2.55,-4.82,12.46,-0.16,0.18,-0.23,1721207125613
1.65,-0.85,16.51,0.04,0.30,-0.41,1721207125623
0.94,-0.22,6.56,0.14,0.12,-0.45,1721207125633
-1.44,5.27,12.86,0.12,0.33,-0.44,1721207125643
-0.01,0.84,5.19,0.28,0.20,-0.25,1721207125653
-0.36,-2.02,9.90,-0.03,0.41,-0.38,1721207125663
-1.51,0.34,10.24,0.23,0.14,-0.43,1721207125673
-2.12,1.69,7.05,0.06,0.34,-0.40,1721207125683
-2.99,1.71,13.30,0.05,0.23,-0.27,1721207125693
-2.04,-3.27,8.32,0.02,0.26,-0.09,1721207125703
-0.11,2.34,11.37,0.04,0.35,-0.11,1721207125713
2.21,3.56,4.72,0.04,0.19,-0.24,1721207125723
1.91,2.48,14.46,-0.27,0.42,-0.52,1721207125733
-1.33,-2.96,13.95,-0.04,0.14,-0.51,1721207125743
-4.91,0.37,8.97,-0.05,0.22,-0.35,1721207125753
-2.46,2.13,7.96,-0.09,0.31,-0.11,1721207125763
0.62,1.54,10.28,-0.15,0.32,-0.11,1721207125773
0.52,1.93,9.15,-0.01,0.20,-0.33,1721207125783
-0.75,3.16,3.82,0.04,0.29,-0.43,1721207125793
-0.72,-2.86,10.82,-0.32,0.41,-0.38,1721207125803
-2.73,-3.97,17.53,-0.20,0.12,-0.15,1721207125813
-0.27,-0.82,13.84,0.00,0.36,-0.04,1721207125823
2.25,1.81,8.33,0.07,0.24,-0.16,1721207125833
1.44,3.84,9.31,0.02,0.30,-0.41,1721207125843
-0.91,0.47,9.06,0.04,0.21,-0.42,1721207125853
-2.50,-4.11,13.18,-0.15,0.37,-0.33,1721207125863
-3.75,1.55,12.65,0.14,0.20,-0.11,1721207125873
-1.57,1.36,7.19,-0.03,0.33,-0.01,1721207125883
-1.35,4.12,7.39,0.18,0.13,0.08,1721207125893
1.84,0.38,4.90,-0.03,0.41,-0.04,1721207125903
0.85,-3.38,17.03,-0.24,0.29,-0.18,1721207125913
-0.70,-2.74,10.35,-0.00,0.13,-0.17,1721207125923
-0.11,-1.01,7.34,-0.12,0.44,-0.16,1721207125933
-3.32,1.35,9.96,0.02,0.03,-0.05,1721207125943
-1.08,-2.53,8.21,-0.07,0.41,0.07,1721207125953
-0.91,2.29,14.02,0.07,0.19,0.14,1721207125963
-0.15,-1.99,8.09,-0.08,0.22,0.04,1721207125973
-1.82,-0.18,13.91,-0.14,0.24,0.02,1721207125983
-1.55,3.61,10.95,0.19,0.14,0.07,1721207125993
-1.28,-3.82,7.25,-0.10,0.30,0.14,1721207126003
-1.91,-1.96,10.93,0.05,0.12,0.22,1721207126013
1.38,-0.65,7.52,0.09,0.27,0.26,1721207126023
0.51,2.59,14.69,0.09,0.16,0.11,1721207126033
-1.00,5.34,9.48,0.30,0.07,-0.02,1721207126043
-0.60,-3.50,5.99,-0.02,0.20,0.08,1721207126053
-4.37,1.63,11.68,0.09,0.06,0.20,1721207126063
-1.30,-1.10,8.14,0.08,0.22,0.24,1721207126073
-0.92,-0.55,7.38,0.08,-0.01,0.41,1721207126083
-0.75,-3.81,5.21,0.05,0.13,0.39,1721207126093
0.98,-2.02,13.60,0.03,0.22,0.27,1721207126103
1.47,3.78,14.36,0.15,0.03,0.20,1721207126113
-0.84,3.97,8.14,0.02,-0.04,0.19,1721207126123
-2.25,-1.42,8.31,-0.12,0.06,0.22,1721207126133
-0.51,-3.98,11.83,-0.15,0.13,0.38,1721207126143
-0.38,-3.85,11.94,-0.24,-0.05,0.38,1721207126153
0.22,3.00,17.38,0.02,0.17,0.17,1721207126163
0.63,-5.29,9.08,-0.16,-0.11,0.17,1721207126173
-3.30,3.95,13.33,0.08,-0.04,0.31,1721207126183
1.87,-1.16,7.85,0.11,0.13,0.37,1721207126193
0.06,7.30,13.98,0.13,-0.01,0.17,1721207126203
0.22,1.98,4.40,0.23,-0.19,0.09,1721207126213
-1.67,-4.52,8.53,-0.08,0.15,0.16,1721207126223
-1.90,0.99,13.46,0.21,-0.16,0.30,1721207126233
2.29,6.52,10.92,0.15,0.14,0.29,1721207126243
-0.16,5.31,11.05,0.22,-0.22,0.14,1721207126253
-0.52,-2.15,6.84,0.05,0.02,0.05,1721207126263
-0.41,-1.94,10.33,0.02,-0.05,0.19,1721207126273
0.06,-0.09,7.19,0.04,-0.09,0.27,1721207126283
1.19,1.17,9.50,0.04,0.06,0.26,1721207126293
1.67,0.20,10.24,0.14,-0.02,0.13,1721207126303
2.03,-1.66,6.70,0.09,-0.07,0.18,1721207126313
1.36,0.52,13.51,-0.06,0.14,0.10,1721207126323
-0.89,4.85,12.60,0.17,-0.08,0.03,1721207126333
-2.47,0.67,6.73,-0.08,-0.05,0.20,1721207126343
-1.48,-2.77,8.43,-0.08,-0.05,0.44,1721207126353
2.76,-0.62,8.37,-0.04,0.14,0.40,1721207126363
3.12,-1.31,10.13,-0.23,-0.08,0.16,1721207126373
-0.19,2.99,17.12,-0.08,0.05,-0.06,1721207126383
-0.90,-5.11,12.62,-0.12,-0.06,0.12,1721207126393
-3.17,3.75,14.17,0.05,-0.14,0.39,1721207126403
0.54,8.38,9.02,0.06,0.14,0.36,1721207126413
1.38,0.14,4.57,-0.26,-0.19,0.19,1721207126423
-0.62,-5.26,7.69,-0.27,-0.07,0.10,1721207126433
-2.09,-5.00,5.56,-0.01,-0.09,0.13,1721207126443
-0.49,-0.79,11.20,-0.08,0.18,0.24,1721207126453
2.07,5.31,14.23,0.05,-0.08,0.33,1721207126463
2.98,1.68,9.61,-0.11,0.00,0.04,1721207126473
0.37,1.04,10.85,-0.11,-0.01,-0.17,1721207126483
-2.65,-5.28,8.39,-0.29,-0.13,0.01,1721207126493
-3.64,-1.81,14.86,-0.21,-0.07,0.21,1721207126503
0.11,-0.90,14.05,-0.03,0.04,0.34,1721207126513
1.60,-1.63,7.61,-0.11,-0.16,0.27,1721207126523
1.60,6.84,11.21,-0.03,0.19,-0.00,1721207126533
2.17,-0.07,7.88,0.05,-0.17,-0.08,1721207126543
0.02,2.12,8.03,0.03,0.08,-0.09,1721207126553
-0.91,-1.42,6.60,0.10,-0.04,-0.00,1721207126563
-2.06,-1.51,12.10,-0.11,0.05,0.09,1721207126573
0.50,3.75,14.30,0.06,0.03,0.16,1721207126583
1.21,-0.74,8.47,-0.08,-0.03,0.03,1721207126593
0.89,1.72,13.90,-0.04,0.11,-0.03,1721207126603
1.27,0.11,6.48,0.09,0.01,-0.09,1721207126613
-0.33,-0.62,10.81,-0.04,0.06,-0.09,1721207126623
-0.75,-3.18,8.73,0.11,-0.05,0.12,1721207126633
-2.17,0.36,12.19,-0.10,0.17,-0.04,1721207126643
0.22,4.32,16.06,0.19,-0.11,0.19,1721207126653
0.83,-3.46,1.96,0.08,0.04,0.08,1721207126663
0.72,-1.57,9.44,0.07,0.18,-0.06,1721207126673
2.28,-0.14,12.08,0.20,0.17,-0.06,1721207126683
-1.06,2.45,13.76,0.17,-0.04,-0.04,1721207126693
-1.54,3.53,10.10,0.30,0.00,0.14,1721207126703
1.87,-2.32,5.07,0.11,0.13,0.18,1721207126713
1.41,-1.55,9.51,0.08,0.01,0.10,1721207126723
1.14,1.82,11.75,0.08,0.15,-0.08,1721207126733
-0.69,3.00,12.56,0.20,0.10,-0.15,1721207126743
-0.86,-1.62,5.50,0.15,0.03,0.03,1721207126753
-0.49,0.70,9.84,0.01,0.23,0.14,1721207126763
-0.68,2.04,13.94,0.05,0.06,0.07,1721207126773
0.40,-1.44,12.17,-0.06,0.08,0.05,1721207126783
-0.07,1.21,11.53,0.17,0.01,0.17,1721207126793
1.60,-3.41,8.00,0.01,0.22,0.06,1721207126803
-1.46,4.47,12.19,0.20,-0.04,-0.05,1721207126813
-1.00,-3.16,8.37,-0.03,0.19,-0.03,1721207126823
-3.40,3.13,9.45,0.31,-0.07,0.15,1721207126833
0.83,-4.92,7.09,-0.08,0.35,0.21,1721207126843
-1.13,4.15,19.24,0.15,-0.04,0.22,1721207126853
0.82,-1.43,6.76,-0.04,0.11,0.13,1721207126863
-0.39,1.27,16.80,0.04,0.04,0.13,1721207126873
-0.08,2.38,3.17,0.28,-0.10,0.24,1721207126883
1.65,6.36,8.20,-0.05,0.32,0.11,1721207126893
0.02,3.29,6.00,0.16,-0.27,0.07,1721207126903
-1.51,-2.90,4.39,-0.23,0.20,0.06,1721207126913
-2.21,0.73,9.99,-0.07,-0.03,0.15,1721207126923
-0.21,-4.06,6.73,-0.34,0.06,0.21,1721207126933
-0.29,-2.22,17.37,-0.27,-0.02,0.21,1721207126943
0.14,-1.90,11.46,0.03,-0.07,0.15,1721207126953
1.51,1.18,11.06,-0.17,0.14,0.08,1721207126963
-1.08,4.01,10.22,-0.05,-0.27,0.12,1721207126973
-1.21,0.44,8.26,-0.27,0.02,0.14,1721207126983
-1.06,-5.58,10.05,-0.14,-0.16,0.25,1721207126993
1.22,-3.44,11.46,-0.29,0.18,0.22,1721207127003
2.00,5.95,17.32,-0.07,-0.13,0.19,1721207127013
-0.14,-4.22,4.27,-0.13,-0.23,0.09,1721207127023
-0.28,1.10,11.15,-0.21,0.23,0.06,1721207127033
0.45,2.93,12.63,-0.16,-0.18,0.20,1721207127043
-0.55,4.70,12.94,-0.20,-0.05,0.18,1721207127053
0.59,-1.15,10.28,-0.18,-0.13,0.12,1721207127063
-0.37,-3.60,9.33,-0.30,-0.09,0.13,1721207127073
-1.62,1.57,10.36,-0.06,-0.08,0.23,1721207127083
1.28,1.89,9.23,0.01,-0.03,0.22,1721207127093
0.74,4.50,10.04,0.20,-0.12,0.09,1721207127103
0.47,-4.90,5.83,0.07,-0.10,0.08,1721207127113
-1.26,0.33,10.83,0.11,0.07,0.12,1721207127123
2.13,1.25,12.46,0.08,0.01,0.11,1721207127133
-0.37,-0.72,11.66,0.02,-0.23,0.07,1721207127143
-1.79,2.80,10.94,0.10,-0.19,0.01,1721207127158
-0.19,1.27,12.43,0.06,-0.21,0.02,1721207127162
-2.14,0.32,9.24,0.09,-0.12,0.15,1721207127172
-0.12,-3.62,4.92,0.16,-0.04,0.11,1721207127182
-1.78,1.62,4.69,0.24,-0.13,0.00,1721207127192
0.24,1.49,6.79,0.31,0.07,-0.01,1721207127202
-1.26,0.36,6.86,0.20,-0.24,0.19,1721207127212
0.34,-3.07,9.06,-0.07,0.11,0.15,1721207127222
0.57,-2.80,18.12,-0.19,-0.14,0.04,1721207127232
-0.01,2.01,12.56,0.12,-0.17,-0.06,1721207127242
0.92,-0.70,7.05,-0.02,-0.07,0.00,1721207127252
-1.42,-0.50,8.78,-0.04,-0.22,0.08,1721207127262
-0.11,1.00,11.11,0.08,0.01,-0.07,1721207127272
0.67,-4.48,10.49,-0.14,-0.10,-0.08,1721207127282
-3.89,-0.82,17.17,-0.20,-0.24,-0.19,1721207127292
-3.26,6.78,14.24,0.24,-0.11,-0.04,1721207127302
-1.98,-2.47,5.88,-0.06,-0.14,0.18,1721207127312
-1.76,3.38,9.97,0.17,-0.24,0.25,1721207127322
5.30,-2.39,11.77,0.05,0.17,0.09,1721207127332
0.66,9.07,14.07,0.27,-0.34,-0.20,1721207127342
-0.24,-0.01,3.41,0.15,-0.16,-0.33,1721207127352
-2.88,-2.22,13.76,0.08,-0.02,-0.09,1721207127362
-2.50,1.55,8.48,0.32,-0.29,0.20,1721207127372
1.62,5.51,8.94,0.22,0.05,0.20,1721207127382
2.87,-3.84,6.06,0.04,-0.37,0.10,1721207127392
2.05,0.62,16.85,0.10,0.19,-0.21,1721207127402
2.63,3.47,16.14,0.42,-0.19,-0.19,1721207127412
-1.93,4.64,0.43,0.20,-0.33,-0.08,1721207127422
-0.72,2.15,4.78,0.08,0.16,-0.12,1721207127432
1.04,-3.28,9.81,-0.07,-0.09,-0.00,1721207127442
0.07,-3.39,11.66,-0.05,-0.14,0.01,1721207127452
2.85,1.10,12.27,0.16,0.02,-0.13,1721207127462
1.57,0.86,11.24,-0.11,-0.01,-0.34,1721207127472
-3.26,2.96,11.86,0.03,-0.29,-0.27,1721207127482
-2.42,-5.21,7.50,-0.19,0.04,-0.04,1721207127492
-1.84,-0.60,11.78,0.03,-0.14,0.13,1721207127502
1.50,-2.09,6.14,-0.13,0.06,-0.01,1721207127512
0.08,2.84,6.64,0.08,-0.22,-0.08,1721207127522
1.88,-1.61,6.49,-0.23,0.22,-0.20,1721207127532
-0.98,-0.35,16.34,-0.07,-0.16,-0.14,1721207127542
-1.40,-3.79,9.39,-0.20,0.00,-0.12,1721207127552
-0.92,0.00,16.97,-0.17,-0.01,-0.13,1721207127562
-0.60,-1.43,9.85,-0.19,-0.10,-0.05,1721207127572
-1.49,2.35,14.18,-0.23,-0.00,-0.12,1721207127582
-0.07,-3.89,4.94,-0.10,-0.22,-0.02,1721207127592
1.07,0.01,10.55,-0.25,0.32,-0.07,1721207127602
-0.06,3.60,13.49,-0.21,-0.20,-0.16,1721207127612
-2.74,3.19,10.43,-0.22,-0.12,-0.18,1721207127622
0.01,-0.65,4.73,-0.02,-0.09,0.05,1721207127632
1.15,-4.50,4.26,-0.25,0.04,-0.02,1721207127642
-0.57,-0.27,13.07,-0.10,-0.06,-0.16,1721207127652
0.37,-0.30,16.55,-0.12,0.06,-0.21,1721207127662
-0.46,8.04,16.28,0.04,-0.10,-0.12,1721207127672
-1.43,4.70,5.72,0.09,-0.10,-0.14,1721207127682
-2.21,-2.73,7.88,-0.19,0.03,-0.14,1721207127692
-0.92,-2.97,14.52,-0.15,0.12,-0.15,1721207127702
-0.49,0.59,14.00,0.06,-0.20,-0.02,1721207127712
-1.14,-0.73,4.93,0.11,-0.10,0.11,1721207127722
2.95,-0.52,11.48,0.05,0.23,0.06,1721207127732
2.29,0.97,12.06,0.22,-0.18,-0.06,1721207127742
1.66,3.99,9.73,0.18,0.11,-0.30,1721207127752
0.37,1.88,12.64,0.20,-0.05,-0.31,1721207127762
-2.31,1.32,11.49,0.05,-0.08,-0.12,1721207127772
-1.17,0.14,8.19,0.13,-0.02,-0.03,1721207127782
1.60,-6.18,6.80,0.01,0.03,-0.03,1721207127792
0.43,-1.87,9.26,0.11,-0.04,-0.16,1721207127802
1.13,-0.63,12.32,0.16,0.14,-0.25,1721207127812
-0.59,6.07,11.85,0.33,-0.07,-0.20,1721207127822
0.36,-0.53,5.88,0.07,0.05,-0.08,1721207127832
-1.09,-2.17,14.15,-0.04,0.09,-0.17,1721207127842
0.71,-3.31,12.10,0.00,0.06,-0.13,1721207127852
-0.04,6.88,12.03,0.27,-0.01,-0.07,1721207127862
2.40,-3.28,0.49,0.14,0.08,-0.09,1721207127872
0.83,0.52,8.41,0.04,0.15,-0.31,1721207127882
0.45,-2.63,6.75,0.11,-0.04,-0.30,1721207127892
-2.35,-1.70,14.74,-0.22,0.15,-0.24,1721207127902
-2.01,0.36,18.67,0.15,-0.03,-0.07,1721207127912
0.44,0.56,15.90,0.08,0.27,-0.04,1721207127922
-0.21,4.57,7.91,0.24,-0.19,0.05,1721207127932
2.54,3.02,9.99,-0.10,0.41,-0.16,1721207127942
0.89,2.71,8.42,0.18,-0.16,-0.35,1721207127952
-1.34,-2.60,4.43,-0.13,0.25,-0.39,1721207127962
-3.04,-2.46,11.08,-0.00,-0.05,-0.04,1721207127972
-0.17,1.15,6.54,-0.09,0.18,0.06,1721207127982
1.76,-0.34,12.68,-0.12,0.11,-0.09,1721207127992
1.23,-0.96,13.74,-0.16,0.11,-0.31,1721207128002
-1.10,6.84,19.41,0.15,0.10,-0.33,1721207128012
-2.15,0.05,1.49,0.06,-0.07,-0.11,1721207128022
-3.20,5.45,2.09,-0.00,0.14,-0.07,1721207128032
3.17,-3.06,10.09,-0.16,0.38,-0.10,1721207128042
0.45,-1.49,17.27,-0.05,-0.13,-0.14,1721207128052
-1.01,0.39,8.76,0.06,0.08,-0.25,1721207128062
0.47,0.47,9.37,-0.16,0.29,-0.27,1721207128072
0.04,0.81,11.72,-0.07,-0.00,-0.06,1721207128082
1.54,-1.26,10.54,-0.00,0.22,-0.06,1721207128092
1.33,0.91,6.80,0.14,-0.01,-0.25,1721207128102
0.15,3.88,9.73,0.03,0.27,-0.42,1721207128112
-2.25,-1.30,7.91,-0.12,-0.05,-0.18,1721207128122
-3.26,-1.37,12.97,-0.23,0.25,-0.09,1721207128132
0.17,-0.45,9.90,0.06,0.03,0.09,1721207128142
1.37,-3.56,2.96,-0.16,0.15,-0.05,1721207128152
0.84,-1.62,12.32,-0.10,0.16,-0.27,1721207128162
-1.59,-1.25,13.43,-0.11,0.15,-0.32,1721207128172
-3.57,2.63,15.42,-0.01,0.06,-0.11,1721207128182
-0.60,0.33,9.46,-0.08,0.16,0.06,1721207128192
-0.32,3.16,10.36,0.08,-0.03,0.17,1721207128202
3.88,-1.02,9.69,-0.04,0.29,0.04,1721207128212
0.39,0.67,10.13,0.10,-0.06,-0.28,1721207128222
-0.54,0.76,8.27,0.05,0.27,-0.38,1721207128232
-4.21,3.19,11.66,0.10,-0.09,-0.12,1721207128242
-3.71,0.28,6.78,0.13,0.15,0.13,1721207128252
1.05,-5.30,10.99,-0.01,0.21,0.29,1721207128262
3.36,1.13,12.47,0.10,0.08,0.12,1721207128272
2.54,8.68,16.86,0.17,0.13,-0.26,1721207128282
-1.14,1.54,5.16,0.21,-0.22,-0.27,1721207128292
-1.98,-4.64,7.56,0.03,0.33,-0.10,1721207128302
-1.04,-1.86,8.94,0.10,-0.06,0.12,1721207128312
0.05,1.36,7.81,0.10,0.22,-0.00,1721207128322
1.20,-0.85,12.42,0.02,0.15,-0.16,1721207128332
-1.89,-4.23,11.33,-0.09,-0.13,-0.22,1721207128342
-4.49,5.92,14.25,0.13,0.11,-0.00,1721207128352
2.17,1.26,12.22,-0.05,0.24,0.19,1721207128362
1.10,-2.23,6.96,-0.10,-0.17,0.09,1721207128372
2.80,-2.44,8.04,-0.12,0.30,-0.28,1721207128382
-1.88,1.52,9.73,0.04,-0.22,-0.37,1721207128392
-4.13,-0.63,5.30,-0.05,0.19,-0.23,1721207128402
-3.79,-0.70,10.30,-0.06,-0.02,0.12,1721207128412
-1.47,-1.48,10.41,-0.17,0.18,0.17,1721207128422
1.17,2.46,15.01,0.03,0.09,0.02,1721207128432
3.43,1.11,5.00,0.03,0.01,-0.05,1721207128442
0.59,-1.19,6.16,-0.12,0.02,-0.12,1721207128452
-0.39,-1.24,14.85,-0.13,0.25,-0.25,1721207128462
-0.67,3.34,19.31,0.08,0.10,-0.20,1721207128472
-1.72,1.38,4.20,0.02,-0.21,0.05,1721207128482
-1.47,0.98,6.92,-0.20,0.22,0.05,1721207128492
1.58,-0.54,17.45,-0.14,0.23,-0.05,1721207128502
-0.18,2.55,11.41,0.01,-0.12,-0.09,1721207128512
-0.99,-1.07,4.85,-0.20,0.04,-0.08,1721207128522
-1.80,2.19,13.40,-0.09,0.08,-0.03,1721207128532
-0.42,1.19,9.39,-0.02,0.04,0.06,1721207128542
-1.04,1.59,8.02,-0.04,-0.09,0.07,1721207128552
0.30,-2.26,8.74,-0.09,0.12,0.07,1721207128562
-0.82,-0.84,14.63,-0.15,0.01,0.01,1721207128572
-1.53,3.67,19.28,-0.11,-0.02,0.01,1721207128582
-1.91,7.71,13.62,0.10,-0.03,0.08,1721207128592
-0.98,-0.62,4.18,-0.14,-0.05,0.20,1721207128602
-1.29,-0.77,8.26,-0.11,0.02,0.16,1721207128612
1.79,0.08,11.08,-0.02,0.11,0.08,1721207128622
-1.42,1.12,6.40,0.02,-0.19,0.01,1721207128632
-1.36,-2.85,8.88,-0.08,0.07,0.07,1721207128642
-0.44,-1.19,10.33,0.07,-0.11,0.26,1721207128652
0.31,1.15,9.34,-0.03,0.04,0.20,1721207128662
1.62,-0.88,12.26,-0.05,-0.00,0.06,1721207128672
-1.11,1.21,10.74,0.09,-0.13,-0.09,1721207128682
-1.94,0.03,8.85,-0.04,-0.05,0.05,1721207128692
-3.37,0.51,9.12,0.04,-0.18,0.28,1721207128702
0.59,-0.47,9.44,-0.14,0.08,0.30,1721207128712
0.99,1.04,11.47,-0.01,-0.27,0.29,1721207128722
1.80,-0.86,10.75,-0.21,-0.00,0.09,1721207128732
-0.01,3.95,13.42,0.05,-0.28,0.06,1721207128742
0.71,-0.26,7.04,-0.10,0.01,-0.02,1721207128752
-2.13,-0.88,9.06,0.03,-0.37,0.10,1721207128762
-0.74,-2.92,6.93,-0.07,0.09,0.15,1721207128772
0.81,2.47,13.56,0.15,-0.16,0.19,1721207128782
1.98,-5.46,6.05,-0.12,-0.11,0.12,1721207128792
-0.48,1.39,17.04,-0.01,-0.17,-0.09,1721207128802
0.55,-0.19,11.22,0.15,-0.12,-0.05,1721207128812
-1.73,3.32,10.99,0.06,-0.22,0.06,1721207128822
-0.03,-0.37,14.16,-0.04,0.01,0.18,1721207128832
-0.32,3.11,14.09,0.13,-0.20,0.13,1721207128842
1.59,-1.75,6.23,0.00,-0.12,0.05,1721207128852
1.36,1.75,9.83,0.12,-0.12,0.09,1721207128862
2.37,-2.05,7.67,0.12,0.03,0.02,1721207128872
0.57,2.60,9.76,0.30,-0.14,-0.08,1721207128882
1.99,0.22,5.02,0.27,-0.06,0.04,1721207128892
1.65,1.63,11.21,0.08,-0.01,-0.04,1721207128902
0.82,0.93,11.76,0.09,-0.13,-0.10,1721207128912
-0.05,2.05,8.92,0.12,-0.02,-0.09,1721207128922
1.02,-2.06,6.73,0.02,-0.04,-0.04,1721207128932
1.36,-2.94,14.47,-0.13,0.04,-0.10,1721207128942
-0.14,-0.29,12.77,0.15,-0.12,-0.24,1721207128952
-0.70,-2.93,5.62,0.04,0.01,-0.22,1721207128962
-1.12,0.71,11.86,0.08,0.02,-0.10,1721207128972
-0.94,3.99,10.79,0.23,-0.04,-0.11,1721207128982
-0.73,1.04,2.59,0.11,-0.11,-0.08,1721207128992
0.43,-1.31,13.22,-0.23,0.18,-0.09,1721207129002
0.15,4.84,13.75,0.03,-0.17,-0.08,1721207129012
2.07,1.38,3.21,-0.10,0.08,-0.17,1721207129022
0.21,-6.75,4.53,-0.39,-0.15,-0.29,1721207129032
-3.03,-2.96,16.98,-0.30,0.03,-0.38,1721207129042
-2.07,4.33,19.69,0.08,-0.02,-0.27,1721207129052
-1.50,0.55,7.49,-0.19,-0.12,-0.01,1721207129062
-1.71,1.73,10.01,-0.18,-0.05,0.09,1721207129072
4.23,0.09,9.09,-0.18,0.22,-0.05,1721207129082
2.40,-1.84,8.71,-0.14,-0.17,-0.26,1721207129092
-0.45,-1.11,8.45,-0.07,-0.02,-0.52,1721207129102
-1.81,2.96,13.53,0.06,-0.00,-0.34,1721207129112
-3.02,8.25,14.35,-0.07,-0.07,-0.08,1721207129122
-0.86,2.18,9.85,-0.17,-0.09,0.13,1721207129132
2.74,-7.64,9.52,-0.46,0.05,0.13,1721207129142
3.66,0.38,14.19,-0.16,0.06,-0.17,1721207129152
0.62,1.32,7.17,-0.02,0.12,-0.56,1721207129167
-2.37,1.80,8.16,0.03,0.03,-0.55,1721207129171
-4.12,2.93,8.50,0.28,-0.05,-0.27,1721207129181
-3.28,3.38,6.46,0.09,-0.01,0.18,1721207129191
1.36,-2.31,13.71,-0.07,0.16,0.25,1721207129201
5.21,0.75,12.04,0.06,0.02,-0.04,1721207129211
3.65,-1.14,5.33,-0.06,-0.08,-0.36,1721207129221
1.32,1.96,16.39,-0.00,0.22,-0.62,1721207129231
-2.32,4.12,13.88,0.20,-0.08,-0.49,1721207129241
-4.86,-0.75,4.43,0.01,-0.11,-0.19,1721207129251
-1.93,0.33,12.86,0.02,0.30,0.00,1721207129261
0.65,-1.29,12.91,-0.03,0.09,-0.09,1721207129271
-1.54,1.19,11.12,0.10,-0.10,-0.22,1721207129281
0.52,-1.43,6.93,0.08,0.10,-0.17,1721207129291
0.34,-0.35,10.33,0.11,0.04,-0.16,1721207129301
-0.01,2.35,5.73,0.30,0.03,-0.18,1721207129311
-0.44,0.42,4.81,0.10,0.07,-0.34,1721207129321
-2.85,-3.25,9.50,0.05,-0.07,-0.22,1721207129331
-0.19,-6.87,15.87,-0.19,0.36,-0.18,1721207129341
-0.36,-0.51,23.46,-0.01,-0.05,-0.17,1721207129351
-0.24,3.89,5.49,0.15,-0.14,-0.14,1721207129361
0.55,-0.95,6.81,0.05,0.24,-0.17,1721207129371
-1.85,-1.73,7.26,0.05,-0.19,-0.25,1721207129381
-2.48,2.03,7.98,0.22,0.08,-0.24,1721207129391
0.52,1.24,7.94,-0.01,0.14,-0.21,1721207129401
-2.43,-3.86,12.57,-0.16,-0.19,-0.14,1721207129411
-1.47,4.28,13.54,0.21,0.05,-0.14,1721207129421
1.11,4.35,7.34,0.15,0.03,-0.13,1721207129431
-2.20,1.60,6.08,-0.03,-0.15,-0.22,1721207129441
0.22,-6.02,14.52,-0.13,0.15,-0.21,1721207129451
-1.17,2.97,14.92,0.11,-0.12,-0.13,1721207129461
-1.52,4.20,6.82,0.15,0.00,-0.13,1721207129471
0.92,0.17,11.41,0.06,0.07,-0.10,1721207129481
1.58,2.61,13.96,0.26,-0.03,-0.01,1721207129491
2.94,1.60,5.02,0.25,-0.04,-0.02,1721207129501
1.86,7.53,11.71,0.19,0.18,-0.34,1721207129511
0.58,1.21,5.98,0.12,-0.15,-0.47,1721207129521
-3.31,-5.68,7.83,0.01,0.06,-0.28,1721207129531
-3.04,-2.36,11.07,0.08,0.12,-0.11,1721207129541
-1.37,2.96,16.77,-0.03,0.05,-0.02,1721207129551
0.23,6.03,13.40,0.22,-0.09,0.04,1721207129561
2.62,-2.02,4.78,-0.01,0.04,-0.10,1721207129571
-1.60,-2.74,9.00,-0.13,-0.03,-0.27,1721207129581
-1.37,8.56,13.38,0.16,0.17,-0.27,1721207129591
-1.08,-2.18,2.47,-0.08,-0.16,-0.09,1721207129601
-2.10,-4.38,6.32,-0.26,0.14,-0.08,1721207129611
0.94,-2.52,15.44,-0.00,0.08,-0.04,1721207129621
1.15,4.89,6.78,0.10,-0.11,-0.05,1721207129631
1.13,0.83,6.53,-0.27,0.13,-0.19,1721207129641
-1.70,-4.24,13.43,-0.30,-0.06,-0.24,1721207129651
-0.64,-2.39,15.67,-0.14,0.20,-0.19,1721207129661
0.33,3.48,8.82,-0.06,-0.07,-0.12,1721207129671
-1.71,-1.54,1.56,-0.34,-0.04,-0.03,1721207129681
-2.06,-2.56,13.19,-0.27,0.21,-0.10,1721207129691
2.40,-4.04,11.28,-0.13,0.03,-0.15,1721207129701
0.49,4.50,9.79,-0.03,0.00,-0.23,1721207129710
0.40,3.04,9.10,-0.33,0.04,-0.21,1721207129720
-2.85,-1.90,16.66,-0.56,0.02,-0.26,1721207129730
-2.18,-2.96,14.70,-0.26,0.07,-0.19,1721207129740
-0.45,0.67,4.57,-0.08,-0.04,-0.01,1721207129750
0.29,-2.34,4.49,-0.16,0.12,0.00,1721207129760
0.77,-0.01,18.44,-0.14,0.24,-0.10,1721207129770
1.44,12.67,17.17,0.16,-0.01,-0.12,1721207129780
2.94,0.80,3.86,0.10,-0.05,-0.13,1721207129790
0.56,-4.81,9.98,-0.24,0.22,-0.30,1721207129800
-2.98,2.09,18.00,0.02,0.06,-0.34,1721207129810
-2.41,1.09,10.02,0.16,0.04,-0.14,1721207129820
0.01,1.24,6.45,0.24,0.16,0.09,1721207129830
2.15,-1.68,5.60,0.21,0.15,0.03,1721207129840
2.88,2.62,15.61,0.11,0.23,-0.26,1721207129850
1.07,1.27,14.42,0.18,0.00,-0.47,1721207129860
-1.83,3.61,8.33,0.23,0.12,-0.33,1721207129870
-2.06,-2.42,7.74,0.10,0.17,-0.11,1721207129880
-1.47,-0.04,13.25,0.12,0.15,-0.03,1721207129890
2.35,-2.35,8.66,0.16,0.25,0.00,1721207129900
2.27,5.26,8.05,0.26,0.16,-0.14,1721207129910
2.42,-1.06,6.02,0.13,0.23,-0.27,1721207129920
-0.95,-3.18,12.83,-0.09,0.21,-0.40,1721207129930
-3.35,1.47,19.64,0.12,0.11,-0.28,1721207129940
-2.06,2.94,9.09,0.32,0.22,0.13,1721207129950
1.88,0.46,3.20,0.13,0.28,0.18,1721207129960
2.74,4.62,6.87,0.22,0.17,-0.22,1721207129970
2.58,-2.35,3.29,-0.00,0.23,-0.46,1721207129980
-3.58,-4.84,12.00,-0.24,0.12,-0.41,1721207129990
-4.38,0.94,20.65,0.05,0.22,-0.17,1721207130000
-2.04,-1.32,9.44,0.05,0.13,0.21,1721207130010
1.60,2.43,10.98,-0.12,0.37,0.18,1721207130020
4.42,4.79,13.26,0.06,0.26,-0.18,1721207130030
2.26,2.66,4.23,0.02,0.06,-0.45,1721207130040
-3.03,-4.52,5.58,-0.23,0.22,-0.55,1721207130050
-6.61,-1.26,12.70,0.02,0.09,-0.22,1721207130060
-4.47,-0.34,8.33,0.01,0.17,0.25,1721207130070
0.24,2.94,12.55,0.09,0.26,0.33,1721207130080
4.69,6.06,12.34,0.06,0.23,0.09,1721207130090
4.03,3.34,13.25,-0.20,0.14,-0.18,1721207130100
0.92,-0.29,9.24,-0.19,0.13,-0.35,1721207130110
-0.77,0.18,8.28,-0.16,0.23,-0.34,1721207130120
-2.49,-2.97,5.82,-0.09,0.12,-0.17,1721207130130
-3.03,-1.43,11.40,-0.11,0.30,-0.09,1721207130140
-1.92,2.41,13.36,0.03,0.12,0.02,1721207130150
-1.27,0.52,9.38,-0.13,0.15,0.11,1721207130160
1.11,1.12,14.74,-0.09,0.32,0.15,1721207130170
2.71,-0.64,8.24,-0.03,0.02,0.05,1721207130180
0.91,-0.43,11.23,-0.08,0.21,-0.20,1721207130190
-0.74,0.25,11.43,0.09,0.07,-0.25,1721207130200
-2.50,2.78,10.07,0.02,0.16,-0.00,1721207130210
-1.61,1.50,9.28,0.01,0.11,0.24,1721207130220
0.29,-0.61,9.08,0.11,0.18,0.22,1721207130230
2.43,-0.15,7.52,0.11,0.21,0.01,1721207130240
0.26,-0.76,10.09,-0.02,0.08,-0.16,1721207130250
-1.54,3.33,15.12,0.14,0.16,-0.12,1721207130260
-1.78,5.34,6.30,0.26,0.02,0.11,1721207130270
-1.52,-3.66,1.05,0.01,0.08,0.25,1721207130280
1.25,0.18,9.12,0.09,0.27,0.20,1721207130290
2.61,-5.63,7.64,-0.12,0.03,-0.02,1721207130300
-2.60,-6.33,16.58,-0.29,0.12,-0.27,1721207130310
-2.18,5.51,22.29,0.17,0.25,-0.23,1721207130320
-2.95,6.01,7.70,0.11,-0.05,0.17,1721207130330
-4.22,0.27,5.66,-0.11,0.05,0.34,1721207130340
0.94,-1.79,11.75,0.03,0.11,0.31,1721207130350
3.15,-1.40,13.02,-0.03,0.08,0.11,1721207130360
-0.42,1.02,9.48,-0.02,-0.09,-0.18,1721207130370
-5.01,-0.24,7.43,0.01,-0.09,-0.15,1721207130380
-3.98,-3.16,6.53,0.12,0.03,0.28,1721207130390
0.88,2.11,14.11,0.15,0.20,0.51,1721207130400
3.23,9.78,11.18,0.36,-0.11,0.27,1721207130410
3.06,2.00,6.46,-0.01,-0.00,-0.17,1721207130420
-1.02,-4.03,15.67,-0.18,-0.11,-0.26,1721207130430
-4.37,0.83,12.74,0.18,-0.11,-0.12,1721207130440
-3.43,-0.72,3.95,0.10,-0.06,0.20,1721207130450
-2.12,-2.59,9.24,0.01,-0.06,0.46,1721207130460
2.16,6.98,13.33,0.35,0.02,0.43,1721207130470
6.14,1.27,8.59,0.15,0.00,0.14,1721207130480
2.75,4.04,11.42,0.09,-0.13,-0.20,1721207130490
-0.20,1.55,10.44,-0.04,-0.06,-0.26,1721207130500
-3.98,-3.53,12.93,-0.15,-0.24,0.07,1721207130510
-3.12,0.60,10.27,0.20,-0.06,0.29,1721207130520
3.03,2.86,2.16,0.27,0.03,0.36,1721207130530
2.62,-5.39,-1.28,-0.35,-0.15,0.17,1721207130540
-0.98,-2.33,23.92,-0.23,0.14,-0.12,1721207130550
1.79,4.22,20.78,0.50,0.01,-0.11,1721207130560
0.43,3.30,0.93,0.02,-0.14,0.03,1721207130570
-2.94,0.48,5.61,-0.28,-0.15,0.14,1721207130580
-0.04,-2.74,15.10,-0.12,0.08,0.13,1721207130590
0.53,2.73,10.40,0.21,-0.17,0.15,1721207130600
0.07,4.66,-1.41,0.10,-0.10,0.07,1721207130610
-0.86,-6.55,1.51,-0.38,-0.09,0.14,1721207130620
-2.57,-4.87,22.19,-0.42,0.01,0.01,1721207130630
-0.69,6.73,24.27,0.19,-0.09,-0.06,1721207130640
-0.68,1.88,2.66,-0.04,-0.27,0.12,1721207130650
-1.93,0.15,3.14,-0.28,-0.07,0.34,1721207130660
3.19,-2.06,6.95,-0.10,0.12,0.16,1721207130670
2.04,-1.61,9.09,-0.17,-0.10,-0.17,1721207130680
-2.29,-1.16,13.34,-0.16,-0.24,-0.14,1721207130690
-1.66,4.49,14.14,-0.02,-0.04,0.02,1721207130700
-0.63,0.59,8.24,-0.21,-0.10,0.15,1721207130710
-1.74,1.81,12.45,-0.20,-0.13,0.13,1721207130720
1.98,-1.44,11.36,-0.11,0.06,0.01,1721207130730
-0.18,0.10,9.51,0.01,-0.24,-0.00,1721207130740
-1.10,3.28,6.06,0.10,-0.07,0.08,1721207130750
0.87,-0.26,10.26,-0.08,-0.08,0.12,1721207130760
0.32,1.61,12.56,0.00,-0.15,0.16,1721207130770
2.23,-1.37,9.36,-0.02,-0.02,-0.10,1721207130780
-0.59,2.02,11.46,0.09,-0.18,-0.14,1721207130790
-1.67,1.88,5.52,0.08,-0.09,-0.12,1721207130800
-1.35,-3.61,11.48,-0.03,-0.06,0.04,1721207130810
-0.56,-2.08,11.65,0.07,-0.09,0.13,1721207130820
1.78,5.18,11.25,0.19,-0.07,0.04,1721207130830
2.00,1.50,6.23,0.05,-0.24,0.02,1721207130840
0.60,-0.78,9.91,-0.06,-0.00,-0.13,1721207130850
-0.19,-5.27,12.12,-0.08,-0.15,-0.18,1721207130860
-1.41,1.13,13.50,0.05,-0.11,0.02,1721207130870
-0.63,1.50,9.01,0.05,-0.05,0.13,1721207130880
1.00,-0.79,11.48,0.01,-0.10,0.06,1721207130890
2.51,2.94,12.37,0.13,-0.06,0.10,1721207130900
2.34,1.53,8.35,0.13,-0.05,-0.09,1721207130910
0.41,-4.04,7.97,-0.02,-0.12,-0.18,1721207130920
-1.92,-0.34,13.84,0.04,-0.07,-0.06,1721207130930
0.47,5.58,12.97,0.23,0.00,0.09,1721207130940
3.00,-0.83,6.24,0.20,-0.04,0.08,1721207130950
2.99,-0.25,9.05,0.10,0.02,-0.13,1721207130960
0.75,0.33,13.91,0.14,-0.07,-0.34,1721207130970
-2.06,7.10,12.34,0.30,-0.02,-0.31,1721207130980
-1.76,-0.72,4.95,0.22,-0.07,-0.09,1721207130990
-1.70,-1.35,7.77,0.06,0.00,0.04,1721207131000
0.20,1.65,11.06,0.12,0.03,-0.03,1721207131010
1.17,2.32,15.41,0.01,0.07,-0.27,1721207131020
-1.23,-0.36,8.52,0.23,-0.25,-0.14,1721207131030
-1.23,-0.91,5.55,0.04,0.16,-0.02,1721207131040
0.94,1.52,12.83,0.10,-0.00,-0.08,1721207131050
0.80,0.02,7.47,0.13,-0.12,-0.11,1721207131060
0.12,3.74,14.22,-0.05,0.11,-0.25,1721207131070
-1.62,9.15,17.01,0.25,-0.18,-0.16,1721207131080
-0.61,-3.62,1.08,-0.13,-0.07,0.02,1721207131090
0.57,-3.71,8.04,-0.15,0.02,-0.08,1721207131100
3.66,-2.79,10.60,-0.02,0.14,-0.21,1721207131110
1.08,1.86,14.16,0.10,-0.07,-0.34,1721207131120
-3.42,0.19,5.88,0.18,-0.17,-0.36,1721207131130
-4.46,3.78,6.96,0.07,0.04,-0.11,1721207131140
0.43,-2.05,10.12,-0.17,0.10,0.24,1721207131150
3.74,-0.63,12.92,-0.08,-0.04,0.23,1721207131160
4.08,0.65,5.15,0.08,-0.10,-0.52,1721207131175
2.06,-0.15,3.87,0.05,-0.16,-0.63,1721207131179
-2.22,-4.53,6.87,-0.07,0.08,-0.53,1721207131189
-4.61,0.94,17.69,-0.04,0.06,-0.20,1721207131199
-2.75,7.83,15.61,0.10,-0.02,0.10,1721207131209
1.09,-2.96,6.23,-0.18,0.08,0.05,1721207131219
2.60,-3.14,12.10,-0.18,0.06,-0.17,1721207131228
2.84,-0.10,11.76,0.03,0.01,-0.32,1721207131238
1.07,5.02,8.43,0.05,0.09,-0.55,1721207131248
-2.81,-1.20,6.57,0.12,-0.03,-0.49,1721207131258
-6.05,-2.43,6.72,0.08,0.04,-0.11,1721207131268
-2.42,6.53,11.67,0.24,0.14,0.17,1721207131278
3.81,0.56,8.10,-0.09,0.11,0.09,1721207131288
3.96,-7.19,20.35,-0.36,0.08,-0.49,1721207131298
-0.23,4.34,19.35,0.27,-0.13,-0.61,1721207131308
-0.52,7.06,6.53,0.22,0.24,-0.39,1721207131318
-3.15,2.60,5.34,0.11,-0.09,-0.16,1721207131328
-1.77,-4.07,9.92,0.04,0.18,-0.14,1721207131338
-0.29,-2.83,8.74,0.23,-0.01,-0.17,1721207131348
0.48,4.51,9.50,-0.00,0.18,-0.30,1721207131358
-0.86,0.36,13.77,0.08,-0.03,-0.22,1721207131368
-1.14,-1.49,5.97,0.15,0.02,-0.16,1721207131378
-0.73,-0.88,6.38,0.04,0.17,-0.17,1721207131388
-0.11,4.54,9.28,0.16,0.00,-0.26,1721207131398
0.93,-2.38,7.60,-0.11,0.18,-0.22,1721207131408
-2.02,-4.60,12.79,-0.19,-0.01,-0.30,1721207131418
-3.04,1.07,13.55,0.07,0.14,-0.33,1721207131428
-0.22,0.81,11.77,-0.03,0.12,-0.15,1721207131438
-2.52,5.00,6.94,0.09,-0.07,-0.08,1721207131448
1.45,-2.53,9.15,-0.10,0.29,-0.15,1721207131458
0.45,-0.07,8.32,-0.05,-0.14,-0.21,1721207131468
-0.51,3.41,6.16,0.01,0.13,-0.28,1721207131478
0.51,-2.95,10.05,-0.25,0.17,-0.22,1721207131488
-2.41,0.02,14.95,-0.17,-0.19,-0.20,1721207131498
-0.97,2.68,10.82,0.07,0.19,-0.19,1721207131508
1.24,0.01,7.40,-0.09,0.16,-0.16,1721207131518
-1.03,-1.47,18.04,-0.39,0.20,-0.15,1721207131528
-2.31,4.77,13.02,0.09,-0.20,-0.21,1721207131538
0.46,1.27,6.97,-0.01,0.40,-0.10,1721207131548
0.76,-3.76,7.22,-0.02,-0.10,0.11,1721207131558
0.60,0.95,10.52,-0.04,0.26,-0.15,1721207131568
1.37,6.94,17.74,0.07,-0.02,-0.34,1721207131578
-1.41,3.84,8.11,0.21,-0.03,-0.20,1721207131588
-0.54,-5.40,4.48,-0.03,0.21,-0.09,1721207131598
-2.65,-1.98,15.00,-0.21,0.09,-0.19,1721207131608
-3.47,8.36,15.63,0.17,-0.11,-0.16,1721207131618
-1.49,2.09,3.63,0.09,0.10,0.03,1721207131628
-0.20,-4.12,5.60,0.04,0.11,0.15,1721207131638
2.34,-4.39,9.78,-0.14,0.18,-0.09,1721207131648
1.03,5.82,22.08,-0.12,-0.01,-0.36,1721207131658
-2.46,7.99,10.52,0.20,-0.13,-0.24,1721207131668
-1.74,-6.69,1.43,-0.17,0.19,-0.06,1721207131678
-5.53,-4.97,11.35,-0.09,0.01,0.06,1721207131688
1.78,4.88,14.09,0.03,0.34,-0.06,1721207131698
0.24,4.87,9.53,0.07,-0.20,-0.12,1721207131708
-0.41,-5.36,6.93,-0.12,0.15,-0.16,1721207131718
-2.33,-3.84,10.78,0.09,-0.07,-0.03,1721207131728
-1.46,7.57,10.09,0.13,0.17,-0.01,1721207131738
2.02,2.01,9.52,-0.00,0.03,0.07,1721207131748
-2.12,-4.32,10.84,-0.13,-0.09,-0.09,1721207131758
-0.91,-0.88,9.72,0.17,0.13,-0.09,1721207131768
1.10,4.74,7.38,0.15,0.10,0.05,1721207131778
0.31,-1.68,7.47,-0.18,0.02,0.04,1721207131788
-1.42,-5.97,14.08,-0.08,-0.11,-0.02,1721207131798
0.94,0.84,10.25,0.25,0.17,-0.05,1721207131808
2.72,5.71,6.84,0.15,0.08,0.07,1721207131818
-0.78,6.22,8.30,-0.01,-0.08,-0.06,1721207131828
-1.49,-10.36,11.40,-0.31,0.03,-0.20,1721207131838
-1.67,-2.92,18.85,0.09,0.06,0.01,1721207131848
0.41,9.74,5.20,0.31,0.07,0.17,1721207131858
1.13,-1.26,4.28,-0.16,0.04,0.19,1721207131868
0.72,-4.66,16.24,-0.08,0.05,-0.05,1721207131878
1.28,0.10,11.11,0.19,0.05,-0.16,1721207131888
0.59,5.31,7.02,0.12,0.14,-0.01,1721207131898
-0.94,0.41,10.41,-0.07,0.00,0.04,1721207131908
-1.12,-3.19,16.66,-0.05,0.00,0.05,1721207131918
0.85,3.79,10.02,0.26,0.06,0.14,1721207131928
4.03,3.42,5.35,0.07,0.28,0.05,1721207131938
1.25,-1.24,9.19,-0.08,-0.04,-0.22,1721207131948
-2.45,-3.10,14.81,-0.09,0.05,-0.24,1721207131958
-3.08,1.40,10.43,0.24,-0.02,0.06,1721207131968
1.16,1.70,7.18,0.10,0.32,0.24,1721207131978
2.56,0.12,8.14,0.03,-0.06,0.09,1721207131988
0.64,3.14,11.16,-0.02,0.09,-0.27,1721207131998
-0.52,0.08,9.37,0.09,0.03,-0.25,1721207132008
-2.37,4.35,7.08,0.12,0.11,-0.02,1721207132018
-0.34,-2.98,4.52,-0.15,0.05,0.11,1721207132028
0.18,-6.65,19.90,-0.47,0.13,-0.07,1721207132038
-1.03,4.05,18.40,0.16,-0.15,-0.11,1721207132048
-0.54,6.88,-6.20,0.15,0.07,-0.07,1721207132058
-0.52,-5.35,6.61,-0.49,0.18,-0.10,1721207132068
-1.08,-3.38,23.64,-0.22,-0.10,0.01,1721207132078
-1.05,7.03,9.59,0.16,0.04,0.09,1721207132088
1.44,3.20,1.34,-0.24,0.11,0.07,1721207132098
0.60,-5.01,12.39,-0.41,-0.03,0.03,1721207132108
1.51,-2.85,10.93,-0.14,0.03,-0.04,1721207132118
1.89,2.78,9.98,-0.06,0.06,-0.08,1721207132128
0.21,7.13,11.99,0.02,0.07,-0.20,1721207132138
-2.06,0.06,11.50,-0.08,-0.04,-0.13,1721207132148
-1.51,-4.41,12.83,-0.24,0.07,0.09,1721207132158
1.04,1.04,11.85,-0.01,-0.03,0.23,1721207132168
1.83,3.44,6.51,0.10,0.09,0.07,1721207132178
2.26,1.55,10.00,0.17,0.09,-0.23,1721207132188
-1.40,-0.17,7.79,0.23,-0.09,-0.23,1721207132198
-1.79,-0.90,9.16,0.07,0.14,-0.02,1721207132208
0.87,-1.19,17.23,-0.02,0.17,0.11,1721207132218
1.33,3.12,11.60,0.17,-0.12,0.13,1721207132228
2.35,7.50,12.17,0.23,0.20,-0.12,1721207132238
1.79,0.80,8.08,0.24,-0.12,-0.21,1721207132248
-1.20,-2.43,8.16,-0.03,0.17,-0.28,1721207132258
-0.80,1.60,14.90,0.05,0.14,-0.21,1721207132268
-2.07,4.05,9.47,0.07,-0.02,-0.06,1721207132278
-1.89,-1.14,7.30,0.12,0.07,-0.04,1721207132288
0.22,-8.58,11.32,-0.02,0.11,0.00,1721207132298
0.94,-1.70,15.05,0.08,0.09,-0.04,1721207132308
0.60,6.17,11.14,0.23,0.10,-0.22,1721207132318
0.75,0.92,5.16,0.13,-0.03,-0.25,1721207132328
-3.03,-2.42,2.93,0.26,0.00,-0.10,1721207132338
1.13,-7.48,7.35,-0.01,0.32,-0.04,1721207132348
-0.40,-0.40,22.84,-0.11,-0.08,-0.10,1721207132358
-1.70,4.08,10.20,0.23,-0.10,-0.27,1721207132368
-1.91,3.33,2.65,0.04,0.15,-0.29,1721207132378
-3.12,-2.44,4.43,-0.01,-0.04,-0.03,1721207132388
-1.69,-6.40,9.77,-0.12,0.15,0.18,1721207132398
0.76,0.55,14.92,-0.01,0.09,0.01,1721207132408
1.56,3.29,8.90,0.11,-0.01,-0.27,1721207132418
-2.03,1.59,3.04,0.01,-0.09,-0.25,1721207132428
-3.00,6.23,5.67,0.22,0.07,0.01,1721207132438
1.88,-8.51,9.50,-0.33,0.22,0.12,1721207132448
-0.27,-5.24,26.41,-0.31,-0.15,-0.03,1721207132458
1.52,7.06,13.91,0.27,-0.07,-0.23,1721207132468
0.82,2.43,6.64,-0.27,0.14,-0.38,1721207132478
-5.20,1.61,14.47,-0.04,-0.30,-0.10,1721207132488
-2.68,0.85,9.59,0.12,0.11,0.18,1721207132498
1.13,3.73,12.99,0.12,0.10,0.19,1721207132508
2.18,2.51,5.64,0.06,-0.09,-0.05,1721207132518
-0.44,3.04,11.81,-0.00,0.08,-0.32,1721207132528
-2.52,3.80,12.03,0.24,-0.06,-0.22,1721207132538
-4.63,-1.85,3.33,0.18,-0.18,0.06,1721207132548
-3.75,-0.18,1.14,0.18,-0.04,0.31,1721207132558
3.52,0.63,15.08,0.04,0.36,0.29,1721207132568
2.33,5.55,15.39,0.25,-0.31,0.12,1721207132578
2.27,1.19,4.44,0.12,0.00,-0.09,1721207132588
0.52,-1.65,10.86,-0.06,0.05,-0.19,1721207132598
-2.64,-0.41,13.34,-0.02,-0.16,-0.08,1721207132608
-3.57,2.99,9.89,0.10,-0.12,0.06,1721207132618
-0.38,2.32,5.31,0.11,0.03,0.17,1721207132628
0.68,0.85,0.85,-0.03,-0.10,0.17,1721207132638
2.77,-10.35,9.66,-0.51,0.19,-0.17,1721207132648
-0.25,-4.26,26.32,-0.09,-0.15,-0.31,1721207132658
-3.66,10.11,10.94,0.29,-0.26,-0.19,1721207132668
-3.54,9.50,-0.88,-0.02,-0.12,0.26,1721207132678
1.40,-9.56,3.96,-0.39,0.14,0.40,1721207132688
5.90,-12.78,12.92,-0.48,0.13,-0.11,1721207132698
1.44,1.90,17.26,-0.13,-0.30,-0.51,1721207132708
-1.19,1.84,12.42,-0.18,0.08,-0.28,1721207132718
-2.96,9.29,13.13,0.05,-0.14,0.07,1721207132728
2.57,0.73,3.07,-0.13,0.08,0.16,1721207132738
3.73,-13.04,15.94,-0.64,0.12,-0.19,1721207132748
-1.10,5.61,18.54,-0.08,-0.17,-0.54,1721207132758
-2.21,3.21,-0.17,0.09,-0.08,-0.21,1721207132768
-3.04,-5.68,5.92,-0.11,0.22,0.11,1721207132778
0.69,-4.07,14.69,0.05,0.17,0.12,1721207132788
2.28,5.28,14.14,0.06,0.01,-0.11,1721207132798
1.77,10.92,13.21,0.04,0.10,-0.28,1721207132808
-0.71,0.98,8.69,0.01,-0.05,-0.31,1721207132818
-2.55,-11.35,8.05,-0.15,0.11,-0.23,1721207132828
-2.94,-1.15,14.73,0.06,0.12,-0.07,1721207132838
-0.36,10.68,16.25,0.15,0.20,0.03,1721207132848
0.92,-1.44,6.92,0.12,-0.13,0.13,1721207132858
2.50,2.05,-1.27,0.46,0.26,-0.01,1721207132868
5.56,-6.71,11.48,-0.05,0.29,-0.41,1721207132878
-2.09,9.35,33.27,0.10,-0.33,-0.34,1721207132888
-5.32,7.33,6.39,0.32,0.04,0.02,1721207132898
-0.04,-4.39,-0.79,0.02,0.36,0.17,1721207132908
2.18,-2.09,11.85,0.06,0.01,0.19,1721207132918
2.47,2.99,2.73,0.32,0.02,-0.07,1721207132928
1.75,-4.53,12.55,-0.07,0.37,-0.33,1721207132938
-2.43,3.78,27.17,0.41,-0.06,-0.20,1721207132948
-3.48,5.29,0.09,0.34,-0.14,0.09,1721207132958
-0.88,1.30,8.28,-0.03,0.28,0.21,1721207132968
2.10,-3.40,10.94,0.02,0.13,0.08,1721207132978
-0.70,1.12,3.01,0.22,-0.14,-0.12,1721207132988
-0.93,-3.54,1.86,0.02,0.22,-0.17,1721207132998
-2.76,-1.73,10.49,-0.05,-0.03,0.02,1721207133008
-1.73,0.91,16.38,-0.09,0.14,0.21,1721207133018
2.51,1.72,20.73,0.07,0.13,0.20,1721207133028
3.02,5.10,5.95,0.11,-0.15,0.09,1721207133038
2.32,-0.38,0.89,-0.25,0.06,-0.20,1721207133048
-0.65,-6.81,11.85,-0.41,0.01,-0.37,1721207133058
-4.49,1.19,18.99,0.03,-0.00,-0.19,1721207133068
-3.31,2.77,0.55,0.07,-0.07,0.15,1721207133078
-0.84,1.53,3.58,-0.25,0.17,0.23,1721207133088
2.28,-11.61,20.42,-0.57,0.17,0.02,1721207133098
0.88,7.59,26.84,0.20,-0.14,0.06,1721207133108
4.19,9.36,1.29,0.13,0.05,-0.02,1721207133118
-3.64,3.40,11.19,0.14,-0.15,-0.05,1721207133654
-3.17,3.49,2.51,0.17,-0.29,0.00,1721207133659
-2.83,-1.03,-1.55,0.08,0.11,0.15,1721207133668
2.88,-6.57,10.67,-0.11,0.25,0.15,1721207133678
1.27,0.60,17.29,-0.12,-0.09,-0.01,1721207133687
-1.67,2.26,7.47,0.06,-0.25,-0.11,1721207133697
0.05,-0.59,4.05,-0.09,0.10,-0.02,1721207133706
0.38,-7.58,11.69,-0.23,-0.02,0.15,1721207133716
0.41,-2.42,20.69,-0.10,0.05,0.04,1721207133726
0.31,2.11,9.42,0.11,-0.24,0.01,1721207133736
0.18,6.39,3.56,0.05,0.04,-0.05,1721207133745
2.36,-1.61,14.23,-0.09,0.19,-0.01,1721207133755
0.35,1.09,12.05,0.12,-0.17,0.12,1721207133764
0.59,-1.50,4.81,-0.07,0.11,-0.05,1721207133774
-1.20,2.91,9.55,-0.07,-0.14,-0.13,1721207133784
0.11,-4.09,11.11,-0.15,0.12,-0.02,1721207133794
-0.19,-5.04,14.27,-0.04,-0.07,0.02,1721207133804
0.34,5.19,8.76,0.24,-0.05,0.17,1721207133814
1.75,4.12,5.88,0.05,0.03,0.06,1721207133824
0.32,4.13,14.39,-0.06,0.00,-0.08,1721207133834
1.88,-1.11,14.93,-0.12,0.14,-0.20,1721207133844
-1.64,-7.43,6.14,-0.16,-0.28,0.01,1721207133854
-1.58,-2.63,10.29,-0.09,0.18,0.17,1721207133864
1.96,0.46,14.09,0.03,0.05,0.01,1721207133874
2.43,8.86,13.61,0.31,-0.02,-0.01,1721207133884
3.20,0.70,5.55,0.19,0.07,-0.14,1721207133894
-1.35,-1.49,8.29,-0.07,-0.08,-0.28,1721207133904
-3.03,4.57,17.13,0.01,0.09,-0.19,1721207133914
-1.70,3.79,9.94,0.15,-0.00,0.08,1721207133924
0.96,-4.40,5.42,0.12,0.07,0.21,1721207133934
2.62,-2.32,7.62,0.09,0.05,-0.03,1721207133944
0.90,5.02,15.26,0.09,0.06,-0.35,1721207133954
-2.26,1.90,9.06,0.18,-0.13,-0.27,1721207133964
-3.96,1.47,0.89,0.19,0.02,0.06,1721207133974
0.31,-5.28,11.37,-0.11,0.23,0.23,1721207133984
2.67,0.59,22.82,0.05,-0.01,0.11,1721207133994
2.09,6.89,6.02,0.26,-0.10,-0.18,1721207134004
0.52,4.53,-2.38,0.02,0.12,-0.28,1721207134014
-0.24,-4.93,10.01,-0.24,0.09,-0.30,1721207134024
-1.84,-3.96,24.16,-0.07,0.04,-0.17,1721207134034
-2.93,-0.20,8.02,0.10,-0.15,0.00,1721207134044
-0.93,5.38,9.74,-0.09,0.30,-0.04,1721207134054
2.84,0.04,8.74,-0.03,-0.15,-0.03,1721207134064
-0.31,2.72,3.16,0.11,-0.15,-0.06,1721207134074
1.52,-2.66,9.32,-0.01,0.38,-0.20,1721207134084
-0.57,-2.93,12.52,-0.02,-0.10,-0.26,1721207134094
-3.34,5.07,15.10,-0.06,-0.04,-0.08,1721207134104
-1.11,5.73,11.82,-0.01,-0.01,0.10,1721207134114
1.94,-4.58,8.37,-0.21,0.09,0.08,1721207134124
1.56,-0.98,12.62,-0.02,0.05,-0.14,1721207134134
1.37,-0.49,7.27,0.01,-0.01,-0.31,1721207134144
-1.47,1.30,9.80,0.01,0.03,-0.33,1721207134154
-4.06,-1.59,10.07,0.06,0.04,-0.17,1721207134164
-2.42,5.26,13.51,0.18,0.14,0.03,1721207134174
2.02,1.09,6.32,0.14,-0.00,0.19,1721207134184
2.46,-1.55,6.42,-0.02,0.10,0.04,1721207134194
2.90,0.03,11.93,-0.01,0.02,-0.27,1721207134204
1.05,-0.16,12.00,0.10,0.02,-0.43,1721207134214
-2.39,-0.53,9.96,0.06,0.09,-0.46,1721207134224
-5.45,3.10,12.33,0.10,-0.06,-0.10,1721207134234
-2.62,3.03,9.38,0.06,0.17,0.12,1721207134244
0.28,-2.38,8.87,-0.02,0.02,0.11,1721207134254
1.64,0.05,9.50,0.07,0.11,-0.13,1721207134264
2.08,-3.96,7.07,0.03,-0.00,-0.25,1721207134274
-1.47,0.38,10.79,0.05,0.02,-0.26,1721207134284
-1.51,-0.78,8.15,0.13,0.08,-0.18,1721207134294
-1.78,3.71,12.66,0.06,0.05,-0.09,1721207134304
-0.49,-2.63,10.11,0.02,0.04,-0.06,1721207134314
-0.17,-1.65,6.79,0.03,0.09,-0.13,1721207134324
1.56,-2.43,12.45,-0.10,0.24,-0.24,1721207134334
-0.77,3.30,20.50,0.04,-0.06,-0.26,1721207134344
-4.16,6.98,6.13,0.24,-0.18,-0.22,1721207134354
-3.38,2.27,0.34,0.06,0.07,-0.08,1721207134364
0.80,-4.46,14.40,-0.22,0.32,0.03,1721207134374
2.12,-2.88,20.80,-0.11,0.02,-0.08,1721207134384
-1.74,5.66,4.73,0.15,-0.32,-0.23,1721207134394
-1.53,-3.85,1.77,-0.11,0.17,-0.17,1721207134404
-2.65,-1.46,20.28,-0.10,0.07,0.03,1721207134414
0.25,7.08,13.36,0.35,-0.04,0.11,1721207134424
3.34,4.10,2.35,0.13,0.07,-0.14,1721207134434
-1.17,-4.44,4.79,-0.18,-0.14,-0.23,1721207134444
-3.06,-1.75,18.39,-0.04,0.15,-0.17,1721207134454
1.25,4.48,13.59,0.35,0.06,0.02,1721207134464
2.13,3.26,3.69,0.18,0.09,-0.09,1721207134474
-1.62,2.55,9.17,0.04,0.04,-0.23,1721207134484
-2.01,2.94,10.52,0.18,-0.07,-0.03,1721207134494
1.00,-0.56,9.77,-0.00,0.27,-0.08,1721207134504
-2.40,-3.11,9.67,-0.11,-0.28,-0.15,1721207134514
-4.21,0.85,8.47,0.04,-0.06,0.07,1721207134524
2.47,1.55,10.88,0.03,0.40,0.16,1721207134534
1.66,0.14,5.13,-0.09,-0.26,0.01,1721207134544
-0.10,-2.97,7.67,-0.13,0.16,-0.22,1721207134554
0.26,-0.97,17.39,-0.07,0.15,-0.20,1721207134564
-1.48,1.66,16.92,-0.05,-0.03,-0.07,1721207134574
-1.44,0.06,10.35,-0.08,-0.10,0.04,1721207134584
0.37,2.17,12.72,-0.00,0.11,0.02,1721207134594
1.41,-1.71,3.19,0.00,-0.15,-0.00,1721207134604
-0.85,4.85,8.38,0.00,0.20,-0.20,1721207134614
0.77,-3.92,8.35,-0.08,0.08,-0.18,1721207134624
-3.03,-1.62,14.51,-0.13,-0.02,-0.11,1721207134634
-1.06,0.95,9.02,0.07,0.00,-0.02,1721207134644
0.33,-1.70,4.38,-0.07,-0.03,0.14,1721207134654
0.45,3.85,12.91,-0.02,0.26,0.01,1721207134664
2.73,2.77,10.62,0.09,0.05,-0.14,1721207134674
-0.63,-3.81,2.86,-0.13,-0.11,-0.30,1721207134684
-2.79,-7.22,8.17,-0.25,0.14,-0.17,1721207134694
-1.88,0.12,22.33,-0.20,0.18,0.05,1721207134704
0.73,6.25,13.55,0.11,-0.04,0.19,1721207134714
4.13,-1.63,4.44,-0.07,0.13,0.03,1721207134724
1.58,-1.15,10.76,-0.09,0.08,-0.38,1721207134734
-0.80,3.96,16.47,0.03,0.09,-0.43,1721207134744
-3.97,1.71,5.27,0.09,-0.00,-0.13,1721207134754
-3.49,-2.89,7.28,0.01,0.25,0.10,1721207134764
1.15,-3.00,10.73,0.04,0.07,0.25,1721207134774
1.47,5.49,15.64,0.04,0.06,0.08,1721207134784
2.09,1.43,8.68,0.09,0.03,-0.10,1721207134794
-0.37,-0.25,6.48,0.01,0.09,-0.16,1721207134804
-1.22,-2.94,9.65,0.07,0.11,-0.09,1721207134814
-1.16,0.83,13.72,0.02,0.15,0.11,1721207134824
-0.39,1.75,11.04,0.15,-0.01,0.17,1721207134834
2.45,3.64,6.95,0.16,0.11,0.15,1721207134844
3.86,0.06,9.63,0.10,0.16,-0.02,1721207134854
0.88,3.58,9.01,0.15,-0.01,-0.25,1721207134864
-1.97,-4.38,9.20,-0.06,0.10,-0.27,1721207134874
-3.43,1.07,17.13,0.17,0.12,-0.07,1721207134884
-1.50,3.57,6.91,0.25,0.05,0.22,1721207134894
0.51,2.27,7.98,0.12,0.10,0.20,1721207134904
1.77,-0.45,11.82,0.07,0.12,-0.09,1721207134914
-0.92,-1.62,11.18,0.16,-0.03,-0.16,1721207134924
-2.43,2.17,8.97,0.11,0.07,0.07,1721207134934
-1.65,0.17,10.24,0.10,0.05,0.26,1721207134944
1.78,2.58,13.16,0.14,0.16,0.20,1721207134954
3.01,1.08,8.58,0.18,-0.01,-0.00,1721207134964
1.18,2.64,7.29,0.10,0.09,-0.14,1721207134974
0.17,-2.31,10.98,-0.03,0.13,-0.19,1721207134984
-3.02,0.93,12.25,0.12,-0.14,-0.01,1721207134994
-1.51,0.65,5.18,0.17,0.08,0.22,1721207135004
1.62,3.45,7.34,0.15,0.09,0.18,1721207135014
2.68,1.14,11.92,-0.02,0.08,-0.01,1721207135024
0.40,-1.00,13.27,-0.05,-0.07,-0.16,1721207135034
-1.91,0.51,8.44,-0.01,-0.09,-0.02,1721207135044
-0.57,0.23,4.23,-0.02,0.08,0.14,1721207135054
1.41,-3.69,11.74,-0.25,0.15,0.01,1721207135064
0.21,-2.38,20.66,-0.01,-0.06,-0.16,1721207135074
-2.47,4.12,4.52,0.16,-0.22,-0.05,1721207135084
-2.22,2.81,-1.22,-0.10,0.07,0.09,1721207135094
0.84,-8.34,12.28,-0.37,0.21,0.11,1721207135104
1.03,-0.92,22.43,0.03,-0.11,0.15,1721207135114
2.36,6.69,4.37,0.16,-0.12,0.02,1721207135124
0.16,1.34,2.23,-0.22,-0.01,-0.10,1721207135134
-1.10,-5.66,17.36,-0.29,0.12,-0.12,1721207135144
-0.96,0.85,14.01,0.04,-0.08,-0.05,1721207135154
0.39,5.44,2.48,-0.02,0.01,-0.01,1721207135164
-0.49,-3.62,5.62,-0.25,-0.02,-0.01,1721207135174
-0.09,-2.96,19.71,-0.17,0.08,-0.04,1721207135184
0.08,4.86,13.76,0.03,-0.09,0.00,1721207135194
0.31,3.75,8.15,-0.11,0.09,-0.04,1721207135204
0.51,-3.10,8.49,-0.18,-0.09,-0.01,1721207135214
0.11,-2.61,11.31,-0.15,-0.02,-0.11,1721207135224
0.43,0.02,12.70,-0.06,0.04,-0.13,1721207135234
-0.79,1.86,12.22,-0.04,-0.05,-0.15,1721207135244
-1.76,-1.00,11.01,-0.14,-0.06,0.03,1721207135254
-0.59,-0.65,12.00,-0.03,0.02,0.08,1721207135264
1.78,3.45,10.05,0.02,0.01,0.01,1721207135274
1.02,0.19,7.60,-0.03,-0.09,-0.11,1721207135284
-1.36,-2.92,11.88,-0.10,-0.01,-0.34,1721207135294
-2.22,2.67,10.95,0.14,-0.12,-0.17,1721207135304
-0.90,3.06,8.70,0.00,0.04,0.08,1721207135314
-0.66,1.42,9.40,-0.08,-0.05,0.04,1721207135324
0.49,-4.53,11.32,-0.17,-0.02,-0.15,1721207135334
-0.81,2.66,13.05,0.00,-0.09,-0.20,1721207135344
-0.63,3.96,5.14,0.01,-0.08,-0.09,1721207135354
-0.88,-5.64,11.21,-0.30,0.02,-0.13,1721207135364
-1.47,2.09,19.90,0.06,0.02,-0.15,1721207135374
0.04,7.03,5.39,0.18,-0.19,-0.04,1721207135384
-0.66,-1.10,4.08,-0.15,-0.07,0.07,1721207135394
1.58,-5.55,19.11,-0.16,0.19,-0.06,1721207135404
1.21,4.67,10.39,0.30,-0.32,-0.18,1721207135414
1.72,5.99,6.15,0.10,0.23,-0.26,1721207135424
-1.46,3.71,12.87,0.04,-0.17,-0.23,1721207135434
-2.75,-2.79,10.14,0.03,-0.11,-0.19,1721207135444
-2.56,0.27,10.09,0.04,0.01,-0.07,1721207135454
-1.28,2.22,10.46,0.01,-0.04,0.08,1721207135464
0.56,0.17,11.85,-0.04,-0.07,0.05,1721207135474
1.04,2.33,9.52,0.16,-0.07,-0.08,1721207135484
1.57,1.77,6.95,0.09,0.01,-0.14,1721207135494
-2.08,1.53,8.72,0.00,-0.11,-0.12,1721207135504
-1.41,-3.30,12.01,-0.23,0.07,-0.13,1721207135514
-1.58,1.67,18.69,0.01,-0.06,-0.05,1721207135524
0.53,2.49,7.24,-0.05,-0.06,0.04,1721207135534
-0.02,0.57,8.57,-0.06,-0.18,0.02,1721207135544
2.74,-5.96,7.72,-0.18,0.13,-0.13,1721207135554
0.40,0.94,13.83,0.05,-0.05,-0.29,1721207135564
-1.79,2.61,5.12,0.10,-0.07,-0.16,1721207135574
-1.22,0.65,8.48,0.03,0.05,0.01,1721207135584
-0.40,-5.42,8.99,-0.09,-0.02,-0.06,1721207135594
0.11,0.23,13.14,0.07,0.05,-0.16,1721207135604
1.05,8.09,8.31,0.11,0.05,-0.14,1721207135614
0.56,0.87,7.53,-0.07,0.05,-0.13,1721207135624
-0.89,-9.93,11.54,-0.29,-0.02,-0.26,1721207135634
-1.79,-0.43,13.35,0.06,-0.04,-0.21,1721207135644
0.01,7.26,8.75,-0.05,0.10,-0.07,1721207135659
0.88,2.75,10.20,-0.09,-0.00,-0.05,1721207135663
1.90,-2.11,9.61,-0.08,0.12,-0.19,1721207135673
-0.25,-4.87,8.01,-0.11,0.02,-0.36,1721207135683
-2.20,0.49,11.84,-0.07,0.09,-0.29,1721207135693
-1.41,1.12,12.69,-0.11,0.11,-0.17,1721207135703
-0.39,1.84,15.72,0.01,0.08,-0.02,1721207135713
1.41,-3.69,6.56,-0.04,0.08,-0.07,1721207135723
0.76,-1.87,10.09,0.02,0.10,-0.21,1721207135733
-0.01,1.08,16.85,-0.09,0.23,-0.39,1721207135743
-3.68,10.11,15.22,0.14,-0.06,-0.22,1721207135753
-0.25,0.93,3.47,0.29,0.22,0.14,1721207135763
1.54,-4.45,5.09,0.12,0.22,0.01,1721207135773
0.12,3.36,14.61,0.08,0.01,-0.32,1721207135783
-1.16,7.30,10.81,0.24,0.12,-0.31,1721207135793
-0.51,-0.45,3.45,0.27,0.16,0.11,1721207135803
0.38,-5.79,5.85,0.06,0.22,0.03,1721207135813
0.83,3.35,20.76,0.12,0.13,-0.20,1721207135823
-0.32,5.46,8.32,0.24,-0.05,-0.17,1721207135833
-0.58,1.16,0.13,0.10,0.25,-0.15,1721207135843
0.44,-5.28,12.87,-0.00,0.30,-0.17,1721207135853
-2.07,1.57,20.99,0.17,-0.00,-0.16,1721207135863
-2.98,3.15,5.77,0.21,-0.02,0.03,1721207135873
0.11,-0.54,7.86,-0.00,0.32,0.05,1721207135883
2.29,4.31,15.70,0.11,0.16,-0.02,1721207135893
1.14,3.67,5.21,0.15,-0.01,-0.08,1721207135903
-0.41,-4.13,5.88,-0.14,0.22,-0.32,1721207135913
-2.32,-1.97,12.59,0.04,0.09,-0.26,1721207135923
-1.62,6.00,8.26,0.16,0.13,0.08,1721207135933
0.61,2.92,7.01,-0.00,0.15,0.17,1721207135943
0.96,-5.67,7.20,-0.17,-0.01,-0.06,1721207135953
-0.65,-1.56,15.55,-0.04,0.15,-0.20,1721207135963
-0.51,3.20,10.29,0.06,0.09,-0.14,1721207135973
-1.52,5.88,8.58,-0.07,0.02,0.00,1721207135983
-0.24,-4.26,7.04,-0.13,0.11,0.01,1721207135993
-0.51,-5.25,9.27,-0.13,0.06,-0.06,1721207136003
-0.39,1.85,11.99,-0.01,0.08,-0.01,1721207136013
0.91,2.58,9.31,-0.06,0.09,-0.02,1721207136023
-0.93,3.75,17.39,-0.19,0.02,-0.01,1721207136033
-1.81,-3.95,8.38,-0.06,-0.11,0.09,1721207136043
0.80,-1.43,9.13,-0.24,0.37,0.07,1721207136053
3.02,-0.08,12.28,-0.11,0.03,-0.06,1721207136063
0.40,2.55,10.80,-0.08,0.01,-0.23,1721207136073
-1.34,2.94,8.42,0.14,0.05,-0.22,1721207136083
-2.72,-3.18,6.33,0.02,0.00,0.03,1721207136093
-1.91,-4.07,16.41,-0.20,0.20,0.19,1721207136103
1.09,6.02,18.27,0.06,0.07,0.19,1721207136113
2.79,3.89,0.31,0.23,-0.22,0.09,1721207136123
2.04,-8.78,4.21,0.00,0.21,-0.07,1721207136133
-0.78,1.72,16.67,0.14,0.04,-0.24,1721207136143
-0.59,5.54,10.93,0.21,0.04,-0.22,1721207136153
-1.33,-0.41,7.55,-0.01,0.07,-0.13,1721207136163
-2.34,-4.34,8.74,-0.02,-0.03,0.10,1721207136173
-0.88,-2.26,15.17,-0.06,0.05,0.15,1721207136183
-0.15,3.52,10.76,0.27,-0.09,0.04,1721207136193
0.24,2.15,3.95,0.11,0.12,-0.14,1721207136203
-2.61,0.46,8.32,-0.05,-0.10,-0.13,1721207136213
-3.76,-1.44,8.73,0.03,-0.03,0.08,1721207136223
0.55,-1.31,12.48,0.03,0.16,0.12,1721207136233
2.12,0.73,12.88,0.03,-0.05,0.20,1721207136243
1.78,-1.96,8.91,-0.07,-0.08,0.10,1721207136253
0.85,5.19,15.07,0.08,0.05,-0.19,1721207136263
1.40,4.21,6.85,0.19,-0.14,-0.19,1721207136273
-2.35,-1.34,2.39,-0.03,-0.13,-0.12,1721207136283
-2.26,-4.67,12.88,-0.11,0.24,-0.06,1721207136293
0.12,3.43,18.27,0.17,-0.00,-0.06,1721207136303
0.39,5.40,4.73,0.27,-0.12,0.00,1721207136313
-0.22,-0.89,3.58,0.04,0.03,-0.01,1721207136323
-1.09,1.40,14.06,0.00,0.00,-0.09,1721207136333
0.05,1.61,14.98,0.12,-0.00,-0.04,1721207136343
0.12,2.52,8.01,0.06,0.01,-0.04,1721207136353
-0.98,0.49,8.88,-0.08,-0.01,-0.04,1721207136363
-0.49,-1.06,14.90,-0.03,-0.02,0.06,1721207136373
0.02,3.85,11.76,0.16,0.00,0.03,1721207136383
1.46,4.64,8.71,0.19,0.06,-0.09,1721207136393
0.75,1.43,6.34,0.06,-0.06,-0.19,1721207136403
-1.72,-2.97,7.07,-0.04,-0.01,-0.21,1721207136413
-1.78,1.31,12.57,0.08,0.11,-0.06,1721207136423
-1.21,-1.01,9.53,0.06,-0.03,0.10,1721207136433
-0.81,2.45,11.09,0.14,-0.02,0.13,1721207136443
2.68,0.46,8.41,0.03,0.14,0.01,1721207136453
0.58,2.56,12.52,-0.06,-0.07,-0.16,1721207136463
-1.96,1.47,9.00,-0.03,-0.03,-0.16,1721207136473
-3.00,-6.75,5.67,-0.17,-0.10,0.00,1721207136483
-2.21,-1.51,11.85,-0.04,0.08,0.20,1721207136493
2.73,4.82,10.93,0.14,0.11,0.22,1721207136503
2.57,0.45,2.09,-0.15,-0.22,0.01,1721207136513
-0.26,-5.66,15.52,-0.39,0.16,-0.18,1721207136523
-0.58,-1.23,16.70,-0.03,-0.08,-0.25,1721207136533
-2.99,2.27,3.95,-0.13,-0.01,-0.06,1721207136543
-3.13,-3.91,10.84,-0.32,0.04,0.16,1721207136553
0.34,-0.56,18.81,-0.12,0.08,0.25,1721207136563
3.62,2.85,8.74,-0.03,-0.07,0.15,1721207136573
1.82,2.84,5.33,-0.15,-0.02,-0.17,1721207136583
0.73,-3.15,15.23,-0.44,0.10,-0.23,1721207136593
-1.59,-0.41,17.81,-0.15,-0.13,-0.09,1721207136603
-1.82,4.23,4.76,0.03,0.01,0.06,1721207136613
-0.94,-2.30,3.57,-0.02,0.04,0.16,1721207136623
1.26,0.28,14.91,-0.02,0.11,0.01,1721207136633
2.76,3.18,11.07,0.24,-0.07,0.03,1721207136643
2.55,3.43,8.16,0.09,0.07,-0.06,1721207136653
-0.53,-0.39,9.94,0.08,-0.10,-0.02,1721207136663
-2.22,-1.73,15.23,-0.04,0.10,-0.12,1721207136673
-1.40,1.95,6.13,0.24,-0.10,0.01,1721207136683
0.54,4.66,5.45,0.17,0.20,0.06,1721207136693
2.99,0.97,12.65,0.10,0.11,-0.03,1721207136703
1.48,-3.78,15.31,-0.02,-0.02,-0.19,1721207136713
-1.24,3.20,6.97,0.15,-0.08,-0.13,1721207136723
-1.50,1.42,6.51,0.01,0.15,-0.08,1721207136733
0.27,-3.24,13.65,-0.04,0.08,0.08,1721207136743
0.55,3.52,13.90,0.26,0.04,0.04,1721207136753
1.86,1.95,2.50,0.22,0.05,-0.09,1721207136763
-0.32,-2.15,6.25,-0.11,-0.01,-0.15,1721207136773
-2.89,-4.28,17.63,-0.16,0.08,-0.24,1721207136783
-2.46,1.91,19.13,0.17,0.03,0.04,1721207136793
-0.55,4.48,5.51,0.29,-0.02,0.25,1721207136803
2.86,2.40,2.79,0.09,0.10,0.13,1721207136813
2.69,2.03,13.69,0.05,0.08,-0.20,1721207136823
0.70,0.47,9.55,0.11,-0.03,-0.31,1721207136833
-2.18,1.47,4.80,0.09,0.06,-0.14,1721207136843
-0.42,-3.22,8.75,-0.16,0.16,0.01,1721207136853
0.40,-3.76,22.29,-0.15,-0.01,0.08,1721207136863
0.88,4.92,9.81,0.25,-0.07,-0.02,1721207136873
1.93,5.41,-1.69,-0.01,0.07,-0.19,1721207136883
-0.79,-6.50,10.92,-0.29,0.12,-0.27,1721207136893
-1.71,-3.71,22.06,-0.00,0.08,-0.14,1721207136903
-1.12,11.39,7.31,0.31,-0.06,-0.04,1721207136913
0.77,2.02,-0.49,-0.10,0.12,-0.00,1721207136923
0.34,-5.61,16.08,-0.23,0.08,-0.08,1721207136933
1.79,-1.03,15.90,0.12,0.04,-0.10,1721207136943
2.28,8.54,4.80,0.09,0.09,-0.20,1721207136953
-0.49,-2.80,4.90,-0.18,0.03,-0.38,1721207136963
-3.64,-5.84,17.88,-0.12,0.08,-0.32,1721207136973
-2.28,3.81,10.67,0.26,0.06,-0.05,1721207136983
0.36,5.05,4.86,0.05,0.23,0.05,1721207136993
0.44,-0.51,10.50,-0.08,0.03,-0.04,1721207137003
-0.03,-2.16,12.25,0.05,0.02,-0.15,1721207137013
1.10,3.67,8.53,0.03,0.20,-0.22,1721207137023
-1.61,1.67,14.07,-0.05,0.06,-0.29,1721207137033
-2.83,-2.00,11.66,-0.11,0.01,-0.17,1721207137043
-1.29,1.59,13.76,0.03,0.15,0.01,1721207137053
1.42,-0.96,5.37,0.16,0.02,0.01,1721207137063
0.09,-3.60,1.35,-0.06,0.00,-0.13,1721207137073
-0.74,-2.05,16.78,0.01,0.19,-0.22,1721207137083
-0.14,7.61,12.89,0.35,0.12,-0.11,1721207137093
-0.41,6.75,5.01,0.16,0.07,-0.06,1721207137103
-1.04,-6.39,3.51,-0.15,-0.07,0.06,1721207137113
-0.31,-8.00,18.50,-0.28,0.29,-0.10,1721207137123
1.52,3.67,19.58,0.22,-0.01,-0.30,1721207137133
-0.51,-1.66,-3.18,0.02,-0.09,-0.30,1721207137143
-5.58,-1.84,15.14,-0.07,0.35,-0.13,1721207137153
-0.62,6.12,19.29,0.22,0.11,0.09,1721207137163
-1.14,0.58,3.21,0.03,-0.10,0.20,1721207137173
-0.03,-2.43,4.07,-0.04,0.24,0.01,1721207137183
3.52,-1.40,14.21,-0.21,0.13,-0.11,1721207137193
-0.11,3.18,19.94,-0.01,-0.21,-0.05,1721207137203
-1.82,2.05,2.37,0.17,-0.11,-0.16,1721207137213
-2.51,-4.53,3.02,-0.11,0.05,-0.08,1721207137223
-3.28,-2.51,19.36,-0.30,0.13,0.08,1721207137233
-0.24,6.63,19.66,0.18,0.02,0.09,1721207137243
2.53,2.84,5.77,0.12,-0.05,-0.00,1721207137253
-1.45,-1.16,2.39,-0.03,-0.13,0.00,1721207137263
0.17,3.74,14.92,0.09,0.30,-0.04,1721207137273
2.33,0.85,10.17,0.09,-0.17,-0.02,1721207137283
-1.68,-0.90,6.05,-0.05,0.00,-0.11,1721207137293
-0.11,-1.05,17.49,-0.05,0.18,-0.11,1721207137303
-1.59,3.19,14.40,0.12,-0.28,0.13,1721207137313
-1.70,4.24,5.47,0.12,0.05,0.08,1721207137323
-0.27,2.29,5.75,0.15,-0.03,0.07,1721207137333
-0.11,1.42,10.69,0.00,0.01,0.11,1721207137343
0.06,0.30,8.98,0.08,-0.16,0.15,1721207137353
0.19,-1.47,8.62,-0.08,0.03,0.01,1721207137363
0.04,-0.31,13.66,0.03,-0.06,-0.04,1721207137373
-1.44,2.62,6.64,0.07,-0.21,0.07,1721207137383
-0.81,0.03,10.13,-0.05,0.06,0.14,1721207137393
2.11,4.31,16.71,0.20,-0.01,0.10,1721207137403
1.36,-4.77,1.51,-0.11,-0.33,0.12,1721207137413
-1.58,5.42,18.87,-0.11,0.25,-0.13,1721207137423
0.83,1.28,9.80,0.11,-0.21,-0.08,1721207137433
-1.25,2.23,5.54,-0.12,-0.07,-0.02,1721207137443
-0.52,-5.07,1.94,-0.11,-0.12,0.01,1721207137453
-1.40,-3.66,15.83,-0.36,0.10,-0.03,1721207137463
-0.08,3.92,17.20,0.11,-0.21,0.06,1721207137473
3.22,-2.22,3.80,-0.08,0.06,0.08,1721207137483
0.91,-3.23,8.29,-0.12,-0.16,0.03,1721207137493
-0.77,4.98,11.88,0.10,0.03,-0.13,1721207137503
3.56,-1.84,10.54,-0.10,0.07,-0.16,1721207137513
-1.81,6.58,13.30,0.08,-0.31,-0.17,1721207137523
0.10,-4.56,5.41,-0.12,0.14,-0.08,1721207137533
-1.09,-4.27,14.11,-0.20,-0.14,-0.00,1721207137543
0.08,0.23,10.82,-0.03,0.01,-0.05,1721207137553
1.15,1.10,8.46,0.10,0.01,-0.09,1721207137563
0.90,3.06,9.26,0.13,0.11,-0.18,1721207137573
0.52,2.04,8.62,0.16,-0.05,-0.01,1721207137583
-0.94,2.02,10.94,-0.06,0.08,-0.16,1721207137593
-0.20,0.01,11.43,0.01,-0.07,-0.10,1721207137603
0.59,-3.56,7.28,-0.09,0.08,-0.07,1721207137613
1.23,-1.93,12.85,0.01,0.05,-0.18,1721207137623
1.20,-0.55,11.35,0.10,0.04,-0.18,1721207137633
-0.54,3.68,11.33,0.16,0.06,-0.20,1721207137643
-0.91,6.74,10.48,0.19,0.12,-0.16,1721207137653
-0.04,-6.66,8.20,-0.14,0.12,-0.27,1721207137668
-0.42,-2.67,13.12,-0.03,0.18,-0.30,1721207137672
-1.84,-2.70,8.59,0.17,-0.14,-0.11,1721207137682
-0.35,5.20,4.47,0.12,0.25,-0.10,1721207137692
1.82,-1.06,13.32,0.07,0.17,-0.17,1721207137702
0.01,2.90,9.35,0.21,-0.06,-0.18,1721207137712
-0.73,-5.14,8.29,-0.17,0.21,-0.29,1721207137722
-2.59,0.68,20.72,0.08,0.07,-0.20,1721207137732
-1.25,4.72,5.52,0.19,0.03,-0.09,1721207137742
-1.11,0.90,6.50,0.10,0.04,0.03,1721207137752
0.45,3.85,10.51,0.11,0.21,-0.11,1721207137762
0.53,-2.19,8.54,-0.08,-0.00,-0.14,1721207137772
-1.11,0.59,12.90,-0.10,0.08,-0.12,1721207137782
0.32,-0.93,12.54,-0.16,0.19,-0.19,1721207137792
-0.25,-1.80,15.67,-0.03,0.06,-0.13,1721207137802
-1.07,3.20,6.27,0.16,0.03,-0.11,1721207137812
-1.54,5.13,5.72,0.04,0.10,-0.07,1721207137822
-0.22,-3.40,11.65,-0.12,0.16,-0.13,1721207137832
-1.05,0.54,8.85,0.00,-0.03,-0.07,1721207137842
-1.19,0.83,9.56,-0.08,0.11,0.05,1721207137852
0.46,1.57,15.44,-0.04,0.17,-0.04,1721207137862
0.91,1.01,10.98,0.04,-0.11,-0.07,1721207137872
0.98,3.91,5.43,0.02,0.07,-0.06,1721207137882
1.28,-3.29,5.58,-0.15,0.06,-0.09,1721207137892
-1.19,-3.90,13.69,-0.13,0.04,-0.13,1721207137902
-1.88,2.48,11.53,0.12,0.06,-0.09,1721207137912
-1.35,-0.15,6.62,0.02,0.04,0.03,1721207137922
0.02,2.85,13.04,0.03,0.20,0.07,1721207137932
2.04,1.59,8.71,0.01,-0.04,0.08,1721207137942
2.23,1.83,12.11,-0.09,0.14,-0.17,1721207137952
1.02,-3.31,8.14,-0.03,-0.06,-0.26,1721207137962
-2.55,-0.89,13.99,-0.10,0.16,-0.26,1721207137972
-2.74,0.30,10.78,-0.02,-0.03,0.01,1721207137982
-2.29,1.00,11.15,0.01,0.10,0.16,1721207137992
1.32,1.26,5.45,0.17,0.07,0.06,1721207138002
0.57,0.97,6.55,0.03,0.01,-0.04,1721207138012
1.36,-2.65,13.52,-0.02,0.16,-0.13,1721207138022
0.88,-1.03,15.28,0.06,0.07,-0.13,1721207138032
-1.72,4.83,4.88,0.18,-0.15,-0.10,1721207138042
-0.55,-0.89,7.75,-0.08,0.20,-0.03,1721207138052
0.14,-6.12,14.84,-0.00,0.00,0.02,1721207138062
-0.29,-1.16,10.08,0.15,0.06,-0.05,1721207138072
0.02,5.46,11.69,0.08,0.07,-0.15,1721207138082
-0.75,2.60,11.02,0.10,-0.07,-0.04,1721207138092
-2.52,1.49,7.43,0.18,-0.04,0.02,1721207138102
0.50,-2.45,7.51,-0.01,0.15,-0.02,1721207138112
1.19,-1.10,12.65,-0.04,-0.05,-0.03,1721207138122
-0.40,1.60,9.95,0.01,-0.04,-0.08,1721207138132
-0.48,-0.80,11.96,-0.00,0.11,-0.14,1721207138142
-1.97,0.98,6.41,0.17,-0.18,-0.05,1721207138152
-2.15,3.16,6.87,0.01,0.10,0.00,1721207138162
-0.74,-0.86,13.06,0.01,0.01,0.02,1721207138172
0.93,-1.96,9.99,-0.06,-0.00,-0.01,1721207138182
-1.36,0.79,11.84,-0.07,-0.08,-0.15,1721207138192
-1.99,2.83,9.03,0.11,-0.12,-0.02,1721207138202
1.00,-0.38,8.45,0.02,0.19,0.08,1721207138212
0.50,0.11,8.81,-0.05,-0.17,0.04,1721207138222
-0.77,1.04,11.50,-0.10,-0.03,-0.07,1721207138232
0.05,-0.93,14.26,-0.02,-0.05,-0.07,1721207138242
-0.75,2.51,9.19,0.06,-0.12,0.07,1721207138252
-0.50,1.35,6.93,-0.06,-0.01,0.04,1721207138262
0.19,0.31,10.29,0.01,-0.09,0.04,1721207138272
0.23,2.06,10.08,0.03,0.01,-0.01,1721207138282
0.71,2.01,11.74,-0.01,0.01,0.04,1721207138292
0.05,2.17,10.78,-0.07,-0.15,0.04,1721207138302
-1.18,3.35,9.82,-0.00,-0.10,-0.03,1721207138312
1.56,-0.87,9.10,-0.12,0.03,0.02,1721207138322
-1.89,2.94,10.84,-0.03,-0.25,0.03,1721207138332
0.49,-0.92,7.74,-0.03,0.06,0.06,1721207138342
0.68,-0.66,9.81,-0.05,-0.10,0.06,1721207138352
0.02,1.50,10.14,-0.02,-0.06,0.01,1721207138362
2.04,0.49,10.00,-0.03,-0.01,0.02,1721207138372
0.24,-2.14,9.77,-0.10,-0.12,-0.09,1721207138382
-0.64,2.00,11.28,0.06,-0.08,-0.08,1721207138392
0.50,4.11,10.34,-0.01,0.03,-0.02,1721207138402
-0.12,1.42,10.54,-0.05,-0.12,-0.07,1721207138412
0.31,-3.36,10.69,-0.18,0.06,-0.10,1721207138422
-0.46,-1.27,12.63,-0.07,-0.11,-0.07,1721207138432
-0.11,-0.64,6.46,0.03,-0.09,0.01,1721207138442
0.74,-1.41,5.53,-0.01,0.13,-0.10,1721207138452
0.66,1.35,14.84,0.09,0.06,-0.24,1721207138462
2.48,2.76,12.91,0.13,0.00,-0.17,1721207138472
-0.18,-0.49,5.83,0.00,-0.11,-0.08,1721207138482
-0.32,-0.91,11.03,0.06,0.27,-0.10,1721207138492
0.83,-1.25,8.87,-0.02,0.03,-0.19,1721207138502
-1.28,-3.56,19.52,-0.21,-0.08,-0.27,1721207138512
-1.27,4.10,13.38,0.18,0.01,-0.23,1721207138522
1.07,1.93,2.73,0.02,0.20,-0.14,1721207138532
0.25,-2.66,12.31,-0.09,0.11,-0.19,1721207138542
-0.58,-1.84,8.12,0.18,0.07,-0.17,1721207138552
-1.28,-2.83,7.45,0.14,0.24,-0.10,1721207138562
-0.11,3.58,15.20,0.19,0.22,-0.17,1721207138572
1.22,8.15,10.30,0.24,-0.03,-0.11,1721207138582
1.74,2.19,5.15,0.10,0.08,-0.09,1721207138592
0.73,-8.48,9.31,-0.16,0.23,-0.27,1721207138602
-2.15,-0.97,19.75,0.04,0.12,-0.37,1721207138612
-1.30,4.02,11.37,0.20,0.17,-0.10,1721207138622
-0.25,2.58,9.46,0.07,0.19,0.02,1721207138632
1.66,-2.16,8.49,0.22,0.15,-0.10,1721207138642
2.29,4.94,11.81,0.25,0.28,-0.28,1721207138652
-0.79,12.01,13.26,0.41,0.10,-0.33,1721207138662
-2.52,-4.91,1.30,0.05,0.10,-0.21,1721207138672
-4.04,-4.54,10.70,-0.06,0.23,-0.19,1721207138682
-1.37,4.35,13.55,0.22,0.13,0.11,1721207138692
1.23,3.62,7.40,0.02,0.25,0.06,1721207138702
0.89,-3.85,9.25,-0.06,0.09,-0.19,1721207138712
-0.39,-2.06,9.95,0.01,0.18,-0.27,1721207138722
-1.27,0.45,9.77,-0.05,0.19,-0.15,1721207138732
-2.04,1.70,10.36,-0.06,0.10,-0.05,1721207138742
-0.70,2.58,7.07,0.04,0.09,0.06,1721207138752
1.36,-0.61,4.90,-0.08,0.20,-0.05,1721207138762
1.40,-1.18,5.96,-0.14,0.12,-0.20,1721207138772
-0.22,-1.48,11.19,-0.35,0.18,-0.28,1721207138782
-2.39,-2.22,23.02,-0.18,0.10,-0.21,1721207138792
-3.75,-0.56,7.12,0.14,-0.11,0.03,1721207138802
-0.71,1.19,1.68,-0.24,0.31,0.18,1721207138812
1.83,-0.59,16.39,-0.35,0.21,0.04,1721207138822
0.53,5.57,16.71,-0.09,-0.05,-0.10,1721207138832
-0.81,3.90,0.90,0.01,0.01,-0.23,1721207138842
-2.75,-15.44,-2.73,-0.63,-0.04,-0.07,1721207138852
-8.11,-6.90,31.21,-0.45,0.22,0.07,1721207138862
2.02,11.70,20.23,0.33,0.04,0.17,1721207138872
2.04,7.14,-7.00,-0.08,-0.03,0.10,1721207138882
3.55,-5.37,19.01,-0.34,0.52,-0.06,1721207138892
3.10,-5.37,27.67,0.05,0.01,0.12,1721207138902
0.51,8.86,8.23,0.15,-0.05,-0.00,1721207138912
0.19,5.31,7.49,0.13,0.11,-0.21,1721207138922
-3.28,-1.00,10.37,0.22,-0.11,0.03,1721207138932
-1.41,-2.50,7.96,0.29,0.10,0.25,1721207138942
1.63,0.32,9.19,0.22,0.15,0.10,1721207138952
0.53,4.49,10.10,0.25,0.00,-0.10,1721207138962
-0.16,-1.65,8.77,0.22,0.04,-0.09,1721207138972
-1.95,0.42,8.69,0.29,0.08,0.01,1721207138982
-0.97,-4.48,7.36,0.16,-0.02,0.26,1721207138992
1.24,-1.05,10.15,0.15,0.13,0.23,1721207139002
3.17,6.49,9.23,0.27,0.05,-0.03,1721207139012
0.69,-1.40,6.21,-0.13,0.01,-0.26,1721207139022
-0.34,-5.38,25.64,-0.06,0.29,-0.24,1721207139032
-1.75,-0.48,6.80,0.33,-0.33,-0.01,1721207139042
-3.02,6.88,-3.21,0.06,0.11,0.03,1721207139052
0.52,-0.92,12.99,-0.06,0.31,0.03,1721207139062
-0.40,-2.84,11.24,0.09,-0.27,-0.03,1721207139072
-1.72,1.58,7.98,0.08,0.23,-0.21,1721207139082
-2.62,4.72,9.48,-0.00,-0.07,-0.28,1721207139092
-4.13,2.78,11.34,-0.15,-0.02,-0.00,1721207139102
-0.23,-6.00,11.98,-0.18,0.05,0.19,1721207139112
2.21,-0.18,10.39,-0.02,-0.09,0.16,1721207139122
3.63,1.92,9.48,-0.04,0.06,-0.05,1721207139132
2.58,0.40,10.66,-0.10,-0.00,-0.31,1721207139142
-1.00,2.63,14.18,-0.06,0.05,-0.37,1721207139152
-3.58,2.07,12.59,0.03,-0.02,-0.18,1721207139162
-3.26,1.17,8.10,-0.00,0.01,0.13,1721207139172
0.26,0.27,10.00,-0.07,0.07,0.25,1721207139182
1.40,4.14,10.76,0.05,-0.01,0.09,1721207139192
0.84,4.36,6.83,0.06,-0.06,-0.09,1721207139202
-1.88,-3.81,8.84,-0.14,-0.14,-0.09,1721207139212
-2.84,-0.32,12.91,0.02,-0.03,0.08,1721207139222
-0.21,0.96,7.73,-0.04,0.07,0.19,1721207139232
-0.32,1.45,9.21,-0.13,-0.13,0.17,1721207139242
0.49,0.23,11.74,0.03,0.01,0.17,1721207139252
1.88,0.89,9.11,0.01,-0.07,0.15,1721207139262
0.02,7.20,9.67,0.03,-0.09,0.07,1721207139272
0.10,-1.16,5.47,-0.31,-0.05,-0.07,1721207139282
-3.19,-5.67,17.98,-0.49,-0.09,-0.05,1721207139292
-3.80,-2.13,16.92,-0.10,-0.20,0.20,1721207139302
-0.81,4.09,3.64,-0.01,-0.11,0.40,1721207139312
4.16,-1.19,10.50,-0.29,0.07,0.35,1721207139322
2.25,-0.42,16.89,-0.22,-0.27,0.07,1721207139332
-0.85,1.48,6.94,-0.06,-0.15,-0.15,1721207139342
-2.67,-2.21,8.11,-0.25,-0.16,-0.05,1721207139352
-3.56,-1.58,12.70,-0.04,-0.25,0.36,1721207139362
2.08,-0.82,8.05,0.05,-0.03,0.59,1721207139372
3.44,4.84,5.50,0.05,-0.22,0.30,1721207139382
3.41,-2.21,10.53,-0.21,-0.07,0.06,1721207139392
-1.04,-2.28,16.04,-0.16,-0.29,-0.17,1721207139402
-2.91,1.62,12.45,-0.06,-0.19,0.04,1721207139412
-1.78,-0.82,5.28,-0.02,-0.30,0.37,1721207139422
2.03,-2.07,6.55,-0.01,-0.00,0.44,1721207139432
4.65,0.70,10.38,0.07,-0.08,0.24,1721207139442
0.72,2.14,9.81,-0.08,-0.41,-0.06,1721207139452
-0.60,3.85,14.56,-0.09,-0.08,-0.10,1721207139462
-1.61,-4.38,9.97,-0.22,-0.31,0.09,1721207139472
-3.08,-3.74,16.14,-0.34,-0.22,0.27,1721207139482
1.65,5.05,14.83,0.02,-0.11,0.37,1721207139492
4.57,2.05,5.96,0.02,-0.19,0.17,1721207139502
3.32,-1.13,7.44,-0.04,-0.17,0.01,1721207139512
2.39,4.45,19.25,0.09,-0.02,-0.32,1721207139522
-0.07,3.07,7.17,0.19,-0.42,-0.21,1721207139532
-0.79,0.32,7.14,0.00,0.09,-0.05,1721207139542
1.42,2.18,12.90,0.22,-0.10,-0.04,1721207139552
0.51,2.70,8.85,0.20,-0.20,-0.21,1721207139562
-0.43,3.36,6.74,0.26,-0.10,-0.30,1721207139572
-0.68,-4.85,8.10,0.04,-0.01,-0.32,1721207139582
-2.56,-1.92,16.12,0.04,-0.20,-0.14,1721207139592
-1.10,6.15,9.02,0.37,-0.12,-0.04,1721207139602
2.80,-0.96,6.45,0.12,0.10,-0.17,1721207139612
1.21,4.54,12.23,0.33,-0.22,-0.34,1721207139622
0.90,2.54,4.07,0.15,0.00,-0.45,1721207139632
-0.75,-0.88,11.32,-0.15,-0.03,-0.40,1721207139642
-1.38,-1.00,14.90,-0.02,-0.18,-0.27,1721207139652
0.35,-4.63,7.34,-0.07,-0.01,-0.19,1721207139662
1.34,1.57,12.22,0.05,-0.02,-0.43,1721207139677
1.23,-0.43,8.96,0.03,-0.13,-0.43,1721207139681
-0.92,7.18,12.14,0.11,0.10,-0.63,1721207139691
-1.51,2.15,6.39,0.10,-0.03,-0.47,1721207139701
-2.33,-4.53,6.59,-0.11,0.00,-0.20,1721207139711
0.47,-3.38,13.51,-0.19,0.25,-0.23,1721207139721
3.49,2.32,16.98,-0.07,0.09,-0.38,1721207139731
3.07,3.50,9.11,0.11,-0.02,-0.55,1721207139741
-2.09,-0.94,3.00,-0.07,0.05,-0.72,1721207139751
-5.52,-5.09,16.67,-0.23,0.14,-0.54,1721207139761
-2.62,1.85,12.95,0.15,0.12,-0.22,1721207139771
1.41,5.56,6.36,0.07,0.30,-0.19,1721207139781
1.40,-0.96,6.20,0.02,-0.00,-0.37,1721207139791
-1.23,1.49,7.56,0.13,0.16,-0.55,1721207139801
1.09,-1.12,9.11,0.01,0.33,-0.43,1721207139811
-0.93,-0.73,14.14,-0.11,0.10,-0.46,1721207139821
-2.83,2.34,10.48,-0.03,0.09,-0.42,1721207139831
0.21,-1.43,14.11,-0.14,0.35,-0.37,1721207139841
0.40,-0.91,15.79,-0.12,0.04,-0.41,1721207139851
-2.04,2.89,7.39,0.12,0.09,-0.37,1721207139861
0.97,-1.06,4.65,0.04,0.34,-0.35,1721207139871
-1.65,0.30,9.52,-0.00,0.20,-0.38,1721207139881
-1.70,3.56,15.91,0.15,0.23,-0.47,1721207139891
-0.93,-0.31,3.61,0.19,0.05,-0.30,1721207139901
-0.49,-1.44,17.35,-0.14,0.54,-0.35,1721207139911
-0.75,-0.38,10.53,0.17,-0.12,-0.25,1721207139921
-0.12,3.27,4.74,0.13,0.44,-0.18,1721207139931
1.34,-2.90,9.85,0.09,0.22,-0.47,1721207139941
-4.40,2.90,13.37,0.11,0.13,-0.52,1721207139951
-4.34,1.45,9.02,0.19,0.25,-0.24,1721207139961
-2.75,0.08,8.28,0.08,0.16,0.00,1721207139971
-1.16,3.63,9.73,0.13,0.24,0.03,1721207139981
0.89,-2.11,5.58,0.06,0.07,-0.06,1721207139991
1.00,-3.94,9.85,-0.08,0.30,-0.21,1721207140001
-0.34,1.07,13.98,0.12,0.10,-0.25,1721207140011
-2.09,3.45,10.67,0.04,0.22,-0.25,1721207140021
-3.09,2.53,13.98,0.03,0.17,-0.10,1721207140031
-1.15,0.15,11.77,0.11,0.15,0.11,1721207140041
1.98,-2.40,8.74,-0.03,0.20,0.09,1721207140051
1.60,2.04,9.47,0.04,0.11,-0.14,1721207140061
0.90,1.23,7.52,0.09,0.15,-0.27,1721207140071
-2.33,1.47,6.84,0.10,0.09,-0.16,1721207140081
-3.37,-1.05,10.16,0.06,0.22,-0.09,1721207140091
-1.57,0.22,12.52,0.06,0.18,0.04,1721207140101
-2.01,3.97,8.16,0.01,0.03,0.06,1721207140111
-2.03,2.33,10.64,-0.05,0.15,0.04,1721207140121
0.44,-0.16,13.22,0.03,0.18,0.21,1721207140131
0.54,-1.54,6.59,-0.02,-0.01,0.23,1721207140141
1.59,2.28,12.16,-0.10,0.27,0.03,1721207140151
2.13,0.46,12.38,-0.08,0.00,-0.12,1721207140161
-2.51,1.19,9.63,-0.05,-0.06,-0.07,1721207140171
-1.83,-3.43,8.89,-0.06,0.17,0.13,1721207140181
-0.17,0.34,14.85,-0.02,0.14,0.19,1721207140191
0.32,3.68,7.99,0.09,-0.04,0.13,1721207140201
-0.63,-0.46,4.98,-0.13,0.04,-0.05,1721207140211
-0.67,-1.42,12.35,-0.01,0.10,0.06,1721207140221
0.99,-3.70,11.13,-0.07,0.11,0.23,1721207140231
-0.38,2.63,11.69,-0.04,-0.05,0.14,1721207140241
1.83,3.15,12.40,-0.04,0.16,-0.04,1721207140251
0.99,2.53,9.50,-0.01,0.00,-0.12,1721207140261
-0.77,-4.07,6.45,-0.03,0.01,-0.04,1721207140271
-1.38,-0.58,9.93,-0.08,0.16,0.01,1721207140281
-1.53,1.22,13.19,0.04,0.04,0.17,1721207140291
-0.90,-0.15,4.40,0.04,0.02,0.21,1721207140301
1.97,0.90,13.14,-0.02,0.28,0.10,1721207140311
2.24,7.07,17.67,0.02,-0.09,0.01,1721207140321
-0.20,-1.05,6.54,-0.02,-0.08,-0.03,1721207140331
0.08,-9.17,6.04,-0.14,0.24,-0.06,1721207140341
-1.37,0.19,15.31,0.04,-0.02,0.04,1721207140351
0.69,5.72,11.78,0.15,0.06,0.22,1721207140361
1.84,3.03,9.71,0.12,0.06,0.08,1721207140371
1.04,2.54,7.92,0.17,0.07,-0.06,1721207140381
1.02,0.42,8.53,-0.02,0.16,-0.23,1721207140391
-2.46,-3.91,9.74,-0.10,-0.07,-0.12,1721207140401
-3.10,-1.33,12.30,0.01,0.19,0.04,1721207140411
0.48,0.38,7.86,0.18,0.05,0.26,1721207140421
2.37,1.70,6.33,0.07,0.12,0.17,1721207140431
3.50,-0.54,13.71,-0.08,0.15,-0.14,1721207140441
-0.65,2.44,16.37,0.03,0.03,-0.33,1721207140451
-2.57,3.67,5.92,0.12,0.03,-0.06,1721207140461
-1.99,-3.69,6.30,-0.01,0.18,0.19,1721207140471
1.14,-4.85,12.51,-0.04,0.17,0.17,1721207140481
0.98,6.80,11.11,0.28,0.02,0.03,1721207140491
1.92,5.74,6.92,0.11,0.19,-0.16,1721207140501
-1.24,0.14,10.79,0.06,-0.05,-0.10,1721207140511
-2.76,-5.90,14.32,-0.17,0.15,-0.11,1721207140521
-3.67,0.67,12.28,0.15,-0.11,0.13,1721207140531
-0.18,9.51,8.29,0.09,0.25,0.29,1721207140541
3.56,-0.46,7.79,0.07,0.01,0.27,1721207140551
2.48,-4.94,6.70,-0.01,0.09,-0.10,1721207140561
0.50,1.07,10.58,0.09,0.11,-0.33,1721207140571
-2.46,4.11,15.20,0.00,0.08,-0.12,1721207140581
-2.07,4.89,13.14,0.16,0.01,0.18,1721207140591
0.43,0.08,2.59,0.14,-0.00,0.31,1721207140601
3.00,-1.09,6.94,0.01,0.18,0.17,1721207140611
3.50,-0.94,11.78,-0.02,0.03,-0.14,1721207140621
-0.78,2.07,15.34,0.01,-0.08,-0.32,1721207140631
-3.69,2.76,5.43,0.28,-0.07,-0.14,1721207140641
-1.34,-4.16,4.15,-0.17,0.25,0.19,1721207140651
-0.70,2.17,19.60,-0.08,0.01,0.32,1721207140661
4.59,1.21,13.15,0.11,0.08,0.17,1721207140671
2.92,-1.14,-0.29,-0.10,-0.09,-0.26,1721207140681
-0.47,-0.50,5.87,-0.10,0.26,-0.49,1721207140691
-1.54,-8.31,15.71,-0.26,0.08,-0.21,1721207140701
-3.24,4.19,23.37,0.06,-0.05,0.27,1721207140711
1.16,3.93,4.26,0.14,0.02,0.22,1721207140721
1.61,1.22,3.26,-0.19,0.05,0.01,1721207140731
4.01,-11.28,13.59,-0.33,0.27,-0.12,1721207140741
0.51,-0.01,17.71,0.13,-0.18,-0.20,1721207140751
-1.14,4.61,0.39,0.29,0.03,-0.26,1721207140761
-2.94,0.18,7.27,-0.13,0.24,-0.19,1721207140771
-3.30,2.29,17.57,0.07,-0.02,0.19,1721207140781
0.44,1.27,10.77,0.14,0.17,0.14,1721207140791
1.67,0.90,9.85,0.09,-0.07,-0.02,1721207140801
-0.97,4.08,4.91,0.15,-0.00,-0.27,1721207140811
-2.31,-5.60,6.44,-0.14,0.06,-0.23,1721207140821
-5.03,-1.11,18.23,0.02,-0.07,0.09,1721207140831
-0.95,-1.24,9.04,0.14,0.16,0.25,1721207140841
-0.41,-0.83,9.86,-0.04,-0.06,0.13,1721207140851
1.07,0.51,13.79,-0.08,0.13,-0.12,1721207140861
1.24,1.85,15.95,0.18,-0.04,-0.13,1721207140871
-3.11,-4.06,1.84,-0.08,-0.32,-0.10,1721207140881
-5.03,-0.46,10.11,-0.09,0.13,0.01,1721207140891
-0.42,1.09,16.29,0.04,0.13,0.12,1721207140901
0.24,1.56,11.86,0.01,-0.19,0.08,1721207140911
-0.34,0.34,8.27,0.07,-0.16,0.02,1721207140921
-1.92,3.18,5.13,0.17,-0.14,0.06,1721207140931
-1.17,0.32,8.04,-0.07,0.07,0.13,1721207140941
-2.06,3.86,10.81,0.15,-0.29,0.38,1721207140951
2.49,3.23,5.73,0.12,0.08,0.33,1721207140961
4.31,-1.22,7.57,-0.10,-0.12,0.19,1721207140971
2.76,-0.26,8.48,-0.03,-0.13,0.05,1721207140981
3.00,-3.98,18.98,-0.28,0.25,-0.11,1721207140991
0.23,6.07,25.82,0.26,-0.17,-0.05,1721207141001
-0.10,0.94,4.30,0.19,-0.29,0.02,1721207141011
-1.98,3.24,5.90,-0.10,-0.04,0.04,1721207141021
0.12,0.68,12.56,-0.17,0.07,-0.04,1721207141031
-1.72,-1.82,9.71,-0.07,-0.30,0.01,1721207141041
-2.74,0.16,8.68,-0.03,0.07,0.07,1721207141051
-0.05,3.53,10.38,0.04,-0.14,0.24,1721207141061
0.22,9.17,9.16,-0.01,-0.13,0.31,1721207141071
2.06,-1.81,8.67,-0.42,0.05,0.10,1721207141081
1.41,-5.68,17.58,-0.27,-0.16,-0.16,1721207141091
-1.16,1.57,5.55,0.07,-0.30,-0.07,1721207141101
-1.67,2.49,4.35,-0.11,-0.07,0.16,1721207141111
-0.77,-2.58,11.25,-0.17,-0.13,0.16,1721207141121
0.19,1.70,8.07,0.03,-0.08,0.10,1721207141131
2.74,-2.53,10.59,-0.25,0.04,-0.03,1721207141141
-1.52,0.53,15.02,-0.13,-0.33,-0.07,1721207141151
-1.90,1.29,8.92,-0.02,-0.07,-0.12,1721207141161
-1.24,0.36,9.10,-0.00,-0.11,0.12,1721207141171
-0.40,1.89,9.60,-0.07,-0.07,0.18,1721207141181
0.67,3.59,9.87,-0.04,-0.15,0.06,1721207141191
1.01,3.38,10.47,-0.02,-0.12,0.02,1721207141201
-0.11,-3.57,6.68,-0.17,-0.17,-0.01,1721207141211
-0.04,-4.07,13.00,-0.05,-0.07,-0.03,1721207141221
1.56,3.68,11.73,0.23,-0.07,0.04,1721207141231
-0.16,4.70,9.12,0.04,-0.19,0.08,1721207141241
-0.13,-1.38,11.29,-0.07,-0.09,0.00,1721207141251
1.68,-3.80,16.14,-0.05,-0.05,-0.07,1721207141261
1.91,0.18,14.93,0.16,-0.14,-0.07,1721207141271
1.86,0.71,6.92,0.21,-0.13,0.05,1721207141281
0.10,2.35,8.84,0.20,-0.10,-0.08,1721207141291
1.54,4.84,10.16,0.28,0.03,-0.13,1721207141301
1.94,-2.40,9.41,0.14,-0.09,-0.15,1721207141311
0.39,0.29,9.15,0.21,-0.03,-0.21,1721207141321
-0.20,0.80,9.67,0.23,0.05,-0.20,1721207141331
-0.40,2.40,10.66,0.22,-0.05,-0.08,1721207141341
0.53,0.08,8.61,0.16,0.03,-0.03,1721207141351
1.47,-2.15,10.72,0.10,0.07,-0.18,1721207141361
1.08,0.45,11.08,0.12,0.03,-0.27,1721207141371
-0.42,1.25,8.93,0.11,-0.03,-0.26,1721207141381
-0.44,-0.71,9.71,0.04,0.14,-0.21,1721207141391
-0.67,-2.94,12.89,0.11,0.07,-0.24,1721207141401
-0.67,-0.13,10.00,0.23,0.05,-0.18,1721207141411
0.59,1.76,8.11,0.05,0.18,-0.19,1721207141421
0.57,1.38,12.69,0.06,0.05,-0.23,1721207141431
0.57,-2.84,7.34,0.06,0.10,-0.16,1721207141441
0.87,-1.45,9.79,-0.03,0.21,-0.26,1721207141451
-0.16,2.02,14.08,0.04,0.06,-0.35,1721207141461
-2.35,3.87,6.62,0.07,0.05,-0.30,1721207141471
-2.49,-0.80,6.96,-0.16,0.17,-0.08,1721207141481
-1.07,-1.29,11.69,-0.02,0.13,0.01,1721207141491
1.11,-1.49,8.25,-0.10,0.17,-0.10,1721207141501
0.12,3.11,13.30,-0.09,0.06,-0.23,1721207141511
-0.09,4.55,10.10,0.01,0.05,-0.19,1721207141521
0.29,-1.57,5.40,-0.21,0.12,-0.01,1721207141531
1.05,-3.49,12.64,-0.25,0.19,-0.09,1721207141541
1.98,-0.90,12.88,-0.09,0.11,-0.28,1721207141551
-0.29,4.46,8.12,-0.03,0.06,-0.43,1721207141561
-2.07,-0.60,8.45,-0.19,0.16,-0.33,1721207141571
-2.08,-1.68,13.69,-0.08,0.15,-0.08,1721207141581
0.76,3.54,11.46,-0.05,0.24,0.09,1721207141591
2.56,1.75,7.03,-0.10,0.19,-0.16,1721207141601
1.70,-4.31,9.47,-0.24,0.20,-0.43,1721207141611
-1.28,0.12,14.18,-0.01,0.12,-0.48,1721207141621
-3.37,8.62,9.35,0.16,0.12,-0.19,1721207141631
-2.00,-0.11,6.46,-0.14,0.23,0.03,1721207141641
-0.76,-4.77,10.83,-0.08,0.18,0.14,1721207141651
3.28,3.17,15.03,0.02,0.41,-0.12,1721207141661
2.35,2.87,6.29,0.09,-0.07,-0.32,1721207141671
-5.60,-1.95,12.79,-0.02,0.07,-0.36,1721207141686
-4.16,-1.99,14.05,0.14,-0.01,-0.08,1721207141690
-3.47,3.14,5.23,0.13,0.21,0.22,1721207141700
0.15,0.73,11.46,-0.03,0.20,0.06,1721207141710
1.37,-1.15,11.22,0.13,0.07,-0.11,1721207141720
1.09,-1.77,10.78,0.08,0.15,-0.13,1721207141730
-2.09,4.83,12.03,0.17,0.04,-0.07,1721207141740
-2.37,2.06,8.62,0.11,0.16,-0.00,1721207141750
-1.61,-2.77,9.96,0.04,0.03,0.09,1721207141760
0.32,3.73,12.57,0.18,0.18,0.12,1721207141770
1.63,-0.58,7.35,0.15,0.01,0.04,1721207141780
0.93,-0.87,12.55,0.01,0.25,-0.16,1721207141790
-0.62,3.09,14.10,0.15,0.01,-0.09,1721207141800
-3.40,5.54,4.92,0.16,-0.13,-0.10,1721207141810
-0.73,-5.13,7.72,-0.10,0.25,-0.02,1721207141820
0.40,-4.65,18.44,-0.02,0.14,0.04,1721207141830
-0.78,1.65,10.37,0.17,-0.08,-0.06,1721207141840
-2.18,4.04,9.38,0.08,0.14,-0.14,1721207141850
-3.85,1.26,9.89,0.01,-0.08,0.03,1721207141860
-2.00,-0.89,11.49,0.07,0.05,0.26,1721207141870
0.38,-1.89,6.89,0.16,-0.17,0.20,1721207141880
0.11,2.67,7.43,-0.10,0.02,-0.02,1721207141890
-1.35,2.55,17.84,0.12,0.03,-0.10,1721207141900
-0.33,3.91,7.23,0.26,-0.17,0.21,1721207141910
-0.81,0.28,1.16,-0.02,-0.08,0.31,1721207141920
1.68,-0.51,15.33,-0.11,0.13,0.16,1721207141930
1.01,2.59,12.22,0.15,-0.32,0.11,1721207141940
0.72,1.19,3.58,0.02,-0.05,0.01,1721207141950
-0.42,2.39,12.92,-0.01,0.04,0.02,1721207141960
0.47,-1.86,10.88,-0.04,-0.05,0.10,1721207141970
1.64,-1.74,14.15,-0.06,-0.00,0.25,1721207141980
3.06,3.22,9.28,0.13,-0.20,0.10,1721207141990
2.53,3.17,7.04,-0.02,0.10,-0.15,1721207142000
-2.05,-1.77,10.81,-0.08,-0.16,-0.36,1721207142010
-6.91,-1.43,12.62,-0.04,-0.12,-0.12,1721207142020
-5.88,-0.57,10.45,0.04,0.01,0.26,1721207142030
-0.91,2.32,11.59,0.04,0.06,0.46,1721207142040
4.24,2.85,10.79,0.04,-0.06,0.40,1721207142050
7.18,-0.65,10.98,0.04,-0.02,0.05,1721207142060
5.55,-2.81,5.61,-0.09,-0.21,-0.38,1721207142070
-1.89,2.01,9.90,-0.06,-0.26,-0.49,1721207142080
-3.64,-2.93,9.94,-0.11,0.06,-0.16,1721207142090
-4.92,-0.10,11.97,0.01,-0.13,0.11,1721207142100
-1.87,-0.92,6.68,-0.05,-0.04,0.25,1721207142110
1.55,-0.31,11.33,-0.13,-0.00,0.10,1721207142120
2.20,1.44,14.45,-0.10,-0.04,-0.05,1721207142130
0.08,-2.59,11.33,-0.17,-0.16,-0.09,1721207142140
-1.72,4.33,10.81,0.13,-0.11,-0.08,1721207142150
3.21,-4.33,5.60,-0.18,0.09,0.04,1721207142160
0.67,1.02,9.54,-0.18,-0.35,-0.01,1721207142170
1.48,3.40,12.92,-0.01,0.33,-0.35,1721207142180
-0.03,-0.62,7.96,0.02,-0.17,-0.28,1721207142190
-2.56,-2.72,8.71,-0.17,0.03,-0.10,1721207142200
-0.77,2.39,14.23,-0.02,0.07,-0.08,1721207142210
0.50,3.08,6.06,0.00,-0.04,-0.12,1721207142220
1.72,-1.07,9.29,-0.23,0.16,-0.17,1721207142230
1.56,-3.51,17.75,-0.06,0.09,-0.24,1721207142240
-0.90,1.55,14.14,0.05,-0.03,-0.26,1721207142250
-1.95,5.43,8.32,0.06,0.04,-0.19,1721207142260
1.13,0.19,10.23,0.05,0.09,-0.10,1721207142270
1.43,-1.24,8.71,0.05,0.14,-0.09,1721207142280
-0.27,3.49,11.99,0.09,0.12,-0.32,1721207142290
-0.76,3.20,10.16,0.08,0.05,-0.29,1721207142300
-0.64,-0.49,8.32,0.05,0.10,-0.13,1721207142310
1.15,-3.18,10.71,0.01,0.18,-0.12,1721207142320
0.21,1.58,11.98,0.08,0.09,-0.20,1721207142330
-0.55,3.42,9.72,0.11,0.14,-0.31,1721207142340
-0.60,0.94,9.43,0.11,0.15,-0.20,1721207142350
-0.86,2.64,8.40,0.20,0.12,-0.16,1721207142360
0.05,0.78,10.08,0.02,0.25,-0.17,1721207142370
-0.36,1.01,13.23,0.10,0.11,-0.16,1721207142380
-0.08,1.55,7.75,0.08,0.14,-0.16,1721207142390
0.15,-3.53,11.39,-0.06,0.16,-0.14,1721207142400
-0.25,-0.18,16.06,0.16,0.14,-0.10,1721207142410
-0.25,3.76,7.26,0.26,0.13,-0.15,1721207142420
-1.91,1.85,3.92,0.09,0.12,-0.20,1721207142430
-2.70,-0.56,8.34,0.01,0.20,-0.17,1721207142440
-2.44,-1.53,13.77,-0.06,0.15,0.09,1721207142450
-1.02,0.04,13.88,0.03,0.10,0.18,1721207142460
1.38,0.75,5.99,0.12,0.09,0.13,1721207142470
3.44,-1.47,5.76,-0.21,0.23,-0.00,1721207142480
0.98,0.91,19.00,-0.10,0.11,-0.26,1721207142490
-1.61,0.67,10.61,0.11,0.04,-0.29,1721207142500
-2.12,0.13,5.43,-0.06,0.19,-0.03,1721207142510
-1.44,0.29,10.31,-0.14,0.15,0.15,1721207142520
0.71,3.65,12.68,-0.05,0.09,0.08,1721207142530
2.23,0.68,10.08,-0.13,0.10,-0.04,1721207142540
-0.53,-0.28,8.88,-0.11,0.01,-0.13,1721207142550
-1.55,-4.64,8.51,-0.22,0.16,-0.08,1721207142560
-0.23,0.23,15.63,-0.18,0.11,0.07,1721207142570
0.91,5.56,12.36,0.07,0.07,0.04,1721207142580
1.57,-0.91,5.69,-0.10,0.09,-0.11,1721207142590
-1.58,-2.07,9.94,-0.10,-0.02,-0.06,1721207142600
-0.78,3.11,13.66,-0.01,0.26,0.08,1721207142610
0.92,3.20,8.34,0.02,-0.01,0.02,1721207142620
0.05,0.44,5.15,-0.07,0.06,-0.12,1721207142630
-1.17,-3.23,11.65,-0.12,0.18,-0.13,1721207142640
-0.88,0.96,14.19,-0.06,0.03,0.06,1721207142650
0.23,1.86,9.18,0.02,0.15,0.04,1721207142660
0.66,-0.45,5.94,-0.11,0.07,-0.01,1721207142670
-1.54,2.44,15.07,-0.01,0.08,-0.12,1721207142680
0.13,2.25,8.97,0.15,0.06,-0.06,1721207142690
-1.10,0.25,3.86,-0.03,-0.01,0.08,1721207142700
-0.23,-3.42,11.20,-0.16,0.22,0.10,1721207142710
0.28,-1.72,16.64,-0.09,0.11,-0.00,1721207142720
-1.07,3.48,10.07,0.08,-0.06,-0.08,1721207142730
0.14,0.77,6.57,-0.01,0.18,-0.08,1721207142740
-0.55,0.78,11.11,0.10,0.01,0.04,1721207142750
-0.70,4.09,10.49,0.13,0.18,0.03,1721207142760
-0.56,2.72,11.78,0.05,0.06,-0.04,1721207142770
-0.63,1.36,9.30,0.04,-0.04,-0.01,1721207142780
-0.12,1.35,6.91,0.02,0.04,0.03,1721207142790
0.29,-1.51,11.86,-0.13,0.05,0.01,1721207142800
0.05,-0.03,11.88,0.00,0.06,-0.13,1721207142810
-1.59,-2.07,6.37,-0.00,0.01,-0.11,1721207142820
-3.00,-1.06,11.46,-0.08,0.10,0.01,1721207142830
-0.04,-0.15,15.83,0.11,0.09,0.22,1721207142840
1.73,1.10,9.37,0.08,0.02,0.16,1721207142850
0.97,3.92,9.36,0.16,0.03,-0.00,1721207142860
1.87,0.86,7.47,0.11,0.07,-0.13,1721207142870
-1.04,-4.51,9.82,-0.06,-0.02,-0.14,1721207142880
-1.79,0.16,13.70,0.09,0.04,-0.02,1721207142890
-1.48,0.57,8.64,0.07,-0.02,0.10,1721207142900
-1.93,3.55,8.98,0.12,0.08,0.05,1721207142910
0.00,-3.08,7.51,0.01,0.05,0.07,1721207142920
0.40,-0.69,12.73,0.01,0.03,0.09,1721207142930
1.52,1.91,7.71,0.06,-0.02,0.06,1721207142940
-1.07,0.68,9.79,-0.06,-0.06,0.01,1721207142950
-1.62,-1.65,10.68,0.02,-0.01,-0.01,1721207142960
-1.07,-0.08,10.71,0.07,0.01,0.05,1721207142970
-0.03,-0.82,15.14,-0.10,0.00,0.07,1721207142980
-0.45,1.71,17.32,-0.01,-0.14,0.08,1721207142990
-1.10,5.85,9.43,0.24,-0.11,0.02,1721207143000
0.08,1.52,4.83,0.09,-0.05,0.07,1721207143010
-1.09,0.13,8.60,0.12,-0.09,0.16,1721207143020
1.36,1.30,9.38,0.12,0.05,0.05,1721207143030
0.72,3.45,8.65,0.14,-0.18,-0.07,1721207143040
0.15,-0.64,12.52,-0.07,0.01,-0.06,1721207143050
-2.10,-3.93,10.30,0.03,-0.26,0.04,1721207143060
-1.01,0.27,9.49,0.10,0.12,0.02,1721207143070
2.01,5.73,11.01,0.19,0.02,0.13,1721207143080
-0.03,6.44,7.48,0.16,-0.20,0.10,1721207143090
-0.10,-5.81,8.05,-0.06,0.00,0.06,1721207143100
1.88,-5.59,16.55,-0.08,0.08,0.01,1721207143110
-0.14,2.67,9.60,0.14,-0.30,0.04,1721207143120
-1.08,0.72,3.08,-0.07,-0.06,0.10,1721207143130
-0.47,1.30,11.61,0.16,-0.09,0.19,1721207143140
1.78,2.56,4.58,0.28,-0.07,0.14,1721207143150
0.35,2.60,4.26,-0.04,-0.04,-0.11,1721207143160
-1.82,-4.88,11.74,-0.42,-0.03,-0.25,1721207143170
-3.36,-5.25,19.86,-0.21,-0.16,0.02,1721207143180
-2.59,6.82,10.50,0.20,-0.18,0.33,1721207143190
1.65,5.73,1.16,-0.05,-0.06,0.33,1721207143200
3.12,-11.27,7.80,-0.57,-0.07,0.06,1721207143210
-0.51,-0.28,19.91,-0.24,-0.16,-0.37,1721207143220
-2.59,7.34,7.29,-0.02,-0.20,-0.27,1721207143230
-3.31,-7.24,9.19,-0.56,0.00,0.23,1721207143240
-0.20,-0.04,17.80,0.10,-0.09,0.47,1721207143250
6.41,6.45,1.46,0.17,-0.05,0.09,1721207143260
3.27,-0.83,5.25,-0.35,-0.18,-0.27,1721207143270
-2.48,1.85,20.99,-0.26,-0.02,-0.47,1721207143280
-3.91,-0.51,12.29,-0.04,-0.20,-0.20,1721207143290
-4.27,-2.03,2.85,-0.11,-0.14,0.20,1721207143300
1.65,0.99,9.25,-0.02,0.14,0.28,1721207143310
4.88,5.12,11.50,0.05,-0.03,0.07,1721207143320
3.48,2.81,8.26,0.06,-0.01,-0.29,1721207143330
0.28,-3.56,6.70,-0.12,-0.07,-0.45,1721207143340
-4.43,-2.96,17.29,-0.38,-0.23,-0.26,1721207143350
-2.61,6.45,14.57,-0.03,-0.04,0.09,1721207143360
2.05,3.53,2.04,0.05,0.05,0.24,1721207143370
3.24,-12.23,6.75,-0.34,0.13,-0.06,1721207143380
0.15,2.75,27.55,0.03,-0.10,-0.44,1721207143390
-1.39,10.22,8.68,0.39,-0.24,-0.35,1721207143400
-1.09,-1.65,-1.85,-0.01,0.13,-0.10,1721207143410
-1.71,-1.36,18.22,0.06,0.06,0.10,1721207143420
0.19,4.37,9.27,0.38,-0.11,0.04,1721207143430
3.41,-0.72,1.77,0.14,0.23,-0.26,1721207143440
0.93,0.94,14.29,-0.05,-0.09,-0.41,1721207143450
-0.70,4.49,18.99,0.09,0.06,-0.31,1721207143460
-1.99,1.79,6.54,0.16,-0.02,-0.20,1721207143470
-1.86,-7.95,3.52,0.02,0.01,-0.07,1721207143480
0.22,-2.73,13.87,0.04,0.17,0.00,1721207143490
-0.58,3.79,12.29,0.19,-0.04,-0.19,1721207143500
-0.40,2.51,10.21,0.13,0.05,-0.06,1721207143510
1.63,-0.89,11.13,0.21,0.15,-0.02,1721207143520
1.45,-2.86,8.24,0.21,0.08,-0.22,1721207143530
-0.89,4.82,14.36,0.19,0.13,-0.34,1721207143540
-1.27,7.03,14.14,0.29,0.08,-0.11,1721207143550
-0.08,-2.48,6.28,0.19,0.00,0.07,1721207143560
1.96,-3.98,6.01,0.19,0.18,-0.03,1721207143570
2.57,4.52,11.97,0.20,0.21,-0.30,1721207143580
-0.58,6.65,9.34,0.23,-0.01,-0.43,1721207143590
-3.40,-4.14,1.96,0.07,0.07,-0.26,1721207143600
-2.74,-2.37,9.99,0.01,0.24,0.06,1721207143610
0.66,-0.48,15.96,0.01,0.16,0.10,1721207143620
0.27,1.36,11.08,0.08,-0.03,-0.14,1721207143630
0.03,2.42,2.79,0.27,-0.24,0.06,1721207144205
1.35,1.14,1.56,0.10,-0.08,0.05,1721207144209
0.83,0.48,10.45,-0.01,0.06,-0.02,1721207144219
1.95,-1.24,13.21,0.06,-0.07,-0.10,1721207144228
-0.56,4.35,13.48,0.16,-0.11,-0.16,1721207144238
-0.13,3.18,10.71,0.10,-0.01,-0.13,1721207144248
-0.62,-3.18,8.16,-0.09,-0.16,-0.05,1721207144258
-1.05,-0.39,15.90,-0.08,0.01,-0.12,1721207144268
-0.45,2.48,7.91,0.19,-0.17,-0.01,1721207144278
-0.20,-0.86,3.94,0.04,-0.01,0.04,1721207144288
1.90,-0.60,8.98,0.12,0.03,0.04,1721207144298
1.14,1.35,9.09,0.12,-0.03,-0.07,1721207144308
-0.70,3.79,11.65,0.06,-0.02,-0.21,1721207144318
-1.95,0.65,7.96,0.03,-0.17,-0.11,1721207144328
-1.78,-0.46,12.81,-0.15,0.03,0.07,1721207144338
-0.03,-1.12,13.21,-0.04,-0.09,0.10,1721207144348
0.13,-0.89,6.78,-0.10,-0.12,-0.10,1721207144358
0.52,-0.77,13.66,-0.12,0.10,-0.13,1721207144368
-0.83,1.93,10.72,0.11,-0.18,0.04,1721207144378
0.95,-0.22,6.87,-0.09,0.05,0.05,1721207144388
1.60,0.83,11.91,-0.00,-0.01,-0.07,1721207144398
-0.13,2.69,6.53,0.04,-0.14,-0.17,1721207144408
-0.34,-0.25,7.82,-0.14,0.04,-0.28,1721207144418
-0.87,-6.86,11.06,-0.15,-0.09,-0.06,1721207144428
-2.04,2.95,14.98,0.07,0.01,0.05,1721207144438
0.77,3.66,6.53,0.07,-0.07,-0.03,1721207144448
0.92,-1.96,8.43,-0.31,0.03,-0.20,1721207144458
0.29,1.76,14.15,0.02,-0.08,-0.22,1721207144468
0.12,0.68,7.69,-0.04,0.03,-0.10,1721207144478
-2.07,-1.11,6.66,-0.17,-0.12,-0.03,1721207144488
-0.02,-2.28,10.35,-0.18,0.08,-0.08,1721207144498
2.48,-0.04,12.56,-0.09,-0.04,-0.14,1721207144508
1.89,-1.52,8.86,-0.10,-0.02,-0.14,1721207144518
-1.18,1.58,14.34,-0.13,0.00,-0.25,1721207144528
-0.37,4.81,15.30,0.02,-0.04,-0.16,1721207144538
0.74,-1.54,5.11,-0.04,0.00,-0.04,1721207144548
0.50,-1.47,10.03,-0.12,0.13,-0.16,1721207144558
0.29,2.81,13.21,0.07,0.02,-0.27,1721207144568
-0.28,1.96,9.13,0.10,0.10,-0.15,1721207144578
-0.18,-0.63,6.37,0.03,0.06,-0.21,1721207144588
0.47,1.99,10.40,0.10,0.10,-0.18,1721207144598
2.04,-1.32,14.65,-0.05,0.15,-0.15,1721207144608
-0.10,4.30,12.70,0.17,-0.07,-0.08,1721207144618
0.74,-3.20,3.93,-0.07,0.25,-0.29,1721207144628
-1.91,2.87,19.22,0.05,0.08,-0.39,1721207144638
-1.57,1.72,8.07,0.19,-0.01,-0.15,1721207144648
-1.24,-1.14,5.09,-0.03,0.11,0.05,1721207144658
0.45,-3.46,12.35,-0.04,0.21,-0.06,1721207144668
1.42,0.15,14.63,0.14,0.08,-0.25,1721207144678
0.75,4.70,9.17,0.28,0.05,-0.30,1721207144688
-1.07,2.04,7.11,0.11,0.10,-0.20,1721207144698
-2.83,4.50,13.27,0.17,0.04,-0.11,1721207144708
-0.70,-1.69,6.66,0.06,0.14,-0.09,1721207144718
1.00,-4.50,12.05,-0.03,0.16,-0.06,1721207144728
0.56,1.15,11.94,0.10,0.04,-0.09,1721207144738
-0.39,1.89,9.29,0.09,0.10,-0.16,1721207144748
-0.29,1.29,6.33,0.20,0.11,-0.12,1721207144758
1.03,-1.17,9.65,0.09,0.22,-0.12,1721207144768
-1.24,1.54,13.07,0.13,-0.02,-0.15,1721207144779
-3.20,2.65,8.96,0.06,0.05,-0.03,1721207144789
-1.55,-0.56,9.45,-0.02,0.13,0.14,1721207144799
0.60,-2.36,10.93,0.08,0.08,0.18,1721207144809
1.81,-0.10,8.32,0.03,0.08,0.04,1721207144819
1.49,3.16,10.39,0.03,0.09,-0.08,1721207144829
0.22,0.40,9.67,-0.01,0.08,-0.18,1721207144839
-1.75,-1.00,11.87,0.02,-0.01,-0.02,1721207144849
-0.98,0.39,7.78,-0.01,0.02,0.15,1721207144859
-0.06,1.55,7.19,-0.03,-0.02,0.05,1721207144869
-0.17,3.11,11.42,-0.07,0.08,-0.18,1721207144879
-0.72,-2.13,14.29,-0.15,0.02,-0.13,1721207144889
-2.63,0.98,18.04,-0.04,-0.10,0.06,1721207144899
-1.54,2.24,9.53,-0.06,-0.07,0.18,1721207144909
1.84,-0.65,10.71,-0.14,0.08,0.17,1721207144919
3.92,-0.52,10.27,0.01,-0.08,-0.05,1721207144929
-0.05,1.84,4.47,0.09,-0.19,-0.20,1721207144939
-3.39,4.01,6.22,0.08,0.00,-0.19,1721207144949
-2.69,1.48,9.75,-0.03,0.02,0.02,1721207144959
0.38,-1.50,9.18,-0.07,-0.07,0.26,1721207144969
3.71,-2.72,13.59,-0.24,0.12,0.18,1721207144979
3.50,2.72,13.13,0.06,-0.13,-0.22,1721207144989
1.68,-0.15,5.89,-0.06,-0.04,-0.46,1721207144999
-4.28,-5.63,7.90,-0.26,-0.22,-0.34,1721207145009
-4.40,3.90,16.83,-0.02,0.09,-0.06,1721207145019
-0.29,1.87,7.76,-0.07,-0.07,0.11,1721207145029
-1.53,-0.18,2.00,-0.19,-0.21,0.05,1721207145039
2.91,-7.04,9.36,-0.31,0.26,-0.03,1721207145049
1.36,-4.70,12.60,-0.22,-0.25,0.02,1721207145059
-1.46,8.06,11.91,-0.01,0.06,-0.17,1721207145069
0.40,1.24,13.79,-0.33,0.02,-0.15,1721207145079
-0.40,2.86,20.10,-0.26,-0.16,0.06,1721207145089
4.27,2.35,12.85,-0.10,0.07,0.17,1721207145099
2.72,-2.49,0.73,-0.12,-0.22,-0.09,1721207145109
0.38,3.05,7.12,-0.03,0.24,-0.46,1721207145119
0.22,-0.56,14.85,-0.01,0.01,-0.36,1721207145129
-4.73,2.77,13.84,0.09,-0.21,-0.04,1721207145139
-2.25,2.58,9.49,-0.05,0.10,0.20,1721207145149
2.82,1.36,11.35,0.05,0.04,0.11,1721207145159
6.67,0.25,13.06,0.06,0.14,-0.24,1721207145169
1.54,-2.15,8.50,0.15,-0.22,-0.54,1721207145179
-4.70,0.48,8.32,0.24,0.15,-0.58,1721207145189
-6.09,0.85,11.57,0.17,-0.06,-0.18,1721207145199
-3.37,3.35,9.15,0.19,-0.06,0.21,1721207145209
2.64,-4.22,12.50,0.01,0.23,0.16,1721207145219
3.85,-2.26,13.90,0.19,-0.04,-0.12,1721207145228
2.48,4.57,9.61,0.30,0.15,-0.50,1721207145238
-3.05,2.48,5.25,0.04,-0.21,-0.52,1721207145248
-6.83,-0.05,17.02,-0.01,-0.04,-0.18,1721207145258
-2.09,-6.09,11.03,0.11,-0.05,0.28,1721207145268
1.68,0.49,8.12,0.15,0.08,0.16,1721207145278
5.60,-1.34,13.95,-0.07,0.17,-0.26,1721207145288
-0.85,4.03,9.37,0.17,-0.51,-0.44,1721207145298
-1.31,-0.83,3.58,0.14,0.31,-0.40,1721207145308
-3.26,-2.55,9.38,-0.02,-0.08,-0.16,1721207145318
-3.80,5.17,12.39,0.13,-0.08,0.11,1721207145328
2.57,0.07,10.23,-0.02,0.19,0.10,1721207145338
2.63,-1.21,10.85,0.08,-0.13,-0.09,1721207145348
3.35,0.96,10.41,0.07,0.22,-0.33,1721207145358
-2.20,5.50,7.90,0.16,-0.32,-0.28,1721207145368
-4.20,5.92,3.73,0.22,0.03,-0.02,1721207145378
1.93,-6.00,7.65,-0.18,0.14,0.18,1721207145388
2.19,2.08,21.74,0.06,-0.02,0.02,1721207145398
2.27,8.05,9.03,0.38,-0.11,-0.37,1721207145408
-2.66,0.42,-0.35,-0.07,-0.21,-0.31,1721207145418
-5.40,-5.22,12.77,-0.21,0.11,0.04,1721207145428
-0.91,-1.94,15.51,0.19,0.01,0.27,1721207145438
2.40,3.03,5.55,0.19,0.02,0.04,1721207145448
3.61,3.24,12.24,-0.10,0.16,-0.27,1721207145458
-1.23,7.34,15.92,0.22,-0.18,-0.35,1721207145468
-0.91,-1.71,5.20,-0.09,-0.02,-0.23,1721207145478
-3.74,-1.44,7.75,-0.05,-0.16,-0.10,1721207145488
-2.17,-2.23,9.76,-0.10,0.23,-0.01,1721207145498
-2.26,0.90,10.27,-0.01,-0.20,0.13,1721207145508
-1.08,3.32,11.20,-0.08,0.04,0.11,1721207145518
2.66,-2.50,8.38,-0.18,-0.13,0.05,1721207145528
0.85,-0.28,7.37,-0.11,-0.17,-0.06,1721207145538
2.95,-4.91,8.69,-0.30,0.20,-0.14,1721207145548
-3.09,-4.09,13.12,-0.15,-0.27,-0.09,1721207145558
-4.01,1.63,10.63,-0.01,0.03,0.15,1721207145568
0.55,0.58,5.35,-0.13,-0.17,0.33,1721207145578
2.13,0.06,9.99,-0.25,-0.03,0.19,1721207145588
4.88,0.04,17.68,-0.32,0.10,-0.15,1721207145598
-0.13,5.48,12.89,-0.01,-0.41,-0.28,1721207145608
-3.04,-1.18,3.47,-0.23,-0.04,-0.26,1721207145618
-3.91,-6.23,11.16,-0.31,-0.23,0.13,1721207145628
-1.82,5.26,14.59,-0.05,-0.03,0.30,1721207145638
2.29,2.05,7.47,-0.06,-0.20,0.23,1721207145648
2.49,-0.66,7.47,-0.06,-0.15,0.01,1721207145658
4.28,-1.25,15.76,-0.13,0.08,-0.20,1721207145668
0.26,9.74,14.31,0.12,-0.35,-0.21,1721207145678
-2.29,1.16,6.17,0.02,-0.08,-0.07,1721207145688
-1.31,-6.09,11.27,-0.13,-0.07,-0.02,1721207145698
0.96,3.52,15.28,0.18,-0.15,0.01,1721207145708
4.19,2.44,6.65,0.17,-0.05,-0.03,1721207145718
1.92,3.86,10.23,0.16,-0.12,-0.15,1721207145728
2.41,-1.21,11.15,0.07,0.06,-0.37,1721207145738
-0.07,0.77,7.41,0.27,-0.29,-0.35,1721207145748
0.16,-0.35,5.32,0.15,0.22,-0.40,1721207145758
-1.31,-1.57,13.72,0.00,-0.10,-0.26,1721207145768
-1.40,1.72,12.91,0.14,-0.14,-0.19,1721207145779
0.62,-3.27,8.64,-0.01,0.07,-0.25,1721207145789
0.02,-3.24,10.78,0.01,-0.05,-0.31,1721207145799
0.48,4.91,9.35,0.20,0.14,-0.32,1721207145809
0.47,0.71,6.65,0.07,0.04,-0.34,1721207145819
-1.37,0.83,14.70,0.07,0.00,-0.37,1721207145829
-0.41,-2.24,7.55,0.16,-0.00,-0.26,1721207145839
0.21,-2.58,4.75,-0.10,0.10,-0.21,1721207145849
-0.22,0.76,20.31,-0.10,0.18,-0.34,1721207145859
-1.58,7.36,13.18,0.33,-0.15,-0.35,1721207145869
0.25,-0.96,1.25,-0.01,0.19,-0.17,1721207145879
0.91,-6.66,11.07,-0.19,0.13,-0.11,1721207145889
-0.10,7.46,21.15,0.17,0.13,-0.37,1721207145899
0.13,3.84,7.14,0.29,-0.07,-0.34,1721207145909
0.45,-3.74,0.17,-0.05,0.09,-0.05,1721207145919
2.78,-3.59,14.57,-0.14,0.36,-0.23,1721207145929
1.14,4.76,15.56,0.19,-0.09,-0.51,1721207145939
-2.17,1.93,6.78,0.07,0.14,-0.52,1721207145949
-3.15,-2.97,8.16,-0.01,0.22,-0.26,1721207145959
-2.12,3.27,13.46,0.14,0.19,-0.14,1721207145969
0.76,2.83,7.31,0.12,0.16,-0.22,1721207145979
-0.48,-0.84,2.44,-0.04,-0.00,-0.24,1721207145989
-0.27,-1.93,10.85,-0.25,0.32,-0.25,1721207145999
-0.03,0.69,16.41,0.04,0.09,-0.32,1721207146009
-0.26,0.58,9.28,-0.00,0.19,-0.29,1721207146019
-1.01,0.29,7.24,-0.04,0.15,-0.21,1721207146029
-0.79,4.26,6.96,-0.05,0.18,-0.18,1721207146039
2.31,-3.25,12.77,-0.29,0.40,-0.20,1721207146049
-0.62,-0.88,17.26,0.02,-0.02,-0.27,1721207146059
-0.61,4.19,9.18,0.08,0.27,-0.22,1721207146069
-0.12,2.99,5.47,-0.11,0.11,-0.05,1721207146079
0.99,-0.52,13.83,-0.22,0.33,-0.20,1721207146089
1.74,-2.47,12.29,0.08,0.14,-0.25,1721207146099
1.47,-1.44,2.38,-0.00,0.18,-0.28,1721207146109
-0.36,-1.15,18.63,-0.17,0.44,-0.49,1721207146119
-2.06,11.46,16.81,0.37,0.10,-0.31,1721207146129
-0.52,2.32,-0.41,0.14,0.30,-0.10,1721207146139
0.89,-7.66,11.28,-0.16,0.38,-0.12,1721207146149
2.43,1.97,20.15,0.07,0.29,-0.32,1721207146159
0.48,8.01,8.05,0.32,0.21,-0.44,1721207146169
-3.22,-3.84,0.19,0.01,0.25,-0.44,1721207146179
-5.02,-2.54,12.84,-0.04,0.34,-0.07,1721207146189
0.83,-0.44,6.12,0.22,0.30,0.24,1721207146199
4.70,1.89,14.83,-0.01,0.35,-0.34,1721207146214
4.38,3.86,16.96,0.15,0.31,-0.43,1721207146218
0.04,1.86,8.94,0.18,0.27,-0.61,1721207146228
-4.01,-3.75,7.49,-0.06,0.22,-0.38,1721207146238
-3.58,2.89,12.41,0.10,0.38,-0.14,1721207146248
0.33,-2.18,7.92,-0.02,0.42,-0.03,1721207146258
-1.59,2.19,14.14,0.08,0.30,-0.19,1721207146268
-0.04,1.03,8.30,0.13,0.44,-0.24,1721207146278
-1.91,-0.90,5.70,0.02,0.18,-0.09,1721207146288
0.27,2.23,10.94,0.05,0.52,0.07,1721207146298
2.53,0.15,8.09,-0.04,0.31,0.03,1721207146308
-0.34,-0.98,15.01,-0.16,0.29,-0.19,1721207146318
-2.02,-4.01,9.33,0.06,0.28,-0.21,1721207146328
-0.46,-2.70,4.74,-0.02,0.39,-0.08,1721207146338
-0.16,2.24,16.18,-0.02,0.53,-0.08,1721207146348
-0.79,4.36,10.37,0.25,0.21,-0.09,1721207146358
-0.83,0.41,6.53,-0.01,0.47,-0.10,1721207146368
-0.68,-3.05,13.58,-0.16,0.37,-0.11,1721207146378
-1.06,1.01,10.31,0.06,0.22,0.01,1721207146388
-1.73,1.16,9.41,-0.04,0.46,-0.03,1721207146398
-3.03,-0.46,11.56,0.01,0.20,0.06,1721207146408
-2.56,1.15,7.36,0.04,0.19,0.28,1721207146418
2.35,-2.64,10.35,-0.21,0.44,0.34,1721207146428
1.84,2.62,18.25,-0.06,0.24,0.07,1721207146438
-0.17,1.10,6.29,0.04,0.11,-0.09,1721207146448
-3.42,-1.39,8.19,-0.11,0.30,-0.03,1721207146458
-3.09,-2.49,11.13,-0.06,0.14,0.30,1721207146468
-2.72,0.34,8.09,0.00,0.13,0.53,1721207146478
2.65,-4.95,13.36,-0.14,0.44,0.45,1721207146488
2.38,1.28,16.42,0.13,0.00,0.19,1721207146498
0.87,12.01,6.60,0.37,0.14,-0.03,1721207146508
-0.30,2.00,2.32,-0.09,0.05,0.07,1721207146518
-4.85,0.49,11.77,-0.12,-0.04,0.34,1721207146528
0.18,-3.52,14.15,-0.09,0.42,0.44,1721207146538
-0.71,1.76,11.82,0.07,-0.14,0.42,1721207146548
0.08,2.21,7.82,-0.01,0.19,0.35,1721207146557
0.17,1.63,8.97,-0.09,-0.10,0.50,1721207146567
0.89,2.59,9.43,-0.04,0.07,0.55,1721207146577
5.88,-2.31,8.61,-0.17,0.19,0.45,1721207146587
3.41,0.61,11.84,-0.08,-0.05,0.15,1721207146597
1.48,1.75,12.31,-0.06,0.09,-0.02,1721207146607
-1.97,0.45,13.83,-0.13,-0.04,0.11,1721207146617
-3.64,-0.47,9.99,-0.09,0.02,0.31,1721207146627
-1.78,0.44,8.32,-0.05,-0.02,0.49,1721207146637
-0.28,7.64,9.12,0.06,-0.01,0.53,1721207146647
2.76,2.35,9.75,-0.09,0.10,0.36,1721207146657
1.03,0.57,6.66,-0.00,-0.21,0.23,1721207146667
1.47,-4.49,7.19,-0.25,0.19,0.13,1721207146677
-2.89,3.63,14.44,-0.02,-0.32,0.31,1721207146687
-1.87,4.30,8.92,-0.03,0.07,0.49,1721207146697
3.20,-6.15,11.47,-0.27,0.06,0.54,1721207146707
1.39,0.37,17.03,-0.14,-0.15,0.17,1721207146717
1.52,0.42,9.49,-0.07,-0.11,-0.08,1721207146727
-3.72,-0.56,8.37,-0.07,-0.21,0.17,1721207146737
-4.00,-0.15,11.04,0.02,0.01,0.45,1721207146747
0.44,-3.34,10.32,-0.06,-0.17,0.48,1721207146757
0.88,4.46,14.19,0.16,-0.17,0.32,1721207146767
2.33,0.25,10.25,-0.01,-0.20,0.21,1721207146777
-3.72,5.44,7.11,0.21,-0.45,0.35,1721207146787
0.31,-0.53,6.38,0.18,0.15,0.46,1721207146797
-0.49,-2.23,5.71,0.04,-0.54,0.51,1721207146807
-1.60,1.44,6.92,0.11,-0.14,0.48,1721207146817
4.84,2.11,15.88,0.06,-0.06,0.53,1721207146827
2.61,-0.27,11.67,0.05,-0.57,0.59,1721207146837
1.45,0.34,9.72,-0.03,-0.06,0.28,1721207146847
2.42,-1.28,10.79,-0.01,-0.35,0.13,1721207146857
-2.32,-2.18,6.90,0.02,-0.45,0.33,1721207146867
-0.51,-3.71,14.50,0.01,-0.08,0.55,1721207146877
2.77,6.03,14.71,0.40,-0.38,0.65,1721207146887
5.49,5.02,2.98,0.11,-0.27,0.41,1721207146897
3.76,2.52,14.13,-0.06,-0.32,0.14,1721207146907
1.59,4.25,12.43,0.20,-0.33,0.05,1721207146917
0.23,-4.31,0.56,0.01,-0.33,0.18,1721207146927
-1.78,-0.74,9.29,0.02,-0.20,0.19,1721207146937
1.75,2.60,7.40,0.29,-0.32,0.30,1721207146947
4.00,-4.48,0.71,-0.02,-0.28,0.36,1721207146957
5.43,-2.40,17.24,-0.14,0.04,0.06,1721207146967
3.22,7.39,21.49,0.33,-0.42,-0.34,1721207146977
-0.40,-0.09,-1.55,0.16,-0.46,-0.36,1721207146987
-3.00,-7.56,8.59,-0.33,0.01,-0.15,1721207146997
-3.81,2.29,19.86,0.14,-0.24,-0.04,1721207147007
-2.13,3.49,9.55,0.16,-0.31,0.06,1721207147017
1.47,-2.86,8.66,-0.03,-0.19,0.26,1721207147027
4.22,-4.61,11.76,-0.15,-0.11,-0.04,1721207147037
-0.62,6.39,13.95,0.25,-0.48,-0.31,1721207147047
-0.25,1.55,-1.55,0.05,-0.08,-0.21,1721207147057
-0.59,-4.52,7.55,-0.33,-0.17,0.08,1721207147067
-0.83,3.93,12.07,0.13,-0.29,0.13,1721207147077
5.92,-5.63,15.81,-0.38,0.22,-0.11,1721207147087
1.18,1.94,30.98,0.17,-0.45,-0.41,1721207147097
-2.31,8.46,1.36,0.50,-0.25,-0.39,1721207147107
-0.96,2.19,0.63,-0.24,0.17,-0.15,1721207147117
-1.30,-2.71,16.10,-0.18,-0.25,-0.11,1721207147127
-0.13,1.23,11.35,0.11,-0.10,-0.18,1721207147137
1.39,3.68,3.91,-0.02,-0.16,-0.00,1721207147147
2.15,0.86,10.62,-0.31,-0.05,-0.16,1721207147157
1.58,-1.49,14.47,-0.03,-0.13,-0.39,1721207147167
0.28,2.29,1.56,0.03,-0.11,-0.26,1721207147177
0.81,-1.03,10.88,-0.42,0.23,-0.28,1721207147187
-0.81,1.76,27.57,0.09,-0.11,-0.39,1721207147197
-0.59,2.03,6.53,0.36,-0.19,-0.14,1721207147207
1.62,-0.05,0.99,-0.24,0.18,-0.13,1721207147217
1.28,-0.98,15.36,-0.16,-0.10,-0.33,1721207147227
-0.38,0.83,7.40,0.21,-0.23,-0.30,1721207147237
0.67,-0.05,-2.15,-0.07,0.01,-0.19,1721207147247
0.22,-3.81,10.58,-0.31,0.14,-0.32,1721207147257
-1.07,-2.45,20.61,-0.06,-0.06,-0.37,1721207147267
-0.18,4.60,15.33,0.23,-0.01,-0.05,1721207147277
1.47,2.62,7.25,-0.26,0.11,-0.22,1721207147287
-0.16,6.01,19.51,0.02,-0.06,-0.39,1721207147297
0.18,-1.68,2.83,-0.04,-0.02,-0.36,1721207147307
-1.05,-6.15,2.76,-0.42,-0.01,-0.27,1721207147317
-1.50,-3.77,16.00,-0.27,0.18,-0.45,1721207147327
-1.79,3.24,14.23,0.12,-0.01,-0.31,1721207147337
-1.71,4.44,3.65,-0.04,0.00,-0.12,1721207147347
-0.35,2.16,13.49,-0.17,0.19,-0.03,1721207147357
2.01,0.09,12.31,-0.03,-0.01,-0.07,1721207147367
3.92,-1.86,9.96,-0.14,0.18,-0.31,1721207147377
2.16,-0.09,12.81,-0.02,-0.01,-0.55,1721207147387
-2.69,6.76,9.58,0.16,0.01,-0.51,1721207147397
-4.47,2.35,8.53,-0.02,0.14,-0.33,1721207147407
-2.04,-4.40,7.96,-0.12,0.06,0.01,1721207147417
0.66,-1.83,10.90,-0.14,0.20,-0.03,1721207147427
2.46,2.80,3.26,0.04,0.02,-0.22,1721207147437
1.47,-1.40,6.14,-0.17,0.26,-0.43,1721207147447
-0.64,-1.03,14.42,-0.02,0.06,-0.44,1721207147457
-2.24,-2.80,10.55,-0.17,0.12,-0.18,1721207147467
-1.53,0.40,17.75,-0.19,0.15,-0.07,1721207147477
1.92,0.72,13.04,-0.04,0.15,-0.15,1721207147487
2.34,2.79,13.63,0.03,0.20,-0.28,1721207147497
1.10,1.24,3.21,0.07,0.02,-0.42,1721207147507
-2.62,0.21,10.45,-0.14,0.24,-0.47,1721207147517
-2.25,0.75,16.08,0.06,0.24,-0.35,1721207147527
-2.16,-4.18,6.56,-0.05,0.06,-0.17,1721207147537
-1.71,1.79,10.11,0.05,0.22,-0.10,1721207147547
2.01,5.71,8.93,0.17,0.24,-0.17,1721207147557
0.85,0.81,9.96,-0.03,0.11,-0.38,1721207147567
-3.32,1.00,14.54,-0.02,0.15,-0.45,1721207147577
-2.53,2.36,17.76,0.01,0.31,-0.35,1721207147587
-1.51,-2.41,8.39,0.00,-0.03,0.04,1721207147597
0.42,0.29,9.65,0.04,0.31,-0.09,1721207147607
1.73,1.38,6.16,0.24,0.04,-0.37,1721207147617
-2.46,-0.29,7.51,-0.00,0.16,-0.44,1721207147627
-4.02,5.23,13.90,0.32,0.20,-0.27,1721207147637
-1.47,2.33,4.43,0.12,0.27,-0.12,1721207147647
-0.29,0.47,15.58,-0.07,0.24,-0.10,1721207147657
1.65,3.28,11.37,0.26,0.08,-0.05,1721207147667
1.09,4.13,4.24,0.12,0.20,-0.30,1721207147677
0.15,-0.63,7.76,0.01,0.21,-0.37,1721207147687
-2.33,-6.17,6.69,-0.22,0.03,-0.17,1721207147697
-2.84,-1.05,17.83,-0.10,0.27,-0.17,1721207147707
-0.54,4.26,6.23,0.38,0.03,-0.03,1721207147717
2.27,1.21,0.79,-0.13,0.38,-0.09,1721207147727
0.44,0.49,14.77,-0.18,0.15,-0.26,1721207147737
-1.31,-3.23,8.33,-0.12,0.03,-0.24,1721207147747
-4.11,-1.32,15.43,-0.22,0.35,-0.20,1721207147757
-1.68,-2.84,17.95,-0.15,0.21,0.09,1721207147767
0.44,2.39,16.52,-0.01,0.08,0.23,1721207147777
1.14,5.07,0.33,0.19,-0.08,0.17,1721207147787
1.52,-2.00,2.91,-0.26,0.38,-0.14,1721207147797
-2.67,-1.81,13.05,-0.13,-0.08,-0.09,1721207147807
-3.82,1.16,9.07,0.00,0.07,0.17,1721207147817
-1.66,0.88,7.89,0.03,0.08,0.36,1721207147827
0.71,-1.41,8.83,-0.11,0.13,0.25,1721207147837
1.23,1.35,13.80,-0.09,0.06,0.14,1721207147847
0.07,0.65,14.97,-0.15,0.02,0.03,1721207147857
-2.31,0.65,17.42,-0.10,-0.08,0.11,1721207147867
-1.60,2.44,11.15,0.11,-0.03,0.28,1721207147877
-0.39,1.41,4.92,0.01,-0.02,0.27,1721207147887
-0.91,1.02,12.73,0.01,0.02,0.16,1721207147897
-0.27,1.75,10.58,0.22,-0.15,0.20,1721207147907
0.84,4.95,7.93,0.23,0.08,0.31,1721207147917
1.48,-0.37,9.80,-0.01,-0.03,0.24,1721207147927
-0.66,-1.56,11.95,-0.01,-0.27,0.12,1721207147937
0.80,1.08,13.71,0.08,0.05,0.09,1721207147947
0.20,0.20,10.07,0.23,-0.23,0.28,1721207147957
-1.01,1.11,1.60,0.24,-0.16,0.42,1721207147967
1.89,-1.54,7.64,0.12,0.01,0.30,1721207147977
2.35,2.64,14.88,0.14,-0.14,0.07,1721207147987
1.74,2.07,4.84,0.25,-0.24,0.10,1721207147997
0.58,-3.14,3.69,-0.00,-0.04,0.17,1721207148007
0.37,-0.33,13.91,0.00,-0.12,0.20,1721207148017
0.44,2.33,12.76,0.13,-0.18,0.07,1721207148027
1.09,-2.90,5.72,-0.10,-0.17,0.05,1721207148037
0.19,-2.57,12.06,-0.09,-0.04,0.04,1721207148047
1.01,-1.66,6.64,0.05,-0.19,0.12,1721207148057
-0.38,-1.65,5.83,-0.15,-0.13,0.10,1721207148067
1.20,0.31,11.26,0.06,-0.15,0.06,1721207148077
2.94,-1.95,9.27,-0.05,-0.07,0.03,1721207148087
-0.14,-4.01,16.53,-0.17,-0.18,-0.05,1721207148097
-2.40,2.54,19.38,-0.05,-0.20,-0.15,1721207148107
-1.30,8.31,9.94,0.21,-0.19,0.14,1721207148117
1.92,4.39,2.30,0.04,0.07,0.26,1721207148127
3.62,-6.56,11.21,-0.18,-0.04,-0.07,1721207148137
0.78,0.68,12.18,0.06,-0.28,-0.35,1721207148147
0.02,2.23,7.29,0.02,-0.05,-0.20,1721207148157
-0.77,3.32,13.62,0.09,-0.05,-0.03,1721207148167
-0.03,2.56,6.85,0.21,-0.18,0.00,1721207148177
0.17,-2.18,5.98,-0.10,-0.06,-0.17,1721207148187
-0.40,-3.03,15.39,-0.09,-0.14,-0.25,1721207148197
-1.48,1.12,14.59,0.07,-0.06,-0.12,1721207148207
1.21,-0.32,6.18,0.20,-0.10,0.13,1721207148222
2.59,3.31,8.05,0.19,0.04,0.05,1721207148226
3.33,4.57,10.46,0.20,-0.15,-0.17,1721207148236
1.96,5.89,8.49,0.16,-0.04,-0.39,1721207148246
-0.47,-2.58,7.75,-0.01,-0.08,-0.47,1721207148256
-3.89,-2.87,14.21,0.04,-0.08,-0.27,1721207148266
-2.02,2.03,3.29,0.21,-0.12,0.01,1721207148276
2.25,-0.98,2.65,-0.13,0.08,0.03,1721207148286
2.88,1.03,15.56,-0.10,0.09,-0.38,1721207148296
-0.45,-4.15,13.36,-0.09,-0.13,-0.53,1721207148306
-4.68,-1.74,16.08,0.04,-0.09,-0.25,1721207148316
-2.05,3.07,8.00,0.06,0.03,0.08,1721207148326
1.99,4.49,8.13,-0.07,0.03,0.13,1721207148336
4.76,-3.03,6.39,-0.22,0.03,-0.20,1721207148346
2.49,-4.63,16.77,-0.25,0.04,-0.62,1721207148356
-1.78,2.27,13.21,0.12,-0.11,-0.57,1721207148366
-3.07,1.13,1.70,-0.18,0.04,-0.27,1721207148376
-2.11,1.15,10.79,-0.14,0.06,-0.00,1721207148386
2.15,-2.09,10.77,-0.12,0.17,-0.10,1721207148396
1.73,3.28,10.35,-0.01,-0.05,-0.30,1721207148406
0.82,0.69,6.61,-0.29,0.10,-0.42,1721207148416
-1.71,1.01,21.54,-0.28,0.05,-0.46,1721207148426
-2.44,4.33,13.33,0.14,-0.01,-0.25,1721207148436
-0.26,-4.26,3.10,-0.24,0.14,-0.11,1721207148446
0.32,-0.65,13.79,-0.10,0.12,-0.24,1721207148456
1.73,2.34,10.35,0.03,0.13,-0.33,1721207148466
-1.09,7.03,13.46,0.10,0.04,-0.42,1721207148476
-2.47,2.18,4.85,0.17,0.07,-0.33,1721207148486
-1.98,-1.87,8.37,-0.03,0.19,-0.02,1721207148496
1.49,0.41,11.79,0.05,0.13,0.03,1721207148506
4.05,-1.40,13.03,-0.06,0.21,-0.31,1721207148516
0.91,3.76,14.39,0.20,-0.03,-0.64,1721207148526
-2.47,1.45,5.42,0.15,0.16,-0.56,1721207148536
-5.45,-0.47,9.75,0.06,0.08,-0.15,1721207148546
-2.13,2.09,13.26,0.13,0.26,0.07,1721207148556
1.79,-1.64,5.54,0.10,0.13,0.01,1721207148566
1.66,-0.86,8.50,0.10,0.16,-0.26,1721207148576
1.55,2.53,10.43,0.21,0.19,-0.41,1721207148586
-1.17,2.97,7.67,0.05,0.06,-0.24,1721207148596
-2.06,-1.32,11.60,-0.03,0.18,-0.16,1721207148606
-0.57,-6.50,13.14,-0.09,0.17,-0.12,1721207148616
0.25,2.38,16.36,0.17,0.16,-0.16,1721207148626
2.68,4.66,6.65,0.16,0.19,-0.19,1721207148636
-1.85,2.58,5.97,0.08,-0.04,-0.22,1721207148646
-2.83,-4.04,9.44,-0.07,0.22,-0.23,1721207148656
-0.57,-3.12,12.35,0.03,0.22,-0.08,1721207148666
0.06,1.37,5.66,0.03,0.06,-0.02,1721207148676
0.57,0.51,10.81,-0.09,0.28,-0.15,1721207148686
0.06,0.37,13.52,0.07,0.16,-0.23,1721207148696
-0.17,0.68,9.12,0.04,0.12,-0.23,1721207148706
-0.47,0.56,6.96,0.00,0.13,-0.10,1721207148716
-0.07,-0.86,11.65,-0.13,0.19,-0.06,1721207148726
-1.89,1.36,14.24,0.00,0.01,-0.13,1721207148736
-1.10,5.11,5.69,0.22,0.08,-0.11,1721207148746
-0.60,-4.31,2.53,-0.18,0.08,-0.02,1721207148756
-2.51,-1.97,16.77,-0.16,0.25,-0.02,1721207148766
1.12,4.13,18.94,0.10,0.26,-0.13,1721207148776
-0.48,2.02,4.63,0.00,-0.19,-0.10,1721207148786
-2.24,0.27,8.48,-0.03,0.31,-0.12,1721207148796
0.38,-0.36,12.83,0.02,0.08,0.01,1721207148806
-2.07,4.61,7.08,0.05,-0.20,0.10,1721207148816
0.75,-3.46,10.37,-0.17,0.31,0.03,1721207148826
0.57,-2.11,12.34,0.11,-0.11,-0.02,1721207148836
0.41,6.06,6.08,0.16,0.24,-0.07,1721207148846
1.39,3.66,17.20,-0.17,0.19,-0.17,1721207148856
-1.24,3.81,17.06,0.15,-0.19,-0.03,1721207148866
-0.40,1.00,-0.23,0.15,-0.02,0.04,1721207148876
0.43,-8.48,3.80,-0.34,0.12,0.05,1721207148886
-0.69,0.32,22.72,-0.13,0.04,-0.06,1721207148896
0.77,7.67,8.66,0.40,-0.10,-0.01,1721207148906
0.08,6.00,-6.36,0.06,0.07,-0.11,1721207148916
1.00,-8.82,13.44,-0.50,0.37,-0.15,1721207148926
-0.97,-2.60,28.59,-0.01,-0.00,-0.04,1721207148936
-2.41,6.92,1.76,0.20,-0.19,-0.07,1721207148946
-0.44,0.74,8.77,-0.29,0.30,0.05,1721207148956
1.39,-0.33,17.70,0.06,-0.04,0.28,1721207148966
2.21,-0.99,4.12,-0.02,-0.01,-0.00,1721207148976
0.03,2.73,7.01,-0.11,0.02,-0.32,1721207148986
-1.91,-0.60,13.14,-0.13,0.11,-0.23,1721207148996
-3.23,1.14,14.75,0.08,-0.01,0.00,1721207149006
-0.26,1.89,5.53,0.04,0.05,0.22,1721207149016
2.24,-1.32,10.35,-0.21,0.12,0.02,1721207149026
1.64,-1.63,19.41,-0.18,0.08,-0.25,1721207149036
-2.49,1.08,14.99,-0.02,-0.22,-0.28,1721207149046
-3.51,4.46,7.38,0.12,0.02,-0.01,1721207149056
1.35,-2.14,8.83,0.04,0.26,0.27,1721207149066
1.52,0.51,8.92,-0.03,-0.06,0.05,1721207149076
0.29,2.16,9.06,-0.03,-0.01,-0.29,1721207149086
0.84,-0.13,12.56,0.04,0.12,-0.25,1721207149096
-1.02,1.04,13.69,0.12,0.04,-0.11,1721207149106
-2.10,3.46,7.19,0.19,-0.06,0.05,1721207149116
-0.04,1.50,4.71,-0.05,0.07,0.05,1721207149126
1.87,-1.72,17.67,-0.11,0.18,-0.11,1721207149136
0.98,0.75,15.04,0.09,-0.08,-0.20,1721207149146
-0.80,6.22,3.76,0.22,0.03,-0.18,1721207149156
0.87,-3.17,2.85,-0.13,0.21,-0.10,1721207149166
-2.32,0.83,12.63,-0.07,-0.07,-0.10,1721207149176
0.90,0.62,9.44,0.11,0.14,-0.04,1721207149186
2.59,-7.87,6.78,-0.16,0.11,0.05,1721207149196
-0.89,3.38,15.12,0.04,0.02,-0.18,1721207149206
0.37,2.75,7.67,0.10,0.07,-0.22,1721207149216
-0.13,0.51,6.74,-0.06,0.16,-0.12,1721207149226
-0.57,0.45,14.00,-0.06,0.25,-0.15,1721207149236
-0.31,0.79,12.20,0.14,0.11,-0.08,1721207149246
-0.13,-1.39,7.71,-0.16,0.13,-0.07,1721207149256
0.48,-1.08,13.64,-0.06,0.16,-0.12,1721207149266
1.00,1.45,8.04,0.05,0.12,-0.15,1721207149276
0.26,0.40,5.23,-0.07,0.17,-0.17,1721207149286
-0.47,-3.52,14.68,-0.15,0.18,-0.22,1721207149296
-1.51,2.80,13.53,0.13,0.10,-0.13,1721207149306
-1.06,0.13,3.83,-0.09,0.15,0.02,1721207149316
-0.01,-3.06,15.88,-0.21,0.25,0.01,1721207149326
0.46,-0.04,14.09,0.08,0.06,-0.04,1721207149336
1.26,7.31,6.96,0.14,0.23,-0.10,1721207149346
2.01,-2.97,7.88,-0.14,0.18,-0.09,1721207149356
-1.74,3.26,15.86,0.10,0.09,-0.14,1721207149366
0.20,1.12,8.14,0.11,0.27,-0.04,1721207149376
0.36,2.60,9.45,0.07,0.09,-0.05,1721207149386
-0.60,0.13,9.55,0.02,0.22,-0.17,1721207149396
-2.27,0.73,12.12,0.13,0.15,-0.08,1721207149406
-1.86,-0.93,4.49,0.04,0.10,0.06,1721207149416
-1.28,1.96,15.38,-0.04,0.23,0.07,1721207149426
0.22,5.46,10.96,0.27,0.06,0.12,1721207149436
1.62,-2.42,5.24,-0.04,0.22,-0.02,1721207149446
-1.41,-4.38,13.13,-0.07,0.01,-0.07,1721207149456
-2.14,4.84,14.22,0.13,0.12,0.04,1721207149466
-0.02,0.85,2.19,0.13,0.01,0.11,1721207149476
-0.48,0.04,6.91,0.03,0.14,0.02,1721207149486
0.35,0.93,11.96,0.07,0.17,0.02,1721207149496
-0.90,6.56,10.08,0.17,-0.00,0.01,1721207149506
0.03,2.44,5.81,-0.05,0.16,0.04,1721207149516
-0.84,-7.24,12.02,-0.28,0.04,0.01,1721207149526
-2.57,1.08,15.99,0.00,0.01,0.05,1721207149536
0.27,0.54,5.69,-0.06,0.05,0.12,1721207149546
-0.30,0.22,7.18,-0.09,-0.05,0.10,1721207149556
-0.99,0.54,13.35,-0.09,0.13,-0.00,1721207149566
-0.91,4.32,12.75,0.12,-0.04,0.11,1721207149576
0.06,2.72,7.27,-0.02,0.05,0.19,1721207149586
1.03,-6.97,9.76,-0.18,0.00,0.17,1721207149596
1.69,0.45,11.84,0.03,0.05,0.06,1721207149606
2.75,0.72,11.16,-0.03,0.07,-0.06,1721207149616
-0.76,6.37,16.13,0.16,-0.07,-0.09,1721207149626
-1.58,6.89,6.00,0.30,-0.02,0.07,1721207149636
-0.59,-6.79,4.11,-0.14,0.03,0.19,1721207149646
-0.85,-1.45,17.18,-0.06,0.04,0.10,1721207149656
1.60,4.69,5.28,0.31,-0.10,0.10,1721207149666
1.70,-0.61,0.47,-0.02,0.15,-0.03,1721207149676
0.21,-1.01,17.55,-0.06,0.06,-0.06,1721207149686
-1.36,7.11,20.41,0.19,-0.08,0.01,1721207149696
0.22,0.56,6.73,-0.05,0.07,0.06,1721207149706
-0.36,-4.37,11.63,-0.09,0.04,0.06,1721207149716
