AccX,AccY,AccZ,GyrX,GyrY,GyrZ,Time
-33.40,-0.73,-2.74,0.05,-0.40,-0.81,1721206983158
-30.70,-1.88,7.59,-0.31,0.02,0.55,1721206983163
-14.02,-6.86,23.43,-0.15,0.24,2.75,1721206983173
15.83,0.71,16.75,0.38,1.00,2.76,1721206983183
26.88,3.91,0.69,0.10,-0.03,1.17,1721206983193
27.52,2.62,8.99,-0.27,0.31,-1.62,1721206983203
5.71,0.52,11.29,-0.18,-0.84,-2.70,1721206983213
-6.71,-5.00,11.95,0.18,-0.19,-2.88,1721206983223
-26.08,-9.90,5.46,-0.05,-0.38,-1.06,1721206983233
-20.79,-6.12,16.84,-0.20,0.42,1.03,1721206983243
0.03,3.29,16.64,0.09,0.54,1.77,1721206983253
13.50,1.45,6.67,0.14,0.55,0.90,1721206983263
16.60,2.23,9.46,-0.15,0.29,-0.54,1721206983273
5.31,-2.31,11.45,0.06,-0.45,-1.52,1721206983283
-1.45,-4.15,10.76,0.05,-0.19,-1.62,1721206983293
-10.99,-1.82,13.55,0.03,-0.01,-0.69,1721206983303
-6.54,-1.27,11.19,0.14,0.38,0.27,1721206983313
2.89,0.85,9.18,0.09,0.36,0.37,1721206983323
4.87,-1.36,6.56,0.07,0.18,-0.35,1721206983333
2.45,-1.02,8.58,0.15,0.20,-1.10,1721206983343
-4.68,-4.08,11.95,0.14,-0.01,-0.98,1721206983353
-8.48,-3.07,13.62,0.18,0.19,-0.23,1721206983363
-4.25,-1.40,8.51,0.20,0.30,0.27,1721206983373
0.88,1.60,7.82,0.11,0.21,0.05,1721206983383
5.03,-2.10,9.58,0.11,0.15,-0.35,1721206983393
1.12,0.36,13.18,0.22,0.05,-0.53,1721206983403
-1.05,-2.96,6.75,0.08,0.15,-0.46,1721206983413
-3.14,-0.08,14.70,0.08,0.28,-0.35,1721206983423
-4.82,-2.19,8.78,0.23,0.03,-0.09,1721206983433
-3.13,-0.07,3.36,0.11,0.23,0.09,1721206983443
1.88,-2.60,9.80,-0.11,0.26,0.05,1721206983453
1.19,-0.41,20.24,0.09,0.16,-0.09,1721206983463
-1.31,-2.03,8.22,0.21,0.01,-0.29,1721206983473
-3.22,0.27,2.57,0.01,0.06,-0.16,1721206983483
-1.51,-4.14,7.52,-0.19,0.17,0.06,1721206983493
-0.97,-2.88,17.87,0.02,0.04,0.17,1721206983503
2.78,0.51,11.85,0.19,0.25,0.10,1721206983513
2.12,0.92,7.15,0.02,0.17,-0.23,1721206983523
-3.52,-2.75,9.08,-0.11,-0.04,-0.19,1721206983533
-5.72,-2.14,9.96,0.03,0.08,0.23,1721206983543
-1.48,-1.16,11.58,0.00,0.31,0.46,1721206983553
2.76,0.11,10.75,0.06,0.14,0.45,1721206983563
3.45,-0.85,8.86,-0.03,0.09,0.19,1721206983573
0.51,1.96,12.11,0.06,0.10,-0.05,1721206983583
-1.90,0.08,9.69,0.00,0.16,0.06,1721206983593
-2.93,-1.77,11.95,-0.02,0.17,0.47,1721206983603
0.20,1.26,10.09,0.06,0.15,0.69,1721206983613
4.54,4.03,8.16,-0.03,0.22,0.44,1721206983623
6.35,2.42,10.94,-0.09,0.21,0.18,1721206983633
4.51,1.66,11.43,-0.07,0.15,-0.05,1721206983643
0.60,0.99,8.63,-0.07,0.13,-0.20,1721206983653
-3.34,0.97,9.65,-0.10,0.19,-0.11,1721206983663
-4.67,-0.49,10.85,-0.10,0.17,0.13,1721206983673
-4.83,1.25,11.26,-0.05,0.11,0.29,1721206983683
-2.62,-0.51,8.75,-0.10,0.16,0.33,1721206983693
-1.41,-2.10,10.03,-0.17,0.06,0.33,1721206983703
-1.97,-2.61,10.14,-0.14,0.04,0.29,1721206983713
-1.02,-1.38,13.18,-0.10,0.15,0.27,1721206983723
0.94,-2.88,10.35,-0.11,0.01,0.39,1721206983733
0.79,-4.20,9.86,-0.13,0.01,0.31,1721206983743
1.04,-1.70,8.94,-0.09,0.06,0.24,1721206983753
2.43,-1.76,12.45,-0.16,0.16,0.24,1721206983763
2.33,-3.11,10.38,-0.17,0.03,0.24,1721206983773
1.17,-0.26,10.91,-0.17,0.14,0.22,1721206983783
-0.26,-2.82,9.62,-0.16,0.03,0.15,1721206983793
-2.54,-0.98,9.60,-0.17,0.07,0.22,1721206983803
-1.27,-1.78,10.70,-0.15,0.13,0.32,1721206983813
-0.93,1.41,10.26,-0.08,-0.05,0.46,1721206983823
0.58,2.01,6.72,-0.08,0.01,0.50,1721206983833
-0.71,-2.60,10.97,-0.19,-0.04,0.34,1721206983843
-1.70,1.50,16.46,-0.04,0.06,0.27,1721206983853
-3.28,-2.85,7.69,0.03,-0.16,0.37,1721206983863
-3.21,0.79,12.32,-0.12,0.31,0.41,1721206983873
1.49,-1.24,14.07,0.10,-0.02,0.52,1721206983883
-1.81,-0.67,9.46,0.09,-0.25,0.45,1721206983893
0.55,2.96,7.82,0.21,0.10,0.25,1721206983903
0.48,-5.06,9.61,0.16,-0.22,0.28,1721206983913
-2.53,0.74,10.68,0.17,-0.07,0.35,1721206983923
-2.14,-2.45,8.75,0.27,-0.15,0.56,1721206983933
-1.15,-0.25,11.42,0.09,0.04,0.56,1721206983943
1.02,-3.13,11.75,0.12,-0.13,0.55,1721206983953
-0.34,-1.20,9.97,0.07,-0.11,0.48,1721206983963
0.66,-3.55,7.90,0.05,-0.08,0.32,1721206983973
1.54,-1.73,11.07,0.05,-0.12,0.38,1721206983983
2.72,-1.69,10.23,0.03,-0.05,0.42,1721206983993
1.56,-2.58,11.60,0.07,-0.17,0.29,1721206984003
0.45,-0.29,10.28,-0.01,-0.08,0.21,1721206984013
0.43,-2.53,9.72,-0.00,-0.15,0.33,1721206984023
0.04,0.57,13.45,0.03,-0.06,0.36,1721206984033
1.08,-1.38,10.06,0.09,-0.13,0.34,1721206984043
0.96,-0.09,10.30,0.09,-0.10,0.28,1721206984053
1.53,1.63,11.47,0.07,0.05,0.11,1721206984063
0.94,3.78,10.02,0.22,-0.09,0.06,1721206984073
0.98,0.10,7.20,-0.05,0.04,0.05,1721206984083
0.58,-0.04,13.37,0.04,-0.06,0.06,1721206984093
1.11,2.32,8.81,0.08,-0.03,-0.07,1721206984103
-0.72,3.88,7.82,0.05,-0.13,-0.22,1721206984113
-3.06,2.11,10.93,0.00,-0.07,-0.13,1721206984123
-3.32,2.21,9.29,0.07,-0.05,0.10,1721206984133
-0.79,0.48,8.90,-0.10,0.04,0.22,1721206984143
0.89,3.65,10.75,0.06,-0.06,0.09,1721206984153
1.17,0.42,4.24,-0.11,-0.05,-0.09,1721206984163
-0.77,-0.50,12.89,-0.12,0.01,-0.08,1721206984173
-0.99,-2.91,11.39,-0.04,-0.05,0.04,1721206984183
-0.61,-4.20,9.29,-0.10,-0.06,0.02,1721206984193
0.08,1.30,14.94,0.01,0.03,-0.05,1721206984203
1.43,-3.54,6.60,-0.06,-0.12,0.10,1721206984213
-0.77,-1.42,9.15,-0.09,-0.00,0.03,1721206984223
-0.74,1.24,10.19,-0.08,0.08,-0.23,1721206984233
-1.55,-4.70,10.47,-0.11,-0.12,-0.17,1721206984243
-3.35,-6.44,11.32,-0.12,-0.09,0.16,1721206984253
-2.15,-1.28,7.25,-0.14,0.05,0.33,1721206984263
-1.01,-0.78,7.74,-0.15,-0.17,0.20,1721206984273
3.57,0.70,14.28,-0.10,0.13,0.02,1721206984283
4.81,-0.92,11.40,-0.10,0.01,0.02,1721206984293
-0.85,0.70,8.22,-0.27,-0.07,-0.20,1721206984303
0.76,-2.74,13.96,-0.24,0.10,-0.18,1721206984313
1.67,-2.83,12.19,-0.12,0.03,0.02,1721206984323
-0.99,-0.51,7.90,-0.10,-0.05,-0.06,1721206984333
1.90,-3.87,12.79,-0.09,0.22,-0.08,1721206984343
0.59,-3.05,8.77,0.04,-0.02,-0.12,1721206984353
-3.09,-4.09,10.36,0.02,-0.01,-0.09,1721206984363
-1.80,-0.39,15.48,0.18,0.13,-0.05,1721206984373
1.30,-1.49,9.14,0.24,-0.04,0.25,1721206984383
1.43,0.61,10.28,0.12,0.15,0.19,1721206984393
1.23,-2.28,12.45,0.04,0.17,-0.15,1721206984403
1.49,-1.63,11.79,0.13,0.07,-0.18,1721206984413
-1.22,-1.21,9.44,0.17,0.04,0.13,1721206984423
-1.30,3.53,11.91,0.26,0.27,0.16,1721206984433
2.13,-1.26,7.95,0.08,0.14,0.11,1721206984443
0.76,0.96,10.97,0.11,0.14,0.01,1721206984453
-1.14,-1.39,8.40,0.09,0.12,-0.07,1721206984463
-1.74,1.00,9.67,0.16,0.16,0.07,1721206984473
-0.48,-0.79,8.24,0.15,0.15,0.30,1721206984483
1.37,-2.00,12.28,0.04,0.26,0.26,1721206984493
1.41,1.90,12.39,0.28,0.02,0.10,1721206984503
2.37,3.68,8.54,0.12,0.28,0.03,1721206984513
0.18,7.38,9.26,0.18,0.09,-0.03,1721206984523
0.35,-0.92,2.95,-0.18,0.21,0.06,1721206984533
-0.04,-2.30,16.19,-0.19,0.25,0.13,1721206984543
2.56,-1.12,13.42,0.09,0.20,0.10,1721206984553
0.68,2.78,7.40,-0.01,0.14,-0.13,1721206984563
-1.52,-2.55,5.94,-0.05,0.09,-0.21,1721206984573
-3.09,-0.76,9.57,-0.05,0.20,-0.14,1721206984583
-2.60,-0.79,11.53,-0.06,0.22,-0.07,1721206984593
-2.41,-0.40,12.01,-0.02,0.07,-0.01,1721206984603
-2.69,0.14,9.59,-0.09,0.15,0.02,1721206984613
-0.63,-1.19,10.02,-0.06,0.12,0.03,1721206984623
1.33,-2.48,11.21,-0.15,0.18,-0.03,1721206984633
-1.84,0.49,11.56,-0.00,-0.21,0.09,1721206984643
0.89,1.31,6.79,-0.14,0.36,0.01,1721206984653
-0.23,2.53,14.01,-0.02,0.09,-0.07,1721206984663
-1.62,-6.17,3.32,-0.22,-0.09,0.05,1721206984673
-3.81,-2.69,12.19,-0.22,0.19,0.10,1721206984683
0.01,0.30,13.52,0.07,0.12,0.18,1721206984693
-0.60,-0.27,9.93,-0.11,-0.09,0.31,1721206984703
-2.08,-3.84,8.91,-0.11,-0.11,0.26,1721206984713
0.36,-2.05,11.11,-0.08,0.20,0.28,1721206984723
0.09,-1.79,11.20,-0.04,-0.11,0.23,1721206984733
-1.41,-3.91,12.65,0.03,-0.17,0.32,1721206984743
-1.81,-3.77,12.50,0.12,-0.09,0.35,1721206984753
0.84,-3.44,12.90,-0.04,0.11,0.41,1721206984763
-1.93,3.03,11.96,0.15,-0.13,0.29,1721206984773
-1.20,-5.14,3.23,0.03,-0.21,0.36,1721206984783
-3.66,-0.88,11.55,0.05,-0.21,0.45,1721206984793
2.43,-2.11,9.78,0.12,0.08,0.47,1721206984803
1.18,0.02,13.61,0.02,-0.14,0.31,1721206984813
0.04,-2.00,8.94,0.09,-0.26,0.22,1721206984823
-2.13,0.31,9.76,0.11,-0.31,0.23,1721206984833
0.78,7.64,15.03,0.26,0.03,0.22,1721206984843
-0.39,8.15,7.79,0.33,-0.39,0.21,1721206984853
-0.87,1.17,2.47,-0.02,-0.16,0.21,1721206984863
-2.22,2.13,11.22,0.05,-0.28,0.28,1721206984873
0.54,1.48,10.13,0.03,-0.18,0.36,1721206984883
1.79,3.59,10.50,0.20,-0.30,0.36,1721206984893
1.40,2.99,2.41,0.17,-0.37,0.24,1721206984903
1.15,1.79,6.80,-0.07,-0.11,0.04,1721206984913
-0.50,-0.24,12.77,-0.09,-0.28,-0.05,1721206984923
-4.07,-1.32,14.31,-0.06,-0.36,0.09,1721206984933
-5.12,1.62,10.31,0.15,-0.35,0.35,1721206984943
-1.53,2.14,6.77,-0.04,-0.22,0.62,1721206984953
1.39,-2.44,4.28,-0.25,-0.34,0.51,1721206984963
2.88,-4.96,14.75,-0.12,-0.21,0.30,1721206984973
2.42,-6.99,7.74,-0.02,-0.48,0.25,1721206984983
1.67,-0.07,10.32,0.08,-0.26,0.34,1721206984993
5.54,2.88,14.04,-0.01,-0.06,0.21,1721206985003
2.20,0.64,11.26,-0.17,-0.48,-0.18,1721206985013
-2.59,-0.10,11.40,-0.28,-0.33,-0.35,1721206985023
-4.94,-9.91,7.78,-0.23,-0.34,0.12,1721206985033
-4.13,-7.45,11.60,-0.21,-0.23,0.72,1721206985043
3.22,-0.18,12.74,-0.05,-0.01,0.63,1721206985053
5.57,2.59,9.87,-0.11,-0.33,0.04,1721206985063
5.62,2.94,9.90,-0.09,-0.25,-0.21,1721206985073
2.12,-5.92,7.55,-0.24,-0.15,-0.06,1721206985083
-2.33,-3.98,14.93,-0.23,-0.21,0.01,1721206985093
0.86,1.60,10.98,0.03,-0.13,0.02,1721206985103
3.44,-2.50,7.83,-0.08,-0.16,-0.11,1721206985113
1.74,-6.02,11.53,-0.01,-0.16,-0.20,1721206985123
-0.57,-0.53,13.65,-0.07,-0.07,-0.18,1721206985133
-2.38,9.89,19.68,0.26,-0.19,-0.09,1721206985143
0.65,-0.21,8.44,0.19,-0.11,0.08,1721206985153
1.52,3.94,12.73,0.26,-0.05,-0.07,1721206985168
3.13,1.63,4.60,0.38,-0.28,-0.13,1721206985172
3.39,0.92,7.20,0.21,0.15,-0.15,1721206985182
2.15,1.10,14.26,0.40,-0.13,-0.10,1721206985192
1.40,0.67,7.82,0.18,0.06,-0.11,1721206985202
0.23,6.03,15.46,0.15,-0.02,-0.32,1721206985212
1.50,3.76,9.52,0.32,-0.05,-0.18,1721206985222
2.25,3.49,3.33,0.20,0.11,-0.26,1721206985232
1.30,3.00,2.02,0.21,-0.14,-0.10,1721206985242
8.33,-2.52,4.48,-0.11,0.66,-0.39,1721206985252
2.92,1.08,14.32,-0.16,-0.25,-0.86,1721206985262
-8.84,-9.36,17.26,0.12,-0.08,-1.16,1721206985272
-16.94,5.57,16.37,0.43,-0.31,-0.89,1721206985282
-13.62,-11.88,5.54,-0.06,0.04,0.38,1721206985292
-3.31,8.32,4.98,0.06,-0.14,1.43,1721206985302
17.01,-2.21,11.64,-0.35,0.86,0.80,1721206985312
17.32,0.32,14.60,0.24,-0.19,-0.12,1721206985322
17.89,1.80,0.35,0.12,0.21,-1.38,1721206985332
-2.82,3.85,7.01,-0.32,-0.73,-2.13,1721206985342
-14.52,-3.80,14.20,-0.20,-0.12,-1.48,1721206985352
-16.31,-2.39,13.32,0.04,0.16,-0.10,1721206985362
-6.53,0.78,6.11,-0.04,0.22,0.61,1721206985372
3.51,1.09,4.87,-0.13,0.15,0.48,1721206985382
9.77,-2.21,9.86,-0.28,0.33,-0.38,1721206985392
3.04,-1.09,17.15,-0.30,-0.13,-1.02,1721206985402
-3.67,0.98,15.38,-0.05,-0.08,-0.88,1721206985412
-5.80,-1.06,8.16,-0.13,0.19,-0.35,1721206985422
-2.02,0.78,11.68,-0.14,0.15,-0.03,1721206985432
4.48,-0.08,10.17,-0.05,0.16,-0.08,1721206985442
4.70,0.15,9.34,-0.10,0.24,-0.65,1721206985452
-1.26,2.00,8.33,-0.09,0.00,-1.03,1721206985462
-6.01,-2.03,11.17,-0.19,0.26,-0.70,1721206985472
-5.61,-0.10,12.61,0.00,0.17,-0.10,1721206985482
-1.53,4.88,8.30,0.05,0.27,0.04,1721206985492
3.58,2.21,10.50,0.01,0.24,-0.16,1721206985502
3.16,-1.60,8.20,-0.12,0.11,-0.49,1721206985512
-0.22,1.94,13.67,-0.05,0.29,-0.72,1721206985522
-1.74,-1.64,10.31,0.09,0.14,-0.52,1721206985532
-4.46,-0.51,7.92,-0.02,0.20,-0.27,1721206985542
-2.35,-5.76,12.35,-0.16,0.28,-0.19,1721206985552
-0.65,5.54,13.12,0.46,0.03,-0.07,1721206985562
4.85,-6.89,0.19,-0.27,0.42,-0.27,1721206985572
1.35,21.05,23.42,0.43,-0.10,-0.46,1721206985582
-1.61,-12.46,-13.23,-0.12,-0.18,-0.80,1721206985592
-9.28,-8.06,25.16,-0.53,0.72,-0.61,1721206985602
-7.74,-4.18,13.71,0.42,0.32,0.02,1721206985612
1.03,1.79,5.63,-0.23,0.47,0.15,1721206985622
0.84,6.97,13.02,0.19,-0.25,0.03,1721206985632
3.97,-3.71,3.40,-0.09,0.40,-0.23,1721206985642
0.18,1.92,22.53,0.04,0.19,-0.54,1721206985652
-3.76,0.93,6.83,0.12,0.03,-0.53,1721206985662
-6.18,3.00,11.49,0.00,0.17,-0.22,1721206985672
-3.40,-2.18,5.60,0.03,0.11,0.16,1721206985682
-0.65,-3.30,11.35,-0.08,0.21,0.10,1721206985692
1.12,3.06,12.70,0.26,0.05,-0.13,1721206985702
0.20,5.84,8.93,0.03,0.30,-0.34,1721206985712
-4.41,2.36,8.47,-0.00,-0.13,-0.28,1721206985722
-4.08,-6.27,9.10,-0.11,0.14,0.16,1721206985732
-0.69,0.01,18.21,0.21,0.19,0.43,1721206985742
3.59,0.38,5.66,0.18,-0.05,0.25,1721206985752
2.32,6.54,11.35,0.20,0.13,-0.13,1721206985762
2.06,-1.05,3.67,0.18,0.04,-0.25,1721206985772
-4.04,3.15,13.72,-0.02,0.14,-0.26,1721206985782
-2.22,-1.45,12.96,0.17,0.07,0.13,1721206985792
-1.32,7.82,5.46,0.32,0.05,0.37,1721206985802
2.11,-5.30,0.19,-0.41,0.10,0.12,1721206985812
-2.51,1.74,17.44,-0.03,-0.21,0.01,1721206985822
3.81,-4.17,22.38,0.02,0.60,0.13,1721206985832
0.93,5.46,12.15,0.34,-0.46,0.12,1721206985842
-0.75,4.78,-4.58,-0.03,0.19,-0.14,1721206985852
0.54,-1.29,13.70,-0.19,0.22,0.02,1721206985862
-1.07,-0.24,11.83,0.19,-0.19,0.18,1721206985872
-0.48,0.55,2.82,0.05,0.08,0.16,1721206985882
-0.74,0.43,9.76,-0.15,0.04,0.07,1721206985892
-1.72,-0.46,14.35,-0.17,-0.01,0.05,1721206985902
-0.66,-3.23,14.48,-0.10,-0.01,0.22,1721206985912
0.12,-0.24,11.86,0.08,0.02,0.25,1721206985922
0.65,0.96,3.17,0.02,-0.01,0.16,1721206985932
1.48,3.60,9.84,-0.11,0.08,0.12,1721206985942
1.05,-0.91,8.46,-0.26,-0.02,0.07,1721206985952
-0.83,-7.78,15.27,-0.29,-0.09,0.09,1721206985962
-0.86,-3.11,11.83,0.01,-0.06,0.05,1721206985972
0.57,-3.20,8.65,-0.22,-0.02,0.16,1721206985982
-0.50,7.30,15.93,0.05,-0.02,0.16,1721206985992
2.38,0.04,2.57,0.03,-0.02,0.09,1721206986002
-0.80,0.33,2.30,-0.12,-0.16,-0.05,1721206986012
-0.91,-4.79,12.87,-0.28,0.21,-0.08,1721206986022
-0.90,0.83,17.90,-0.08,-0.10,0.13,1721206986032
-0.81,2.62,8.41,-0.04,-0.09,0.22,1721206986042
2.97,0.64,9.54,-0.13,0.08,0.15,1721206986052
4.43,-1.40,11.49,-0.18,-0.02,-0.06,1721206986062
1.82,-3.21,14.42,-0.28,0.06,-0.34,1721206986072
-2.80,-1.95,10.83,0.03,-0.14,-0.30,1721206986082
-1.90,5.09,8.44,0.19,0.15,0.07,1721206986092
0.82,-2.10,3.21,-0.14,0.07,0.16,1721206986102
0.47,2.75,18.31,-0.06,0.01,-0.06,1721206986112
1.25,1.94,16.44,0.14,0.03,-0.13,1721206986122
0.10,-1.20,8.20,0.04,-0.00,-0.20,1721206986132
-1.79,2.49,7.59,0.17,-0.02,-0.08,1721206986142
0.98,0.71,8.03,0.09,0.20,0.11,1721206986152
2.87,-2.56,9.05,0.02,0.03,0.06,1721206986162
2.59,1.12,13.49,0.06,0.07,-0.26,1721206986172
-0.30,0.66,13.73,0.11,0.03,-0.47,1721206986182
-3.72,0.62,8.43,0.12,0.03,-0.15,1721206986192
-2.90,2.88,9.79,0.17,0.14,0.31,1721206986202
1.62,1.01,4.24,0.14,0.18,0.19,1721206986212
2.91,0.64,8.61,0.11,0.09,-0.05,1721206986222
1.64,2.10,9.14,0.05,0.09,-0.23,1721206986232
-0.41,-0.23,10.48,0.02,0.01,-0.18,1721206986242
-0.94,1.38,11.65,0.05,0.16,-0.01,1721206986252
0.55,-0.33,8.44,0.02,0.09,-0.01,1721206986262
-0.23,-1.21,13.18,-0.03,0.08,-0.11,1721206986272
-1.21,-2.56,11.85,-0.01,0.10,-0.15,1721206986282
-1.35,1.46,18.66,0.19,0.14,-0.04,1721206986292
-0.52,4.57,9.81,0.25,0.12,0.02,1721206986302
0.09,5.00,2.15,0.19,0.04,0.02,1721206986312
1.06,-2.05,2.84,-0.20,0.26,-0.07,1721206986322
-0.37,-4.03,14.92,-0.23,0.09,-0.17,1721206986332
-2.55,0.86,9.80,0.15,-0.07,-0.08,1721206986342
-0.79,4.48,11.56,-0.01,0.31,0.05,1721206986352
0.17,2.38,4.83,-0.00,-0.17,0.09,1721206986362
0.95,-3.26,13.03,-0.38,0.24,-0.11,1721206986372
-0.64,0.89,17.24,0.06,-0.06,-0.17,1721206986382
-1.70,0.70,9.50,-0.14,0.02,-0.13,1721206986392
-2.32,1.53,8.96,0.11,-0.07,0.15,1721206986402
1.00,-2.31,1.22,-0.16,0.18,0.12,1721206986412
1.53,2.53,12.26,-0.07,0.04,0.00,1721206986422
2.46,-3.26,5.45,-0.14,0.01,-0.16,1721206986432
-1.55,1.82,10.54,-0.06,-0.02,-0.19,1721206986442
0.93,-3.37,8.08,-0.20,0.19,-0.14,1721206986452
-1.26,0.14,16.41,-0.08,-0.12,-0.03,1721206986462
-0.79,2.23,9.82,-0.07,0.05,-0.06,1721206986472
0.87,-2.82,9.19,-0.21,0.09,-0.05,1721206986482
0.49,-1.85,15.71,-0.24,0.15,-0.12,1721206986492
-1.17,3.51,13.30,0.00,-0.08,-0.13,1721206986502
-0.84,3.81,7.40,0.02,0.12,-0.08,1721206986512
-0.35,-1.44,7.53,-0.09,-0.03,0.11,1721206986522
0.30,-0.59,11.16,-0.06,0.05,0.15,1721206986532
2.85,-1.57,14.53,-0.10,0.15,-0.07,1721206986542
0.91,7.19,14.95,0.22,-0.09,-0.20,1721206986552
-0.56,-0.53,2.45,0.14,0.03,-0.24,1721206986562
-3.77,-1.12,4.90,0.12,-0.06,-0.12,1721206986572
-1.18,0.84,11.80,0.19,0.31,0.03,1721206986582
1.45,2.60,16.96,0.21,0.17,0.03,1721206986592
-1.54,5.18,7.80,0.30,-0.16,-0.05,1721206986602
-0.39,1.32,11.36,0.04,0.24,-0.05,1721206986612
-1.16,0.27,12.39,0.21,-0.12,0.08,1721206986622
0.46,-3.95,6.16,0.10,0.13,0.03,1721206986632
-0.34,-4.29,7.68,0.12,-0.05,0.03,1721206986642
-0.61,0.44,7.53,0.15,0.07,-0.03,1721206986652
0.79,0.33,9.15,0.18,0.05,-0.02,1721206986662
-0.81,0.61,10.42,0.12,0.01,-0.02,1721206986672
-0.74,1.85,10.05,0.11,0.03,-0.03,1721206986682
0.35,-5.36,8.43,-0.05,0.04,-0.01,1721206986692
-0.33,-1.39,14.37,0.04,0.07,-0.10,1721206986702
0.40,-1.03,6.87,0.11,-0.02,-0.10,1721206986712
-1.54,1.29,13.14,0.07,0.10,-0.14,1721206986722
-0.60,-0.71,7.99,0.11,0.00,-0.07,1721206986732
-2.03,2.50,11.48,0.02,-0.02,-0.02,1721206986742
0.07,2.18,10.43,-0.04,0.14,-0.12,1721206986752
0.13,-4.59,11.84,-0.11,-0.00,-0.16,1721206986762
-1.92,2.30,14.24,0.08,-0.06,-0.08,1721206986772
-0.91,3.83,10.56,0.08,0.04,-0.06,1721206986782
-1.03,1.46,6.93,-0.01,-0.06,0.04,1721206986792
1.36,-5.26,10.40,-0.12,0.17,-0.05,1721206986802
-0.41,1.52,12.41,0.15,-0.19,-0.08,1721206986812
1.00,10.44,9.28,0.22,0.22,-0.14,1721206986822
1.12,3.01,2.65,-0.03,-0.15,-0.11,1721206986832
-1.75,-6.50,17.29,-0.41,0.03,-0.19,1721206986842
-1.64,1.23,23.44,0.39,0.00,-0.08,1721206986852
2.10,6.84,5.01,0.18,0.16,-0.04,1721206986862
-0.67,7.96,-1.11,0.20,-0.36,0.06,1721206986872
1.13,-4.48,-0.77,-0.22,0.38,-0.14,1721206986882
1.12,2.52,10.98,0.17,-0.01,-0.16,1721206986892
-0.10,-1.54,6.22,-0.43,0.26,-0.25,1721206986902
-2.93,0.26,27.12,0.02,-0.17,0.01,1721206986912
-0.56,-2.25,0.08,0.24,0.01,0.23,1721206986922
1.14,5.94,11.63,-0.08,0.32,-0.11,1721206986932
1.15,0.12,5.32,0.00,-0.07,-0.27,1721206986942
-2.17,-3.00,12.26,-0.33,0.04,-0.14,1721206986952
-2.80,-3.49,11.99,-0.07,0.08,-0.04,1721206986962
-2.14,-5.64,9.27,-0.23,0.01,0.06,1721206986972
-0.51,1.90,10.55,0.12,-0.02,0.03,1721206986982
2.79,-1.73,8.12,-0.22,0.21,-0.04,1721206986992
-0.98,4.39,16.22,-0.06,-0.18,-0.07,1721206987002
-0.12,-5.53,13.71,-0.25,0.20,-0.26,1721206987012
-2.44,1.87,11.49,0.14,-0.17,-0.12,1721206987022
-0.99,3.27,-2.26,-0.10,0.18,0.07,1721206987032
-0.35,-1.21,8.59,-0.25,0.02,0.04,1721206987042
0.09,-5.72,13.60,-0.28,0.10,-0.12,1721206987052
-0.40,2.65,18.73,-0.06,0.02,-0.16,1721206987062
-0.10,0.79,4.80,-0.04,-0.09,0.01,1721206987072
-0.81,0.87,8.66,-0.21,0.12,-0.04,1721206987082
0.20,-0.45,12.73,-0.10,0.12,-0.18,1721206987092
-1.95,7.20,14.66,0.19,-0.06,-0.06,1721206987102
-2.14,-7.44,2.80,-0.27,0.02,0.08,1721206987112
-2.59,3.24,17.37,-0.00,0.01,0.03,1721206987122
2.88,-2.95,5.66,0.05,0.09,0.13,1721206987132
0.12,5.17,11.83,0.20,-0.04,0.07,1721206987142
1.73,-1.17,5.01,0.17,0.20,-0.02,1721206987152
0.26,0.53,16.98,-0.01,0.06,-0.17,1721206987162
-1.30,-2.29,10.22,0.05,-0.00,0.10,1721206987177
-0.49,1.96,12.98,0.05,0.19,0.17,1721206987181
0.99,2.58,6.12,0.40,-0.09,0.20,1721206987191
3.19,1.89,3.63,0.25,0.26,0.11,1721206987201
1.74,-1.06,5.19,0.05,0.01,-0.23,1721206987211
-2.47,-1.69,19.65,-0.11,-0.03,-0.20,1721206987221
-2.58,6.33,17.31,0.33,-0.01,0.13,1721206987231
2.08,-6.51,1.76,0.03,0.17,0.30,1721206987241
0.60,-2.72,7.59,-0.00,-0.06,0.11,1721206987251
0.69,-0.03,12.43,0.12,0.13,-0.20,1721206987261
-1.19,7.42,15.12,0.45,-0.06,-0.04,1721206987271
-0.43,2.33,2.13,0.21,0.07,0.25,1721206987281
0.72,3.90,11.05,0.07,0.12,0.14,1721206987291
2.20,-2.89,16.65,0.06,0.13,-0.01,1721206987301
-1.37,4.03,8.01,0.18,-0.13,-0.06,1721206987311
-0.98,-4.22,6.63,-0.09,0.16,0.04,1721206987321
-0.04,-0.82,16.87,0.19,0.11,0.10,1721206987331
0.47,0.22,4.50,0.25,-0.03,0.08,1721206987341
-0.37,4.96,8.84,0.16,0.07,0.05,1721206987351
-0.52,0.92,8.89,0.01,0.13,0.04,1721206987361
-1.78,-2.05,8.64,0.02,-0.08,0.19,1721206987371
0.13,-1.27,11.24,-0.07,0.13,0.25,1721206987381
2.21,1.74,17.95,0.05,0.04,0.08,1721206987391
1.79,-0.36,7.07,0.13,-0.15,0.06,1721206987401
0.00,3.63,6.17,-0.03,0.13,-0.14,1721206987411
-0.98,-2.66,5.18,-0.12,-0.04,-0.05,1721206987421
-2.83,0.70,16.50,-0.10,-0.02,0.11,1721206987431
-0.32,0.48,11.01,0.02,0.00,0.26,1721206987441
2.20,-0.06,20.38,-0.09,0.15,0.17,1721206987451
2.46,-1.81,3.49,0.14,-0.29,0.11,1721206987461
3.17,3.81,5.97,0.04,0.37,-0.12,1721206987471
4.29,-3.18,-1.38,-0.08,-0.15,-0.18,1721206987481
-2.44,-1.23,8.82,-0.22,-0.10,-0.28,1721206987491
-3.75,3.09,18.53,0.21,0.07,-0.15,1721206987501
-2.21,0.09,10.68,-0.13,0.09,0.15,1721206987511
-1.39,3.17,14.97,-0.16,-0.11,0.34,1721206987521
3.42,-8.98,10.27,-0.45,0.14,0.17,1721206987531
2.90,1.47,16.43,0.10,-0.08,-0.17,1721206987541
2.40,-1.25,3.19,0.07,0.08,-0.36,1721206987551
-4.76,7.26,11.54,0.05,-0.20,-0.24,1721206987561
-5.37,7.26,9.02,0.11,0.04,0.09,1721206987571
-0.49,0.97,12.19,-0.20,0.12,0.40,1721206987581
3.40,-2.17,9.42,-0.17,-0.02,0.33,1721206987591
5.12,-4.25,7.98,-0.20,-0.00,0.06,1721206987601
3.43,-5.94,10.28,-0.20,0.01,-0.35,1721206987611
-1.49,-0.13,11.12,0.20,-0.09,-0.48,1721206987621
-4.96,5.46,11.94,0.11,0.10,-0.15,1721206987631
-5.86,12.52,12.61,0.25,-0.08,0.22,1721206987641
-0.82,-8.92,6.59,-0.29,0.07,0.41,1721206987651
1.54,0.25,12.68,0.01,-0.04,0.31,1721206987661
7.76,-3.08,6.28,0.07,0.03,-0.11,1721206987671
-0.27,-0.42,11.12,0.09,-0.16,-0.36,1721206987681
-3.50,0.45,4.09,0.22,-0.04,-0.25,1721206987691
-2.38,0.98,6.90,0.07,0.10,0.08,1721206987701
-1.49,3.94,10.22,0.04,0.02,0.17,1721206987711
1.30,-1.70,7.83,-0.10,-0.05,0.05,1721206987721
-0.38,-8.11,12.74,-0.38,-0.10,-0.11,1721206987731
-0.70,-0.42,22.39,0.13,0.10,-0.23,1721206987741
-0.20,5.27,6.58,0.30,-0.09,-0.03,1721206987751
-1.43,1.42,-0.42,-0.25,-0.11,0.00,1721206987761
-0.79,-4.65,14.54,-0.19,0.06,-0.01,1721206987771
0.99,-3.71,14.65,-0.06,0.09,-0.18,1721206987781
-0.98,2.25,9.28,-0.01,-0.20,-0.15,1721206987791
-0.48,2.15,13.90,-0.08,0.08,-0.09,1721206987801
0.89,8.43,26.36,0.19,0.15,-0.19,1721206987811
-0.35,5.03,6.03,0.40,-0.40,-0.04,1721206987821
1.44,4.14,5.48,0.11,0.41,-0.11,1721206987831
2.59,1.16,3.58,0.04,-0.32,-0.24,1721206987841
-2.55,1.52,10.88,-0.12,-0.10,-0.26,1721206987851
-1.28,3.28,16.00,0.30,0.13,-0.21,1721206987861
1.03,-2.52,6.09,0.13,0.13,-0.13,1721206987871
-1.11,2.28,9.36,0.06,-0.10,-0.19,1721206987881
-0.11,-0.04,10.86,0.12,0.05,-0.19,1721206987891
-0.72,6.61,9.96,0.48,0.07,-0.17,1721206987901
2.76,4.39,3.20,0.31,0.18,-0.09,1721206987911
-0.13,4.53,-0.37,-0.00,-0.16,-0.14,1721206987921
-0.97,-2.80,14.55,-0.50,0.35,-0.36,1721206987931
-1.66,-4.12,24.92,-0.03,-0.03,-0.41,1721206987941
-3.56,-1.20,6.46,0.18,-0.20,-0.15,1721206987951
-2.46,-3.93,2.53,-0.17,0.18,0.06,1721206987961
-1.25,0.21,13.00,-0.07,0.05,0.04,1721206987971
0.33,2.56,14.14,0.10,0.06,-0.18,1721206987981
-0.96,-0.53,4.98,-0.02,-0.12,-0.21,1721206987991
-2.13,0.07,6.10,-0.04,-0.04,-0.04,1721206988001
-1.26,2.16,10.06,-0.12,0.22,-0.06,1721206988011
-2.57,1.13,6.04,-0.10,-0.13,-0.04,1721206988021
-1.26,-7.35,10.51,-0.43,0.10,0.11,1721206988031
0.36,-6.43,23.29,-0.16,0.07,0.13,1721206988041
1.06,0.54,13.05,0.12,-0.14,0.00,1721206988051
1.17,4.63,5.56,0.03,-0.06,-0.12,1721206988061
0.52,-0.04,10.87,-0.22,0.20,-0.08,1721206988071
-1.62,10.13,19.28,0.18,-0.15,0.01,1721206988081
-1.00,0.14,2.18,-0.09,-0.03,-0.04,1721206988091
-3.11,0.28,3.62,-0.05,-0.12,0.03,1721206988101
-0.63,-5.94,3.22,-0.11,0.10,0.13,1721206988111
-0.13,-5.72,9.18,-0.08,-0.04,0.28,1721206988121
1.94,-0.35,12.35,0.06,-0.00,0.13,1721206988131
1.88,6.86,23.27,0.10,0.02,-0.15,1721206988141
-0.04,3.11,18.74,-0.01,-0.24,-0.10,1721206988151
-1.57,9.00,12.10,0.29,-0.12,0.07,1721206988161
0.99,-8.83,-2.75,-0.03,0.15,0.01,1721206988171
-0.75,-0.51,9.39,0.19,-0.24,0.09,1721206988181
0.06,-5.74,3.02,0.03,-0.02,0.16,1721206988191
2.75,0.57,15.82,0.18,0.07,0.11,1721206988201
3.91,0.72,6.84,0.18,-0.05,-0.07,1721206988211
-0.53,7.47,12.80,0.08,-0.11,-0.22,1721206988221
-2.82,-3.32,9.19,0.01,-0.05,-0.15,1721206988231
-4.18,-2.90,15.71,0.02,0.02,0.07,1721206988241
0.25,-3.66,5.99,0.13,-0.05,0.42,1721206988251
3.47,-1.34,0.01,-0.05,0.01,0.33,1721206988261
4.89,4.15,16.73,-0.08,0.25,-0.09,1721206988271
4.66,-1.75,10.40,0.17,-0.22,-0.22,1721206988281
0.11,0.15,10.19,-0.13,0.10,-0.38,1721206988291
-3.58,-0.92,18.19,-0.06,0.03,-0.35,1721206988301
-4.89,2.30,17.65,0.05,-0.02,0.01,1721206988311
-1.55,1.98,4.32,0.29,-0.07,0.43,1721206988321
6.02,3.25,4.05,0.05,0.37,0.19,1721206988331
3.76,-0.38,0.09,-0.08,-0.30,-0.23,1721206988341
-2.14,-0.39,10.16,-0.28,0.14,-0.60,1721206988351
-3.61,-0.33,16.20,0.17,-0.02,-0.30,1721206988361
-4.93,1.87,9.98,0.10,-0.04,0.09,1721206988371
-1.54,4.45,13.30,0.13,0.03,0.31,1721206988381
2.88,1.04,17.81,-0.19,0.12,0.07,1721206988391
1.47,4.10,17.19,0.22,-0.22,-0.09,1721206988401
2.29,6.39,3.39,0.14,0.20,-0.16,1721206988411
0.27,0.96,-1.24,-0.14,-0.18,-0.01,1721206988421
-1.64,-5.67,8.56,-0.46,0.10,-0.22,1721206988431
-0.60,0.15,22.23,0.24,-0.04,-0.12,1721206988441
-0.06,3.95,12.23,0.19,0.02,-0.00,1721206988451
-1.45,7.05,7.78,0.24,-0.18,0.09,1721206988461
1.96,3.17,4.47,-0.14,0.22,-0.03,1721206988471
1.43,-2.88,9.18,-0.08,-0.14,-0.08,1721206988481
-0.35,1.92,12.99,0.02,-0.04,-0.24,1721206988491
-0.40,1.41,10.87,0.16,0.01,-0.18,1721206988501
-0.83,-0.01,10.89,-0.07,0.03,-0.19,1721206988511
-2.15,0.54,10.65,0.20,-0.16,-0.12,1721206988521
-1.71,2.09,6.00,0.03,0.12,-0.14,1721206988531
-1.76,3.57,7.44,0.21,-0.15,-0.05,1721206988541
-1.00,-0.08,8.01,-0.10,0.07,-0.06,1721206988551
-0.80,3.09,13.59,0.20,-0.13,0.02,1721206988561
1.12,7.61,7.42,0.12,0.07,0.07,1721206988571
1.98,2.11,0.97,-0.20,-0.15,0.02,1721206988581
0.12,-4.61,13.23,-0.39,-0.01,-0.15,1721206988591
0.30,-3.30,18.92,0.18,-0.10,-0.08,1721206988601
0.99,-0.45,10.30,0.23,0.03,0.09,1721206988611
1.54,7.33,10.72,0.15,-0.04,0.07,1721206988621
2.16,-1.57,15.69,-0.14,0.10,-0.14,1721206988631
-0.06,-1.05,17.03,0.34,-0.15,-0.06,1721206988641
1.77,2.30,5.90,0.21,0.25,0.02,1721206988651
2.06,6.91,1.25,0.18,-0.06,0.00,1721206988661
2.65,1.83,1.70,-0.13,0.09,-0.16,1721206988671
1.56,-1.84,16.16,-0.07,0.16,-0.34,1721206988681
-0.60,1.84,13.93,0.18,-0.01,-0.38,1721206988691
-2.84,2.07,9.91,0.01,0.02,-0.19,1721206988701
-3.12,1.18,8.13,-0.08,0.06,-0.11,1721206988711
-2.11,-2.66,12.59,-0.09,0.18,-0.13,1721206988721
-0.51,-3.96,10.92,0.11,-0.01,0.06,1721206988731
2.04,2.68,9.66,0.16,0.10,0.10,1721206988741
3.32,8.40,5.11,0.06,0.11,-0.25,1721206988751
-0.28,1.99,5.83,-0.21,-0.08,-0.44,1721206988761
-3.76,-6.34,11.91,-0.36,-0.01,-0.10,1721206988771
-0.35,-4.87,23.79,0.04,0.20,0.23,1721206988781
4.34,4.60,11.55,0.24,0.04,0.04,1721206988791
4.64,7.83,1.88,-0.07,0.06,-0.36,1721206988801
2.46,-4.09,5.92,-0.45,0.24,-0.62,1721206988811
-2.86,-5.45,21.03,-0.03,0.01,-0.47,1721206988821
-4.63,1.22,8.62,0.20,0.04,-0.16,1721206988831
-2.04,5.05,6.96,0.03,0.20,0.01,1721206988841
1.55,-0.20,2.69,-0.21,0.12,-0.06,1721206988851
1.15,-4.33,12.84,-0.22,0.14,-0.26,1721206988861
0.23,-2.12,13.80,0.05,0.17,-0.35,1721206988871
-1.70,4.11,11.40,0.13,0.08,-0.39,1721206988881
-2.66,1.78,7.06,-0.20,0.13,-0.23,1721206988891
-2.15,-1.73,17.08,-0.09,0.09,-0.01,1721206988901
3.09,-1.87,10.89,0.03,0.26,-0.01,1721206988911
3.55,0.57,1.55,-0.08,-0.01,-0.27,1721206988921
-1.09,-0.01,12.53,-0.28,0.29,-0.69,1721206988931
-3.26,0.68,19.31,0.24,0.13,-0.59,1721206988941
-2.66,-0.63,3.86,0.10,0.15,-0.12,1721206988951
-2.08,1.42,5.31,-0.24,0.15,0.00,1721206988961
-0.71,0.15,15.50,-0.10,0.29,-0.24,1721206988971
1.57,-2.28,13.99,0.15,0.24,-0.31,1721206988981
-0.44,-1.96,9.79,0.06,0.07,-0.23,1721206988991
-2.16,3.15,17.73,0.15,0.19,-0.20,1721206989001
0.75,8.59,19.16,0.22,0.35,-0.20,1721206989011
1.32,4.99,2.85,0.07,0.05,-0.24,1721206989021
-0.60,0.57,5.61,-0.21,0.43,-0.50,1721206989031
-2.83,-3.00,4.34,-0.14,0.10,-0.52,1721206989041
-5.36,0.68,13.19,0.02,0.08,-0.24,1721206989051
-4.16,3.52,10.30,0.21,0.16,-0.01,1721206989061
-3.24,2.51,9.37,-0.12,0.23,-0.15,1721206989071
-5.02,-2.49,8.08,-0.06,-0.11,-0.02,1721206989081
-3.99,-4.28,7.75,-0.13,0.15,0.26,1721206989091
0.97,1.24,14.05,0.24,0.14,0.37,1721206989101
4.59,0.69,4.92,0.05,0.09,0.07,1721206989111
0.66,6.01,11.37,0.06,-0.05,-0.23,1721206989121
0.56,-1.37,10.99,-0.19,0.23,-0.26,1721206989131
-3.92,-2.83,13.27,-0.05,-0.19,-0.04,1721206989141
-3.16,-6.19,12.52,-0.07,0.11,0.16,1721206989151
-0.56,-0.26,12.41,0.36,-0.07,0.33,1721206989161
3.11,7.31,5.89,0.17,0.26,0.08,1721206989171
-1.31,0.05,6.79,-0.30,0.13,-0.23,1721206989186
-5.49,-2.64,8.62,-0.33,-0.02,-0.13,1721206989190
-5.13,-6.50,13.49,0.03,-0.02,0.36,1721206989200
0.34,0.73,10.89,0.08,0.08,0.70,1721206989210
5.61,3.27,9.89,-0.12,-0.06,0.56,1721206989220
7.16,-5.86,16.32,-0.25,-0.02,0.06,1721206989230
3.74,2.45,24.80,0.38,0.05,-0.32,1721206989240
0.41,5.92,6.02,0.29,-0.03,-0.21,1721206989250
-4.36,8.90,-1.08,-0.20,-0.09,0.16,1721206989260
-0.42,-3.81,10.71,-0.31,0.31,0.30,1721206989270
2.48,-4.61,12.40,0.04,-0.07,0.19,1721206989280
1.69,6.00,9.97,0.21,0.03,-0.09,1721206989290
0.08,8.03,-1.27,0.02,-0.07,-0.18,1721206989300
-4.20,7.16,4.99,-0.25,-0.02,-0.07,1721206989310
-2.20,-3.04,9.68,-0.36,0.12,0.13,1721206989320
-1.42,-8.88,19.06,-0.28,0.00,0.17,1721206989330
-0.66,-0.23,19.48,0.25,-0.10,0.11,1721206989340
2.47,4.08,4.86,0.14,0.04,0.03,1721206989350
1.23,5.78,5.34,0.03,-0.06,-0.06,1721206989360
0.61,-4.00,4.10,-0.27,0.08,-0.16,1721206989370
-1.17,-5.29,17.03,-0.11,-0.04,-0.04,1721206989380
0.12,-0.39,17.02,0.19,0.03,0.10,1721206989390
1.64,6.40,4.63,0.25,-0.01,0.05,1721206989400
2.52,4.78,-0.67,-0.08,0.13,-0.08,1721206989410
2.17,-3.22,9.14,-0.46,0.16,-0.17,1721206989420
-1.27,-4.78,26.21,-0.12,-0.06,-0.14,1721206989430
-1.55,3.78,12.25,0.41,-0.04,0.03,1721206989440
1.67,5.25,-0.70,-0.14,0.23,0.07,1721206989450
0.60,8.06,17.57,-0.41,0.11,-0.03,1721206989460
0.60,4.65,18.35,-0.03,0.01,-0.23,1721206989470
-2.21,-14.41,0.91,-0.38,-0.15,-0.18,1721206989480
-6.45,-9.80,8.90,-0.15,0.18,-0.00,1721206989490
-0.49,-7.75,6.12,0.26,0.12,0.34,1721206989500
4.07,-2.37,11.57,0.45,0.08,0.67,1721206989510
7.43,32.68,22.53,0.87,0.29,0.50,1721206989520
9.47,20.90,4.67,0.14,0.01,0.08,1721206989530
7.72,-18.74,3.42,-1.43,0.30,-0.67,1721206989540
-1.94,-12.49,30.63,-0.02,-0.17,-0.91,1721206989550
-1.26,-7.71,-9.25,0.72,0.01,-0.40,1721206989560
-4.72,17.75,0.29,0.38,0.48,-0.25,1721206989570
-5.37,0.00,8.15,-0.33,0.40,-0.63,1721206989580
-8.25,-4.08,25.62,-0.51,-0.12,-0.58,1721206989590
-10.97,-4.15,18.94,-0.13,0.07,-0.10,1721206989600
-5.67,-2.91,6.67,0.16,0.02,0.62,1721206989610
2.19,6.17,-3.49,0.45,0.19,0.73,1721206989620
9.87,-0.56,0.22,-0.28,0.34,0.14,1721206989630
3.91,-2.20,24.21,-0.56,-0.23,-0.45,1721206989640
1.76,3.99,22.17,0.18,0.09,-0.65,1721206989650
-1.75,3.56,6.57,0.03,0.05,-0.54,1721206989660
-3.72,-2.20,-0.03,-0.14,-0.01,-0.07,1721206989670
0.10,-7.36,25.94,-0.52,0.56,-0.28,1721206989680
1.00,13.26,6.96,0.81,-0.48,0.09,1721206989690
3.90,-11.81,-18.09,-0.55,0.33,-0.32,1721206989700
0.79,17.35,21.49,0.61,0.09,-0.54,1721206989710
-8.04,-23.90,-11.49,0.04,-0.42,-1.16,1721206989720
-13.67,-1.32,20.40,-1.01,0.95,-0.94,1721206989730
1.89,20.85,29.72,-0.09,0.09,0.54,1721206989740
-1.98,-3.52,11.26,-0.19,-0.12,1.22,1721206989750
3.87,13.61,24.99,0.40,0.33,0.58,1721206989760
10.80,1.84,1.58,0.28,-0.31,-0.02,1721206989770
2.89,-2.54,-1.54,-0.68,0.34,-0.75,1721206989780
0.81,7.13,16.41,-0.29,0.00,-1.06,1721206989790
-4.86,0.62,12.09,0.08,-0.04,-0.67,1721206989800
-9.47,1.87,7.24,0.07,0.09,-0.03,1721206989810
-2.89,1.38,12.07,0.08,0.30,0.42,1721206989820
0.79,4.37,12.75,-0.03,0.06,0.26,1721206989830
-0.06,10.02,11.16,0.09,0.01,-0.24,1721206989840
-4.47,2.62,4.41,0.12,-0.21,-0.28,1721206989850
-6.51,-1.94,7.83,-0.04,0.15,0.12,1721206989860
-4.41,0.07,13.52,0.15,-0.07,0.56,1721206989870
0.28,4.43,10.10,0.08,0.05,0.44,1721206989880
1.02,6.81,14.52,0.08,-0.16,0.07,1721206989890
-2.01,2.50,7.76,0.13,-0.33,-0.12,1721206989900
-3.00,-0.97,9.39,0.04,-0.30,0.37,1721206989910
2.90,-8.89,6.91,-0.08,-0.26,0.88,1721206989920
10.62,0.70,8.53,-0.08,0.50,0.21,1721206989930
8.54,5.30,12.08,-0.09,-0.41,-0.72,1721206989940
-6.20,3.28,9.14,0.06,-0.68,-1.40,1721206989950
-18.40,-8.03,-0.02,0.20,-0.28,-1.03,1721206989960
-23.43,-4.50,10.64,-0.18,-0.31,0.75,1721206989970
-12.28,4.57,16.86,0.17,0.06,2.47,1721206989980
8.85,5.08,10.60,0.22,0.41,2.86,1721206989990
21.79,-3.38,3.67,-0.13,0.23,1.94,1721206990000
27.61,-4.62,12.08,-0.48,-0.14,0.02,1721206990010
15.64,-0.88,12.69,-0.28,-0.49,-1.59,1721206990020
1.26,2.49,7.77,-0.06,-1.26,-2.05,1721206990030
-11.85,0.89,5.37,0.31,-0.00,-1.67,1721206990040
-20.57,-6.24,6.78,-0.06,-0.34,-0.01,1721206990050
-17.05,-4.59,15.60,-0.29,0.01,1.45,1721206990060
-0.11,0.03,14.76,-0.15,0.28,1.68,1721206990070
6.67,-0.15,8.26,-0.13,-0.09,1.31,1721206990080
12.00,3.94,10.70,-0.13,0.27,0.48,1721206990090
10.18,-5.00,9.37,-0.21,-0.51,-0.37,1721206990100
2.16,-4.31,9.70,-0.25,-0.28,-0.86,1721206990110
2.97,3.54,14.04,0.09,-0.39,-0.83,1721206990120
-4.48,-5.41,8.07,0.02,-0.33,-0.53,1721206990130
-6.17,2.31,16.58,0.06,-0.04,-0.03,1721206990140
-1.81,-2.02,9.04,0.12,-0.09,0.33,1721206990150
1.78,-3.34,9.48,-0.06,-0.01,0.31,1721206990160
3.81,3.31,14.60,0.20,0.06,0.03,1721206990170
4.04,2.98,5.54,0.35,-0.21,-0.17,1721206990180
2.52,-1.14,3.42,0.22,0.06,-0.23,1721206990190
1.51,0.55,17.03,0.00,0.07,-0.44,1721206990200
-0.36,1.61,17.81,0.08,-0.19,-0.39,1721206990210
-0.43,1.66,11.83,0.01,0.06,-0.20,1721206990220
0.96,-6.03,5.79,0.06,0.07,-0.18,1721206990230
1.46,-1.82,8.81,0.12,0.13,-0.28,1721206990240
1.33,3.24,9.71,0.33,0.05,-0.36,1721206990250
0.57,1.31,8.67,0.10,0.14,-0.42,1721206990260
-0.48,1.65,13.89,0.15,0.09,-0.34,1721206990270
-0.49,0.59,11.04,0.02,0.13,-0.37,1721206990280
-0.60,-3.13,11.59,0.01,0.12,-0.40,1721206990290
-1.42,0.95,13.10,0.09,0.13,-0.39,1721206990300
-1.31,2.54,14.11,0.19,0.21,-0.40,1721206990310
-2.32,1.78,6.62,0.24,0.03,-0.32,1721206990320
-0.79,0.26,5.52,0.11,0.26,-0.20,1721206990330
0.59,0.24,8.92,0.02,0.15,-0.25,1721206990340
0.75,2.35,12.00,0.13,0.10,-0.31,1721206990350
-0.01,4.40,6.30,0.17,0.10,-0.37,1721206990360
-1.64,6.17,9.47,0.05,0.16,-0.46,1721206990370
-3.76,2.10,5.41,-0.07,0.00,-0.31,1721206990380
-3.28,-10.72,8.18,-0.38,0.22,-0.26,1721206990390
-4.59,-3.98,20.33,0.08,-0.04,-0.14,1721206990400
-2.19,8.53,10.58,0.45,0.13,0.07,1721206990410
0.00,7.95,4.84,-0.08,0.14,-0.08,1721206990420
-2.24,-7.23,14.68,-0.60,-0.06,-0.14,1721206990430
-2.59,-7.63,22.07,-0.05,-0.06,0.11,1721206990440
3.46,0.98,3.60,0.39,0.10,0.37,1721206990450
6.85,6.74,-2.76,-0.05,0.17,-0.06,1721206990460
1.27,3.17,5.13,-0.22,-0.09,-0.79,1721206990470
-3.76,-12.11,16.15,-0.58,0.11,-0.72,1721206990480
-8.20,-12.51,24.24,-0.17,-0.08,0.05,1721206990490
-3.06,-2.78,9.18,0.25,0.09,0.52,1721206990500
5.21,6.21,5.10,0.19,0.24,0.34,1721206990510
6.48,10.79,6.28,-0.04,0.02,-0.21,1721206990520
1.86,0.35,14.51,-0.55,-0.04,-0.67,1721206990530
-4.42,-5.84,17.71,-0.38,-0.22,-0.57,1721206990540
-5.04,-4.31,8.15,-0.01,0.08,-0.01,1721206990550
-1.72,-0.09,-0.24,0.12,0.06,0.40,1721206990560
2.08,4.85,4.31,0.19,0.25,0.13,1721206990570
4.61,-0.10,13.58,-0.28,0.11,-0.43,1721206990580
-0.83,0.75,27.69,-0.43,-0.17,-0.74,1721206990590
-5.73,3.16,15.98,0.05,-0.12,-0.53,1721206990600
-5.43,-2.02,-4.72,0.10,0.08,0.12,1721206990610
-2.92,-5.91,-1.22,0.05,0.10,0.36,1721206990620
1.64,-2.05,11.42,0.02,0.23,-0.02,1721206990630
6.01,7.22,26.92,0.18,0.04,-0.43,1721206990640
-0.78,3.23,5.63,-0.03,-0.31,-0.63,1721206990650
-7.51,-1.95,4.67,-0.19,0.11,-0.51,1721206990660
-7.89,-8.68,11.05,-0.12,-0.08,0.05,1721206990670
-3.05,-13.08,11.11,0.01,-0.01,0.50,1721206990680
3.73,5.24,15.54,0.38,0.31,0.34,1721206990690
4.74,11.04,3.64,0.25,-0.31,0.01,1721206990700
-0.09,9.41,2.13,-0.09,-0.03,-0.44,1721206990710
0.50,-5.21,10.91,-0.37,0.06,-0.58,1721206990720
-8.42,-12.60,14.38,-0.37,-0.57,-0.20,1721206990730
-5.64,-1.63,14.74,0.23,0.15,0.26,1721206990740
2.68,0.49,7.03,0.18,0.09,0.50,1721206990750
2.36,8.58,8.69,0.08,-0.08,0.21,1721206990760
5.32,1.91,10.87,-0.05,-0.07,-0.28,1721206990770
-1.40,3.02,14.68,-0.09,-0.20,-0.55,1721206990780
-6.18,-3.30,7.08,0.01,-0.30,-0.31,1721206990790
-7.04,2.15,10.01,0.10,-0.01,0.22,1721206990800
-0.60,4.77,12.39,0.18,-0.02,0.50,1721206990810
0.85,7.54,10.34,0.16,-0.26,0.26,1721206990820
1.91,1.80,10.81,-0.16,-0.13,-0.11,1721206990830
-1.39,-3.18,15.33,-0.11,-0.38,-0.03,1721206990840
-2.70,-0.42,10.58,0.24,-0.11,0.23,1721206990850
0.49,1.47,5.98,0.21,-0.05,0.24,1721206990860
0.94,8.40,9.54,0.30,-0.24,0.18,1721206990870
5.09,6.71,3.86,0.22,-0.06,0.37,1721206990880
5.11,-2.25,0.35,-0.22,-0.23,0.38,1721206990890
5.73,-2.32,16.72,-0.32,0.32,-0.26,1721206990900
3.39,-5.44,22.11,0.05,-0.31,-0.56,1721206990910
-5.51,0.54,8.53,0.24,-0.49,-0.36,1721206990920
-5.49,2.59,6.44,-0.03,0.04,0.11,1721206990930
-1.93,1.36,12.55,-0.23,-0.02,0.33,1721206990940
0.34,0.28,11.30,-0.02,-0.23,0.32,1721206990950
4.93,-1.95,7.32,-0.05,0.02,0.22,1721206990960
2.83,1.70,5.17,0.05,-0.31,0.07,1721206990970
4.24,-0.25,7.38,-0.21,0.24,-0.14,1721206990980
1.87,1.30,15.63,-0.04,-0.21,-0.24,1721206990990
-1.67,-2.51,6.16,-0.05,-0.17,-0.32,1721206991000
-1.90,-3.03,10.70,-0.16,-0.06,-0.23,1721206991010
-2.04,-0.24,11.79,-0.17,-0.07,-0.09,1721206991020
-1.89,1.00,12.31,-0.15,-0.07,-0.09,1721206991030
-1.47,-0.38,13.18,-0.20,-0.13,-0.08,1721206991040
-0.41,4.60,11.14,-0.10,-0.09,-0.04,1721206991050
0.68,-3.27,5.63,-0.20,-0.11,-0.04,1721206991060
0.73,-1.26,9.42,-0.12,-0.07,-0.14,1721206991070
1.03,-5.33,7.76,0.03,-0.11,-0.15,1721206991080
0.43,-0.66,9.20,0.05,-0.05,-0.21,1721206991090
-0.30,0.26,16.12,-0.13,-0.14,-0.20,1721206991100
-1.17,12.28,19.04,0.02,-0.16,-0.21,1721206991110
-1.02,4.02,7.61,0.12,-0.18,-0.17,1721206991120
-0.25,-7.60,3.01,-0.11,-0.04,-0.05,1721206991130
0.60,-7.27,11.44,0.03,0.07,-0.03,1721206991140
1.91,-2.79,10.16,0.29,-0.04,-0.20,1721206991150
1.42,3.53,8.39,0.37,-0.07,-0.23,1721206991160
2.32,4.41,9.02,0.20,0.08,-0.34,1721206991170
-0.10,1.09,15.60,0.01,-0.10,-0.33,1721206991180
-0.12,-6.48,8.36,0.01,-0.00,-0.25,1721206991195
0.86,-6.64,7.21,0.09,0.06,-0.21,1721206991199
1.84,-3.33,7.24,0.17,0.12,-0.29,1721206991209
1.53,5.04,15.66,0.19,0.15,-0.48,1721206991219
0.17,9.64,12.24,0.19,0.01,-0.53,1721206991229
-0.17,-4.77,7.63,-0.22,0.12,-0.42,1721206991239
-1.32,-6.83,14.03,-0.14,0.11,-0.35,1721206991249
0.88,-0.52,14.85,0.11,0.26,-0.42,1721206991259
0.68,8.59,8.20,0.41,0.09,-0.37,1721206991269
0.89,3.91,4.52,0.19,0.30,-0.46,1721206991279
-0.15,-4.54,10.14,-0.00,0.18,-0.56,1721206991289
-2.26,4.01,9.98,0.25,0.15,-0.51,1721206991299
-0.47,-4.21,3.55,0.14,0.31,-0.33,1721206991309
-0.53,2.66,14.44,0.14,0.25,-0.24,1721206991319
1.02,8.40,14.87,0.15,0.27,-0.40,1721206991329
0.96,-2.47,10.55,-0.29,0.20,-0.45,1721206991339
-1.48,-3.80,14.75,-0.18,0.16,-0.44,1721206991349
-0.51,4.11,5.73,0.23,0.32,-0.39,1721206991359
-0.07,4.10,1.94,0.13,0.29,-0.37,1721206991369
-3.04,6.46,9.12,0.10,0.13,-0.44,1721206991379
-3.34,-4.36,10.35,-0.37,0.25,-0.42,1721206991389
-4.28,-4.70,18.92,-0.18,0.11,-0.20,1721206991399
0.48,-2.49,6.59,0.11,0.25,0.14,1721206991409
3.73,4.93,4.36,0.29,0.33,0.00,1721206991419
3.46,3.93,6.80,0.00,0.23,-0.54,1721206991429
-2.96,-0.61,18.08,-0.28,0.01,-0.71,1721206991439
-5.98,-3.87,15.63,-0.24,0.18,-0.31,1721206991449
-3.21,-3.34,7.58,-0.08,0.28,0.14,1721206991459
1.90,5.63,7.83,0.10,0.28,0.18,1721206991469
4.92,-2.40,7.02,-0.11,0.16,-0.19,1721206991479
-0.14,-6.05,13.99,-0.28,0.15,-0.68,1721206991489
-3.51,2.84,11.75,-0.01,0.23,-0.64,1721206991499
-4.58,-1.07,4.35,-0.06,0.11,-0.06,1721206991509
-2.18,0.41,7.67,0.15,0.19,0.31,1721206991519
3.97,-3.64,9.97,-0.00,0.47,0.12,1721206991529
4.63,-4.61,19.41,-0.25,0.18,-0.39,1721206991539
-0.71,3.00,14.21,0.07,0.03,-0.61,1721206991549
-2.09,6.91,3.38,0.25,0.39,-0.40,1721206991559
-2.35,-1.09,7.38,0.09,0.24,-0.25,1721206991569
-3.91,-4.94,12.89,0.05,-0.01,-0.08,1721206991579
-0.67,0.24,17.52,0.07,0.57,-0.15,1721206991589
1.67,1.34,9.33,0.21,0.11,-0.20,1721206991599
-0.82,7.15,6.45,0.27,0.34,-0.32,1721206991609
-0.40,-0.63,2.73,0.37,0.13,-0.24,1721206991619
-1.68,-7.75,7.64,0.02,0.39,-0.26,1721206991629
-2.06,-5.89,15.13,0.10,0.11,-0.23,1721206991639
-1.44,1.27,16.00,0.20,0.37,-0.18,1721206991649
-1.17,4.59,6.27,0.32,0.13,-0.10,1721206991659
-0.18,1.44,7.81,-0.02,0.42,-0.15,1721206991669
0.06,-3.50,17.18,-0.17,0.18,-0.24,1721206991679
-2.82,-2.35,13.77,-0.05,0.09,-0.25,1721206991689
-2.60,-1.65,1.42,0.18,0.20,-0.10,1721206991699
1.19,2.23,8.50,0.10,0.54,-0.16,1721206991709
1.51,4.17,16.69,0.04,0.10,-0.19,1721206991719
-2.36,2.95,8.03,-0.01,0.08,-0.26,1721206991729
-3.01,-4.16,4.14,-0.14,0.26,-0.26,1721206991739
-0.77,-1.18,11.59,0.05,0.34,-0.06,1721206991749
1.33,1.29,7.91,0.18,0.21,0.01,1721206991759
-0.18,1.99,8.59,0.06,0.30,-0.29,1721206991769
-0.53,1.86,10.10,0.01,0.31,-0.42,1721206991779
-3.34,0.82,9.54,-0.12,0.24,-0.26,1721206991789
-4.15,-2.60,10.07,-0.15,0.20,0.01,1721206991799
-1.47,-0.48,11.94,0.03,0.27,0.23,1721206991809
2.04,3.13,9.20,0.06,0.28,0.18,1721206991819
2.10,4.27,8.92,-0.12,0.20,-0.04,1721206991829
0.06,3.90,10.28,-0.23,0.17,-0.20,1721206991839
-2.16,0.83,10.30,-0.23,0.24,-0.22,1721206991849
-4.46,-5.05,7.38,-0.18,0.13,0.06,1721206991859
-3.51,-0.98,9.61,-0.07,0.27,0.42,1721206991869
1.10,4.02,11.94,-0.07,0.34,0.47,1721206991879
2.23,6.33,14.35,-0.23,0.21,0.22,1721206991889
0.84,1.48,10.73,-0.21,0.06,-0.02,1721206991899
-0.79,-4.97,8.88,-0.24,0.10,0.13,1721206991909
-1.87,-0.59,11.84,-0.05,0.16,0.28,1721206991919
-0.36,-0.79,9.85,-0.06,0.20,0.29,1721206991929
-0.08,3.65,12.00,0.00,0.18,0.28,1721206991939
-0.25,3.42,10.17,0.02,0.10,0.15,1721206991949
-1.88,-0.37,10.10,-0.16,0.07,0.26,1721206991959
-1.65,1.35,12.13,0.04,0.09,0.39,1721206991969
0.52,-5.67,7.30,0.01,0.13,0.46,1721206991979
1.14,-1.85,12.29,0.07,0.15,0.46,1721206991989
1.48,7.45,12.21,0.17,0.10,0.32,1721206991999
1.04,2.09,9.52,-0.01,0.00,0.24,1721206992009
-1.51,-3.00,11.21,-0.09,-0.05,0.21,1721206992019
-0.84,-3.24,8.36,0.09,0.06,0.42,1721206992029
-0.39,-4.01,8.05,0.05,0.10,0.40,1721206992039
1.19,1.69,12.65,0.11,0.10,0.41,1721206992049
1.90,1.82,10.21,0.07,-0.02,0.28,1721206992059
0.13,1.60,8.64,-0.01,-0.06,0.19,1721206992069
-0.87,-3.36,9.33,-0.05,-0.06,0.24,1721206992079
-2.37,0.48,15.90,-0.11,-0.03,0.38,1721206992089
-1.03,0.42,9.62,0.06,-0.08,0.47,1721206992099
1.07,-1.37,3.81,0.07,0.08,0.40,1721206992109
1.43,-2.67,10.94,-0.03,-0.02,0.31,1721206992119
-1.36,0.65,10.59,0.15,-0.23,0.23,1721206992129
-0.86,-0.14,5.49,0.17,0.02,0.32,1721206992139
0.32,-2.61,10.02,0.02,-0.07,0.47,1721206992149
0.91,-0.73,13.31,-0.02,-0.11,0.45,1721206992159
1.40,3.74,11.32,0.04,-0.13,0.30,1721206992169
2.09,-0.17,6.84,-0.06,-0.08,0.30,1721206992179
3.24,-4.27,10.07,0.01,0.01,0.40,1721206992189
2.93,3.18,10.63,0.12,-0.01,0.20,1721206992199
1.47,-1.11,9.18,-0.05,-0.11,0.08,1721206992209
-0.17,2.03,16.70,-0.09,-0.05,0.12,1721206992219
0.67,3.41,12.40,0.02,-0.03,0.21,1721206992229
1.04,-2.10,7.37,-0.02,-0.04,0.23,1721206992239
-0.05,-4.84,9.86,-0.05,0.04,0.06,1721206992249
-0.09,5.80,15.54,0.33,-0.02,0.16,1721206992259
0.43,14.48,10.59,0.41,-0.01,0.31,1721206992269
1.67,3.14,8.86,0.10,0.04,0.24,1721206992279
1.65,-11.49,12.75,-0.14,-0.05,0.04,1721206992289
-0.65,1.22,14.55,0.24,-0.10,-0.01,1721206992299
1.00,5.97,4.78,0.32,-0.03,0.16,1721206992309
1.26,6.09,11.42,0.23,0.09,0.05,1721206992319
-1.06,2.96,7.79,0.18,-0.17,-0.17,1721206992329
-4.50,-0.32,8.78,-0.03,-0.07,-0.03,1721206992339
-3.59,-3.73,8.71,-0.01,-0.05,0.30,1721206992349
-0.07,-0.31,6.34,0.21,-0.05,0.55,1721206992359
4.03,-2.59,4.65,0.12,0.03,0.30,1721206992369
3.19,2.22,14.94,-0.00,-0.12,-0.13,1721206992379
-2.29,4.62,14.40,-0.04,-0.18,-0.27,1721206992389
-5.97,-0.73,7.76,-0.17,-0.17,0.09,1721206992399
-1.36,-4.78,8.54,-0.29,-0.00,0.59,1721206992409
4.99,-5.27,12.72,-0.09,-0.04,0.49,1721206992419
5.17,1.91,8.83,0.02,-0.17,-0.12,1721206992429
-0.07,4.98,6.69,-0.15,-0.17,-0.55,1721206992439
-5.79,5.00,12.25,-0.23,-0.20,-0.26,1721206992449
-7.35,-4.55,1.22,-0.23,-0.29,0.39,1721206992459
-1.44,-11.03,10.13,-0.42,0.14,0.57,1721206992469
4.06,-6.30,22.74,-0.15,-0.18,0.41,1721206992479
4.28,7.79,11.72,0.04,-0.33,0.26,1721206992489
4.05,12.61,3.67,-0.08,-0.08,-0.04,1721206992499
0.19,2.29,11.53,-0.46,-0.21,-0.32,1721206992509
-3.97,-5.93,17.79,-0.44,-0.36,-0.05,1721206992519
-3.28,-11.76,11.66,-0.26,-0.24,0.37,1721206992529
0.96,-5.97,6.49,0.09,-0.16,0.43,1721206992539
4.90,4.34,8.75,0.24,0.02,0.08,1721206992549
2.31,15.57,12.80,0.37,-0.24,-0.20,1721206992559
-1.58,7.68,7.22,0.26,-0.39,-0.33,1721206992569
-2.67,-11.37,7.26,-0.22,-0.20,-0.09,1721206992579
-1.92,-5.54,17.89,0.00,-0.15,0.29,1721206992589
3.98,5.23,7.99,0.38,-0.08,0.27,1721206992599
6.06,5.74,5.24,0.17,-0.06,-0.15,1721206992609
3.47,-4.66,10.12,-0.18,-0.14,-0.74,1721206992619
-5.02,-2.70,13.83,-0.14,-0.42,-0.81,1721206992629
-5.79,-6.56,7.94,-0.08,-0.04,-0.29,1721206992639
-2.03,-7.35,14.38,-0.01,0.07,0.26,1721206992649
1.64,5.75,15.47,0.19,-0.02,0.19,1721206992659
3.59,17.01,7.26,0.14,-0.11,-0.18,1721206992669
3.40,-5.31,3.39,-0.36,-0.17,-0.62,1721206992679
-1.75,-13.52,15.10,-0.42,0.03,-0.85,1721206992689
-4.18,0.10,13.34,0.22,-0.21,-0.59,1721206992699
-3.31,4.26,4.41,0.24,0.05,-0.09,1721206992709
0.17,-0.96,16.60,-0.01,0.14,0.13,1721206992719
4.16,1.21,12.65,0.10,0.05,-0.10,1721206992729
4.40,10.78,2.26,0.37,0.18,-0.52,1721206992739
4.23,4.51,5.68,0.26,0.07,-0.77,1721206992749
-2.69,-2.56,8.99,0.17,-0.32,-0.60,1721206992759
-2.42,-2.57,10.10,0.10,0.50,-0.47,1721206992769
0.56,1.25,14.28,-0.03,0.25,-0.66,1721206992779
-3.68,3.10,12.53,-0.14,0.02,-0.81,1721206992789
-6.89,4.90,15.52,-0.09,0.12,-0.66,1721206992799
-6.24,-3.65,8.77,-0.18,0.06,-0.23,1721206992809
-4.21,0.42,7.65,-0.10,0.14,0.13,1721206992819
3.32,2.87,10.81,-0.18,0.46,-0.05,1721206992829
2.90,9.59,11.32,0.12,0.02,-0.31,1721206992839
0.94,0.42,-1.36,0.30,0.03,-0.58,1721206992849
-3.76,-13.46,4.86,-0.17,0.16,-0.56,1721206992859
-5.85,0.09,27.24,-0.17,0.21,-0.32,1721206992869
-2.40,13.96,16.72,0.13,0.07,-0.08,1721206992879
-1.69,4.10,-1.82,0.12,0.09,0.06,1721206992889
-2.85,-6.96,7.74,-0.24,0.19,0.01,1721206992899
-2.23,-3.75,17.44,-0.01,0.00,0.13,1721206992909
3.31,-4.26,3.32,0.18,0.25,0.21,1721206992919
2.19,5.45,3.67,0.37,0.11,0.02,1721206992929
1.16,-0.28,6.13,0.18,0.04,-0.04,1721206992939
-3.85,7.11,17.62,-0.09,0.04,-0.20,1721206992949
-2.88,-3.24,9.95,-0.20,0.00,-0.19,1721206992959
-5.67,-11.24,1.51,-0.22,-0.06,0.00,1721206992969
-3.79,-11.68,10.72,-0.12,0.11,0.52,1721206992979
1.93,8.80,17.39,0.25,0.22,0.70,1721206992989
5.37,11.48,8.09,0.11,0.10,0.49,1721206992999
3.91,-5.40,4.17,-0.44,-0.06,-0.09,1721206993009
0.09,-7.87,16.15,-0.53,-0.04,-0.44,1721206993019
-2.84,-3.12,14.21,-0.10,-0.23,-0.13,1721206993029
-2.91,4.38,7.09,0.19,0.07,0.32,1721206993039
1.54,5.78,8.62,0.19,0.25,0.38,1721206993049
2.72,1.62,10.76,-0.10,0.00,0.08,1721206993059
-0.86,-3.42,14.47,-0.33,-0.14,-0.30,1721206993069
-2.57,-2.48,15.08,0.02,-0.18,-0.08,1721206993079
-2.04,-3.65,5.99,0.14,0.04,0.37,1721206993089
0.30,3.27,16.77,-0.01,0.26,0.25,1721206993099
0.76,4.47,9.92,0.22,-0.20,0.22,1721206993109
1.20,-8.04,2.82,-0.12,0.18,-0.09,1721206993119
-3.66,7.97,11.47,0.33,-0.26,0.05,1721206993129
3.05,-14.55,5.63,0.13,0.19,0.53,1721206993139
1.56,11.12,11.97,0.32,0.07,0.42,1721206993672
4.27,13.88,10.01,0.40,0.00,0.36,1721206993676
5.46,5.16,2.43,0.26,-0.08,-0.03,1721206993685
1.86,-7.95,9.70,-0.22,-0.01,-0.50,1721206993695
-4.21,-1.53,19.21,-0.11,-0.28,-0.52,1721206993704
-4.84,5.42,11.09,0.27,-0.02,0.00,1721206993714
-2.93,3.60,5.36,0.17,-0.07,0.50,1721206993723
1.83,4.24,10.01,0.18,0.14,0.46,1721206993733
4.51,0.91,5.01,0.06,-0.02,0.08,1721206993742
2.71,-4.31,12.69,-0.23,0.05,-0.31,1721206993752
-1.58,1.47,14.13,0.20,-0.38,-0.07,1721206993762
-2.22,2.73,3.13,0.22,0.09,0.25,1721206993772
2.31,0.95,9.83,-0.07,0.21,0.18,1721206993781
1.05,1.02,13.86,-0.13,-0.20,-0.11,1721206993791
-0.86,-0.85,10.58,-0.19,-0.04,-0.29,1721206993800
-3.42,0.42,12.69,-0.06,-0.11,-0.07,1721206993810
-3.61,-1.15,6.92,0.07,-0.06,0.31,1721206993819
0.16,-3.60,8.79,-0.08,0.08,0.43,1721206993829
3.78,-1.33,13.18,-0.17,0.07,0.16,1721206993838
3.51,2.20,13.15,-0.08,-0.12,-0.20,1721206993848
-0.24,2.53,7.16,-0.04,-0.16,-0.26,1721206993857
-0.33,-1.37,11.09,-0.13,0.07,-0.01,1721206993867
0.05,-1.46,13.15,-0.13,-0.01,-0.01,1721206993876
0.61,-3.91,10.57,-0.15,-0.03,-0.02,1721206993886
-0.01,-2.62,7.61,-0.08,-0.06,-0.05,1721206993895
0.45,0.07,9.20,0.05,0.08,-0.07,1721206993905
-0.38,5.59,10.66,0.17,-0.00,-0.07,1721206993914
-0.12,2.93,11.22,-0.06,0.10,-0.15,1721206993924
-1.22,-4.87,11.31,-0.21,-0.13,-0.12,1721206993933
-1.44,-2.87,6.91,-0.02,-0.01,-0.07,1721206993943
2.71,-2.57,7.36,0.02,0.20,-0.01,1721206993952
3.66,-0.71,13.55,0.10,-0.01,-0.06,1721206993962
1.96,4.24,12.63,0.16,0.16,-0.30,1721206993971
-0.48,0.43,9.33,-0.12,0.06,-0.42,1721206993981
-4.48,-1.92,13.74,-0.27,-0.03,-0.29,1721206993990
-2.69,-4.39,13.48,-0.03,0.11,0.01,1721206994000
0.49,1.08,10.19,0.15,0.18,0.08,1721206994009
3.48,-0.72,4.68,0.20,0.15,-0.03,1721206994019
3.14,-2.16,10.39,0.02,0.22,-0.31,1721206994028
-1.87,5.09,15.65,0.10,0.02,-0.49,1721206994038
-3.46,6.10,10.50,0.15,0.07,-0.27,1721206994047
-2.59,-2.61,6.62,0.06,0.16,0.16,1721206994057
0.76,-3.84,13.74,0.08,0.30,0.13,1721206994066
2.66,4.15,10.48,0.27,0.11,-0.14,1721206994076
1.48,4.58,3.67,0.16,0.14,-0.23,1721206994085
-0.49,-0.56,10.19,0.04,0.23,-0.35,1721206994095
-2.63,-0.72,10.85,0.20,0.04,-0.19,1721206994104
-2.72,-1.99,10.82,0.08,0.25,-0.00,1721206994114
-1.17,1.81,12.64,0.13,0.10,0.12,1721206994123
0.34,6.49,10.44,0.15,0.17,0.09,1721206994133
1.22,2.10,10.24,0.00,0.17,0.01,1721206994142
-0.84,-1.01,9.66,0.09,0.04,-0.10,1721206994152
-2.26,-4.64,8.18,0.08,0.15,-0.09,1721206994162
-2.77,0.23,11.30,0.11,0.04,0.21,1721206994172
-0.61,5.33,9.20,0.21,0.13,0.37,1721206994181
2.84,2.57,6.79,0.10,0.10,0.39,1721206994191
2.44,-0.12,10.50,-0.07,0.11,0.07,1721206994200
0.39,-0.96,12.14,0.02,-0.03,-0.10,1721206994210
-1.06,2.63,9.34,0.07,0.05,0.05,1721206994220
-1.21,4.08,5.43,0.09,0.02,0.20,1721206994230
-0.11,-2.10,8.94,-0.15,0.07,0.12,1721206994240
-0.55,-3.02,17.00,-0.11,-0.05,0.02,1721206994250
-1.40,-0.52,10.16,0.02,-0.05,0.07,1721206994260
-1.29,1.50,12.68,-0.09,-0.02,0.21,1721206994270
-0.01,0.49,11.00,-0.02,-0.14,0.27,1721206994280
1.62,1.06,8.52,-0.04,0.05,0.08,1721206994290
1.15,3.44,9.55,-0.02,-0.07,-0.11,1721206994300
-0.62,1.89,12.81,-0.21,-0.03,-0.14,1721206994310
-2.13,-9.35,11.45,-0.18,-0.30,0.20,1721206994320
-1.39,-7.04,12.90,0.01,0.00,0.30,1721206994330
2.90,1.59,6.81,0.15,-0.05,0.13,1721206994340
2.31,5.20,7.64,0.02,-0.14,-0.00,1721206994350
3.80,-0.12,12.67,0.06,0.15,-0.21,1721206994360
1.38,-1.06,12.52,0.07,-0.14,-0.22,1721206994370
-2.85,4.91,7.64,0.17,-0.21,0.01,1721206994380
-0.08,0.90,9.57,-0.07,0.11,0.15,1721206994390
2.21,-1.81,11.83,0.01,-0.08,-0.08,1721206994400
2.83,-4.64,5.97,-0.02,-0.01,-0.37,1721206994410
0.58,-4.61,13.92,-0.10,0.17,-0.59,1721206994420
-3.96,10.78,18.90,0.34,-0.14,-0.39,1721206994430
-6.60,2.89,-0.96,0.11,-0.16,-0.06,1721206994440
-3.09,-11.68,4.65,-0.30,0.15,0.15,1721206994450
3.23,-2.14,22.91,0.08,0.26,0.08,1721206994460
4.07,3.93,5.06,0.32,-0.28,-0.24,1721206994470
0.99,1.75,1.62,-0.13,0.15,-0.55,1721206994480
-0.54,-4.64,22.55,-0.28,0.19,-0.64,1721206994490
-3.98,-1.82,13.35,0.08,-0.15,-0.28,1721206994500
-1.98,-4.14,5.75,-0.05,0.17,-0.06,1721206994510
-1.53,7.32,1.54,0.34,-0.23,0.04,1721206994520
4.59,4.55,9.01,-0.07,0.62,-0.20,1721206994530
3.37,3.44,23.98,-0.11,0.04,-0.60,1721206994540
-3.16,-0.10,1.75,0.02,-0.29,-0.58,1721206994550
-3.17,-7.16,4.86,-0.33,0.38,-0.34,1721206994560
-0.78,5.73,22.66,0.03,0.09,-0.02,1721206994570
0.82,6.58,5.29,0.38,-0.06,0.07,1721206994580
4.07,-5.09,2.78,-0.24,0.37,-0.25,1721206994590
-0.16,7.52,21.27,-0.17,-0.11,-0.61,1721206994600
-4.77,14.25,8.10,0.16,-0.01,-0.58,1721206994610
-4.95,-7.56,5.17,-0.18,0.16,-0.29,1721206994620
-5.70,-10.98,11.12,-0.10,0.03,0.07,1721206994630
-2.85,8.53,7.61,0.30,0.20,0.20,1721206994640
4.10,5.02,12.34,-0.10,0.33,0.09,1721206994650
1.18,2.56,18.00,0.10,-0.11,-0.17,1721206994660
-1.70,-6.44,1.94,-0.00,-0.09,-0.27,1721206994670
-3.77,2.34,11.77,0.01,0.05,-0.03,1721206994680
-0.17,10.49,11.13,0.30,0.27,0.25,1721206994690
-0.05,0.34,4.61,-0.02,-0.03,0.13,1721206994700
-2.38,-5.59,9.84,-0.16,-0.08,-0.17,1721206994710
-1.29,-2.37,13.43,0.03,0.15,-0.15,1721206994720
-2.83,-1.93,6.59,-0.11,-0.07,0.08,1721206994730
-3.11,0.86,13.13,-0.10,0.03,0.30,1721206994740
0.49,-1.77,8.77,0.09,-0.04,0.34,1721206994750
2.68,-2.80,10.94,-0.14,0.12,0.14,1721206994760
0.29,3.16,10.70,0.05,-0.21,0.00,1721206994770
0.51,0.41,6.25,-0.13,0.11,0.05,1721206994780
-0.44,-7.56,11.62,-0.17,-0.17,0.23,1721206994790
-0.34,-2.40,20.85,-0.12,0.08,0.26,1721206994800
1.37,11.49,10.10,0.20,-0.13,0.07,1721206994810
2.45,2.24,-0.33,-0.11,-0.05,-0.04,1721206994820
0.49,-5.45,14.78,-0.31,0.04,-0.16,1721206994830
-2.60,-4.42,16.86,0.12,-0.10,0.06,1721206994840
-3.04,4.57,0.34,0.37,-0.04,0.28,1721206994850
3.15,-1.81,4.42,0.02,0.21,0.18,1721206994860
4.10,2.32,18.98,0.01,-0.11,-0.02,1721206994870
-1.53,4.64,14.24,0.04,-0.11,-0.46,1721206994880
-4.28,-7.11,4.42,-0.00,-0.13,-0.21,1721206994890
-4.63,-7.65,9.17,-0.08,-0.07,0.29,1721206994900
1.50,-0.81,16.11,0.14,0.17,0.37,1721206994910
4.98,4.77,15.42,0.22,0.06,0.05,1721206994920
1.37,6.30,5.75,0.13,-0.20,-0.19,1721206994930
-0.94,2.51,7.89,-0.02,0.10,-0.31,1721206994940
-1.30,-4.22,10.09,-0.02,-0.04,-0.18,1721206994950
-0.83,-7.01,6.33,0.04,-0.05,0.16,1721206994960
1.41,5.29,12.27,0.20,0.23,0.20,1721206994970
4.54,2.63,5.55,0.11,-0.02,0.05,1721206994980
0.71,2.21,13.05,-0.14,-0.04,-0.30,1721206994990
-2.01,-3.16,16.92,-0.12,0.01,-0.36,1721206995000
-4.31,0.74,11.21,0.17,-0.08,0.12,1721206995010
0.25,1.84,3.80,0.15,0.21,0.39,1721206995020
4.02,-0.85,8.71,0.09,0.12,0.21,1721206995030
2.90,1.95,13.89,0.05,0.06,-0.30,1721206995040
-0.78,1.21,12.54,0.14,-0.07,-0.23,1721206995050
-2.31,4.17,8.41,0.16,0.07,0.11,1721206995060
1.90,2.87,9.71,0.02,0.16,0.28,1721206995070
4.60,1.51,13.81,0.01,0.11,0.00,1721206995080
2.41,6.84,7.70,0.21,-0.02,-0.37,1721206995090
-0.91,-6.12,2.27,-0.12,0.05,-0.47,1721206995100
-6.56,-0.76,10.93,-0.04,-0.08,-0.20,1721206995110
-4.67,-2.55,15.00,0.06,0.21,0.26,1721206995120
-0.07,1.61,12.53,0.22,0.03,0.40,1721206995130
4.31,4.60,6.64,0.05,0.10,0.21,1721206995140
4.71,0.80,8.56,-0.19,0.03,-0.23,1721206995150
1.80,-2.85,13.52,-0.13,-0.04,-0.42,1721206995160
-1.11,-0.88,10.82,0.10,-0.00,-0.34,1721206995170
-3.36,0.64,4.79,-0.02,0.03,-0.12,1721206995180
-2.76,-2.29,12.31,-0.17,0.06,0.03,1721206995190
0.38,1.69,18.01,-0.03,0.09,0.05,1721206995200
2.83,0.63,5.96,0.03,-0.02,-0.03,1721206995210
1.50,2.00,5.68,-0.11,0.12,-0.23,1721206995220
0.54,-0.63,10.13,-0.03,0.08,-0.32,1721206995230
-1.30,-3.86,9.29,-0.06,-0.00,-0.22,1721206995240
-0.86,-2.15,11.70,-0.09,0.13,-0.12,1721206995250
-0.65,0.10,11.29,0.02,0.11,-0.11,1721206995260
-1.35,5.42,9.91,0.06,0.06,-0.15,1721206995270
0.54,3.34,8.56,-0.09,0.11,-0.22,1721206995280
0.36,-5.39,10.38,-0.22,-0.02,-0.13,1721206995290
-1.51,-4.00,13.60,-0.07,0.19,-0.19,1721206995300
-0.71,0.11,10.31,0.07,0.17,-0.27,1721206995310
-1.60,2.17,5.23,0.06,-0.09,-0.26,1721206995320
-0.27,-1.07,10.28,-0.05,0.27,-0.10,1721206995330
-0.52,-2.41,9.78,-0.00,0.01,-0.08,1721206995340
-2.00,-0.36,10.26,-0.05,0.11,-0.18,1721206995350
0.94,0.66,11.67,-0.03,0.13,-0.24,1721206995360
0.44,1.98,9.15,-0.07,0.03,-0.21,1721206995370
-2.07,-0.12,11.06,-0.19,0.13,-0.33,1721206995380
-3.01,-1.93,7.41,-0.11,0.03,-0.33,1721206995390
-2.43,-2.16,13.87,-0.24,0.19,-0.15,1721206995400
-1.21,4.93,15.39,0.01,0.09,0.00,1721206995410
0.39,2.92,11.62,-0.08,0.12,-0.06,1721206995420
-1.06,-0.26,7.86,-0.03,-0.17,-0.10,1721206995430
-1.12,2.49,10.32,0.01,0.18,-0.16,1721206995440
0.41,2.82,14.69,0.08,0.12,-0.14,1721206995450
-2.20,4.18,11.97,0.14,-0.09,-0.12,1721206995460
-2.11,1.11,7.93,0.10,0.00,-0.05,1721206995470
-1.80,-2.60,8.54,0.05,-0.07,0.06,1721206995480
0.11,1.70,11.87,0.14,0.11,0.17,1721206995490
2.22,3.79,9.81,0.22,0.06,0.20,1721206995500
0.40,6.92,4.45,0.28,-0.19,0.05,1721206995510
0.30,-4.05,7.70,-0.12,0.12,-0.10,1721206995520
-1.78,-3.04,18.05,-0.14,-0.18,0.07,1721206995530
-1.76,5.96,13.11,0.12,0.03,0.17,1721206995540
0.99,-1.36,2.76,-0.06,-0.04,0.23,1721206995550
-0.72,-3.74,11.50,-0.26,-0.03,0.03,1721206995560
-0.26,-3.29,12.77,0.02,-0.01,-0.03,1721206995570
-2.28,0.06,7.50,-0.12,-0.16,0.13,1721206995580
-2.80,1.26,11.94,-0.01,-0.10,0.34,1721206995590
-0.13,-0.72,10.02,-0.02,-0.04,0.33,1721206995600
1.46,1.88,5.96,-0.00,-0.15,0.14,1721206995610
2.49,-6.20,11.54,-0.32,-0.02,0.05,1721206995620
-0.68,2.69,19.30,0.03,-0.22,0.07,1721206995630
-0.40,4.39,3.07,0.14,-0.14,0.16,1721206995640
0.00,-0.21,7.61,-0.17,-0.07,0.17,1721206995650
1.66,0.52,14.64,-0.07,-0.08,0.06,1721206995660
0.83,-2.80,8.59,-0.11,-0.05,-0.05,1721206995675
-1.41,-0.04,9.29,-0.08,-0.06,-0.01,1721206995679
-0.34,-0.14,12.38,0.02,-0.05,-0.03,1721206995689
-0.32,-1.80,9.82,0.02,-0.15,0.03,1721206995699
0.51,-5.44,7.68,-0.08,-0.07,0.08,1721206995709
-0.12,-3.50,15.68,-0.07,-0.02,0.06,1721206995719
0.67,6.17,16.98,0.18,-0.08,0.08,1721206995729
1.73,1.07,6.52,0.16,-0.14,0.04,1721206995739
2.63,0.61,7.75,0.16,-0.00,-0.09,1721206995749
3.05,-1.35,10.80,0.17,0.13,-0.28,1721206995759
-1.01,-1.26,7.97,0.23,-0.21,-0.26,1721206995769
-0.95,2.73,4.58,0.27,0.03,-0.12,1721206995779
1.61,-0.96,11.57,0.00,0.17,-0.16,1721206995789
-0.83,1.71,13.39,0.08,-0.11,-0.43,1721206995799
-2.03,0.13,7.98,0.10,0.06,-0.42,1721206995809
-3.76,-2.68,9.62,-0.01,0.00,-0.13,1721206995819
-3.45,-0.50,14.34,0.03,0.06,0.11,1721206995829
1.17,-1.98,11.16,0.05,0.14,0.06,1721206995839
1.82,0.05,7.97,0.08,-0.09,-0.17,1721206995849
0.94,1.40,9.48,0.04,0.13,-0.26,1721206995859
-0.35,5.07,13.19,0.24,0.10,-0.25,1721206995869
-2.60,3.36,5.32,0.25,-0.05,-0.01,1721206995879
-0.52,-0.00,8.85,0.03,0.16,0.05,1721206995889
2.37,1.21,13.40,0.10,0.01,0.02,1721206995899
3.50,3.60,7.76,0.07,0.05,-0.02,1721206995909
1.47,0.73,8.87,-0.01,-0.01,-0.14,1721206995919
0.10,-0.96,12.36,-0.00,0.18,-0.18,1721206995929
-1.27,-0.12,8.36,0.02,-0.04,-0.09,1721206995939
-2.39,2.35,13.69,-0.10,0.12,0.04,1721206995949
-0.67,3.97,14.71,0.10,0.07,0.22,1721206995959
1.32,2.26,6.65,0.07,0.02,0.22,1721206995969
3.15,2.48,9.80,-0.07,0.13,0.01,1721206995979
3.26,-3.22,12.84,-0.17,0.00,-0.17,1721206995989
-0.60,-0.56,13.17,0.07,-0.05,-0.27,1721206995999
-1.17,-0.99,2.75,0.17,0.03,-0.14,1721206996009
-0.87,0.73,6.90,0.05,0.05,-0.15,1721206996019
-1.83,2.04,11.47,0.15,-0.04,-0.04,1721206996029
-2.43,-1.08,6.50,-0.02,-0.02,0.01,1721206996039
-1.59,-2.31,14.95,-0.12,-0.04,0.06,1721206996049
1.18,-1.51,9.60,0.00,-0.03,0.03,1721206996059
3.64,3.17,10.11,-0.01,0.10,-0.10,1721206996069
2.78,-1.59,9.18,-0.10,-0.07,-0.33,1721206996079
-3.00,-4.38,12.94,-0.26,-0.04,-0.51,1721206996089
-3.87,-5.82,13.18,-0.04,-0.06,-0.30,1721206996099
-2.14,-1.67,8.10,-0.04,-0.06,0.14,1721206996109
-1.02,2.95,9.09,-0.01,0.04,0.08,1721206996119
2.49,-0.94,10.53,-0.06,0.06,-0.14,1721206996129
1.77,-7.39,7.45,-0.19,-0.22,-0.21,1721206996139
-0.94,-5.01,12.79,-0.24,0.14,-0.41,1721206996149
-2.13,0.93,18.30,-0.06,-0.03,-0.36,1721206996159
-1.79,3.79,11.20,0.04,0.05,-0.17,1721206996169
0.52,-1.34,8.70,-0.14,-0.00,-0.00,1721206996179
0.57,-0.01,8.09,0.05,-0.00,-0.00,1721206996189
2.93,1.71,6.63,0.13,0.20,-0.28,1721206996199
1.97,3.29,9.11,0.09,-0.00,-0.46,1721206996209
-2.55,6.30,6.81,0.13,-0.07,-0.47,1721206996219
-4.10,-1.75,11.58,-0.30,0.19,-0.44,1721206996229
-3.30,-2.63,12.50,-0.11,-0.01,-0.24,1721206996239
-1.95,-6.70,10.68,-0.20,0.19,-0.27,1721206996249
-2.91,8.30,13.39,0.34,-0.12,-0.11,1721206996259
0.10,4.43,1.55,0.23,0.09,-0.03,1721206996269
-1.39,0.82,13.17,-0.20,0.00,-0.18,1721206996279
-1.02,8.91,17.16,0.14,0.10,-0.35,1721206996289
-0.22,-6.47,3.67,0.00,-0.02,-0.47,1721206996299
-5.93,-4.14,9.24,0.04,-0.20,-0.17,1721206996309
-2.25,8.37,10.09,0.36,0.27,-0.00,1721206996319
2.81,3.72,9.24,0.01,0.22,-0.07,1721206996329
-1.43,-0.57,10.88,-0.12,-0.21,-0.22,1721206996339
-3.82,-0.59,9.77,0.01,-0.01,-0.15,1721206996349
-2.19,-0.32,8.07,0.02,0.01,0.19,1721206996359
1.85,4.54,9.84,0.16,0.16,0.37,1721206996369
6.62,3.50,7.34,0.13,0.16,0.12,1721206996379
3.40,-0.54,12.79,-0.28,0.00,-0.40,1721206996389
-2.20,-2.35,18.29,-0.18,-0.25,-0.52,1721206996399
-5.42,0.82,9.33,0.10,0.03,-0.10,1721206996409
-4.64,1.46,5.18,0.02,0.08,0.40,1721206996419
-0.12,2.17,11.33,0.02,-0.02,0.46,1721206996429
2.91,-1.11,8.71,0.05,-0.03,0.04,1721206996439
1.87,-4.49,8.40,-0.11,0.06,-0.31,1721206996449
-1.76,0.11,12.06,0.08,-0.13,-0.14,1721206996459
-0.68,1.43,13.35,0.02,0.06,0.24,1721206996469
0.03,4.70,10.07,0.07,-0.04,0.08,1721206996479
0.25,-4.22,6.48,-0.16,-0.01,-0.24,1721206996489
-0.58,-4.80,14.31,-0.15,-0.08,-0.08,1721206996499
-1.12,4.93,7.44,0.20,0.02,0.14,1721206996509
0.34,-0.80,2.91,-0.00,0.08,0.15,1721206996519
2.60,-7.11,12.82,-0.14,-0.07,0.06,1721206996529
2.52,0.96,13.48,-0.03,-0.00,-0.05,1721206996539
-0.34,3.58,8.96,-0.03,-0.04,-0.26,1721206996549
-1.80,-4.18,8.13,-0.12,-0.08,-0.10,1721206996559
0.10,-3.96,13.53,-0.03,0.11,0.13,1721206996569
1.65,2.43,7.88,0.10,0.08,-0.05,1721206996579
1.90,-3.30,8.73,-0.20,0.05,-0.13,1721206996589
0.38,3.14,15.75,-0.05,-0.00,-0.15,1721206996599
0.87,-1.51,4.92,0.05,0.06,-0.18,1721206996609
0.72,-6.43,7.45,-0.10,0.12,-0.11,1721206996619
-0.14,1.40,16.50,-0.09,0.21,-0.21,1721206996629
-0.86,10.66,13.46,-0.03,0.06,-0.26,1721206996639
-0.01,1.49,8.17,-0.21,0.17,-0.08,1721206996649
0.36,-7.04,10.15,-0.18,0.14,-0.11,1721206996659
1.74,-3.68,10.40,0.03,0.25,-0.23,1721206996669
0.68,5.53,12.52,0.14,0.19,-0.31,1721206996679
-0.78,9.14,11.35,0.33,0.15,-0.18,1721206996689
-0.58,2.45,3.91,0.26,0.22,-0.05,1721206996699
-0.22,-3.33,10.60,-0.02,0.28,-0.17,1721206996709
-1.49,-1.08,16.64,0.07,0.08,-0.24,1721206996719
-0.58,1.83,7.01,0.33,0.19,0.01,1721206996729
2.23,5.66,4.00,0.44,0.31,0.04,1721206996739
2.56,0.60,7.98,0.06,0.24,-0.15,1721206996749
-2.46,-1.74,20.21,-0.21,0.05,-0.40,1721206996759
-5.21,6.87,14.87,0.20,0.12,-0.20,1721206996769
-2.89,2.48,-1.67,0.04,0.13,0.38,1721206996779
1.66,-2.54,9.10,-0.25,0.36,0.40,1721206996789
4.52,-3.75,15.41,-0.02,0.21,-0.17,1721206996799
0.82,-0.01,7.96,0.03,0.02,-0.50,1721206996809
-5.51,2.80,13.40,-0.13,0.03,-0.30,1721206996819
-5.55,5.89,12.60,0.04,0.14,0.16,1721206996829
-0.62,3.69,3.60,-0.04,0.10,0.49,1721206996839
4.49,-6.56,6.99,-0.26,0.24,0.33,1721206996849
4.72,-3.24,18.46,-0.11,0.16,-0.18,1721206996859
0.41,7.23,7.22,0.24,-0.16,-0.53,1721206996869
-2.54,-0.39,0.58,-0.09,0.02,-0.31,1721206996879
-4.82,-5.83,17.57,-0.36,0.18,0.08,1721206996889
-2.52,-2.77,15.73,-0.04,-0.02,0.34,1721206996899
3.29,-0.68,3.59,-0.10,0.10,0.36,1721206996909
5.30,-4.12,9.59,-0.12,0.25,-0.08,1721206996919
1.75,2.53,12.63,0.07,-0.01,-0.37,1721206996929
-2.20,0.15,6.88,-0.10,0.01,-0.28,1721206996939
-4.36,-2.38,19.43,-0.27,0.07,0.04,1721206996949
-1.88,0.80,14.13,0.08,-0.04,0.32,1721206996959
2.91,-3.91,-0.72,0.04,0.11,0.34,1721206996969
5.91,-6.29,8.61,-0.00,0.28,0.01,1721206996979
1.14,2.60,15.70,0.13,-0.08,-0.36,1721206996989
-1.19,4.14,10.21,0.12,0.02,-0.39,1721206996999
-3.22,0.87,12.33,-0.03,0.08,-0.14,1721206997009
-5.25,1.45,11.80,0.07,-0.02,0.13,1721206997019
1.08,0.21,10.20,0.04,0.28,0.24,1721206997029
2.67,-1.58,12.06,0.01,-0.04,0.09,1721206997039
-2.30,6.41,8.66,0.20,-0.11,-0.35,1721206997049
0.37,0.63,7.60,0.13,0.24,-0.28,1721206997059
-3.43,-2.51,8.11,-0.01,-0.11,-0.05,1721206997069
-3.37,-1.31,12.03,0.11,0.12,0.05,1721206997079
0.96,-0.53,9.14,0.27,0.14,0.11,1721206997089
1.92,2.17,5.06,0.36,0.03,0.16,1721206997099
2.32,6.80,10.64,0.21,0.26,-0.15,1721206997109
0.32,4.10,15.63,0.13,-0.04,-0.28,1721206997119
-2.52,0.66,10.69,0.14,-0.04,-0.21,1721206997129
-3.35,1.47,7.88,0.20,0.00,0.00,1721206997139
-1.40,2.34,8.05,0.16,0.08,0.14,1721206997149
0.85,3.26,8.48,0.19,0.04,0.02,1721206997159
-0.53,-1.66,0.88,0.05,-0.09,-0.21,1721206997169
-4.35,-5.60,16.23,-0.37,0.29,-0.36,1721206997179
-4.81,1.34,22.01,0.32,-0.10,-0.04,1721206997189
-1.97,2.32,-0.59,0.24,-0.01,0.42,1721206997199
2.55,2.63,10.40,-0.16,0.32,0.36,1721206997209
5.68,-0.68,24.44,-0.10,0.02,0.07,1721206997219
3.94,2.11,13.21,0.23,-0.17,-0.11,1721206997229
1.05,-0.40,0.03,0.05,-0.02,-0.24,1721206997239
-2.82,3.13,10.44,-0.02,0.08,-0.28,1721206997249
-2.37,5.62,6.62,0.29,-0.11,-0.02,1721206997259
-2.32,-3.36,-0.96,-0.16,-0.01,0.10,1721206997269
-3.86,-4.05,13.92,-0.33,0.13,-0.02,1721206997279
-1.30,-2.46,19.45,0.05,0.05,-0.02,1721206997289
-0.33,-0.24,7.43,0.08,-0.13,0.24,1721206997299
1.03,0.01,8.53,-0.17,0.17,0.13,1721206997309
2.48,-3.94,17.49,-0.21,0.00,-0.07,1721206997319
1.55,-4.11,13.53,0.03,-0.12,0.03,1721206997329
1.60,1.90,7.64,0.11,0.04,0.05,1721206997339
1.15,9.84,7.35,0.16,0.01,-0.17,1721206997349
0.74,6.90,7.77,-0.03,0.05,-0.20,1721206997359
-2.01,-1.85,9.97,-0.19,-0.06,-0.24,1721206997369
-3.36,-2.35,11.54,-0.08,0.05,-0.23,1721206997379
-2.99,-1.80,9.28,0.11,-0.07,0.03,1721206997389
-1.73,9.15,14.04,0.33,0.06,0.17,1721206997399
1.43,9.03,3.64,0.29,-0.10,0.08,1721206997409
0.52,0.58,6.57,-0.30,0.04,-0.19,1721206997419
-1.79,-4.31,21.95,-0.23,-0.06,-0.25,1721206997429
-3.20,-2.35,8.53,0.31,-0.27,0.06,1721206997439
-0.14,3.24,3.05,0.25,0.13,0.21,1721206997449
3.85,4.35,8.57,0.14,0.06,0.08,1721206997459
2.91,1.17,14.18,-0.13,-0.00,-0.29,1721206997469
-0.98,3.26,21.21,0.01,-0.06,-0.46,1721206997479
-5.71,-0.15,3.09,0.13,-0.36,-0.17,1721206997489
-4.20,0.45,2.42,0.08,0.10,0.25,1721206997499
2.99,1.16,9.45,0.01,0.18,0.33,1721206997509
2.19,-0.02,10.32,-0.14,-0.21,0.00,1721206997519
1.08,-3.17,17.71,-0.11,0.11,-0.40,1721206997529
-0.60,-3.95,12.92,0.14,-0.19,-0.19,1721206997539
-2.88,3.75,4.43,0.23,-0.11,0.19,1721206997549
2.67,4.94,8.25,0.03,0.29,0.22,1721206997559
1.90,3.50,10.53,-0.04,-0.32,-0.02,1721206997569
-1.34,-1.35,10.24,-0.19,-0.05,-0.31,1721206997579
-2.02,-4.41,14.35,-0.04,-0.07,-0.17,1721206997589
-1.76,-1.47,7.59,0.11,-0.13,0.19,1721206997599
1.92,6.35,10.08,0.11,0.23,0.09,1721206997609
3.03,4.69,9.46,0.00,-0.13,-0.22,1721206997619
-2.00,-1.72,11.81,-0.22,-0.18,-0.36,1721206997629
-4.80,-3.25,9.23,-0.03,-0.14,-0.15,1721206997639
-2.92,-1.10,8.40,-0.02,-0.00,0.18,1721206997649
1.32,3.79,16.20,0.05,0.11,0.26,1721206997659
2.89,3.06,7.30,0.14,-0.25,0.04,1721206997669
-1.96,-5.00,12.83,-0.27,-0.16,-0.47,1721206997684
-0.85,-3.74,17.70,-0.11,-0.25,-0.39,1721206997688
-4.13,-0.82,8.06,0.27,-0.13,0.01,1721206997698
-0.28,3.89,7.46,0.23,0.18,0.18,1721206997708
2.08,7.64,8.56,0.23,-0.13,0.08,1721206997718
1.98,4.92,5.92,-0.10,0.04,-0.29,1721206997728
-0.43,-4.17,14.55,-0.31,-0.03,-0.46,1721206997738
-4.79,-3.15,15.41,0.11,-0.19,-0.24,1721206997748
-1.23,-1.08,9.22,0.17,0.20,0.06,1721206997758
0.20,5.66,9.92,0.24,-0.16,0.13,1721206997768
2.12,4.32,6.52,-0.03,0.11,-0.16,1721206997778
1.14,-0.18,14.68,-0.17,-0.02,-0.45,1721206997788
-3.73,-0.93,10.90,0.14,-0.28,-0.28,1721206997798
-2.59,-1.92,6.36,0.06,0.10,0.06,1721206997808
1.22,2.67,10.10,0.15,-0.00,0.19,1721206997818
3.58,2.83,8.35,0.01,0.06,-0.16,1721206997828
1.89,-1.04,12.76,-0.11,-0.00,-0.52,1721206997838
-3.77,-1.89,10.07,0.11,-0.13,-0.45,1721206997848
-4.20,2.03,6.46,0.15,0.08,-0.03,1721206997858
-0.55,6.69,6.52,0.17,0.05,0.19,1721206997868
3.09,4.86,9.44,-0.11,0.09,-0.04,1721206997878
2.27,-2.76,10.66,-0.25,-0.04,-0.45,1721206997888
-1.98,-6.16,15.13,-0.18,0.02,-0.54,1721206997898
-2.78,-2.15,14.88,0.15,0.06,-0.24,1721206997908
-2.19,5.39,5.43,0.25,-0.08,0.05,1721206997918
-0.10,8.78,8.42,0.01,0.18,-0.10,1721206997928
0.37,-0.12,10.35,-0.24,-0.01,-0.29,1721206997938
-2.39,-3.34,16.24,-0.19,-0.00,-0.30,1721206997948
-1.45,-1.31,6.19,0.20,0.01,-0.03,1721206997958
2.23,2.33,7.02,-0.02,0.25,-0.02,1721206997968
2.02,7.74,17.65,0.10,-0.08,-0.21,1721206997978
-0.71,3.07,5.91,0.03,-0.08,-0.39,1721206997988
-3.30,-5.85,11.31,-0.30,0.15,-0.38,1721206997998
-3.24,-4.29,19.05,0.06,0.01,-0.06,1721206998008
-2.07,8.37,1.24,0.53,-0.13,0.21,1721206998018
2.17,7.91,-3.81,0.03,0.28,-0.03,1721206998028
1.22,-1.86,13.70,-0.46,-0.04,-0.28,1721206998038
-1.92,-3.08,23.78,-0.04,0.00,-0.16,1721206998048
0.36,-5.42,9.89,0.12,0.05,0.08,1721206998058
0.84,2.02,6.55,0.18,-0.00,0.11,1721206998068
3.48,8.17,7.58,0.23,0.25,-0.19,1721206998078
1.91,3.32,7.65,-0.09,-0.01,-0.42,1721206998088
-5.27,-2.63,12.08,-0.21,-0.12,-0.35,1721206998098
-4.54,-6.64,16.80,0.01,0.21,0.08,1721206998108
-0.11,0.36,11.47,0.38,0.04,0.45,1721206998118
3.95,9.79,5.79,0.27,0.17,0.14,1721206998128
3.74,7.52,6.89,-0.03,-0.05,-0.36,1721206998138
-3.43,1.05,15.12,-0.20,-0.12,-0.46,1721206998148
-5.95,-6.89,14.19,-0.04,0.01,-0.03,1721206998158
-3.37,-4.61,8.12,0.24,-0.05,0.52,1721206998168
4.01,3.15,7.08,0.24,0.26,0.40,1721206998178
5.27,9.19,8.21,0.21,-0.11,-0.10,1721206998188
0.92,2.73,8.54,-0.14,0.02,-0.53,1721206998198
-5.09,-3.30,14.36,-0.12,-0.13,-0.25,1721206998208
-5.52,-2.37,10.58,0.15,-0.08,0.37,1721206998218
1.55,1.25,6.85,0.19,0.15,0.53,1721206998228
4.71,3.56,5.47,0.07,-0.07,0.12,1721206998238
2.38,4.10,11.90,-0.17,0.03,-0.35,1721206998248
-2.23,0.23,17.29,0.00,-0.14,-0.24,1721206998258
-3.80,-3.62,8.13,0.05,-0.16,0.29,1721206998268
0.01,-0.44,6.33,0.08,0.04,0.45,1721206998278
4.02,0.24,4.74,0.07,-0.10,0.21,1721206998288
3.16,3.79,9.98,-0.05,-0.02,-0.26,1721206998298
-0.54,3.11,16.04,-0.01,-0.14,-0.30,1721206998308
-4.07,0.75,15.29,-0.05,-0.10,0.01,1721206998318
-2.52,-5.93,11.10,-0.02,-0.13,0.34,1721206998328
2.10,-4.98,9.90,0.16,-0.01,0.29,1721206998338
4.70,3.02,12.15,0.25,-0.01,-0.03,1721206998348
-0.23,11.12,6.78,0.40,-0.43,-0.16,1721206998358
-2.46,4.86,0.04,-0.06,-0.01,-0.15,1721206998368
-2.71,-6.37,12.78,-0.38,-0.07,0.07,1721206998378
-1.97,-2.03,19.63,0.15,-0.21,0.35,1721206998388
4.08,3.44,9.12,0.34,0.00,0.31,1721206998398
4.45,6.94,7.39,0.17,-0.17,-0.08,1721206998408
1.37,-0.92,5.14,-0.15,-0.18,-0.30,1721206998418
-1.93,-1.85,18.08,-0.11,-0.08,-0.20,1721206998428
-2.17,3.40,12.97,0.34,-0.17,0.09,1721206998438
0.58,7.08,4.90,0.11,-0.06,0.05,1721206998448
2.37,3.84,6.57,-0.08,-0.18,-0.12,1721206998458
-0.22,2.14,8.40,-0.34,-0.06,-0.43,1721206998468
-3.51,-3.23,12.60,-0.28,-0.19,-0.37,1721206998478
-4.43,-5.61,11.23,-0.16,-0.16,0.04,1721206998488
-0.45,-2.26,16.15,0.04,0.01,0.29,1721206998498
4.51,5.64,9.33,0.29,-0.14,0.13,1721206998508
6.31,5.51,-2.05,-0.13,-0.13,-0.26,1721206998518
2.05,1.14,5.31,-0.53,-0.11,-0.59,1721206998528
-2.03,-3.93,15.89,-0.27,-0.06,-0.52,1721206998538
-1.12,-1.96,11.68,0.11,-0.00,-0.16,1721206998548
2.74,-1.09,9.45,-0.12,0.12,-0.11,1721206998558
2.39,-1.06,15.01,-0.18,-0.04,-0.45,1721206998568
-1.27,1.24,17.64,0.13,-0.01,-0.70,1721206998578
-3.39,0.72,3.51,0.23,-0.06,-0.46,1721206998588
-3.54,-0.23,-0.54,-0.19,0.07,-0.11,1721206998598
0.72,3.76,10.96,-0.07,0.23,-0.01,1721206998608
5.68,-3.35,18.84,-0.41,0.29,-0.36,1721206998618
-1.03,-1.63,28.80,0.19,-0.32,-0.60,1721206998628
-2.63,-3.59,6.10,0.29,0.13,-0.55,1721206998638
-0.25,1.67,16.45,0.04,0.39,-0.29,1721206998648
0.55,-0.33,10.04,0.25,-0.10,-0.23,1721206998658
-1.17,4.55,3.72,0.18,0.15,-0.59,1721206998668
-2.85,8.53,5.37,0.19,0.11,-0.69,1721206998678
-4.55,-2.79,7.70,-0.38,0.19,-0.38,1721206998688
-3.63,-2.64,17.84,0.02,0.04,0.09,1721206998698
3.77,-0.90,5.75,0.08,0.36,0.04,1721206998708
4.36,5.84,9.51,0.05,0.14,-0.47,1721206998718
0.44,5.47,7.96,0.00,0.15,-0.76,1721206998728
-3.65,-0.49,10.23,-0.19,0.15,-0.49,1721206998738
-3.62,-4.18,11.26,-0.09,0.20,-0.04,1721206998748
0.95,-2.78,10.77,0.01,0.38,-0.04,1721206998758
1.14,4.01,6.48,0.20,0.04,-0.31,1721206998768
-0.94,7.41,1.03,0.09,0.27,-0.57,1721206998778
-1.15,-1.47,8.96,-0.39,0.35,-0.45,1721206998788
-3.08,-3.09,25.53,-0.17,0.19,-0.10,1721206998798
-0.31,-0.37,13.64,0.27,0.19,0.06,1721206998808
2.15,1.61,1.36,0.14,0.26,-0.19,1721206998818
0.35,0.70,5.02,-0.10,0.17,-0.41,1721206998828
-3.56,2.84,13.71,0.03,0.11,-0.41,1721206998838
-4.21,2.67,4.86,0.01,0.20,-0.12,1721206998848
-1.69,-2.26,11.82,-0.41,0.50,-0.04,1721206998858
-0.86,0.92,24.27,0.08,0.16,-0.00,1721206998868
1.89,1.67,7.90,0.29,0.26,-0.10,1721206998878
-0.06,4.23,1.68,-0.11,0.09,-0.30,1721206998888
-3.96,0.97,11.96,-0.27,0.10,-0.32,1721206998898
-4.20,-4.92,13.03,-0.06,0.14,0.03,1721206998908
-1.84,-1.31,13.25,0.10,0.16,0.22,1721206998918
1.81,2.28,8.95,0.18,0.19,0.11,1721206998928
1.73,0.80,0.15,-0.04,-0.01,-0.11,1721206998938
-1.73,3.94,10.54,-0.11,0.17,-0.24,1721206998948
-1.36,-1.20,10.29,-0.04,0.15,-0.06,1721206998958
-1.64,-1.37,10.60,-0.07,0.11,0.17,1721206998968
0.27,0.89,9.62,-0.09,0.13,0.22,1721206998978
1.59,0.52,16.76,-0.11,0.13,0.07,1721206998988
1.46,3.08,18.43,0.14,0.14,-0.04,1721206998998
0.34,0.24,2.26,0.01,-0.10,0.04,1721206999008
-0.17,0.78,6.35,-0.33,0.32,0.08,1721206999018
1.72,-3.71,16.14,-0.25,0.12,0.11,1721206999028
0.52,2.33,17.74,0.19,0.01,0.05,1721206999038
1.55,-1.43,2.32,0.02,0.07,-0.00,1721206999048
-0.68,1.31,14.27,-0.26,0.18,-0.16,1721206999058
1.11,1.94,16.67,0.04,0.14,-0.17,1721206999068
-0.47,0.73,10.04,0.04,0.13,-0.19,1721206999078
-2.04,4.77,6.93,0.06,0.16,-0.26,1721206999088
-2.04,-0.88,6.78,-0.17,0.01,-0.12,1721206999098
-2.60,0.93,13.50,-0.11,0.14,0.01,1721206999108
-0.25,4.46,5.88,0.10,0.16,-0.05,1721206999118
1.19,-2.81,5.22,-0.35,0.22,-0.16,1721206999128
-0.63,1.29,18.07,-0.11,0.07,-0.10,1721206999138
1.51,1.32,6.61,0.09,0.11,-0.06,1721206999148
0.24,1.26,8.09,-0.16,0.10,-0.17,1721206999158
-0.87,0.89,13.90,-0.10,0.18,-0.26,1721206999168
-0.61,-2.02,12.39,-0.03,0.13,-0.14,1721206999178
-0.86,-0.96,14.94,-0.04,0.19,-0.05,1721206999188
-0.46,3.71,11.03,0.21,0.15,-0.05,1721206999198
1.10,2.06,5.45,-0.02,0.24,-0.15,1721206999208
-0.49,0.42,10.86,-0.10,0.06,-0.16,1721206999218
-1.54,-1.25,11.73,-0.00,0.23,-0.08,1721206999228
-0.51,-0.50,10.35,0.13,0.18,0.05,1721206999238
0.62,1.38,10.35,-0.01,0.19,0.03,1721206999248
0.66,7.54,15.12,0.17,0.19,-0.04,1721206999258
1.73,1.43,3.52,0.06,0.10,-0.09,1721206999268
-0.63,-1.94,10.03,-0.25,0.24,-0.15,1721206999278
-2.08,3.35,12.59,0.09,0.08,-0.08,1721206999288
-0.33,-1.48,8.39,-0.04,0.28,-0.01,1721206999298
0.31,-1.86,15.94,0.06,0.15,0.07,1721206999308
0.31,2.24,8.57,0.32,0.07,-0.03,1721206999318
0.01,3.71,4.07,0.15,0.19,-0.21,1721206999328
-2.76,5.20,9.34,0.03,0.17,-0.24,1721206999338
-3.05,3.10,8.83,0.06,0.16,-0.04,1721206999348
-1.36,-0.96,8.65,-0.11,0.23,0.14,1721206999358
0.52,-1.44,13.47,-0.09,0.13,0.20,1721206999368
2.62,1.64,16.99,0.06,0.27,0.06,1721206999378
1.45,1.29,9.56,0.17,-0.04,-0.06,1721206999388
-1.20,4.66,7.02,0.09,0.15,-0.11,1721206999398
-0.20,2.24,4.61,-0.03,0.16,-0.05,1721206999408
-1.65,-0.55,8.44,-0.24,0.14,0.00,1721206999418
-3.26,0.60,10.39,0.04,0.04,-0.04,1721206999428
-2.09,-5.76,10.51,-0.16,0.26,-0.01,1721206999438
-3.42,0.30,21.79,0.16,-0.07,0.13,1721206999448
-3.36,3.06,5.52,0.39,-0.06,0.20,1721206999458
-2.63,2.73,-0.17,-0.02,0.08,0.20,1721206999468
-1.87,-0.28,12.58,-0.30,0.14,0.17,1721206999478
-1.83,-1.34,16.24,-0.00,-0.14,0.08,1721206999488
-2.15,-5.58,9.00,-0.01,-0.21,0.33,1721206999498
5.44,0.72,10.05,0.12,0.38,0.64,1721206999508
6.43,3.08,2.02,-0.09,-0.01,0.02,1721206999518
-1.13,5.42,8.74,-0.20,-0.21,-0.72,1721206999528
-9.01,-1.50,8.05,-0.06,-0.08,-0.70,1721206999538
-15.78,-10.04,13.65,-0.36,-0.08,0.26,1721206999548
-11.68,1.77,23.58,0.08,-0.10,1.38,1721206999558
2.85,2.12,6.52,0.21,-0.06,1.90,1721206999568
15.07,4.93,4.72,-0.00,0.24,1.55,1721206999578
18.78,-2.58,8.62,-0.18,0.09,0.61,1721206999588
17.19,-1.67,12.22,-0.15,-0.13,-0.80,1721206999598
1.57,6.90,11.60,-0.04,-0.77,-1.48,1721206999608
-5.97,3.22,11.87,0.15,-0.04,-1.51,1721206999618
-19.45,-4.95,1.30,-0.08,-0.49,-0.16,1721206999628
-15.69,-3.26,7.58,-0.16,0.25,1.22,1721206999638
0.73,4.02,8.99,-0.04,0.18,1.71,1721206999648
9.73,0.97,10.26,-0.28,0.29,1.14,1721206999658
10.97,-0.90,12.61,-0.16,-0.11,0.16,1721206999668
8.50,2.97,9.55,-0.09,-0.24,-0.58,1721206999678
-0.41,0.20,16.01,-0.29,-0.29,-0.76,1721206999693
-1.67,-2.53,15.48,-0.21,-0.08,-0.63,1721206999697
-6.73,-2.00,7.94,0.02,-0.20,-0.22,1721206999707
-5.34,-1.85,5.18,-0.05,0.07,0.30,1721206999717
0.39,1.13,15.42,0.03,0.11,0.42,1721206999727
3.40,2.94,12.69,0.20,-0.05,0.26,1721206999737
1.93,0.90,7.05,0.11,-0.06,-0.05,1721206999747
-0.29,1.92,14.14,-0.02,-0.03,-0.16,1721206999757
-1.28,1.79,11.49,0.20,-0.18,-0.03,1721206999767
0.32,-4.43,4.61,0.07,0.01,0.13,1721206999777
1.56,-3.54,6.69,0.08,-0.02,0.13,1721206999787
1.19,0.54,8.17,0.12,-0.04,-0.08,1721206999797
0.33,0.97,12.63,0.05,-0.03,-0.16,1721206999807
-0.78,-0.10,13.58,0.08,-0.07,0.03,1721206999817
-0.32,-1.99,12.50,-0.01,-0.01,0.20,1721206999827
0.99,-0.32,13.70,-0.01,0.02,0.12,1721206999837
3.15,-1.63,10.73,0.07,-0.04,0.02,1721206999847
3.39,-2.04,6.44,0.11,0.06,-0.03,1721206999857
0.96,2.43,11.26,0.11,0.06,-0.19,1721206999867
-0.97,3.14,12.73,0.17,-0.01,-0.16,1721206999877
-1.91,1.41,12.12,0.14,0.05,0.02,1721206999887
0.30,-1.83,9.05,0.08,0.09,0.06,1721206999897
2.04,1.69,5.36,0.15,0.08,0.01,1721206999907
2.73,4.72,11.08,0.07,0.20,-0.19,1721206999917
0.81,0.17,10.32,0.17,-0.02,-0.26,1721206999927
-0.97,-1.38,7.63,0.08,0.12,-0.27,1721206999937
-1.65,-1.90,12.40,-0.01,0.12,-0.16,1721206999947
-1.68,0.43,17.51,0.08,0.09,-0.09,1721206999957
-1.28,2.50,7.43,0.29,0.01,0.00,1721206999967
0.34,1.59,4.93,0.07,0.20,-0.05,1721206999977
1.04,4.52,14.14,0.06,0.14,-0.16,1721206999987
-0.69,2.18,6.78,0.09,0.02,-0.25,1721206999997
-2.26,-3.30,6.51,-0.21,0.16,-0.23,1721207000007
-2.66,-2.96,15.89,-0.14,0.08,-0.04,1721207000017
0.36,-0.37,10.99,0.11,0.08,0.13,1721207000027
3.11,2.50,5.09,0.03,0.10,-0.02,1721207000037
2.24,6.94,9.05,0.01,0.12,-0.39,1721207000047
0.57,0.32,6.15,-0.06,0.11,-0.43,1721207000057
-2.26,-3.49,9.78,-0.23,0.14,-0.34,1721207000067
-2.51,-1.29,14.61,-0.06,0.17,-0.18,1721207000077
-0.77,0.57,11.15,0.04,0.13,-0.07,1721207000087
0.88,4.43,6.07,0.08,0.19,-0.09,1721207000097
1.63,-1.61,7.67,-0.23,0.26,-0.28,1721207000107
-0.58,-0.15,13.55,-0.06,0.06,-0.41,1721207000117
-1.40,-1.81,7.52,-0.06,0.26,-0.35,1721207000127
-2.51,-1.06,12.93,-0.12,0.18,-0.13,1721207000137
-1.41,3.78,10.07,0.07,0.13,-0.06,1721207000147
0.66,0.63,7.23,-0.14,0.24,-0.10,1721207000157
0.01,-3.98,13.23,-0.26,0.17,-0.22,1721207000167
-1.34,-0.56,17.74,-0.06,0.21,-0.23,1721207000177
-3.07,4.15,9.80,0.11,0.13,-0.18,1721207000187
-3.90,2.37,7.12,-0.05,0.16,0.01,1721207000197
-0.82,-0.76,11.47,-0.00,0.28,0.19,1721207000207
1.24,1.19,10.48,0.13,0.07,0.16,1721207000217
1.54,1.80,7.71,0.07,0.20,0.00,1721207000227
-1.20,1.71,10.44,0.07,0.08,-0.03,1721207000237
-3.02,0.06,9.66,0.04,0.09,0.04,1721207000247
-2.60,-0.51,10.26,0.07,0.09,0.20,1721207000257
-0.67,-1.12,8.15,0.01,0.08,0.32,1721207000267
1.18,-1.57,13.21,0.02,0.15,0.26,1721207000277
0.27,3.61,12.25,0.20,-0.05,0.19,1721207000287
-1.66,1.04,6.21,0.07,-0.07,0.14,1721207000297
-1.81,-1.58,11.68,-0.00,0.05,0.24,1721207000307
-0.62,0.35,12.97,0.17,-0.07,0.45,1721207000317
-0.22,5.17,5.02,0.13,0.02,0.40,1721207000327
1.23,-4.66,7.13,-0.15,0.01,0.32,1721207000337
-0.95,-3.87,15.82,-0.03,-0.24,0.34,1721207000347
1.86,2.70,10.37,0.17,-0.00,0.37,1721207000357
0.88,0.21,5.95,-0.11,-0.17,0.27,1721207000367
-1.83,-1.55,13.15,-0.10,-0.09,0.25,1721207000377
0.34,-2.09,9.45,-0.02,-0.08,0.28,1721207000387
0.17,1.47,10.57,0.01,-0.20,0.30,1721207000397
0.11,-0.44,4.72,-0.04,-0.06,0.21,1721207000407
0.61,-2.61,8.56,-0.10,-0.04,0.13,1721207000417
0.20,1.61,14.54,-0.09,-0.14,0.08,1721207000427
0.11,3.58,12.35,0.04,-0.15,0.11,1721207000437
-0.94,-3.01,4.67,-0.15,-0.28,0.18,1721207000447
-1.26,-1.75,15.32,-0.25,0.04,0.17,1721207000457
1.26,1.47,15.84,0.06,-0.22,0.05,1721207000467
0.40,5.60,4.04,0.15,-0.31,-0.01,1721207000477
-1.56,0.81,1.67,-0.06,-0.22,0.02,1721207000487
-1.35,-3.81,12.62,-0.21,-0.07,0.13,1721207000497
0.85,0.57,16.36,0.03,-0.12,0.09,1721207000507
2.60,3.40,9.79,0.01,-0.19,0.02,1721207000517
0.39,3.46,11.46,-0.09,-0.24,-0.11,1721207000527
0.17,-0.89,13.42,-0.07,-0.18,-0.07,1721207000537
0.75,3.60,13.84,0.09,-0.07,-0.02,1721207000547
1.60,0.98,5.24,0.02,-0.22,-0.02,1721207000557
-0.48,0.56,10.18,-0.09,-0.08,-0.20,1721207000567
0.28,1.85,11.91,0.14,-0.02,-0.18,1721207000577
-0.89,4.37,3.27,0.22,-0.22,-0.03,1721207000587
1.22,-0.96,9.18,-0.11,0.16,-0.05,1721207000597
1.29,1.33,18.83,0.05,-0.13,-0.14,1721207000607
-0.16,3.30,7.81,0.14,-0.25,-0.23,1721207000617
-2.00,-0.76,4.25,-0.03,-0.14,-0.16,1721207000627
-2.66,0.72,14.22,-0.09,0.01,-0.06,1721207000637
-0.81,3.07,12.14,0.14,-0.13,0.03,1721207000647
0.17,-0.44,2.16,-0.05,-0.05,-0.05,1721207000657
1.18,-1.92,10.61,-0.22,0.06,-0.21,1721207000667
-1.23,-0.98,15.89,-0.12,-0.14,-0.25,1721207000677
-3.74,0.21,9.58,-0.01,-0.23,-0.06,1721207000687
0.35,-3.49,5.98,-0.13,0.09,0.02,1721207000697
1.18,3.53,12.73,-0.07,-0.02,-0.05,1721207000707
-0.06,1.18,10.48,-0.18,-0.11,-0.19,1721207000717
-1.61,-4.05,15.62,-0.19,-0.13,-0.20,1721207000727
-1.10,1.35,8.21,0.07,-0.08,-0.03,1721207000737
0.45,1.22,6.01,-0.21,0.04,-0.03,1721207000747
-0.27,3.62,16.24,-0.10,-0.11,-0.11,1721207000757
0.09,-2.04,5.56,0.01,-0.15,-0.12,1721207000767
-1.14,-4.30,6.78,-0.12,-0.00,-0.10,1721207000777
-0.74,-0.17,11.91,-0.04,-0.02,-0.11,1721207000787
0.36,3.37,11.95,0.05,-0.06,-0.08,1721207000797
1.44,3.41,10.53,0.08,-0.03,-0.05,1721207000807
0.98,0.43,6.86,0.08,-0.08,-0.06,1721207000817
0.89,-4.17,8.69,-0.12,0.12,-0.27,1721207000827
-1.46,-2.22,14.85,-0.06,-0.12,-0.29,1721207000837
-1.50,0.85,12.09,0.01,0.03,-0.15,1721207000847
0.42,2.41,10.67,0.14,0.04,0.02,1721207000857
1.71,1.70,8.51,0.15,0.04,-0.11,1721207000867
1.63,3.43,9.67,0.12,0.08,-0.30,1721207000877
-1.21,0.35,6.10,0.10,-0.10,-0.28,1721207000887
-2.17,-3.75,11.07,-0.15,0.17,-0.22,1721207000897
-2.09,-2.87,14.43,0.06,-0.03,-0.06,1721207000907
-0.23,-0.19,10.42,-0.01,0.07,0.10,1721207000917
2.41,3.08,14.64,0.04,0.21,-0.11,1721207000927
1.16,2.54,9.15,0.20,-0.09,-0.37,1721207000937
-0.69,0.19,9.20,0.06,0.14,-0.35,1721207000947
-2.01,-1.49,9.37,0.20,0.05,-0.15,1721207000957
-2.24,0.19,8.67,0.13,0.08,-0.10,1721207000967
-0.09,4.46,11.10,0.23,0.10,-0.07,1721207000977
1.76,-1.38,8.89,0.10,0.14,-0.05,1721207000987
0.51,-2.69,10.45,0.04,0.06,-0.25,1721207000997
-2.59,4.35,11.92,0.22,0.02,-0.32,1721207001007
-2.16,1.09,7.92,0.10,0.11,-0.09,1721207001017
-0.60,-1.16,9.14,0.11,0.08,0.14,1721207001027
0.79,-0.53,6.94,0.11,0.13,0.06,1721207001037
2.03,-1.66,10.53,-0.00,0.13,-0.05,1721207001047
0.57,0.90,12.63,0.12,-0.01,-0.19,1721207001057
-0.93,2.62,11.66,0.10,0.11,-0.18,1721207001067
-1.42,0.85,13.24,0.06,0.04,0.04,1721207001077
-0.53,-0.64,11.42,0.08,0.07,0.14,1721207001087
0.91,-0.43,7.79,0.10,0.11,-0.02,1721207001097
0.57,0.49,5.46,0.06,0.01,-0.06,1721207001107
-0.51,-2.54,9.43,-0.02,0.11,-0.05,1721207001117
-1.12,0.13,12.78,0.18,0.04,-0.02,1721207001127
-0.63,5.89,8.96,0.14,0.11,0.01,1721207001137
-0.23,2.98,6.03,0.02,0.00,0.10,1721207001147
0.46,-2.17,11.08,-0.24,0.14,0.04,1721207001157
0.94,-4.17,15.78,-0.05,0.05,-0.00,1721207001167
0.43,5.09,7.12,0.19,-0.01,-0.01,1721207001177
1.46,1.92,7.21,-0.20,0.20,-0.12,1721207001187
-0.51,1.32,17.63,-0.06,-0.05,-0.10,1721207001197
-1.23,3.00,7.90,0.01,0.04,-0.06,1721207001207
0.26,-1.79,6.85,-0.21,0.10,0.08,1721207001217
1.45,-0.05,13.89,-0.13,0.07,0.07,1721207001227
3.30,2.60,8.99,0.08,0.11,-0.09,1721207001237
1.22,4.61,3.89,0.06,0.03,-0.31,1721207001247
-1.05,-3.36,8.86,-0.22,0.17,-0.30,1721207001257
-2.60,-1.77,19.77,-0.09,0.06,-0.14,1721207001267
-1.14,5.14,11.84,0.08,0.03,-0.00,1721207001277
0.03,-0.57,5.26,-0.17,0.03,0.01,1721207001287
0.01,-3.17,11.54,-0.12,0.08,-0.06,1721207001297
1.06,-0.57,9.35,0.06,0.09,-0.16,1721207001307
-0.21,3.48,6.83,0.02,0.03,-0.24,1721207001317
-1.24,-5.05,8.60,-0.15,0.12,-0.13,1721207001327
-2.03,0.36,17.05,0.00,0.08,0.04,1721207001337
0.62,5.83,9.78,0.17,0.03,0.01,1721207001347
0.77,0.73,4.12,-0.07,-0.05,0.05,1721207001357
-0.03,-4.02,9.72,-0.19,0.10,-0.08,1721207001367
-0.54,-1.18,16.91,-0.05,0.09,-0.14,1721207001377
-1.50,5.22,10.56,0.08,-0.00,-0.04,1721207001387
-0.52,-1.93,5.96,-0.13,0.07,0.05,1721207001397
0.12,-1.45,14.32,-0.09,0.14,0.04,1721207001407
1.29,5.68,12.86,0.14,0.11,-0.03,1721207001417
1.14,-0.65,7.21,-0.05,-0.06,-0.06,1721207001427
-0.25,-0.28,10.61,-0.04,0.05,-0.15,1721207001437
0.25,-0.75,9.90,0.01,0.13,-0.14,1721207001447
-0.76,-1.17,16.22,-0.09,0.10,-0.17,1721207001457
-1.26,4.96,12.91,0.27,0.01,-0.13,1721207001467
-0.19,-2.25,3.61,0.11,0.11,-0.02,1721207001477
-0.47,-1.86,11.12,0.03,0.12,-0.04,1721207001487
1.27,3.90,15.80,0.26,0.12,-0.15,1721207001497
-0.78,3.14,4.08,0.29,-0.07,-0.28,1721207001507
-1.75,0.89,6.16,0.10,0.23,-0.26,1721207001517
-1.43,-1.09,13.53,0.11,0.18,-0.06,1721207001527
-1.71,-0.08,9.23,0.16,-0.01,0.02,1721207001537
-0.39,-1.41,6.06,0.05,0.11,-0.01,1721207001547
1.47,0.45,12.84,0.04,0.26,-0.16,1721207001557
0.24,-0.02,11.34,0.04,-0.10,-0.18,1721207001567
-2.57,0.46,7.69,-0.00,0.04,-0.21,1721207001577
-1.70,-5.59,9.24,-0.11,0.17,-0.12,1721207001587
-1.01,-4.68,13.52,-0.11,0.05,0.07,1721207001597
-0.07,4.67,16.47,0.13,0.13,0.02,1721207001607
1.41,4.19,6.62,0.15,0.02,-0.09,1721207001617
-0.79,1.19,9.61,-0.06,0.05,-0.17,1721207001627
-2.42,2.58,11.34,0.10,-0.00,-0.09,1721207001637
-2.98,-0.90,4.74,-0.03,-0.12,0.07,1721207001647
-1.52,-0.41,12.86,-0.05,0.27,0.20,1721207001657
1.14,0.94,6.70,0.14,-0.12,0.17,1721207001667
0.73,1.26,8.00,-0.11,0.05,0.03,1721207001677
0.15,0.72,13.52,0.05,-0.01,-0.05,1721207001687
-1.90,1.28,7.75,0.04,-0.00,0.08,1721207001702
-0.98,2.22,10.01,-0.02,-0.12,0.08,1721207001706
-0.55,3.37,10.78,0.09,-0.06,0.15,1721207001716
2.68,-0.23,11.81,-0.01,0.14,0.11,1721207001726
1.28,-1.49,10.53,-0.00,-0.19,-0.02,1721207001736
-0.55,-0.17,13.28,-0.09,0.04,-0.19,1721207001746
-1.41,1.69,11.87,0.13,-0.09,-0.07,1721207001756
-2.21,2.71,7.09,0.13,-0.01,0.12,1721207001766
-0.44,3.86,6.99,0.17,0.01,0.12,1721207001776
-0.52,-1.97,2.35,-0.01,-0.16,0.09,1721207001786
-2.06,-1.02,12.63,-0.14,0.01,0.07,1721207001796
-0.06,1.65,13.69,0.10,-0.02,0.16,1721207001806
0.33,3.28,8.99,-0.03,-0.14,0.14,1721207001816
-0.03,-2.45,11.06,-0.26,-0.10,0.07,1721207001826
-0.69,-0.14,16.10,-0.06,-0.14,0.05,1721207001836
-0.11,1.90,9.69,-0.03,-0.10,0.09,1721207001846
-2.19,-1.97,6.10,-0.09,-0.28,0.12,1721207001856
-0.84,-0.17,12.75,-0.04,-0.04,0.24,1721207001866
1.78,-1.78,7.99,0.08,-0.25,0.18,1721207001876
-0.58,4.09,5.63,-0.02,-0.15,-0.08,1721207001886
-1.63,1.88,12.36,-0.18,-0.06,-0.13,1721207001896
-2.05,-4.03,16.82,-0.17,-0.19,0.12,1721207001906
-1.10,2.22,10.22,0.07,-0.24,0.31,1721207001916
2.49,-1.27,1.83,-0.08,-0.13,0.29,1721207001926
3.66,0.32,13.15,-0.16,-0.06,0.10,1721207001936
2.82,6.52,12.63,0.14,-0.25,-0.07,1721207001946
0.75,1.21,3.56,-0.15,-0.23,-0.31,1721207001956
-2.36,0.27,15.46,-0.23,-0.18,-0.15,1721207001966
-2.03,-2.31,10.38,-0.15,-0.12,0.01,1721207001976
-1.92,-1.93,10.59,-0.23,-0.13,0.13,1721207001986
1.76,-3.86,10.69,-0.04,-0.15,0.20,1721207001996
3.86,3.88,8.37,0.11,-0.09,0.02,1721207002006
4.12,3.34,7.83,0.09,-0.08,-0.28,1721207002016
-0.73,0.69,10.79,0.01,-0.19,-0.44,1721207002026
-2.85,-0.83,10.90,-0.05,-0.14,-0.33,1721207002036
-1.96,1.51,13.89,0.00,-0.04,-0.01,1721207002046
0.83,2.89,9.63,0.06,-0.00,0.08,1721207002056
2.66,-3.13,4.64,-0.09,-0.08,-0.16,1721207002066
1.34,-0.15,15.45,-0.09,0.02,-0.50,1721207002076
-0.03,-0.36,11.10,0.16,-0.12,-0.36,1721207002086
-1.81,-1.34,6.03,-0.00,-0.01,-0.06,1721207002096
-0.89,5.69,14.63,0.06,0.10,-0.17,1721207002106
1.47,1.94,6.76,0.09,-0.06,-0.19,1721207002116
1.49,-5.04,11.04,-0.20,0.05,-0.32,1721207002126
0.16,-1.04,15.60,0.10,0.06,-0.41,1721207002136
-1.94,-2.09,10.02,-0.08,0.03,-0.31,1721207002146
-2.05,2.60,16.86,0.04,0.04,-0.21,1721207002156
0.47,4.80,8.28,0.31,0.02,-0.13,1721207002166
2.22,-2.75,4.63,0.02,0.21,-0.17,1721207002176
-0.05,1.37,12.28,0.09,0.01,-0.40,1721207002186
-0.90,2.68,9.65,0.10,0.14,-0.42,1721207002196
-1.41,1.36,8.83,0.16,0.07,-0.16,1721207002206
-0.04,-2.33,7.33,-0.03,0.17,-0.11,1721207002216
0.97,0.28,15.94,-0.04,0.15,-0.31,1721207002226
0.26,1.01,9.87,0.07,0.01,-0.28,1721207002236
-0.84,-0.57,8.60,0.03,0.17,-0.26,1721207002246
-0.40,-1.43,10.41,0.07,0.17,-0.27,1721207002256
-1.10,3.68,9.95,0.17,0.11,-0.25,1721207002266
-1.03,2.02,7.91,0.06,0.18,-0.28,1721207002276
-1.87,-0.59,11.22,-0.00,0.13,-0.29,1721207002286
-2.29,-2.06,13.36,-0.03,0.12,-0.13,1721207002296
-1.30,1.03,13.21,0.05,0.14,-0.01,1721207002306
0.42,3.02,7.36,0.14,0.10,-0.03,1721207002316
1.06,-0.23,4.13,-0.02,0.15,-0.18,1721207002326
-0.83,1.52,11.81,0.03,0.07,-0.22,1721207002336
-2.13,2.40,11.08,0.02,0.12,-0.18,1721207002346
-2.11,0.98,10.46,-0.06,0.10,-0.02,1721207002356
0.86,2.84,12.11,-0.07,0.20,0.12,1721207002366
2.93,-0.32,8.29,-0.09,0.09,-0.03,1721207002376
2.23,-2.30,9.24,-0.19,0.12,-0.28,1721207002386
-0.71,-0.10,10.15,-0.05,0.08,-0.39,1721207002396
-2.96,-1.48,9.98,-0.10,0.10,-0.30,1721207002406
-3.48,2.69,15.21,0.01,0.07,-0.05,1721207002416
-1.21,3.29,11.20,0.01,0.15,0.12,1721207002426
0.76,3.92,10.63,0.03,0.09,0.10,1721207002436
1.85,-0.71,9.32,-0.09,0.16,-0.11,1721207002446
0.25,-3.21,8.75,-0.06,-0.00,-0.25,1721207002456
-0.72,-0.53,7.19,-0.01,0.09,-0.19,1721207002466
-0.71,1.91,11.28,0.01,0.18,-0.13,1721207002476
-1.85,1.47,9.29,0.09,0.02,-0.00,1721207002486
-1.65,-0.74,10.36,-0.09,0.13,-0.02,1721207002496
0.31,0.22,10.51,0.04,0.06,0.02,1721207002506
1.38,0.59,5.62,0.01,0.05,0.09,1721207002516
1.34,-1.35,12.28,-0.11,0.20,-0.13,1721207002526
-0.00,-2.28,15.32,-0.01,-0.00,-0.27,1721207002536
-2.26,-1.47,7.65,-0.05,-0.04,-0.12,1721207002546
-1.98,0.38,17.87,-0.08,0.21,0.06,1721207002556
0.05,3.87,13.84,0.22,0.05,0.17,1721207002566
0.30,2.12,3.76,0.09,-0.02,0.08,1721207002576
0.28,3.35,10.14,0.14,0.08,-0.12,1721207002586
1.24,-3.12,7.63,0.06,0.02,-0.05,1721207002596
-1.10,1.28,9.49,0.06,0.05,-0.04,1721207002606
-0.21,-3.89,10.65,-0.11,0.12,-0.01,1721207002616
-1.41,0.85,14.43,0.15,-0.15,0.10,1721207002626
2.04,1.30,10.39,0.19,0.30,0.08,1721207002636
0.87,3.98,7.98,0.13,-0.12,-0.01,1721207002646
-2.08,7.93,11.10,0.13,-0.04,-0.16,1721207002656
-0.05,-4.12,10.31,-0.03,0.15,-0.11,1721207002666
-0.70,-5.21,11.94,0.03,-0.06,0.09,1721207002676
1.55,1.64,6.81,0.19,0.09,0.13,1721207002686
2.40,-4.14,5.46,-0.02,0.09,0.04,1721207002696
0.60,3.80,16.36,0.11,0.09,-0.25,1721207002706
0.76,5.50,7.99,0.25,-0.02,-0.25,1721207002716
-2.14,0.24,6.94,-0.05,0.05,-0.14,1721207002726
-1.69,-4.51,10.54,-0.04,0.11,0.08,1721207002736
1.01,-2.93,8.43,0.06,0.09,0.06,1721207002746
2.50,3.20,6.52,0.08,0.11,-0.15,1721207002756
1.65,0.70,9.77,-0.05,0.15,-0.32,1721207002766
-1.80,-2.77,15.56,-0.04,0.03,-0.31,1721207002776
-3.80,-1.36,10.67,-0.06,-0.01,-0.19,1721207002786
-2.62,4.92,12.33,0.03,0.05,0.04,1721207002796
0.88,-0.88,9.87,-0.06,0.17,0.04,1721207002806
0.91,-1.02,7.78,0.08,-0.08,-0.11,1721207002816
1.11,2.13,6.69,-0.03,0.24,-0.36,1721207002826
-0.60,-3.67,14.82,-0.29,0.11,-0.40,1721207002836
-3.59,4.22,24.44,0.14,-0.00,-0.17,1721207002846
-1.47,4.42,4.21,0.23,0.00,0.07,1721207002856
-0.69,-1.81,4.95,-0.10,0.13,0.09,1721207002866
2.04,4.35,14.49,0.15,0.17,-0.12,1721207002876
2.43,3.91,3.31,0.15,-0.09,-0.24,1721207002886
-0.97,-2.55,6.57,-0.15,0.16,-0.35,1721207002896
-1.99,-3.05,17.29,0.00,0.16,-0.20,1721207002906
-2.19,8.77,12.51,0.24,0.10,-0.02,1721207002916
1.37,1.26,7.57,-0.09,0.25,0.09,1721207002926
0.61,-3.58,9.46,-0.05,-0.13,-0.00,1721207002936
1.39,-1.44,11.01,-0.06,0.25,-0.11,1721207002946
0.66,1.27,9.04,0.02,-0.04,-0.16,1721207002956
-2.80,4.16,5.53,0.04,0.05,-0.22,1721207002966
-2.05,-5.02,11.43,-0.31,0.24,-0.16,1721207002976
-3.14,0.08,16.37,0.07,-0.07,0.09,1721207002986
-0.85,3.39,5.63,0.05,0.26,0.16,1721207002996
0.63,-1.84,9.04,-0.19,0.00,0.10,1721207003006
0.11,2.24,15.43,0.02,0.08,-0.06,1721207003016
1.05,-1.07,6.68,-0.02,-0.03,-0.08,1721207003026
-3.17,2.84,11.06,-0.04,-0.05,-0.11,1721207003036
-1.80,-1.81,10.04,-0.07,0.17,0.07,1721207003046
-1.30,0.22,9.20,-0.03,-0.13,0.12,1721207003056
0.43,1.41,10.92,-0.06,0.14,0.01,1721207003066
1.29,-3.76,8.28,-0.01,-0.02,-0.00,1721207003076
-0.52,2.21,11.29,-0.08,0.12,-0.10,1721207003086
0.10,2.23,13.00,-0.04,0.01,-0.11,1721207003096
-0.81,0.81,14.03,-0.04,-0.06,-0.00,1721207003106
-0.09,-0.49,11.38,0.04,0.12,0.10,1721207003116
-0.60,-0.62,7.42,0.06,-0.05,0.08,1721207003126
-0.58,6.37,8.16,0.17,0.10,-0.11,1721207003136
1.36,1.17,8.83,0.15,0.05,-0.04,1721207003146
0.02,-1.64,9.34,0.11,0.03,0.03,1721207003156
-0.26,-1.95,8.78,0.05,0.05,0.00,1721207003166
-1.59,2.96,11.31,-0.01,-0.03,-0.04,1721207003176
-0.11,1.73,12.89,0.08,0.06,0.01,1721207003186
2.13,-2.64,7.64,0.07,0.06,0.07,1721207003196
0.64,-0.24,7.75,0.07,0.02,-0.03,1721207003206
-0.63,-1.47,10.66,-0.09,0.13,-0.13,1721207003216
-1.72,0.90,16.52,0.05,-0.03,-0.15,1721207003226
-0.03,5.54,5.70,0.35,0.02,0.07,1721207003236
0.99,-7.45,1.30,-0.17,0.07,0.12,1721207003246
-1.45,-4.31,21.16,-0.19,0.06,-0.05,1721207003256
-1.27,5.38,8.38,0.35,-0.07,-0.13,1721207003266
-0.59,-1.79,-3.70,-0.16,0.04,0.04,1721207003276
-0.78,-2.66,19.64,-0.22,0.13,0.09,1721207003286
0.34,3.46,15.72,0.23,0.01,0.11,1721207003296
0.85,1.60,0.65,-0.01,0.03,0.03,1721207003306
0.33,-2.44,8.90,-0.22,0.05,-0.04,1721207003316
-0.48,-1.53,22.63,-0.11,0.02,0.04,1721207003326
-0.84,6.96,10.94,0.25,-0.12,0.17,1721207003336
1.58,0.21,-0.48,-0.09,0.11,0.14,1721207003346
0.92,-6.10,18.14,-0.39,0.03,-0.09,1721207003356
-1.27,4.51,19.48,0.15,-0.11,-0.08,1721207003366
-0.86,6.79,1.52,0.20,0.05,0.15,1721207003376
1.21,-4.51,7.99,0.00,0.14,0.22,1721207003386
2.71,1.03,17.24,0.17,0.08,0.03,1721207003396
1.86,7.57,10.53,0.29,-0.02,-0.16,1721207003406
-1.04,2.82,5.69,0.11,-0.05,-0.13,1721207003416
-1.92,-2.94,13.70,0.02,0.08,0.02,1721207003426
-0.26,0.47,10.46,0.27,-0.03,0.14,1721207003436
0.70,4.50,1.24,0.15,0.06,0.03,1721207003446
0.61,-1.03,10.85,-0.06,0.08,-0.11,1721207003456
-1.82,0.85,16.30,0.16,-0.08,-0.08,1721207003466
-2.55,0.28,7.92,0.08,0.03,0.04,1721207003476
-1.14,0.76,9.62,-0.01,0.02,0.20,1721207003486
0.84,-1.81,9.81,-0.09,0.02,0.14,1721207003496
1.67,0.99,10.07,0.03,-0.07,0.04,1721207003506
1.19,1.93,5.58,0.03,-0.04,-0.09,1721207003516
-0.66,-2.73,8.99,-0.17,-0.01,-0.15,1721207003526
-2.73,-0.28,12.97,0.00,-0.13,-0.03,1721207003536
-1.16,0.01,11.80,-0.14,0.05,0.19,1721207003546
0.83,1.75,10.89,0.02,-0.08,0.17,1721207003556
1.83,0.66,6.66,-0.06,-0.06,0.01,1721207003566
1.79,-1.37,12.12,-0.22,-0.01,-0.13,1721207003576
-0.55,1.43,10.55,-0.00,-0.16,-0.13,1721207003586
-1.83,-0.30,8.14,-0.20,0.01,-0.04,1721207003596
-1.63,-0.08,12.80,-0.12,-0.09,0.13,1721207003606
0.73,1.70,9.09,-0.06,-0.03,0.13,1721207003616
2.38,-0.48,10.29,-0.20,-0.05,-0.05,1721207003626
-3.97,0.31,9.88,0.12,0.06,-0.08,1721207004161
-5.04,-0.68,5.64,0.06,-0.00,-0.00,1721207004165
-1.61,1.55,9.84,-0.14,0.17,0.17,1721207004175
1.93,1.94,17.27,-0.05,0.05,0.12,1721207004185
2.04,-4.81,7.21,-0.05,-0.02,-0.18,1721207004195
-2.12,-0.35,6.51,-0.10,-0.05,-0.36,1721207004205
-2.33,0.98,14.52,-0.17,0.13,-0.13,1721207004215
-0.99,0.98,13.03,0.05,-0.03,0.12,1721207004225
0.01,1.80,2.43,0.04,-0.01,0.11,1721207004235
0.72,-2.65,5.31,-0.15,0.09,-0.18,1721207004245
-0.29,-2.53,13.00,-0.22,-0.04,-0.22,1721207004255
-3.00,2.37,13.08,-0.03,-0.03,-0.15,1721207004265
-2.18,-0.06,8.85,-0.08,0.03,0.12,1721207004275
1.17,-0.64,9.81,-0.13,0.02,0.19,1721207004285
3.24,-0.61,12.62,-0.18,0.03,-0.03,1721207004295
1.88,2.58,14.58,-0.16,0.00,-0.26,1721207004305
-1.24,3.02,5.77,0.06,-0.09,-0.17,1721207004315
-1.01,-7.62,8.13,-0.22,0.16,-0.11,1721207004325
0.08,-0.24,17.14,0.03,0.03,0.01,1721207004335
1.52,7.75,8.05,0.20,0.01,0.04,1721207004345
2.21,-1.30,6.28,-0.13,0.14,-0.12,1721207004355
0.35,-1.90,19.60,-0.06,0.03,-0.33,1721207004365
0.07,3.93,9.55,0.15,-0.02,-0.20,1721207004375
0.01,0.62,2.93,-0.06,0.19,-0.16,1721207004385
-0.92,-2.72,13.78,-0.03,0.09,-0.18,1721207004395
-0.02,-0.54,9.71,0.17,0.08,-0.08,1721207004405
1.76,4.98,10.87,0.20,0.20,-0.05,1721207004415
2.13,-2.40,6.85,0.07,0.15,-0.21,1721207004425
-0.58,-1.52,10.95,-0.00,0.16,-0.48,1721207004435
-2.83,1.08,13.95,0.10,0.06,-0.34,1721207004445
-2.88,3.26,8.91,0.19,0.12,-0.00,1721207004455
0.51,-2.87,10.08,-0.04,0.36,0.06,1721207004465
0.34,-1.10,12.03,0.05,0.01,-0.15,1721207004475
0.03,4.76,7.56,0.04,0.15,-0.29,1721207004485
-0.24,1.77,15.47,-0.09,0.24,-0.20,1721207004495
-1.80,-0.57,9.74,0.19,0.00,0.03,1721207004505
0.90,-1.74,1.05,0.09,0.31,0.05,1721207004515
2.25,-3.03,10.44,-0.16,0.16,-0.13,1721207004525
-1.34,3.31,18.40,0.11,0.00,-0.22,1721207004535
-2.11,1.11,4.96,0.21,0.09,0.00,1721207004545
-1.24,2.15,8.71,-0.01,0.17,0.14,1721207004555
-0.22,-2.43,14.20,-0.06,0.10,0.01,1721207004565
-1.70,1.18,10.55,0.12,-0.03,-0.01,1721207004575
-1.35,5.08,5.25,0.04,0.11,0.17,1721207004585
0.55,-3.64,13.69,-0.22,0.17,0.14,1721207004595
0.12,3.57,18.13,0.24,-0.04,0.16,1721207004605
1.36,3.60,-2.32,0.07,0.05,0.15,1721207004615
0.77,-4.97,6.64,-0.43,0.10,0.05,1721207004625
-0.79,1.67,19.78,0.02,-0.05,0.02,1721207004635
-0.06,2.56,4.01,0.13,-0.01,0.10,1721207004645
0.77,-0.38,6.44,-0.21,0.08,0.05,1721207004655
-0.66,-1.14,16.03,-0.21,-0.04,-0.01,1721207004665
-2.10,4.13,22.93,-0.10,0.03,-0.06,1721207004675
-1.44,3.00,9.76,0.18,-0.11,0.10,1721207004685
-0.28,-1.26,3.16,-0.17,0.04,0.20,1721207004695
2.03,2.88,15.69,0.03,0.14,0.09,1721207004705
2.19,1.26,5.76,0.12,-0.17,-0.06,1721207004715
-1.11,0.52,5.15,-0.06,-0.07,-0.08,1721207004725
-0.87,0.35,9.65,-0.01,0.08,-0.03,1721207004735
0.45,0.82,11.49,-0.03,-0.03,0.16,1721207004745
1.20,-1.30,12.72,-0.13,-0.03,0.08,1721207004755
1.26,0.21,10.33,0.03,-0.10,-0.12,1721207004765
1.29,-2.19,9.91,-0.10,0.03,-0.13,1721207004775
-0.90,1.39,12.61,0.05,-0.08,-0.10,1721207004785
-1.68,2.40,13.01,0.03,0.01,-0.10,1721207004795
-1.69,-2.30,8.84,0.00,-0.11,0.00,1721207004805
-0.90,-1.66,8.37,-0.01,-0.01,0.11,1721207004815
1.01,1.63,10.90,0.13,-0.01,0.14,1721207004825
1.76,3.38,8.47,0.05,-0.04,-0.05,1721207004835
-0.59,5.60,11.74,0.05,-0.10,-0.23,1721207004845
-1.29,-3.62,8.47,-0.12,-0.08,-0.09,1721207004855
-1.17,-7.28,10.74,-0.22,-0.06,0.17,1721207004865
0.85,-0.42,9.33,0.06,-0.05,0.19,1721207004875
4.28,-0.74,7.10,-0.01,0.04,-0.06,1721207004885
2.24,5.47,15.49,0.18,-0.05,-0.37,1721207004895
-2.66,4.22,7.69,0.20,-0.13,-0.38,1721207004905
-4.37,0.72,11.80,-0.07,0.04,-0.10,1721207004915
-1.15,-1.03,15.99,0.03,-0.02,0.18,1721207004925
2.03,1.38,6.94,0.20,-0.07,0.18,1721207004935
3.62,-4.04,5.57,0.06,0.04,-0.12,1721207004945
1.49,3.22,12.59,0.20,0.00,-0.40,1721207004955
-1.24,1.57,9.22,0.05,-0.08,-0.42,1721207004965
-3.21,-0.54,14.76,0.00,-0.01,-0.14,1721207004975
-2.44,-1.10,6.17,0.20,-0.08,0.14,1721207004985
1.16,-0.25,1.90,0.02,0.07,0.13,1721207004995
4.66,2.04,11.16,-0.03,0.15,-0.19,1721207005005
4.32,-1.58,9.84,0.01,-0.10,-0.45,1721207005015
-0.91,-7.44,12.73,-0.25,0.15,-0.67,1721207005025
-5.04,-1.59,20.35,-0.05,-0.07,-0.43,1721207005035
-3.70,8.02,10.13,0.31,0.04,-0.04,1721207005045
1.80,4.59,1.87,0.12,0.21,0.11,1721207005055
1.07,-1.23,6.10,0.02,-0.11,-0.17,1721207005065
-0.34,-0.72,12.03,0.01,0.19,-0.43,1721207005075
-1.17,-0.57,8.95,0.00,0.02,-0.43,1721207005085
-3.85,-0.68,10.78,-0.10,-0.00,-0.15,1721207005095
-1.45,1.13,12.85,-0.02,0.15,0.06,1721207005105
1.82,2.46,12.48,0.05,0.11,-0.03,1721207005115
3.35,1.38,10.04,0.03,0.09,-0.22,1721207005125
1.51,-0.73,8.20,-0.08,0.07,-0.37,1721207005135
-0.80,1.41,16.08,-0.01,0.10,-0.44,1721207005145
-1.40,0.03,7.45,0.12,0.04,-0.29,1721207005155
-1.51,3.10,8.20,0.12,0.16,-0.14,1721207005165
0.54,1.97,10.54,0.08,0.32,-0.22,1721207005175
0.29,-1.75,14.87,-0.06,0.16,-0.31,1721207005185
-1.45,3.86,15.73,0.16,0.05,-0.30,1721207005195
-1.09,2.16,3.07,0.16,0.16,-0.20,1721207005205
-1.87,3.99,7.41,0.08,0.20,-0.18,1721207005215
0.59,-2.71,8.39,0.00,0.25,-0.12,1721207005225
-0.51,-0.93,11.52,0.01,0.08,-0.19,1721207005235
-1.58,3.38,10.54,0.06,0.18,-0.23,1721207005245
-1.81,-1.82,5.83,-0.05,0.12,-0.15,1721207005255
-1.41,-0.89,13.37,-0.07,0.28,-0.11,1721207005265
0.60,2.72,12.91,0.18,0.13,-0.10,1721207005275
-0.03,2.28,7.21,0.00,0.15,-0.15,1721207005285
-1.60,0.32,14.54,-0.08,0.21,-0.30,1721207005295
-3.41,0.30,9.99,0.16,-0.02,-0.16,1721207005305
-2.82,-1.40,5.17,-0.04,0.21,0.05,1721207005315
-1.88,-0.79,11.24,-0.00,0.09,0.14,1721207005325
-1.00,3.79,10.46,0.17,0.05,0.04,1721207005335
0.57,-1.74,3.72,-0.02,0.10,0.04,1721207005345
-1.04,0.22,11.90,-0.03,0.06,-0.02,1721207005355
-1.80,-0.44,10.59,0.01,0.10,0.03,1721207005365
-2.05,0.30,10.47,-0.01,0.01,0.15,1721207005375
0.10,3.84,10.44,0.04,0.07,0.18,1721207005385
2.93,-1.36,7.96,-0.12,0.08,0.12,1721207005395
1.97,-1.38,14.48,-0.11,0.05,-0.09,1721207005405
0.11,-0.54,10.47,-0.09,-0.01,-0.18,1721207005415
-2.71,0.44,11.85,-0.07,-0.05,-0.04,1721207005425
-0.94,-0.88,11.67,-0.03,0.16,0.14,1721207005435
0.87,-0.78,7.30,0.04,-0.02,0.25,1721207005445
1.75,7.18,9.96,-0.01,0.17,-0.00,1721207005455
1.74,-2.30,10.75,-0.14,0.03,-0.23,1721207005465
-1.87,-0.84,10.59,0.06,-0.10,-0.11,1721207005475
-1.14,1.14,9.20,-0.06,0.26,0.10,1721207005485
-1.07,1.52,9.62,0.02,-0.11,0.20,1721207005495
1.89,-4.50,10.11,-0.09,0.17,0.11,1721207005505
2.40,0.36,10.66,0.04,-0.02,-0.10,1721207005515
-1.15,5.87,6.29,0.12,-0.02,-0.22,1721207005525
-2.53,-3.11,8.02,-0.13,0.14,-0.00,1721207005535
-2.71,-4.06,13.57,0.01,-0.01,0.19,1721207005545
0.33,2.96,7.58,0.03,0.11,0.26,1721207005555
2.48,-1.69,12.37,-0.18,0.05,0.12,1721207005565
0.69,1.04,21.25,-0.07,-0.04,0.02,1721207005575
-0.26,5.66,9.59,0.15,-0.07,-0.03,1721207005585
-0.05,-1.89,4.12,-0.08,0.03,0.07,1721207005595
-1.03,-2.13,17.82,-0.08,0.08,0.14,1721207005605
-0.75,3.63,7.81,0.27,-0.10,0.15,1721207005615
0.95,3.26,2.54,0.16,0.11,0.13,1721207005625
2.07,-3.06,10.73,0.05,0.02,0.08,1721207005635
-0.24,4.30,17.14,0.23,-0.08,-0.04,1721207005645
-1.52,6.90,8.83,0.27,-0.05,0.04,1721207005655
-1.80,-0.19,7.85,0.03,-0.05,0.18,1721207005665
-0.58,-2.75,16.70,0.08,0.02,0.20,1721207005675
0.77,1.29,3.23,0.33,-0.15,0.19,1721207005685
1.34,2.19,1.88,0.11,0.04,0.10,1721207005695
1.73,-1.66,12.48,0.01,0.02,0.02,1721207005705
-0.14,2.31,17.31,0.24,-0.14,-0.01,1721207005715
-1.24,3.52,7.78,0.24,-0.11,0.10,1721207005725
-0.87,0.59,4.95,0.09,-0.04,0.19,1721207005735
0.20,-1.56,10.03,-0.08,-0.04,0.14,1721207005745
-0.22,-2.07,11.48,0.08,-0.18,0.07,1721207005755
-0.03,1.60,11.70,0.13,-0.03,0.04,1721207005765
0.52,0.06,9.63,0.06,-0.10,0.06,1721207005775
-0.98,0.63,7.51,0.04,-0.21,0.16,1721207005785
0.63,2.71,11.20,-0.06,0.08,0.07,1721207005795
1.53,1.59,8.15,0.06,-0.17,0.03,1721207005805
0.58,-3.12,5.72,-0.18,-0.11,0.00,1721207005815
1.46,-3.47,14.03,-0.17,-0.01,-0.03,1721207005825
0.93,0.61,12.32,-0.06,-0.16,-0.05,1721207005835
0.13,0.71,12.41,-0.21,-0.07,-0.11,1721207005845
0.44,3.83,13.02,0.09,-0.11,-0.08,1721207005855
0.87,4.27,8.05,-0.00,-0.04,-0.08,1721207005865
-0.06,-2.23,7.93,-0.16,-0.07,-0.16,1721207005875
-0.97,0.10,12.90,-0.04,-0.05,-0.15,1721207005885
0.11,2.18,6.13,-0.02,-0.03,-0.13,1721207005895
0.44,1.61,10.38,-0.05,-0.04,-0.05,1721207005905
1.47,-0.85,12.32,-0.07,0.04,-0.11,1721207005915
0.57,2.87,8.18,-0.06,-0.12,-0.24,1721207005925
-0.26,0.68,10.44,-0.21,0.03,-0.26,1721207005935
0.22,-3.33,12.06,-0.16,-0.04,-0.17,1721207005945
-0.15,0.44,13.75,-0.07,0.04,-0.18,1721207005955
-0.57,1.41,9.04,0.01,-0.03,-0.27,1721207005965
-0.48,-1.83,7.29,-0.14,0.05,-0.23,1721207005975
-0.05,-2.79,16.96,-0.12,0.12,-0.22,1721207005985
-0.76,5.21,12.76,0.15,-0.04,-0.18,1721207005995
-0.17,6.00,5.37,0.10,0.04,-0.11,1721207006005
1.33,-2.28,8.11,-0.06,0.11,-0.19,1721207006015
1.47,-0.14,10.17,0.09,0.01,-0.25,1721207006025
1.75,3.57,8.85,-0.05,0.22,-0.38,1721207006035
-0.57,-1.18,13.76,-0.10,0.02,-0.45,1721207006045
-2.25,2.79,11.18,0.10,0.07,-0.31,1721207006055
0.07,-1.62,4.89,-0.07,0.22,-0.15,1721207006065
0.73,-2.63,12.40,-0.15,0.18,-0.18,1721207006075
1.38,0.46,15.05,-0.04,0.20,-0.51,1721207006085
-0.09,3.92,10.75,0.14,0.14,-0.56,1721207006095
-1.78,-2.01,8.32,-0.07,0.25,-0.43,1721207006105
-2.49,-5.24,12.65,-0.03,0.22,-0.30,1721207006115
-0.62,2.05,9.87,0.13,0.25,-0.29,1721207006125
1.57,6.76,13.23,0.13,0.36,-0.34,1721207006135
-0.74,0.92,5.34,0.15,0.06,-0.44,1721207006145
-2.79,-3.73,7.75,-0.03,0.37,-0.44,1721207006155
-1.74,2.33,3.67,0.09,0.30,-0.17,1721207006170
-1.17,0.16,2.86,-0.07,0.26,-0.15,1721207006174
-0.25,-1.44,16.46,-0.18,0.42,-0.23,1721207006184
-0.29,3.84,17.07,0.15,0.26,-0.31,1721207006194
-0.27,0.91,9.06,-0.05,0.32,-0.33,1721207006204
-1.49,-1.72,12.60,-0.18,0.19,-0.26,1721207006214
-2.05,-0.69,16.07,-0.07,0.34,-0.25,1721207006224
-0.20,1.38,10.07,0.18,0.24,-0.21,1721207006234
-0.75,-3.05,6.14,-0.04,0.20,-0.16,1721207006244
-2.81,3.63,14.94,0.13,0.23,-0.11,1721207006254
-1.85,3.72,4.48,0.20,0.24,-0.15,1721207006264
-3.25,4.57,9.77,0.09,0.33,-0.09,1721207006274
-1.01,1.04,12.32,0.17,0.31,0.13,1721207006284
0.55,2.15,5.86,0.31,0.12,0.26,1721207006294
2.47,2.71,3.33,0.19,0.36,0.08,1721207006304
1.73,-5.50,9.88,-0.21,0.13,-0.14,1721207006314
-3.33,4.21,21.08,0.11,0.02,-0.13,1721207006324
-2.56,4.19,5.25,0.35,0.27,0.08,1721207006334
-0.44,-4.75,5.61,-0.08,0.31,0.22,1721207006344
-0.70,1.31,13.36,0.09,0.10,0.20,1721207006354
2.93,-1.17,11.65,-0.01,0.35,0.13,1721207006364
0.59,8.90,12.94,0.35,0.04,-0.03,1721207006374
0.29,-0.20,-0.51,0.13,0.20,-0.08,1721207006384
-1.64,-6.77,21.92,-0.26,0.28,-0.05,1721207006394
-4.60,7.55,14.28,0.39,-0.15,0.09,1721207006404
-3.29,2.15,-5.46,0.01,0.20,0.24,1721207006414
-0.93,-3.41,13.77,-0.07,0.31,0.43,1721207006424
2.09,1.81,6.78,0.29,0.03,0.40,1721207006434
3.00,3.26,2.42,-0.10,0.21,0.08,1721207006444
-0.07,-2.12,13.25,-0.27,0.08,-0.06,1721207006454
-2.81,-1.76,15.25,-0.07,0.00,0.13,1721207006464
-1.69,0.69,8.20,0.00,0.11,0.33,1721207006474
1.32,-2.27,8.50,-0.24,0.16,0.32,1721207006484
1.75,2.10,11.94,-0.04,-0.02,0.14,1721207006494
0.39,-4.61,5.07,-0.28,0.03,-0.01,1721207006504
-2.65,-1.77,18.27,-0.15,0.00,0.03,1721207006514
-1.98,1.43,7.72,0.11,0.01,0.24,1721207006524
-0.44,5.47,4.94,-0.17,0.12,0.27,1721207006534
0.36,3.92,9.11,-0.16,0.00,0.22,1721207006544
0.26,-7.13,10.46,-0.50,0.05,0.11,1721207006554
-2.01,-0.21,20.66,-0.21,-0.07,0.09,1721207006564
-1.07,3.19,7.82,-0.14,-0.05,0.24,1721207006574
-0.54,-1.76,10.24,-0.45,0.05,0.31,1721207006584
0.24,-2.49,16.07,-0.21,-0.07,0.35,1721207006594
1.75,0.60,8.47,-0.11,-0.10,0.26,1721207006604
2.31,3.79,7.07,-0.08,0.06,0.11,1721207006614
0.08,2.72,14.62,-0.10,-0.01,-0.06,1721207006624
-1.29,-0.97,15.50,-0.07,-0.12,0.04,1721207006634
-2.37,3.39,5.44,0.18,-0.07,0.20,1721207006644
-0.45,-2.95,4.15,-0.05,0.05,0.34,1721207006654
0.15,1.97,15.29,0.06,-0.10,0.30,1721207006664
1.80,2.02,7.51,0.19,-0.09,0.20,1721207006674
1.69,-2.28,6.50,-0.01,-0.05,0.12,1721207006684
-0.59,0.95,10.81,0.12,-0.14,0.13,1721207006694
-0.73,-0.24,6.34,0.00,-0.06,0.16,1721207006704
1.05,-1.92,12.28,-0.16,-0.04,0.25,1721207006714
1.95,-2.11,17.40,-0.06,-0.08,0.23,1721207006724
2.44,1.02,10.01,0.02,-0.10,0.10,1721207006734
0.69,-0.48,9.79,-0.17,-0.04,0.01,1721207006744
-0.80,0.03,18.14,-0.09,-0.00,-0.03,1721207006754
-0.37,-0.87,12.40,0.17,-0.05,0.21,1721207006764
1.47,6.22,8.35,0.17,0.04,0.23,1721207006774
2.80,5.76,11.73,0.13,0.01,-0.04,1721207006784
0.38,0.41,9.26,0.13,-0.15,-0.11,1721207006794
-2.06,-6.40,7.25,0.01,0.04,-0.07,1721207006804
-2.13,3.61,11.47,0.24,-0.04,0.13,1721207006814
2.07,2.00,9.29,0.09,0.10,0.25,1721207006824
2.08,4.00,14.74,0.22,-0.07,0.04,1721207006834
1.13,2.95,6.38,0.24,0.04,-0.16,1721207006844
-1.30,-0.61,5.28,0.05,-0.05,-0.08,1721207006854
-2.59,-4.44,10.46,-0.09,0.02,-0.04,1721207006864
-1.78,0.05,11.75,0.19,-0.05,0.15,1721207006874
1.15,5.26,4.01,0.24,0.04,0.29,1721207006884
3.53,-1.78,8.47,-0.20,0.07,0.03,1721207006894
0.68,-2.24,23.59,-0.05,-0.05,-0.31,1721207006904
-2.80,4.56,8.53,0.37,-0.14,-0.22,1721207006914
-2.75,0.25,-1.98,-0.14,0.05,0.14,1721207006924
-1.14,-4.42,13.75,-0.28,-0.04,0.28,1721207006934
1.98,-0.80,12.12,0.11,0.01,0.13,1721207006944
2.80,0.57,3.30,-0.09,-0.03,-0.07,1721207006954
-0.20,-2.46,15.96,-0.33,-0.00,-0.20,1721207006964
-1.62,-2.26,18.21,0.04,-0.06,-0.04,1721207006974
0.02,7.08,7.06,0.26,0.01,0.22,1721207006984
2.64,4.70,1.68,-0.11,0.07,0.07,1721207006994
2.53,-8.06,13.66,-0.33,0.01,-0.17,1721207007004
-0.54,3.89,18.20,0.18,-0.07,-0.31,1721207007014
-2.34,6.22,0.98,0.05,-0.01,-0.12,1721207007024
-2.85,4.42,15.63,-0.13,0.09,0.09,1721207007034
0.72,-2.38,10.08,0.00,-0.02,0.12,1721207007044
1.64,-5.89,4.22,-0.10,-0.02,0.00,1721207007054
1.61,-1.53,15.17,-0.17,0.18,-0.18,1721207007064
-0.40,8.16,20.59,0.17,-0.05,-0.28,1721207007074
-2.61,8.78,5.43,0.29,-0.10,-0.19,1721207007084
-2.97,-7.30,5.85,-0.15,0.09,0.03,1721207007094
-1.76,-2.88,17.73,-0.01,0.17,0.14,1721207007104
1.26,7.12,10.70,0.25,-0.00,0.08,1721207007114
2.60,0.90,5.08,0.14,-0.01,-0.05,1721207007124
1.12,-0.46,8.89,0.22,0.03,-0.30,1721207007134
-2.05,2.49,4.58,0.20,-0.02,-0.24,1721207007144
-2.80,4.53,14.25,-0.04,0.20,-0.10,1721207007154
-1.50,3.19,11.03,0.18,-0.05,0.07,1721207007164
-0.59,-0.61,-0.01,-0.02,-0.04,0.12,1721207007174
2.69,-7.36,5.88,-0.28,0.26,0.01,1721207007184
2.04,-4.05,9.89,-0.12,-0.06,-0.13,1721207007194
0.28,-0.66,13.31,-0.23,0.22,-0.35,1721207007204
-1.65,-1.50,20.12,-0.13,0.04,-0.26,1721207007214
-4.94,6.65,18.22,0.07,-0.05,-0.04,1721207007224
-2.49,2.35,4.32,0.04,-0.01,0.18,1721207007234
1.07,-4.28,-2.99,-0.21,0.05,0.18,1721207007244
2.78,-6.41,16.04,-0.45,0.28,-0.07,1721207007254
0.13,1.09,24.07,0.08,-0.12,-0.30,1721207007264
-4.02,-0.04,1.37,0.11,-0.15,-0.30,1721207007274
-4.70,-0.96,4.81,-0.22,0.17,0.11,1721207007284
-1.91,-0.37,11.82,-0.17,0.00,0.47,1721207007294
1.36,1.73,14.89,-0.06,-0.08,0.33,1721207007304
2.85,0.77,2.89,0.01,-0.21,0.05,1721207007314
2.27,-5.51,9.62,-0.37,0.23,-0.17,1721207007324
0.26,-0.39,25.42,-0.07,0.03,-0.20,1721207007334
-4.47,3.78,8.98,0.01,-0.32,-0.12,1721207007344
-4.47,1.61,16.38,-0.18,0.14,0.18,1721207007354
-0.54,2.01,17.05,0.30,-0.07,0.47,1721207007364
2.20,3.50,3.04,0.17,-0.10,0.44,1721207007374
3.28,0.81,6.98,0.03,-0.11,0.08,1721207007384
0.72,3.94,12.58,0.10,-0.19,-0.20,1721207007394
-1.28,5.54,11.48,0.23,-0.07,-0.14,1721207007404
-2.05,1.06,10.04,0.16,-0.03,0.10,1721207007414
-0.52,-1.64,10.18,0.10,-0.13,0.23,1721207007424
1.55,0.10,10.27,0.09,-0.07,0.21,1721207007434
1.39,4.41,13.30,0.18,-0.06,-0.02,1721207007444
0.83,1.12,4.02,0.36,-0.24,0.00,1721207007454
0.21,0.35,6.01,0.17,0.08,-0.00,1721207007464
0.42,1.14,10.98,0.17,-0.10,0.00,1721207007474
-1.10,2.33,5.30,0.20,-0.20,0.08,1721207007484
0.39,-3.19,6.82,-0.00,0.08,0.13,1721207007494
1.80,-1.59,14.30,0.14,-0.09,0.12,1721207007504
2.74,3.19,6.91,0.24,-0.07,0.00,1721207007514
1.38,0.95,5.57,-0.08,-0.07,-0.17,1721207007524
-2.03,-2.62,13.40,-0.22,-0.10,-0.25,1721207007534
-3.46,-2.23,12.01,0.07,-0.13,-0.04,1721207007544
-1.88,-2.43,4.26,-0.03,-0.07,0.23,1721207007554
1.56,1.12,11.40,-0.10,0.06,0.23,1721207007564
1.96,0.80,12.16,-0.08,-0.14,-0.09,1721207007574
0.17,0.78,9.00,0.06,-0.14,-0.20,1721207007584
-0.75,-2.45,10.09,-0.23,0.01,-0.09,1721207007594
-1.85,4.64,24.60,-0.08,-0.10,-0.02,1721207007604
-1.70,6.00,4.04,0.21,-0.33,0.05,1721207007614
0.11,-6.23,-1.08,-0.38,0.07,0.04,1721207007624
0.54,1.15,18.29,-0.10,-0.04,-0.02,1721207007634
0.97,1.30,5.53,0.12,-0.18,-0.06,1721207007644
-0.30,0.46,10.74,-0.17,0.02,-0.20,1721207007654
-0.63,2.33,11.41,0.07,-0.17,-0.12,1721207007664
-1.05,-0.21,4.21,-0.06,-0.10,-0.06,1721207007674
-0.23,-1.68,14.08,-0.19,0.08,-0.01,1721207007684
0.02,-0.49,15.70,-0.06,-0.09,-0.08,1721207007694
-0.09,1.53,11.91,-0.04,-0.10,-0.12,1721207007704
1.20,0.52,8.80,-0.07,-0.02,-0.14,1721207007714
-0.57,2.21,10.06,-0.00,-0.08,-0.16,1721207007724
-0.38,4.67,11.78,0.05,0.03,-0.16,1721207007734
-0.13,2.71,6.14,0.12,-0.08,-0.15,1721207007744
-0.89,-8.58,8.05,-0.19,-0.00,-0.21,1721207007754
-2.13,0.78,13.71,0.07,-0.04,-0.05,1721207007764
-0.01,5.20,5.15,0.11,0.05,0.00,1721207007774
2.04,-1.81,6.26,-0.09,0.01,-0.06,1721207007784
2.91,-2.05,15.47,-0.05,0.07,-0.25,1721207007794
1.66,2.11,12.98,0.08,0.05,-0.44,1721207007804
-2.18,-0.45,8.00,-0.14,-0.07,-0.37,1721207007814
-3.08,2.43,12.96,-0.09,0.09,-0.19,1721207007824
0.13,-1.00,7.37,0.04,0.10,-0.04,1721207007834
0.50,-4.31,8.55,-0.13,0.06,-0.18,1721207007844
-0.41,0.42,15.56,-0.09,0.09,-0.39,1721207007854
-0.76,0.35,9.71,-0.03,0.01,-0.34,1721207007864
-1.84,-4.79,7.56,-0.13,0.10,-0.10,1721207007874
-1.50,0.14,10.48,0.08,0.11,-0.06,1721207007884
1.92,2.83,9.91,0.08,0.15,-0.11,1721207007894
2.48,3.85,11.91,0.14,0.07,-0.21,1721207007904
-0.17,1.55,8.64,-0.07,0.14,-0.37,1721207007914
-3.76,-1.51,18.11,-0.23,0.05,-0.32,1721207007924
-2.50,-1.72,10.63,0.08,0.03,0.06,1721207007934
0.86,-5.75,3.53,-0.07,0.26,0.12,1721207007944
1.14,3.23,15.60,0.09,0.11,-0.04,1721207007954
1.39,11.66,13.74,0.38,0.08,-0.17,1721207007964
0.94,-0.15,4.87,0.17,0.15,-0.18,1721207007974
-2.95,-4.20,8.02,-0.03,0.07,-0.21,1721207007984
-3.95,1.51,17.09,0.08,0.13,-0.03,1721207007994
-1.11,1.39,8.52,0.27,0.03,0.33,1721207008004
2.82,1.17,6.83,0.22,0.18,0.29,1721207008014
4.30,-0.56,9.21,0.18,0.13,-0.17,1721207008024
0.32,2.42,11.28,0.18,-0.03,-0.39,1721207008034
-4.24,2.06,13.30,0.10,0.07,-0.30,1721207008044
-4.82,3.06,6.72,0.28,-0.03,0.21,1721207008054
-0.30,-0.24,4.00,0.07,0.17,0.44,1721207008064
4.81,-4.34,12.52,-0.12,0.19,0.20,1721207008074
3.14,-0.80,14.41,0.02,-0.08,-0.25,1721207008084
-2.14,0.70,9.61,0.01,0.02,-0.42,1721207008094
-5.03,1.05,12.98,0.04,0.04,-0.09,1721207008104
-2.79,1.82,13.94,0.13,0.06,0.32,1721207008114
2.62,5.84,3.75,0.18,0.08,0.32,1721207008124
3.55,-2.56,0.25,-0.15,-0.00,0.03,1721207008134
1.51,-3.28,16.97,-0.27,0.12,-0.31,1721207008144
-0.50,0.97,14.96,0.22,-0.06,-0.27,1721207008154
-2.50,0.88,0.00,0.01,-0.01,0.01,1721207008164
-0.20,-1.48,16.03,-0.21,0.01,0.21,1721207008179
1.25,-1.75,18.44,-0.07,0.09,0.13,1721207008183
2.32,5.29,9.01,0.13,-0.09,-0.08,1721207008193
0.28,3.37,2.43,-0.03,-0.04,-0.16,1721207008203
-1.06,-5.71,9.92,-0.20,0.08,-0.06,1721207008213
-1.59,2.48,13.84,-0.02,0.05,-0.06,1721207008223
-0.89,6.99,8.98,0.03,-0.01,0.02,1721207008233
0.99,-8.60,10.67,-0.35,0.12,0.07,1721207008243
1.30,-2.76,18.86,0.03,0.04,0.03,1721207008253
2.99,2.60,4.35,0.08,-0.04,0.03,1721207008263
0.97,5.05,11.82,-0.06,0.06,-0.24,1721207008273
0.24,7.88,13.33,0.28,0.06,-0.30,1721207008283
-2.85,-0.96,3.47,0.02,-0.09,-0.15,1721207008293
-3.60,-3.36,13.79,-0.18,0.16,0.08,1721207008303
0.47,-0.34,14.02,-0.00,0.04,0.16,1721207008313
2.88,-0.10,7.70,-0.01,-0.02,-0.01,1721207008323
1.39,-0.05,7.53,0.06,0.05,-0.23,1721207008333
-3.41,-0.51,7.42,0.04,-0.09,-0.22,1721207008343
-4.26,3.04,7.61,0.05,0.02,0.11,1721207008353
1.72,0.15,13.45,-0.10,0.21,0.31,1721207008363
2.51,-0.34,6.95,0.05,-0.16,0.18,1721207008373
2.69,-3.68,9.86,-0.37,0.21,-0.19,1721207008383
2.07,1.64,22.02,0.05,-0.03,-0.41,1721207008393
-1.17,-0.94,0.69,0.03,-0.19,-0.26,1721207008403
-4.25,-4.77,17.59,-0.43,0.34,-0.18,1721207008413
-3.89,5.93,21.45,0.30,-0.10,-0.07,1721207008423
-1.38,1.57,1.64,-0.05,0.03,0.21,1721207008433
0.01,3.74,11.95,0.13,-0.07,0.35,1721207008443
5.06,-0.77,1.28,0.06,0.00,0.26,1721207008453
3.70,-1.61,9.60,-0.30,0.01,-0.33,1721207008463
-0.24,-1.39,14.23,0.03,-0.12,-0.66,1721207008473
-3.68,-4.29,8.18,-0.12,0.00,-0.25,1721207008483
-5.13,6.00,17.98,0.05,0.07,0.13,1721207008493
0.28,5.97,9.73,0.18,0.08,0.22,1721207008503
2.59,-1.19,7.17,-0.01,-0.05,0.16,1721207008513
2.61,-0.96,10.50,0.02,-0.02,-0.18,1721207008523
0.54,-0.89,5.76,-0.01,-0.13,-0.30,1721207008533
-2.85,2.12,12.66,-0.05,0.01,-0.26,1721207008543
-1.54,1.65,14.02,0.08,0.10,-0.06,1721207008553
-0.89,-1.74,9.49,0.06,-0.04,0.03,1721207008563
0.02,1.04,13.16,0.01,0.10,-0.02,1721207008573
1.22,4.19,12.01,0.15,-0.07,-0.02,1721207008583
0.52,4.41,7.17,0.16,-0.14,-0.10,1721207008593
0.62,-1.14,6.37,0.13,0.05,-0.15,1721207008603
-0.81,-2.26,7.97,0.02,0.03,-0.17,1721207008613
-2.21,0.48,11.30,0.02,-0.02,-0.16,1721207008623
-1.65,-0.03,9.85,0.11,-0.04,0.07,1721207008633
2.07,-0.15,11.04,0.07,0.20,0.08,1721207008643
2.71,7.81,13.31,0.30,-0.03,-0.09,1721207008653
1.14,4.16,1.13,0.11,-0.13,-0.26,1721207008663
-2.09,-3.96,9.93,-0.24,0.09,-0.34,1721207008673
-3.30,-2.60,16.67,0.04,-0.05,-0.12,1721207008683
-1.49,-0.36,6.74,0.02,0.03,0.13,1721207008693
2.09,-0.45,10.36,-0.05,0.15,0.11,1721207008703
3.25,3.77,14.58,0.09,0.07,-0.18,1721207008713
0.74,2.88,8.31,0.07,-0.02,-0.40,1721207008723
-3.46,-0.54,10.91,-0.08,-0.02,-0.32,1721207008733
-3.97,1.33,10.07,0.15,-0.02,0.05,1721207008743
-0.22,-0.39,5.26,-0.01,0.14,0.21,1721207008753
3.52,-2.02,12.29,-0.02,0.13,0.05,1721207008763
2.48,3.09,10.99,0.10,-0.01,-0.31,1721207008773
-0.41,5.40,10.34,0.06,0.05,-0.42,1721207008783
-3.59,-1.48,10.41,0.01,-0.03,-0.16,1721207008793
-3.01,-0.99,10.72,0.03,0.08,0.14,1721207008803
0.96,2.71,10.34,0.01,0.12,0.11,1721207008813
2.29,2.65,7.54,0.07,-0.03,-0.06,1721207008823
1.42,-4.41,3.77,-0.17,0.05,-0.24,1721207008833
-1.96,-4.06,14.69,-0.24,0.01,-0.31,1721207008843
-2.60,1.84,15.02,0.09,0.10,-0.11,1721207008853
-0.66,1.12,7.49,-0.04,0.08,0.05,1721207008863
-0.51,2.43,11.04,-0.04,-0.05,0.02,1721207008873
0.69,0.31,8.47,0.02,0.10,-0.09,1721207008883
1.28,-3.18,9.23,-0.12,0.13,-0.23,1721207008893
-1.96,2.33,12.14,0.01,-0.08,-0.28,1721207008903
-2.57,0.80,7.62,-0.01,0.03,-0.06,1721207008913
-0.96,-1.86,10.08,-0.06,0.10,0.10,1721207008923
0.95,-0.16,11.95,-0.04,0.09,0.02,1721207008933
0.70,2.60,10.38,-0.01,0.01,-0.20,1721207008943
-0.99,2.85,5.76,0.02,0.01,-0.16,1721207008953
-0.62,-2.83,12.66,-0.18,0.16,-0.07,1721207008963
-0.13,-2.19,15.08,0.02,-0.11,0.07,1721207008973
-0.32,-0.64,6.00,-0.04,0.06,0.02,1721207008983
0.10,-1.48,14.51,-0.20,0.16,-0.18,1721207008993
-0.82,5.54,13.68,0.09,-0.13,-0.10,1721207009003
0.52,4.85,6.79,0.14,0.16,0.13,1721207009013
1.37,-1.15,9.39,-0.03,0.11,-0.03,1721207009023
-0.73,3.83,14.01,0.09,-0.09,-0.21,1721207009033
-0.66,1.78,4.59,0.05,0.07,-0.19,1721207009043
-1.93,-2.68,10.75,-0.10,0.06,-0.04,1721207009053
-1.32,-1.62,11.63,0.02,0.03,0.12,1721207009063
0.71,0.31,8.70,0.02,0.07,0.07,1721207009073
0.91,4.12,6.89,0.06,0.01,-0.09,1721207009083
-0.08,3.66,12.09,-0.01,0.09,-0.20,1721207009093
-1.78,-0.11,13.29,0.05,0.01,-0.12,1721207009103
-2.77,-1.20,7.82,0.02,-0.00,0.03,1721207009113
-1.58,-0.31,9.48,-0.04,0.02,0.10,1721207009123
0.84,-1.49,11.83,-0.08,0.03,0.08,1721207009133
1.44,1.94,13.51,0.00,-0.02,0.00,1721207009143
0.14,4.06,7.36,0.12,-0.07,-0.13,1721207009153
-0.59,-1.55,7.39,0.02,0.05,-0.08,1721207009163
-1.24,0.32,6.91,0.07,-0.03,0.00,1721207009173
-0.40,0.64,8.11,-0.04,0.03,0.10,1721207009183
1.05,0.51,13.51,0.02,0.01,0.05,1721207009193
1.85,1.92,9.47,0.05,-0.05,-0.05,1721207009203
0.30,-0.51,11.86,-0.16,0.02,-0.19,1721207009213
-1.15,0.27,15.94,-0.01,-0.07,-0.12,1721207009223
-1.13,2.01,9.37,0.05,0.01,0.04,1721207009233
0.52,2.97,10.14,0.06,0.06,0.09,1721207009243
1.67,2.20,8.99,0.13,-0.01,-0.03,1721207009253
0.96,-0.77,6.18,0.01,-0.00,-0.14,1721207009263
-0.62,-1.25,11.18,-0.11,0.05,-0.20,1721207009273
-1.40,-0.91,13.93,0.01,-0.04,0.00,1721207009283
0.56,1.88,8.49,0.03,0.05,0.12,1721207009293
2.10,1.56,10.90,-0.06,0.10,-0.09,1721207009303
0.96,1.76,16.04,0.02,-0.01,-0.22,1721207009313
-1.18,-0.27,8.01,0.01,-0.02,-0.23,1721207009323
-1.94,0.22,12.07,-0.00,0.13,-0.05,1721207009333
0.10,2.83,9.07,0.10,0.03,0.10,1721207009343
1.63,3.49,8.90,0.04,0.09,0.02,1721207009353
1.70,1.25,7.56,0.08,0.06,-0.20,1721207009363
-0.02,-4.95,8.75,-0.12,0.03,-0.30,1721207009373
-1.98,-1.67,12.57,-0.04,0.01,-0.12,1721207009383
-0.27,0.41,7.21,0.02,0.09,0.08,1721207009393
2.19,-0.21,10.70,-0.03,0.13,-0.03,1721207009403
2.02,2.68,10.81,0.12,0.04,-0.22,1721207009413
-0.13,1.39,7.70,0.02,0.07,-0.35,1721207009423
-3.15,0.49,15.16,-0.08,0.06,-0.25,1721207009433
-2.99,0.09,15.35,0.01,0.09,0.02,1721207009443
-0.09,0.49,8.77,0.10,0.10,0.12,1721207009453
2.74,-0.55,8.39,0.01,0.16,0.01,1721207009463
1.67,4.31,11.82,0.17,0.05,-0.24,1721207009473
-0.75,4.02,7.89,0.13,0.09,-0.30,1721207009483
-2.78,-1.54,9.40,0.05,0.06,-0.13,1721207009493
-1.42,-0.48,12.94,0.07,0.15,0.07,1721207009503
1.45,1.97,6.96,0.14,0.11,0.02,1721207009513
1.73,-0.79,8.84,0.03,0.12,-0.13,1721207009523
-0.01,2.11,11.89,0.13,0.07,-0.33,1721207009533
-2.55,1.44,8.71,0.11,0.08,-0.29,1721207009543
-3.16,0.55,15.11,0.02,0.15,-0.11,1721207009553
-1.76,-0.60,10.68,0.11,0.03,0.08,1721207009563
0.31,4.01,8.66,0.07,0.15,0.03,1721207009573
1.67,-0.91,9.99,0.02,0.11,-0.11,1721207009583
0.84,-0.49,9.83,0.09,0.07,-0.16,1721207009593
-0.40,-0.60,8.22,-0.01,0.12,-0.19,1721207009603
-1.44,1.01,12.81,-0.06,0.13,-0.10,1721207009613
-1.26,1.81,11.00,0.01,0.10,-0.02,1721207009623
0.07,-2.85,8.36,-0.01,0.10,0.06,1721207009633
1.21,0.84,3.02,-0.02,0.06,0.04,1721207009643
