AccX,AccY,AccZ,GyrX,GyrY,GyrZ,Time
4.72,13.11,-16.36,-0.61,0.75,0.45,1721207329141
4.10,6.85,-4.76,-0.86,0.31,0.21,1721207329145
19.08,-13.07,27.05,-0.98,0.10,-0.40,1721207329155
-4.69,2.93,39.30,1.03,-0.03,-0.34,1721207329165
-10.42,17.22,-40.68,0.47,-0.64,0.33,1721207329175
-0.69,-10.91,3.54,-1.95,0.79,0.96,1721207329185
8.71,-6.81,71.27,0.65,1.00,0.97,1721207329195
3.53,5.03,-23.13,1.48,-1.38,0.67,1721207329205
9.52,25.19,-18.78,-1.23,0.91,0.60,1721207329215
0.47,5.00,33.94,-0.66,-0.03,0.41,1721207329225
-1.42,-20.12,45.33,0.12,-0.16,-0.15,1721207329235
-3.12,17.54,4.46,1.08,-0.60,0.08,1721207329245
-1.58,-0.68,-27.38,-1.08,0.19,0.46,1721207329255
-6.73,-15.36,38.34,0.21,-0.05,0.52,1721207329265
0.44,-4.35,7.86,0.75,-0.88,0.26,1721207329275
1.92,9.96,-6.11,-0.18,0.41,-0.01,1721207329285
-4.10,1.96,11.15,-0.50,-0.36,0.30,1721207329295
-8.67,-6.60,5.84,-0.31,-0.44,0.48,1721207329305
-5.21,-0.25,16.99,0.11,-0.34,0.46,1721207329315
-6.80,3.48,0.51,0.18,-0.52,0.58,1721207329325
-6.72,4.19,-7.93,-0.40,-0.52,0.79,1721207329335
-2.92,-4.64,19.91,-0.57,-0.23,0.89,1721207329345
4.55,-13.74,34.87,0.34,-0.05,1.44,1721207329355
16.90,-1.75,-2.78,0.18,0.22,1.56,1721207329365
23.04,11.53,13.48,-0.32,0.56,-0.21,1721207329375
10.63,-2.31,15.13,-0.11,-1.14,-1.87,1721207329385
-14.78,-6.78,11.98,-0.11,-1.15,-2.11,1721207329395
-34.26,1.36,-4.94,0.36,-0.64,-0.45,1721207329405
-28.94,-3.39,7.81,-0.31,0.02,1.56,1721207329415
-5.31,-0.95,29.48,-0.01,-0.24,3.42,1721207329425
19.27,3.14,13.09,0.30,0.53,3.41,1721207329435
38.31,8.03,7.28,-0.05,0.54,1.73,1721207329445
33.80,6.71,4.81,-0.32,-0.59,-1.23,1721207329455
10.98,3.58,6.55,-0.11,-0.71,-2.74,1721207329465
-7.57,-2.18,13.04,-0.26,-0.84,-2.65,1721207329475
-29.42,-4.92,13.40,-0.29,-0.64,-0.87,1721207329485
-23.27,2.25,15.54,0.08,0.20,0.86,1721207329495
-8.26,-0.02,1.64,-0.08,-0.18,1.60,1721207329505
-0.28,-0.63,10.23,-0.21,-0.15,1.16,1721207329515
4.20,-1.16,13.17,0.04,-0.46,0.53,1721207329525
4.57,0.11,7.17,0.13,-0.34,0.15,1721207329535
2.69,-3.38,8.81,-0.02,-0.27,0.25,1721207329545
2.97,0.37,14.96,0.04,-0.28,0.45,1721207329555
6.78,-2.51,11.47,0.04,-0.22,0.29,1721207329565
8.89,0.75,10.48,0.11,-0.23,-0.10,1721207329575
5.74,-3.72,6.55,-0.10,-0.21,-0.54,1721207329585
-2.63,-1.08,13.42,0.04,-0.30,-0.76,1721207329595
-6.44,-4.75,11.80,0.00,-0.13,-0.49,1721207329605
-8.08,0.33,14.51,0.19,-0.24,0.13,1721207329615
-1.56,-2.16,4.16,0.14,-0.06,0.47,1721207329625
4.97,-0.68,11.75,0.00,-0.01,0.31,1721207329635
7.46,1.73,16.22,0.18,-0.12,-0.16,1721207329645
4.60,3.94,8.02,0.19,-0.28,-0.42,1721207329655
2.46,2.83,8.52,-0.02,0.05,-0.37,1721207329665
2.30,-6.18,6.84,-0.12,-0.07,-0.27,1721207329675
0.85,-1.08,16.98,-0.02,0.03,-0.41,1721207329685
1.00,2.70,13.53,0.35,-0.09,-0.38,1721207329695
0.05,0.74,3.66,-0.01,0.00,-0.30,1721207329705
-2.80,1.30,12.00,-0.06,-0.03,-0.29,1721207329715
-3.46,-0.02,9.10,-0.00,0.03,-0.15,1721207329725
-1.95,-0.14,11.78,-0.02,0.09,0.21,1721207329735
2.42,0.29,9.78,0.05,0.04,0.40,1721207329745
7.47,2.23,9.98,-0.01,0.18,0.19,1721207329755
8.14,2.26,9.85,-0.02,0.08,-0.21,1721207329765
3.07,-0.37,2.41,-0.10,-0.06,-0.49,1721207329775
-1.41,-3.24,11.45,-0.33,0.23,-0.47,1721207329785
-2.61,-1.73,16.66,-0.02,-0.04,0.00,1721207329795
1.24,-5.04,7.47,-0.22,0.16,0.29,1721207329805
3.91,8.44,18.76,0.08,0.26,-0.16,1721207329815
5.48,-2.35,-1.59,-0.13,-0.19,-0.53,1721207329825
-2.87,-4.86,10.99,-0.49,0.22,-0.65,1721207329835
-1.83,-6.72,10.40,-0.05,0.03,-0.32,1721207329845
-2.12,-0.50,9.60,-0.15,0.21,-0.08,1721207329855
-1.40,1.22,6.87,-0.07,0.00,-0.15,1721207329865
0.84,2.10,8.20,-0.21,0.25,-0.28,1721207329875
2.71,-2.33,15.18,-0.22,0.15,-0.22,1721207329885
0.06,1.78,9.11,-0.10,0.11,-0.34,1721207329895
1.40,1.61,15.45,-0.24,0.47,-0.60,1721207329905
-0.78,-0.01,13.56,-0.03,-0.19,-0.56,1721207329915
-1.03,-2.43,5.75,-0.07,0.28,-0.38,1721207329925
-1.87,-0.07,9.66,0.04,0.25,-0.28,1721207329935
-2.23,-0.69,9.29,-0.00,0.16,-0.45,1721207329945
1.62,3.42,13.78,0.14,0.34,-0.56,1721207329955
0.35,-1.49,9.75,0.18,0.03,-0.47,1721207329965
-3.89,-0.71,12.54,0.05,0.32,-0.52,1721207329975
-3.03,-0.81,10.08,0.21,0.14,-0.47,1721207329985
-2.15,-4.39,8.93,0.14,0.11,-0.35,1721207329995
0.27,0.60,11.43,0.32,0.24,-0.32,1721207330005
-1.35,-3.50,10.95,0.18,0.08,-0.40,1721207330015
-3.58,1.77,22.48,0.16,0.22,-0.47,1721207330025
-3.52,4.65,0.38,0.63,-0.22,-0.33,1721207330035
-1.67,-5.34,-2.32,-0.30,0.35,-0.29,1721207330045
-2.98,-1.04,16.96,-0.08,0.13,-0.32,1721207330055
2.80,2.78,4.96,0.47,0.46,-0.23,1721207330065
-1.76,-2.63,2.20,-0.12,-0.14,-0.30,1721207330075
-3.41,2.57,17.35,-0.09,0.26,-0.43,1721207330085
0.89,-3.13,10.39,0.25,-0.10,-0.25,1721207330095
0.44,-2.94,9.00,-0.03,0.19,-0.23,1721207330105
-1.79,3.21,7.04,0.34,-0.12,-0.31,1721207330115
0.77,-1.06,8.43,-0.17,0.41,-0.38,1721207330125
-1.61,4.41,18.41,0.16,-0.10,-0.37,1721207330135
-1.47,0.25,4.68,0.02,0.10,-0.33,1721207330145
-5.11,1.58,12.33,-0.05,-0.08,-0.29,1721207330155
-3.79,-2.72,13.10,-0.08,0.04,-0.12,1721207330165
-3.23,2.37,13.82,0.21,-0.14,0.13,1721207330175
0.49,0.78,3.88,-0.00,0.07,0.15,1721207330185
0.32,5.05,7.91,-0.04,-0.06,-0.06,1721207330195
0.73,-3.39,7.47,-0.26,0.05,-0.14,1721207330205
-0.07,-1.32,18.13,0.02,-0.03,0.01,1721207330215
0.52,-1.07,5.50,0.03,-0.07,0.03,1721207330225
-1.20,-0.19,17.66,-0.28,0.05,-0.08,1721207330235
-0.81,0.80,9.93,0.11,-0.18,0.08,1721207330245
1.07,-2.70,3.32,-0.32,0.22,0.07,1721207330255
-1.73,0.10,14.95,-0.07,-0.23,0.03,1721207330265
-1.61,-2.39,0.55,-0.18,-0.08,0.03,1721207330275
-4.86,2.18,16.76,-0.29,0.04,-0.02,1721207330285
-1.46,-8.17,8.91,-0.21,-0.20,0.33,1721207330295
-2.24,-2.14,10.54,-0.35,-0.03,0.34,1721207330305
1.08,0.88,12.03,-0.20,-0.16,0.24,1721207330315
4.49,-1.66,9.19,-0.23,-0.06,0.27,1721207330325
0.51,-1.02,8.74,-0.21,-0.30,-0.03,1721207330335
1.55,-1.19,9.75,-0.16,-0.01,-0.11,1721207330345
-0.92,1.04,12.84,-0.07,-0.04,-0.10,1721207330355
-2.26,-1.64,12.59,0.03,-0.30,0.28,1721207330365
1.08,-0.93,9.41,0.02,-0.02,0.34,1721207330375
3.17,2.24,12.96,0.15,-0.06,0.01,1721207330385
2.61,-0.71,9.84,0.11,-0.25,-0.10,1721207330395
-0.69,1.52,12.69,0.17,-0.07,-0.08,1721207330405
0.30,-0.14,8.30,0.19,-0.12,0.08,1721207330415
2.66,3.40,10.36,0.15,0.05,0.19,1721207330425
2.17,-5.44,5.52,0.10,-0.25,0.02,1721207330435
1.70,-2.10,11.36,-0.02,0.16,-0.20,1721207330445
0.22,4.11,15.02,0.23,-0.08,-0.17,1721207330455
0.49,0.46,7.80,0.10,-0.09,0.07,1721207330465
0.02,-0.34,9.42,0.13,0.01,0.06,1721207330475
2.89,-2.95,9.29,0.10,0.11,-0.03,1721207330485
0.99,0.20,13.40,0.15,-0.11,-0.14,1721207330495
-1.84,2.49,7.13,0.33,-0.07,-0.09,1721207330505
0.12,1.04,8.15,0.12,0.15,0.03,1721207330515
2.00,4.37,11.98,0.21,0.05,0.07,1721207330525
2.89,-1.08,10.32,-0.02,0.06,-0.12,1721207330535
0.96,2.78,15.79,0.10,0.03,-0.30,1721207330545
-0.07,2.06,6.53,0.11,0.02,-0.26,1721207330555
-0.58,0.67,8.62,-0.09,0.18,-0.19,1721207330565
-0.42,0.28,15.24,-0.01,0.06,-0.19,1721207330575
1.11,0.74,9.73,0.05,0.12,-0.22,1721207330585
1.87,4.60,14.22,0.01,0.12,-0.34,1721207330595
0.80,4.40,1.64,0.12,-0.15,-0.26,1721207330605
1.07,-0.41,6.11,-0.30,0.32,-0.41,1721207330615
-1.04,-1.56,13.80,-0.06,-0.11,-0.49,1721207330625
-2.16,-3.65,8.84,-0.04,0.09,-0.39,1721207330635
-1.29,-2.04,8.57,-0.01,-0.06,-0.10,1721207330645
-1.95,2.94,7.37,0.02,0.08,-0.19,1721207330655
2.24,-3.10,8.77,-0.21,0.24,-0.23,1721207330665
1.09,-4.44,15.67,-0.13,0.05,-0.34,1721207330675
0.21,-6.13,8.04,-0.07,-0.03,-0.24,1721207330685
-1.57,-2.08,11.98,-0.10,0.15,-0.39,1721207330695
0.47,-3.80,14.31,-0.03,0.17,-0.24,1721207330705
-2.03,0.00,10.07,0.06,-0.01,-0.20,1721207330715
-0.33,-2.68,7.62,-0.06,0.09,-0.18,1721207330725
-2.21,2.92,11.25,0.02,-0.05,-0.24,1721207330735
0.51,-3.31,8.29,-0.10,0.24,-0.22,1721207330745
-2.09,-4.95,11.87,-0.03,-0.04,-0.20,1721207330755
-2.99,-6.44,6.65,0.04,0.05,-0.06,1721207330765
-2.90,-1.66,11.55,0.15,-0.00,0.07,1721207330775
-0.45,-1.39,9.97,0.17,0.06,-0.02,1721207330785
-0.45,1.94,10.87,0.09,-0.05,-0.17,1721207330795
-2.34,-1.72,7.85,-0.01,-0.10,-0.27,1721207330805
-4.43,-1.18,12.93,0.08,-0.12,-0.24,1721207330815
-4.78,0.91,8.47,0.08,-0.08,-0.10,1721207330825
-2.63,1.96,11.87,-0.00,0.08,-0.04,1721207330835
-0.55,2.55,12.49,0.12,-0.18,0.04,1721207330845
-1.60,2.75,9.17,0.08,-0.20,-0.09,1721207330855
-0.91,2.89,10.17,0.15,-0.14,-0.09,1721207330865
0.70,4.21,11.03,0.16,-0.14,-0.06,1721207330875
1.27,4.07,14.90,0.05,-0.13,-0.12,1721207330885
-0.96,3.73,10.87,0.17,-0.32,-0.14,1721207330895
-2.14,-3.31,5.00,-0.08,-0.24,-0.11,1721207330905
-0.69,2.82,9.91,0.14,-0.21,0.06,1721207330915
2.30,-2.23,5.74,-0.11,-0.01,0.02,1721207330925
-0.20,2.16,13.93,-0.00,-0.23,-0.34,1721207330935
-3.47,-2.38,7.82,0.07,-0.24,-0.46,1721207330945
-7.37,1.08,9.56,0.09,-0.19,0.01,1721207330955
-5.47,0.09,6.10,-0.02,-0.17,0.56,1721207330965
2.21,-1.83,10.18,-0.15,-0.08,0.75,1721207330975
9.34,-3.24,10.62,-0.15,-0.12,0.35,1721207330985
8.25,-0.26,10.89,-0.14,-0.29,-0.31,1721207330995
1.93,-3.38,13.29,-0.22,-0.37,-0.70,1721207331005
-2.79,-5.62,13.69,-0.06,-0.29,-0.31,1721207331015
-5.33,-1.96,10.10,-0.07,-0.18,0.13,1721207331025
-0.98,0.38,8.39,-0.12,-0.18,0.20,1721207331035
2.16,-3.03,11.59,-0.21,-0.16,0.02,1721207331045
2.01,-1.52,11.15,-0.13,-0.12,-0.16,1721207331055
-1.13,0.06,6.37,-0.12,-0.19,-0.21,1721207331065
-2.61,2.14,13.31,-0.15,-0.17,-0.08,1721207331075
0.24,-2.08,12.89,-0.05,-0.25,0.14,1721207331085
2.52,0.96,10.63,-0.02,-0.00,0.15,1721207331095
2.82,-0.72,7.65,0.01,-0.28,-0.09,1721207331105
1.41,1.75,11.67,0.10,-0.20,-0.31,1721207331115
0.82,-2.65,10.01,0.15,-0.16,-0.21,1721207331125
0.40,-0.31,11.34,0.07,-0.08,-0.05,1721207331135
4.21,-2.18,9.39,0.12,-0.01,0.14,1721207331150
3.35,-0.78,11.85,0.13,-0.02,-0.12,1721207331155
4.49,2.32,14.10,0.27,-0.10,-0.22,1721207331165
2.62,2.60,7.34,0.14,-0.08,-0.31,1721207331175
1.24,-0.13,8.85,0.13,-0.12,-0.38,1721207331185
2.06,-2.73,10.22,0.07,0.09,-0.38,1721207331195
0.41,0.85,12.57,0.17,-0.10,-0.28,1721207331205
0.10,2.05,9.23,0.21,0.05,-0.32,1721207331215
0.89,-1.33,10.98,0.19,-0.03,-0.38,1721207331225
1.17,1.16,7.02,0.23,0.07,-0.46,1721207331235
-0.66,0.59,13.69,0.04,0.06,-0.50,1721207331245
-2.19,2.43,12.78,0.25,-0.00,-0.42,1721207331255
-0.59,4.85,7.32,0.07,0.11,-0.27,1721207331265
4.83,3.59,5.84,0.04,0.21,-0.11,1721207331275
5.98,-3.97,10.56,-0.10,0.06,-0.64,1721207331285
-0.97,2.23,15.16,0.07,0.32,-1.49,1721207331295
-15.34,3.23,4.23,0.08,-0.65,-1.03,1721207331305
-12.84,-0.34,9.43,-0.35,0.42,0.51,1721207331315
5.76,-2.11,10.10,0.07,0.42,1.18,1721207331325
19.22,2.51,6.88,-0.15,0.46,0.32,1721207331335
14.87,3.49,10.26,-0.05,-0.14,-1.27,1721207331345
3.30,-0.84,3.64,-0.14,-0.19,-2.10,1721207331355
-11.49,-3.04,11.80,-0.31,-0.10,-1.62,1721207331365
-16.92,-6.16,13.58,-0.16,0.16,-0.45,1721207331375
-8.96,-4.64,14.23,-0.12,0.32,0.55,1721207331385
3.45,4.28,8.61,0.06,0.25,0.56,1721207331395
10.91,-0.78,4.99,-0.27,0.25,-0.34,1721207331405
6.69,1.28,16.75,-0.27,0.06,-1.17,1721207331415
-1.45,-3.09,15.28,-0.16,0.15,-1.35,1721207331425
-8.52,2.84,12.94,0.02,0.00,-0.71,1721207331435
-6.09,-0.68,0.91,-0.08,0.14,0.06,1721207331445
1.61,-3.19,10.40,-0.32,0.50,0.02,1721207331455
4.67,2.21,15.93,-0.03,0.19,-0.54,1721207331465
0.98,2.38,7.50,-0.02,0.06,-0.82,1721207331475
-4.60,1.37,10.92,-0.17,0.25,-0.68,1721207331485
-5.74,0.03,13.01,-0.08,0.16,-0.19,1721207331495
-0.68,-1.92,11.68,-0.05,0.21,0.12,1721207331505
3.28,0.08,10.52,-0.01,0.19,-0.04,1721207331515
4.30,2.16,11.31,0.02,0.19,-0.50,1721207331525
0.83,-2.84,10.35,-0.08,0.06,-0.70,1721207331535
-4.03,-1.53,13.62,0.02,0.21,-0.61,1721207331545
-4.20,-0.30,9.60,0.15,0.16,-0.21,1721207331555
-0.76,-2.49,12.14,-0.04,0.37,0.03,1721207331565
0.20,3.63,11.82,0.29,0.08,-0.20,1721207331575
1.22,0.28,6.07,0.13,0.19,-0.42,1721207331585
-2.01,2.59,10.63,0.20,0.06,-0.45,1721207331595
-3.86,0.40,6.53,0.03,0.20,-0.32,1721207331605
-3.25,1.87,13.82,0.09,0.19,-0.10,1721207331615
-0.30,-5.30,4.23,-0.02,0.19,-0.02,1721207331625
1.64,-1.54,10.82,-0.06,0.36,-0.14,1721207331635
2.45,-3.06,10.52,0.13,0.07,-0.35,1721207331645
-0.05,-3.58,10.09,0.03,0.26,-0.51,1721207331655
-1.71,-1.33,10.85,0.26,0.15,-0.44,1721207331665
-2.53,4.68,16.12,0.18,0.31,-0.32,1721207331675
-3.20,2.22,8.71,0.22,-0.06,-0.25,1721207331685
-2.39,3.23,8.62,0.05,0.42,-0.21,1721207331695
-0.76,-4.18,7.16,-0.06,0.06,-0.19,1721207331705
-1.81,0.72,12.69,0.10,0.14,-0.12,1721207331715
0.49,5.29,7.33,0.41,0.18,-0.05,1721207331725
2.04,1.91,6.90,0.06,0.26,-0.15,1721207331735
1.40,0.92,13.24,-0.03,0.15,-0.28,1721207331745
-0.47,5.38,12.26,0.09,0.09,-0.37,1721207331755
-0.07,2.48,12.35,-0.10,0.30,-0.27,1721207331765
-1.73,-0.41,7.98,0.03,0.02,-0.28,1721207331775
-2.93,-5.35,5.80,-0.18,0.22,-0.23,1721207331785
-3.52,2.38,14.11,0.13,0.05,0.00,1721207331795
0.47,4.87,8.52,0.22,0.30,0.12,1721207331805
2.42,3.00,6.99,0.11,0.10,-0.02,1721207331815
2.09,-1.29,5.07,-0.07,0.14,-0.21,1721207331825
0.06,-2.27,13.75,-0.19,0.25,-0.34,1721207331835
-2.43,-0.25,20.63,0.02,0.10,-0.33,1721207331845
-4.22,-2.04,10.93,0.22,-0.00,-0.06,1721207331855
-4.37,0.81,7.93,0.11,0.14,0.16,1721207331865
-0.16,-0.49,6.64,0.01,0.17,0.22,1721207331875
2.04,8.55,11.85,0.12,0.18,0.03,1721207331885
-0.20,3.28,-5.64,0.08,-0.18,-0.17,1721207331895
-2.24,-6.16,6.57,-0.46,0.32,-0.16,1721207331905
-1.36,-7.92,18.95,0.00,-0.51,0.11,1721207331915
1.75,-1.54,14.92,-0.08,0.17,0.21,1721207331925
0.28,4.86,7.61,0.05,-0.12,-0.04,1721207331935
-0.18,-2.77,-0.90,-0.32,0.06,-0.19,1721207331945
-3.27,-6.51,14.82,-0.48,0.00,0.02,1721207331955
-2.79,-3.06,17.68,-0.15,0.01,0.23,1721207331965
-0.06,0.45,14.37,-0.11,0.10,0.23,1721207331975
0.89,3.06,10.56,-0.06,-0.08,0.19,1721207331985
-0.52,4.67,19.26,-0.35,0.02,0.09,1721207331995
-1.03,8.28,14.20,0.01,-0.12,0.13,1721207332005
1.53,3.93,2.83,-0.21,0.16,0.06,1721207332015
-1.67,-5.29,1.83,-0.11,-0.30,0.24,1721207332025
0.19,-8.17,7.74,-0.23,0.29,0.21,1721207332035
1.91,10.98,20.20,0.45,-0.03,0.07,1721207332045
2.75,-0.70,2.51,0.13,-0.19,0.10,1721207332055
-0.33,6.80,17.58,-0.01,-0.03,-0.04,1721207332065
1.61,2.26,10.29,0.18,0.01,-0.06,1721207332075
-0.04,-3.47,9.81,-0.13,-0.14,0.16,1721207332085
0.42,1.27,9.44,0.32,-0.08,0.22,1721207332095
2.49,-7.66,-3.62,0.05,0.02,-0.01,1721207332105
8.80,2.38,16.36,-0.08,0.17,-0.20,1721207332115
1.08,-1.95,19.21,0.30,-0.11,-0.08,1721207332125
-1.67,0.75,9.99,0.20,-0.06,0.07,1721207332135
0.26,2.69,6.80,0.12,0.08,0.23,1721207332145
2.30,-0.82,15.76,0.04,0.03,0.13,1721207332155
2.14,-7.18,10.28,0.18,-0.17,-0.06,1721207332165
2.04,3.24,15.04,0.25,0.20,-0.19,1721207332175
0.94,6.83,8.04,0.30,-0.08,-0.05,1721207332185
0.06,-2.53,6.69,-0.10,0.04,0.03,1721207332195
1.19,-7.24,8.26,-0.09,0.10,-0.08,1721207332205
1.19,-0.91,16.24,0.15,0.22,-0.24,1721207332215
-0.50,2.37,9.04,0.37,-0.10,-0.06,1721207332225
0.20,4.95,3.93,0.01,0.19,0.06,1721207332235
1.94,0.34,10.17,-0.07,0.24,-0.12,1721207332245
0.00,-6.01,12.13,-0.15,0.05,-0.23,1721207332255
-3.78,0.63,13.35,0.17,-0.09,-0.16,1721207332265
-0.83,0.34,8.48,0.05,0.32,-0.03,1721207332275
0.73,-0.36,8.01,0.11,-0.04,0.09,1721207332285
1.68,-1.92,6.43,-0.10,0.25,-0.17,1721207332295
0.60,-1.80,18.22,-0.02,0.11,-0.39,1721207332305
-3.46,1.49,12.40,0.25,-0.04,-0.23,1721207332315
-3.06,3.27,9.76,0.15,0.18,0.00,1721207332325
1.78,1.55,1.31,0.01,0.07,0.28,1721207332335
3.93,3.49,8.45,-0.21,0.28,-0.04,1721207332345
4.46,0.23,10.68,-0.09,0.11,-0.58,1721207332355
-1.74,-6.12,10.66,-0.30,-0.08,-0.59,1721207332365
-6.48,0.37,16.49,0.01,-0.01,-0.11,1721207332375
-1.46,0.17,5.87,0.05,0.22,0.27,1721207332385
4.41,3.54,9.08,-0.13,0.25,0.14,1721207332395
4.51,-1.64,5.95,-0.24,-0.06,-0.32,1721207332405
-1.06,-2.03,15.65,-0.27,0.13,-0.57,1721207332415
-2.52,-0.36,14.08,0.03,0.06,-0.29,1721207332425
-3.34,0.20,3.94,-0.06,-0.08,0.18,1721207332435
1.48,-0.83,6.80,-0.27,0.35,0.16,1721207332445
3.90,1.81,12.44,-0.14,0.06,-0.11,1721207332455
2.60,-0.40,12.05,-0.33,0.13,-0.33,1721207332465
-0.94,-3.48,12.57,-0.30,0.04,-0.38,1721207332475
-2.36,1.55,9.70,-0.21,0.17,-0.19,1721207332485
-0.31,-1.11,9.90,-0.30,0.23,0.00,1721207332495
-0.78,4.32,10.12,-0.10,0.04,-0.01,1721207332505
1.50,1.20,6.41,-0.11,0.21,-0.12,1721207332515
0.23,-0.07,11.77,-0.21,0.08,-0.18,1721207332525
-0.34,2.08,14.27,-0.12,0.19,-0.21,1721207332535
0.39,1.25,10.52,-0.01,0.14,-0.19,1721207332545
-0.60,-1.21,11.37,-0.08,0.13,-0.11,1721207332555
-0.58,3.26,14.98,0.12,0.17,-0.10,1721207332565
0.56,4.20,10.67,0.28,0.15,-0.19,1721207332575
-1.03,2.25,5.61,0.32,0.01,-0.14,1721207332585
-0.36,-1.60,8.26,0.13,0.39,-0.21,1721207332595
-1.11,5.14,14.17,0.49,0.04,-0.15,1721207332605
-1.80,-3.38,7.01,0.09,0.21,-0.21,1721207332615
-4.66,2.84,15.03,0.32,-0.09,-0.07,1721207332625
0.40,-4.77,5.71,0.13,0.38,0.09,1721207332635
0.23,3.27,14.39,0.28,0.11,-0.04,1721207332645
-0.17,-0.30,0.39,0.34,0.01,-0.26,1721207332655
-2.36,-3.67,7.34,-0.01,0.28,-0.24,1721207332665
-2.68,-0.40,19.29,0.19,0.12,-0.01,1721207332675
-0.21,2.39,17.98,0.21,0.33,0.02,1721207332685
-2.08,1.94,1.93,0.27,-0.29,-0.07,1721207332695
-0.09,-2.06,5.31,-0.14,0.44,-0.08,1721207332705
-0.07,-6.55,14.88,0.05,-0.24,0.11,1721207332715
-2.46,-0.56,8.22,0.22,0.07,-0.15,1721207332725
0.01,5.02,10.60,0.28,0.20,-0.23,1721207332735
-1.71,1.52,8.39,-0.04,0.07,-0.17,1721207332745
-2.70,0.28,13.12,0.05,0.05,0.02,1721207332755
-0.50,-5.16,6.00,0.04,0.05,0.12,1721207332765
-0.11,3.28,6.95,0.14,0.10,0.07,1721207332775
4.20,4.30,19.11,0.08,0.44,-0.16,1721207332785
-0.40,3.45,11.99,0.28,-0.53,0.02,1721207332795
1.48,0.68,8.12,0.03,0.43,0.07,1721207332805
1.46,-0.76,5.74,0.04,-0.10,-0.22,1721207332815
-3.60,-0.25,6.15,-0.20,0.11,-0.28,1721207332825
-2.61,1.74,16.77,0.14,0.15,0.05,1721207332835
-1.35,1.52,6.47,0.19,-0.04,0.19,1721207332845
-0.70,-1.32,7.55,-0.19,0.08,0.10,1721207332855
0.42,0.56,16.15,0.01,0.08,-0.01,1721207332865
0.31,4.99,9.68,0.23,-0.01,-0.08,1721207332875
-1.47,6.59,3.91,0.06,-0.04,-0.01,1721207332885
-0.90,-1.62,6.33,-0.23,0.13,0.08,1721207332895
-0.33,-6.41,16.86,-0.32,0.13,-0.07,1721207332905
-2.04,2.91,19.18,0.12,-0.15,-0.24,1721207332915
-3.00,3.60,4.24,0.04,-0.01,-0.02,1721207332925
-1.59,-1.18,3.73,-0.12,0.05,0.34,1721207332935
2.04,-1.81,7.52,-0.09,0.19,0.22,1721207332945
3.58,-6.14,9.38,-0.36,0.08,-0.23,1721207332955
-3.87,3.34,20.79,-0.09,-0.15,-0.51,1721207332965
-4.88,0.17,8.55,-0.01,0.05,-0.02,1721207332975
-4.27,-2.43,1.87,-0.13,-0.17,0.60,1721207332985
2.07,-2.16,5.49,-0.31,0.37,0.38,1721207332995
6.12,-6.88,19.27,-0.42,0.01,-0.19,1721207333005
-2.30,2.10,19.72,0.03,-0.35,-0.35,1721207333015
-3.87,3.16,1.40,0.12,0.12,0.05,1721207333025
-2.07,-2.68,3.00,-0.28,0.00,0.52,1721207333035
2.03,0.18,13.74,-0.16,0.15,0.44,1721207333045
5.48,1.87,17.38,-0.04,0.06,-0.06,1721207333055
1.34,4.30,13.51,-0.01,-0.19,-0.29,1721207333065
-2.16,1.59,8.43,-0.09,0.01,-0.08,1721207333075
-2.55,-3.45,7.36,-0.08,-0.05,0.23,1721207333085
0.19,-4.15,9.59,0.02,0.14,0.28,1721207333095
2.16,1.53,12.69,0.21,-0.03,0.09,1721207333105
2.86,5.49,15.95,0.14,0.10,-0.05,1721207333115
-0.38,8.36,13.67,0.22,-0.11,-0.14,1721207333125
-0.89,-5.32,4.63,0.02,-0.09,0.02,1721207333135
0.23,-4.23,12.16,0.05,0.21,0.15,1721207333145
2.34,6.18,9.47,0.30,0.07,0.16,1721207333160
2.14,4.49,8.97,0.19,0.02,0.08,1721207333165
3.04,-6.02,8.94,0.03,0.07,-0.06,1721207333175
0.50,-8.99,9.63,0.06,0.05,-0.21,1721207333185
-3.28,6.46,21.15,0.30,0.03,-0.10,1721207333195
-1.50,18.29,13.40,0.54,0.08,0.38,1721207333205
3.39,-4.58,-4.98,-0.01,0.14,0.36,1721207333215
5.37,-17.99,6.38,-0.42,0.29,-0.14,1721207333225
-1.57,9.50,23.71,0.29,0.07,-0.49,1721207333235
-6.04,6.22,4.51,0.36,-0.14,0.01,1721207333245
-3.10,-0.70,-0.07,-0.05,0.30,0.39,1721207333255
4.70,-4.79,6.62,-0.17,0.27,0.35,1721207333265
2.35,-0.94,13.68,-0.17,-0.05,-0.04,1721207333275
-1.64,0.21,14.37,-0.10,0.09,-0.38,1721207333285
-5.27,-1.20,18.23,0.10,0.01,-0.06,1721207333295
-2.10,0.83,6.94,0.26,0.11,0.65,1721207333305
5.88,1.73,1.15,-0.11,0.26,0.62,1721207333315
8.72,-1.49,15.70,-0.45,0.35,-0.25,1721207333325
1.36,-0.76,20.02,0.02,-0.27,-0.73,1721207333335
-6.58,0.84,5.84,0.14,-0.05,-0.30,1721207333345
-4.62,-0.85,2.08,-0.16,0.26,0.28,1721207333355
0.32,-6.04,14.46,-0.42,0.18,0.33,1721207333365
1.19,6.72,21.19,0.23,0.02,0.03,1721207333375
3.25,8.77,-2.93,0.25,-0.06,-0.06,1721207333385
-1.01,1.37,-3.43,-0.52,0.03,-0.10,1721207333395
-1.64,-15.35,19.97,-0.76,0.33,-0.13,1721207333405
-5.16,-1.61,44.81,0.16,-0.39,-0.03,1721207333415
-2.21,11.52,4.57,0.50,-0.15,0.10,1721207333425
0.32,6.41,-7.40,-0.33,0.14,0.16,1721207333435
1.44,-6.67,11.71,-0.42,0.24,0.14,1721207333445
3.42,-6.57,22.99,0.08,-0.38,-0.05,1721207333455
0.47,5.70,2.81,0.25,-0.01,-0.36,1721207333465
-2.64,3.70,0.98,-0.17,0.13,-0.41,1721207333475
-3.39,-0.20,19.21,-0.37,0.23,-0.01,1721207333485
-0.75,0.22,26.10,0.13,0.18,0.26,1721207333495
1.12,1.11,2.33,0.33,-0.13,0.17,1721207333505
0.63,1.90,-6.67,-0.06,0.06,-0.09,1721207333515
6.62,-0.67,22.44,-0.25,0.80,-0.27,1721207333525
-1.20,7.75,33.21,0.46,-0.34,-0.30,1721207333535
-7.65,-6.19,-7.15,0.24,-0.23,-0.27,1721207333545
-6.76,3.43,7.04,-0.06,0.34,0.08,1721207333555
3.40,6.71,15.05,0.23,0.17,0.37,1721207333565
3.45,2.28,4.12,0.19,-0.05,0.12,1721207333575
0.04,-8.81,-0.08,-0.11,-0.06,-0.15,1721207333585
-1.35,-11.17,18.62,-0.27,0.28,-0.15,1721207333595
-2.96,5.41,22.61,0.38,-0.09,-0.10,1721207333605
-4.17,9.78,-5.50,0.46,-0.10,-0.05,1721207333615
-1.34,-0.30,3.09,-0.24,0.26,0.16,1721207333625
18.40,-4.37,20.73,-0.47,0.15,0.33,1721207333635
4.09,-5.95,12.54,0.22,-0.16,0.09,1721207333645
-0.32,7.18,4.32,0.26,0.25,-0.46,1721207333655
-2.36,1.27,2.69,-0.12,-0.21,-0.27,1721207333665
-6.75,-5.23,7.37,-0.11,-0.24,0.30,1721207333675
0.07,-3.95,13.21,0.07,0.37,0.51,1721207333685
4.38,6.91,15.47,0.13,0.01,0.22,1721207333695
2.25,4.85,6.09,0.03,-0.16,-0.28,1721207333705
-1.65,-5.49,13.91,-0.32,0.09,-0.29,1721207333715
-4.62,-0.08,16.09,0.23,-0.31,0.14,1721207333725
-0.91,5.92,6.26,0.36,0.10,0.36,1721207333735
3.16,5.88,10.45,0.16,0.03,0.21,1721207333745
1.00,4.14,9.85,0.00,-0.23,-0.03,1721207333755
-1.04,2.75,16.32,0.01,0.07,-0.16,1721207333765
-1.00,-2.48,17.13,0.01,0.05,-0.09,1721207333775
-3.96,0.23,4.67,0.32,-0.40,0.23,1721207333785
1.58,-3.65,2.54,0.04,0.27,0.43,1721207333795
4.64,18.70,17.07,0.52,0.07,0.11,1721207333805
4.66,17.19,-4.64,0.47,-0.22,-0.29,1721207333815
-1.78,-16.72,-1.14,-0.84,-0.02,-0.41,1721207333825
14.27,-9.64,26.47,-0.79,0.58,-0.39,1721207333835
-2.58,7.17,9.66,0.67,-0.03,-0.05,1721207333845
-4.46,4.25,-8.44,0.15,0.06,0.31,1721207333855
1.36,6.11,6.19,0.13,-0.12,0.71,1721207333865
5.68,-0.02,1.45,0.05,0.12,0.41,1721207333875
7.87,-3.79,15.68,-0.44,0.11,-0.46,1721207333885
-2.61,-6.08,23.80,-0.24,-0.42,-0.82,1721207333895
-11.93,6.12,14.94,0.39,-0.36,-0.10,1721207333905
-6.36,5.15,-6.18,-0.03,0.17,0.81,1721207333915
1.63,-10.54,-0.68,-0.61,-0.05,0.97,1721207333925
13.54,-2.29,9.96,-0.33,0.37,0.08,1721207333935
6.46,2.70,16.65,-0.07,-0.05,-0.44,1721207333945
-2.18,2.07,17.12,-0.23,-0.39,-0.16,1721207333955
-3.65,-1.60,13.27,-0.08,-0.10,0.30,1721207333965
0.16,-3.63,11.33,-0.34,0.16,0.26,1721207333975
-2.25,0.47,8.42,-0.19,-0.43,0.18,1721207333985
-1.69,10.28,-2.97,0.14,-0.07,0.40,1721207333995
5.71,-12.12,-5.29,-0.34,0.03,0.43,1721207334005
6.41,-12.39,36.50,-0.51,0.02,0.01,1721207334015
-6.52,12.95,55.29,0.50,-1.11,-0.13,1721207334025
-2.31,10.14,-15.68,0.40,-0.40,-0.01,1721207334035
-7.23,1.62,7.45,-0.42,0.09,0.37,1721207334045
5.37,-5.11,13.90,-0.10,0.07,0.48,1721207334055
0.29,-8.64,17.11,0.31,-0.69,0.15,1721207334065
0.79,6.07,-3.43,0.10,-0.13,-0.23,1721207334075
-0.67,2.91,18.07,-0.28,0.08,-0.22,1721207334085
2.28,2.79,29.21,0.33,-0.20,0.54,1721207334095
1.64,-3.23,4.87,0.06,-0.04,0.29,1721207334105
0.86,7.66,6.07,0.17,-0.04,-0.31,1721207334115
1.64,-6.96,5.93,0.02,-0.05,-0.10,1721207334125
-2.86,3.59,15.10,0.23,-0.29,0.28,1721207334135
2.66,4.75,4.34,0.21,0.26,0.26,1721207334145
4.59,2.01,13.49,0.00,-0.01,0.11,1721207334155
2.97,-3.70,6.60,0.11,-0.21,-0.16,1721207334165
0.90,1.42,10.81,0.04,0.10,-0.26,1721207334175
-1.50,6.34,15.77,0.20,-0.01,-0.00,1721207334185
-0.83,-4.11,4.96,0.07,0.05,0.14,1721207334195
1.17,-6.84,5.69,0.07,0.05,0.05,1721207334205
2.57,4.22,15.28,0.16,0.11,-0.09,1721207334215
0.24,13.72,13.66,0.26,-0.01,-0.19,1721207334225
-1.27,-3.28,1.21,-0.10,-0.03,-0.13,1721207334235
0.40,-17.59,10.41,-0.60,0.24,-0.01,1721207334245
0.71,5.51,27.76,0.28,-0.05,0.02,1721207334255
3.55,10.27,1.17,0.66,0.07,-0.21,1721207334265
1.36,-0.05,-5.47,-0.22,-0.03,-0.30,1721207334275
-4.30,-3.18,18.92,-0.30,0.10,-0.46,1721207334285
-2.80,4.36,16.91,0.21,0.54,-0.45,1721207334295
-2.96,4.65,10.13,-0.17,0.03,-0.06,1721207334305
-2.96,2.10,4.35,-0.18,-0.07,0.03,1721207334315
1.39,-9.23,1.10,-0.40,0.27,-0.04,1721207334325
2.66,-1.74,16.11,-0.18,0.16,-0.15,1721207334335
2.44,4.38,20.29,0.02,0.06,-0.38,1721207334345
-1.47,2.08,10.76,-0.09,-0.07,-0.45,1721207334355
-4.21,-2.97,3.60,-0.28,-0.04,-0.20,1721207334365
-1.31,-4.04,10.67,-0.15,0.23,0.06,1721207334375
3.65,-1.20,16.90,0.07,0.23,0.05,1721207334385
0.29,7.45,5.61,0.30,-0.18,-0.23,1721207334395
-0.04,6.44,0.76,-0.09,0.38,-0.42,1721207334405
0.59,-4.51,22.60,-0.47,0.16,-0.29,1721207334415
-0.70,0.51,24.05,0.09,-0.08,-0.18,1721207334425
-0.28,3.74,-2.98,0.29,-0.08,-0.10,1721207334435
-0.81,-3.58,-0.91,-0.19,0.11,-0.08,1721207334445
-3.01,3.92,15.60,0.04,0.56,-0.24,1721207334455
0.50,2.11,10.07,0.25,0.03,-0.32,1721207334465
-3.51,-0.11,7.09,-0.03,0.12,-0.24,1721207334475
-1.09,-1.95,11.13,0.01,0.31,-0.02,1721207334485
0.00,-4.13,10.75,-0.11,0.06,0.11,1721207334495
0.68,5.80,23.23,0.12,0.32,-0.15,1721207334505
1.12,-0.94,7.43,0.42,-0.24,-0.18,1721207334515
-3.32,-1.10,-0.20,-0.04,0.07,-0.08,1721207334525
-0.10,-5.22,17.01,-0.12,0.46,-0.11,1721207334535
-1.36,7.57,20.12,0.49,-0.17,-0.15,1721207334545
-2.44,3.98,0.37,0.31,0.01,-0.10,1721207334555
-3.23,-5.56,-0.72,-0.07,0.04,0.20,1721207334565
1.65,-3.08,10.90,-0.00,0.29,0.25,1721207334575
3.94,2.86,12.47,0.13,0.01,-0.02,1721207334585
-2.12,1.33,6.42,0.00,-0.25,-0.39,1721207334595
-4.14,-4.03,12.96,-0.11,0.07,-0.22,1721207334605
-1.67,-3.58,23.92,-0.07,0.17,0.12,1721207334615
-2.95,4.48,12.25,0.20,-0.29,0.21,1721207334625
-0.62,4.65,-0.50,0.05,0.16,-0.11,1721207334635
0.43,-3.87,5.81,-0.13,-0.05,-0.03,1721207334645
-1.05,-2.46,8.47,-0.05,-0.10,0.06,1721207334655
0.51,2.28,9.65,0.16,0.13,-0.03,1721207334665
2.32,3.07,15.56,-0.03,0.25,-0.11,1721207334675
-1.16,3.32,13.84,-0.03,-0.26,-0.12,1721207334685
-0.80,3.06,12.25,0.03,0.11,-0.05,1721207334695
0.23,2.64,7.38,0.04,-0.13,0.07,1721207334705
-1.04,-0.13,6.60,-0.14,0.00,0.01,1721207334715
0.91,0.66,8.36,0.04,0.05,0.02,1721207334725
0.23,1.19,4.35,-0.12,-0.12,-0.05,1721207334735
-1.84,2.43,16.60,-0.10,0.05,-0.15,1721207334745
-2.06,-1.42,12.64,0.06,-0.05,-0.04,1721207334755
-1.61,0.23,7.25,0.00,-0.07,0.16,1721207334765
0.02,2.75,9.70,-0.14,0.06,0.20,1721207334775
-0.73,5.26,10.93,0.02,-0.21,0.12,1721207334785
0.23,-4.44,3.82,-0.16,-0.05,-0.01,1721207334795
0.02,-6.88,14.59,-0.33,0.08,0.02,1721207334805
-1.80,3.08,20.11,0.04,-0.16,0.07,1721207334815
-1.83,2.87,9.58,-0.01,-0.09,0.03,1721207334825
-1.30,1.27,5.97,0.01,-0.23,0.23,1721207334835
3.26,0.11,5.52,-0.08,0.18,0.28,1721207334845
4.05,-1.01,8.72,-0.06,-0.06,0.02,1721207334855
0.69,-2.70,15.57,-0.23,-0.09,-0.30,1721207334865
-5.08,0.08,12.26,0.02,-0.35,-0.23,1721207334875
-4.40,-0.48,2.34,-0.02,-0.10,0.34,1721207334885
2.41,-2.90,12.88,-0.15,0.13,0.52,1721207334895
4.69,1.66,16.74,0.10,-0.14,0.25,1721207334905
2.55,1.64,4.56,0.11,-0.14,-0.21,1721207334915
-1.14,-0.72,7.82,-0.12,-0.02,-0.33,1721207334925
-3.16,2.32,16.65,0.02,-0.12,-0.03,1721207334935
-1.00,1.13,13.11,0.14,-0.11,0.25,1721207334945
3.43,-2.60,5.04,0.24,-0.04,0.18,1721207334955
2.86,0.01,6.23,-0.01,-0.06,-0.07,1721207334965
0.30,4.49,17.22,-0.13,-0.06,-0.19,1721207334975
-1.05,-1.07,11.18,0.21,-0.14,-0.27,1721207334985
-0.91,-6.27,7.07,0.14,0.01,-0.08,1721207334995
-0.71,-0.28,10.32,0.12,-0.08,0.18,1721207335005
0.53,6.59,8.71,0.22,0.05,0.12,1721207335015
4.46,1.41,5.96,0.10,0.06,-0.02,1721207335025
2.40,-2.28,12.02,0.11,-0.11,-0.25,1721207335035
-0.16,2.36,12.88,0.23,0.05,-0.29,1721207335045
-1.46,1.75,6.04,0.06,-0.04,-0.16,1721207335055
-1.41,-4.00,8.14,-0.13,0.05,0.07,1721207335065
1.89,0.04,18.29,0.07,0.14,0.11,1721207335075
2.50,6.25,3.52,0.50,-0.07,-0.06,1721207335085
3.28,3.31,6.17,-0.01,0.43,-0.44,1721207335095
-2.38,-8.13,13.34,-0.06,-0.44,-0.35,1721207335105
-5.46,1.26,5.85,0.16,-0.05,-0.08,1721207335115
-0.65,5.26,13.64,0.07,0.31,0.18,1721207335125
1.16,1.45,14.26,0.04,-0.13,0.03,1721207335135
1.97,-0.48,9.47,0.00,0.06,-0.07,1721207335145
2.19,-3.21,7.60,-0.35,0.17,-0.19,1721207335155
-1.36,-2.54,17.44,0.14,-0.05,-0.31,1721207335170
-3.87,-0.02,7.30,0.30,-0.06,-0.28,1721207335175
-1.50,-10.45,-5.09,-0.04,0.03,0.18,1721207335185
0.85,4.35,16.60,-0.07,0.37,0.06,1721207335195
2.13,20.40,18.78,0.53,-0.12,-0.08,1721207335205
2.40,3.25,-0.98,-0.19,-0.06,-0.21,1721207335215
-0.64,-16.72,7.65,-0.80,0.08,-0.20,1721207335225
-1.60,-1.56,27.71,-0.11,-0.05,-0.00,1721207335235
2.90,1.17,8.41,0.07,-0.01,0.06,1721207335245
1.13,6.96,6.01,0.07,0.03,-0.37,1721207335255
-1.57,-4.77,2.83,-0.35,-0.01,-0.54,1721207335265
-5.48,-9.28,16.13,-0.51,0.04,-0.13,1721207335275
0.01,4.98,21.53,0.13,0.22,0.27,1721207335285
3.51,7.54,1.31,0.20,-0.08,0.14,1721207335295
1.38,-4.43,-1.13,-0.31,0.05,-0.33,1721207335305
-1.71,-13.85,17.10,-0.52,0.48,-0.42,1721207335315
1.32,9.67,25.85,0.22,0.08,-0.26,1721207335325
-0.22,12.79,7.24,0.28,-0.01,-0.14,1721207335335
-2.45,-1.02,1.56,-0.09,0.01,-0.15,1721207335345
0.99,-6.89,12.02,-0.02,0.40,-0.09,1721207335355
1.21,2.16,11.89,0.38,-0.08,-0.06,1721207335365
-0.05,14.85,-7.51,0.52,-0.02,-0.29,1721207335375
2.00,-16.32,-3.43,-0.54,0.28,-0.40,1721207335385
-8.60,-12.66,17.82,-0.22,-0.35,-0.26,1721207335395
-2.34,9.92,24.29,0.71,0.14,-0.12,1721207335405
-0.62,-0.42,-2.22,0.06,0.14,-0.01,1721207335415
-1.26,-3.78,8.23,-0.05,-0.03,0.23,1721207335425
3.86,-3.93,6.94,0.27,0.07,0.02,1721207335435
0.28,1.53,8.79,0.09,0.14,-0.42,1721207335445
-0.75,-1.42,13.35,0.17,0.11,-0.50,1721207335455
-2.48,1.63,11.80,0.20,0.00,-0.16,1721207335465
-3.81,4.70,10.92,-0.01,0.04,0.10,1721207335475
-3.84,-1.26,11.07,-0.01,-0.06,0.05,1721207335485
-0.77,-2.64,3.13,0.11,-0.05,-0.00,1721207335495
2.26,0.51,3.56,-0.02,0.24,-0.04,1721207335505
3.39,0.60,17.00,-0.21,0.10,-0.25,1721207335515
-1.03,3.81,23.32,0.07,-0.08,-0.46,1721207335525
-6.79,2.37,5.95,0.26,-0.25,-0.32,1721207335535
-4.64,-3.68,3.00,-0.09,0.19,0.15,1721207335545
2.50,-3.68,15.12,-0.09,0.19,0.38,1721207335555
5.74,8.96,15.42,0.43,0.05,0.15,1721207335565
4.84,7.55,-2.04,0.32,-0.09,-0.30,1721207335575
-0.45,-2.08,3.69,-0.27,0.11,-0.51,1721207335585
-5.37,-6.09,30.11,-0.11,0.02,-0.36,1721207335595
-6.00,2.46,13.13,0.31,-0.25,-0.25,1721207335605
-5.68,7.17,0.77,0.12,0.20,-0.14,1721207335615
-2.32,-7.32,9.55,-0.44,0.04,0.27,1721207335625
-0.83,12.53,24.37,0.35,0.10,0.30,1721207335635
3.72,-6.46,-12.73,-0.07,-0.35,-0.01,1721207335645
-0.35,4.77,19.73,-0.38,0.51,-0.22,1721207335655
-3.38,-16.95,29.17,-0.16,-0.41,-0.34,1721207335665
-10.32,3.04,10.59,0.30,-0.61,-0.18,1721207335675
-4.87,1.42,-3.92,0.02,0.20,0.44,1721207335685
1.74,-0.46,12.89,-0.30,0.35,0.54,1721207335695
6.48,2.56,16.46,0.05,-0.01,0.03,1721207335705
2.15,-0.86,8.32,-0.11,-0.07,-0.48,1721207335715
-4.16,-2.25,10.11,-0.17,-0.14,-0.28,1721207335725
-4.45,1.74,10.53,-0.02,0.04,0.25,1721207335735
-0.93,-0.31,-0.73,0.02,-0.03,0.38,1721207335745
2.42,-3.51,7.68,-0.18,0.09,0.20,1721207335755
3.89,-3.46,22.39,-0.09,-0.14,0.08,1721207335765
-0.38,2.31,11.27,0.17,-0.17,-0.16,1721207335775
0.79,-0.13,6.30,-0.23,0.30,-0.22,1721207335785
-3.14,-0.66,14.96,-0.23,-0.26,0.01,1721207335795
-2.08,2.86,11.70,0.13,0.02,0.32,1721207335805
3.00,0.91,6.97,-0.03,0.23,0.19,1721207335815
1.28,3.07,15.11,-0.10,-0.16,-0.08,1721207335825
1.75,-5.09,16.50,-0.14,0.03,-0.18,1721207335835
-1.41,5.05,12.48,0.28,-0.19,-0.05,1721207335845
2.13,-0.00,-0.97,0.15,0.21,0.14,1721207335855
4.56,-2.14,6.30,-0.03,-0.00,-0.01,1721207335865
0.49,1.97,15.49,0.20,0.17,-0.31,1721207335875
-0.44,2.12,7.60,0.33,-0.17,-0.03,1721207335885
-0.25,1.25,6.28,0.02,0.14,0.14,1721207335895
1.05,-3.44,16.71,-0.04,0.09,0.01,1721207335905
0.29,1.66,18.67,0.37,-0.07,-0.09,1721207335915
1.93,6.68,5.26,0.36,0.14,-0.06,1721207335925
0.84,5.04,0.28,0.09,-0.04,0.00,1721207335935
1.32,-4.41,9.65,-0.27,0.29,-0.00,1721207335945
0.72,-5.96,18.60,0.13,0.02,-0.20,1721207335955
-0.77,0.49,4.41,0.43,-0.08,-0.10,1721207335965
1.23,1.39,4.79,0.13,0.30,0.05,1721207335975
0.81,4.91,12.95,0.24,0.01,-0.06,1721207335985
0.40,3.40,11.03,0.14,0.16,-0.21,1721207335995
-1.93,-4.48,11.91,-0.13,0.01,-0.24,1721207336005
-3.02,-2.32,19.01,-0.07,0.09,-0.04,1721207336015
-1.41,1.45,14.63,0.22,0.12,0.04,1721207336025
1.09,3.96,2.06,0.24,-0.02,0.09,1721207336035
4.45,2.77,6.20,0.02,0.34,-0.12,1721207336045
2.93,2.52,5.09,0.07,-0.02,-0.43,1721207336055
-3.91,-1.66,4.07,-0.32,0.06,-0.42,1721207336065
-6.10,-4.83,17.79,-0.31,0.15,-0.13,1721207336075
-2.57,3.01,14.37,0.23,0.05,0.30,1721207336085
4.15,3.40,0.15,-0.06,0.17,0.35,1721207336095
6.63,-0.84,9.84,-0.25,0.20,-0.11,1721207336105
3.04,-3.41,19.63,-0.28,0.01,-0.58,1721207336115
-2.60,4.77,23.47,0.17,-0.02,-0.57,1721207336125
-4.86,4.96,1.28,0.20,-0.02,-0.20,1721207336135
-4.32,-5.24,0.05,-0.37,0.19,0.22,1721207336145
1.34,2.41,8.76,-0.00,0.23,0.21,1721207336155
5.27,-0.04,5.40,-0.13,0.16,-0.03,1721207336165
1.77,-1.63,15.53,-0.33,0.04,-0.44,1721207336175
-3.15,-2.33,18.36,-0.15,0.08,-0.36,1721207336185
-3.71,-0.43,11.15,-0.09,0.06,0.02,1721207336195
1.83,5.67,10.08,0.03,0.28,0.22,1721207336205
4.47,-5.33,0.59,-0.07,-0.01,0.00,1721207336215
0.56,-1.30,15.73,-0.21,0.40,-0.48,1721207336225
-1.72,5.86,17.05,0.19,0.01,-0.59,1721207336235
-4.55,7.78,13.13,0.05,0.16,-0.20,1721207336245
-3.58,-5.88,6.42,0.01,-0.01,0.29,1721207336255
0.35,-6.95,3.54,-0.04,0.28,0.44,1721207336265
5.39,1.33,10.40,0.06,0.28,-0.01,1721207336275
5.05,0.94,10.89,0.01,-0.03,-0.53,1721207336285
-4.98,3.85,11.73,0.07,-0.01,-0.62,1721207336295
-7.61,-4.50,8.40,-0.07,0.17,-0.15,1721207336305
-4.43,-2.22,12.36,-0.03,0.24,0.35,1721207336315
2.70,0.29,10.59,0.11,0.21,0.36,1721207336325
2.66,3.11,7.56,0.00,-0.01,-0.05,1721207336335
1.55,4.54,15.13,-0.03,0.17,-0.43,1721207336345
-1.27,-1.98,11.39,-0.04,-0.07,-0.38,1721207336355
-4.15,-2.90,11.96,-0.17,0.12,-0.03,1721207336365
-2.78,3.20,12.56,0.15,0.12,0.16,1721207336375
-1.49,-3.15,0.92,-0.14,-0.03,0.05,1721207336385
0.00,8.31,18.13,0.22,0.34,-0.04,1721207336395
1.99,4.49,-0.95,0.36,-0.14,-0.00,1721207336405
-0.04,-6.74,5.46,-0.49,0.29,-0.15,1721207336415
-0.68,-0.92,36.68,-0.04,-0.18,-0.22,1721207336425
-1.53,10.80,10.67,0.74,-0.36,-0.11,1721207336435
-1.75,-3.02,-12.59,-0.01,0.05,0.11,1721207336445
-0.46,-7.98,14.43,-0.25,0.30,0.28,1721207336455
-6.51,0.28,33.96,0.46,0.15,0.10,1721207336465
-0.01,10.07,2.59,0.37,-0.38,-0.33,1721207336475
-4.43,0.40,1.55,-0.30,0.09,-0.34,1721207336485
-11.78,-1.73,21.02,-0.02,0.30,0.16,1721207336495
-0.81,-2.46,5.35,0.02,0.02,0.40,1721207336505
1.02,-2.90,12.48,-0.34,0.11,0.23,1721207336515
-0.67,5.36,18.76,0.15,-0.32,0.00,1721207336525
-0.11,2.67,1.40,0.12,-0.06,0.05,1721207336535
0.29,-0.61,7.62,-0.19,0.14,0.06,1721207336545
-0.07,-2.24,5.83,-0.10,-0.17,0.14,1721207336555
-0.57,-6.25,14.04,-0.45,0.19,-0.07,1721207336565
-2.32,3.46,25.74,0.12,-0.18,0.02,1721207336575
-0.74,-0.87,2.56,0.16,-0.20,0.20,1721207336585
0.35,0.74,2.80,-0.17,0.06,0.31,1721207336595
1.27,2.52,14.64,-0.19,0.08,0.10,1721207336605
0.33,1.87,10.45,0.00,-0.13,-0.11,1721207336615
-1.53,0.53,6.40,-0.05,0.01,-0.14,1721207336625
-2.42,-4.60,6.92,-0.17,-0.20,0.28,1721207336635
-0.63,-2.55,8.51,-0.17,-0.09,0.44,1721207336645
2.77,5.92,15.62,0.06,0.12,0.11,1721207336655
4.48,-5.13,6.65,-0.14,-0.22,-0.03,1721207336665
-0.59,-4.47,15.50,-0.33,0.04,-0.24,1721207336675
-3.87,4.94,15.31,0.23,-0.10,-0.15,1721207336685
-2.07,3.84,2.28,0.07,0.00,0.35,1721207336695
2.03,-1.46,5.80,-0.17,0.06,0.48,1721207336705
5.76,-0.99,20.21,0.05,0.09,0.06,1721207336715
2.05,-3.16,7.64,0.19,-0.28,-0.31,1721207336725
-1.81,2.91,5.09,-0.03,0.04,-0.29,1721207336735
-2.30,-0.76,12.75,-0.02,-0.04,0.18,1721207336745
-2.04,0.62,12.26,0.16,-0.07,0.31,1721207336755
2.29,-1.65,5.58,0.19,0.19,0.12,1721207336765
3.75,0.19,14.08,-0.00,0.09,-0.12,1721207336775
-0.18,13.28,19.72,0.24,-0.16,-0.06,1721207336785
-0.70,-5.91,1.70,-0.03,-0.03,-0.01,1721207336795
0.58,-5.64,12.90,-0.06,0.22,0.05,1721207336805
1.75,6.03,11.38,0.34,-0.11,0.15,1721207336815
2.30,4.11,8.95,0.08,0.16,-0.07,1721207336825
0.85,-0.87,10.35,0.26,-0.05,-0.22,1721207336835
-0.79,-0.72,13.51,0.18,0.17,-0.07,1721207336845
-1.07,5.36,9.18,0.41,-0.08,0.11,1721207336855
1.97,-2.55,4.94,0.04,0.24,-0.01,1721207336865
0.50,1.32,9.52,0.31,-0.05,-0.18,1721207336875
-0.26,1.32,5.80,0.11,0.12,-0.13,1721207336885
-1.03,-0.22,17.54,0.08,0.08,-0.12,1721207336895
-0.91,3.68,6.37,0.39,-0.04,-0.04,1721207336905
-0.18,6.21,2.38,-0.08,0.22,-0.06,1721207336915
0.14,0.63,16.14,-0.22,0.07,-0.13,1721207336925
0.02,-2.89,10.15,0.05,-0.05,-0.09,1721207336935
-0.34,0.42,3.28,-0.07,0.10,-0.10,1721207336945
-0.26,-1.10,1.13,-0.35,0.03,-0.18,1721207336955
-1.27,-5.89,22.30,-0.48,0.09,-0.23,1721207336965
-1.92,4.92,20.86,0.46,-0.11,0.03,1721207336975
2.05,4.92,-8.54,0.11,0.21,0.21,1721207336985
1.51,-6.05,14.16,-0.59,0.19,-0.10,1721207336995
-5.03,-9.41,31.80,0.00,-0.29,-0.22,1721207337005
-3.39,3.11,12.07,0.26,-0.15,-0.13,1721207337015
-1.27,2.96,-2.84,-0.11,0.06,-0.23,1721207337025
-4.24,-9.80,10.25,-0.48,0.18,-0.04,1721207337035
1.07,2.30,23.07,0.13,0.19,0.18,1721207337045
2.86,9.50,-3.19,0.35,-0.13,-0.04,1721207337055
-1.41,1.84,3.02,-0.43,0.20,-0.37,1721207337065
12.41,0.23,11.49,-0.29,0.36,-0.23,1721207337075
2.60,-8.90,7.30,-0.20,0.24,0.07,1721207337085
-0.49,0.70,12.01,-0.31,-0.11,-0.07,1721207337095
-1.30,-2.30,13.88,-0.22,0.05,-0.24,1721207337105
-0.74,5.23,23.06,0.11,0.21,-0.13,1721207337115
-1.60,-0.54,0.14,0.19,-0.18,-0.03,1721207337125
-2.18,-0.13,8.95,-0.18,0.39,0.04,1721207337135
2.97,-0.73,15.47,0.07,0.20,0.00,1721207337145
1.48,4.03,11.21,0.17,-0.14,-0.04,1721207337155
-2.81,4.21,4.58,0.09,-0.07,-0.08,1721207337165
-0.22,0.62,11.24,0.11,0.24,0.18,1721207337180
-0.62,-1.41,9.65,0.10,-0.13,0.06,1721207337185
1.23,3.77,9.42,-0.02,0.31,-0.13,1721207337195
-0.82,6.42,22.74,0.06,0.15,-0.27,1721207337205
-3.83,-4.77,4.65,0.03,-0.39,-0.05,1721207337215
-4.42,0.81,7.79,-0.07,0.10,0.23,1721207337225
1.71,0.91,12.34,-0.01,0.15,0.19,1721207337235
0.76,1.29,16.54,-0.04,-0.18,0.00,1721207337245
-0.49,2.51,10.53,0.19,-0.03,-0.18,1721207337255
-0.89,-0.77,5.68,0.07,-0.07,0.03,1721207337265
-0.34,4.29,12.40,0.12,0.04,0.19,1721207337275
3.50,1.10,12.83,-0.03,0.14,0.00,1721207337285
0.76,5.62,12.16,0.30,-0.26,-0.13,1721207337295
-0.44,3.54,1.84,0.15,0.08,-0.18,1721207337305
-1.79,-0.29,11.54,-0.14,-0.02,0.03,1721207337315
-3.15,2.79,10.37,0.11,-0.21,0.03,1721207337325
-1.13,-2.82,3.63,-0.07,0.02,0.07,1721207337335
-1.75,-1.71,7.64,-0.06,-0.13,0.23,1721207337345
1.57,1.24,10.44,0.04,0.02,0.28,1721207337355
4.92,4.12,15.46,0.03,0.07,0.05,1721207337365
2.48,0.38,10.73,-0.07,-0.23,-0.30,1721207337375
-3.63,-2.83,9.77,-0.25,-0.11,-0.44,1721207337385
-5.28,-3.37,15.65,-0.30,-0.09,-0.03,1721207337395
-3.01,-2.61,13.46,0.06,-0.11,0.36,1721207337405
0.89,1.96,2.56,0.07,0.03,0.29,1721207337415
4.58,2.57,9.71,-0.19,0.06,0.05,1721207337425
1.07,6.00,16.97,-0.11,-0.13,-0.23,1721207337435
-1.55,-4.97,5.64,-0.23,-0.16,-0.29,1721207337445
-4.42,-3.58,10.44,-0.30,-0.08,-0.14,1721207337455
-2.11,1.59,7.25,0.07,-0.07,0.23,1721207337465
2.13,-2.75,9.10,-0.18,0.10,0.28,1721207337475
1.72,1.46,14.72,-0.07,-0.16,0.06,1721207337485
2.97,4.55,11.04,0.09,-0.01,-0.21,1721207337495
2.13,-0.42,12.76,-0.18,-0.00,-0.26,1721207337505
-3.39,2.35,11.20,0.00,-0.25,-0.17,1721207337515
-2.56,-0.24,4.56,0.03,0.02,-0.00,1721207337525
1.54,-4.46,7.66,-0.02,0.00,0.13,1721207337535
2.25,-1.03,12.27,0.05,-0.02,-0.09,1721207337545
0.28,4.64,13.57,0.14,-0.03,-0.21,1721207337555
-1.38,7.41,14.71,0.06,-0.05,-0.22,1721207337565
-0.56,-4.83,8.03,-0.02,-0.09,0.01,1721207337575
0.68,-1.15,9.54,0.09,0.13,0.05,1721207337585
-0.23,0.07,5.81,0.17,-0.15,-0.03,1721207337595
0.25,1.68,13.16,0.07,0.10,-0.15,1721207337605
1.69,2.56,14.88,0.29,-0.04,-0.07,1721207337615
1.09,3.51,7.25,0.19,-0.02,0.03,1721207337625
0.85,-0.01,9.77,0.06,0.09,-0.14,1721207337635
0.98,-3.35,9.93,0.13,0.04,-0.24,1721207337645
-1.85,2.42,8.73,0.26,-0.05,-0.15,1721207337655
0.07,4.66,8.27,0.30,0.16,0.01,1721207337665
2.65,4.03,7.22,0.26,0.11,-0.04,1721207337675
1.67,-4.48,12.06,-0.16,0.06,-0.20,1721207337685
-1.74,-2.22,17.01,0.17,0.00,-0.32,1721207337695
-1.73,1.59,3.97,0.31,0.05,0.01,1721207337705
1.58,3.64,7.32,0.09,0.28,0.18,1721207337715
3.13,1.43,6.45,0.24,0.05,-0.05,1721207337725
3.25,-7.37,3.89,-0.21,0.19,-0.30,1721207337735
-0.68,-0.03,28.75,-0.07,0.15,-0.54,1721207337745
-3.17,4.36,15.66,0.46,-0.07,-0.28,1721207337755
-2.54,4.08,-1.19,0.05,0.19,0.14,1721207337765
0.37,2.53,9.32,-0.04,0.23,0.09,1721207337775
3.85,-4.88,3.78,-0.10,0.01,-0.15,1721207337785
-0.31,-0.14,11.02,-0.18,0.11,-0.49,1721207337795
-3.05,2.20,16.14,-0.03,0.20,-0.49,1721207337805
-6.04,1.89,12.68,0.04,-0.04,-0.05,1721207337815
-1.22,0.57,3.82,0.03,0.15,0.37,1721207337825
4.54,-0.31,6.52,-0.18,0.25,0.28,1721207337835
4.38,-0.99,11.48,-0.25,0.05,-0.33,1721207337845
0.83,-2.24,20.28,-0.18,0.11,-0.69,1721207337855
-3.92,2.68,13.16,0.22,-0.04,-0.41,1721207337865
-5.65,0.74,-0.34,-0.08,0.17,0.02,1721207337875
-3.50,-2.01,5.18,-0.18,0.10,0.27,1721207337885
4.20,-2.89,17.65,-0.19,0.38,0.11,1721207337895
4.19,11.22,17.39,0.36,-0.06,-0.24,1721207337905
1.26,0.86,-5.84,0.04,0.02,-0.42,1721207337915
-2.38,-7.10,8.58,-0.36,0.29,-0.22,1721207337925
0.52,-0.23,15.08,0.06,-0.04,0.03,1721207337935
0.77,3.49,7.89,0.16,0.21,-0.01,1721207337945
-1.33,-3.09,10.99,-0.09,0.01,-0.11,1721207337955
-1.54,-1.81,10.65,0.12,-0.04,0.08,1721207337965
1.50,3.98,7.42,0.11,0.17,0.05,1721207337975
0.10,1.17,9.69,-0.07,0.05,-0.19,1721207337985
-2.74,-2.07,12.26,0.00,0.03,-0.31,1721207337995
-1.34,-4.29,9.70,0.04,0.16,0.01,1721207338005
-2.18,-2.24,12.45,-0.08,0.06,0.17,1721207338015
-0.26,7.12,16.33,0.11,0.16,0.00,1721207338025
0.63,3.33,4.54,0.12,-0.19,-0.10,1721207338035
-0.75,-3.08,9.29,-0.08,0.24,-0.14,1721207338045
0.71,-4.91,14.55,0.09,0.20,-0.03,1721207338055
-0.01,8.93,7.51,0.24,-0.12,-0.02,1721207338065
-1.48,5.79,7.61,0.07,0.01,-0.08,1721207338075
-3.13,-1.73,13.13,0.00,-0.03,-0.04,1721207338085
-2.45,-1.64,7.74,0.17,-0.11,0.11,1721207338095
1.68,-4.71,10.08,-0.10,0.15,0.20,1721207338105
1.17,11.11,22.96,0.19,-0.00,0.05,1721207338115
0.78,8.92,3.85,0.36,-0.28,-0.05,1721207338125
0.57,-8.35,3.77,-0.18,0.06,-0.01,1721207338135
0.45,-2.10,12.39,0.10,-0.07,0.06,1721207338145
0.56,5.40,8.34,0.06,0.05,-0.16,1721207338155
-1.98,6.88,18.76,0.02,-0.13,-0.14,1721207338165
-3.90,-1.03,2.91,0.26,-0.30,0.11,1721207338175
-0.77,-4.61,4.71,-0.15,0.21,0.24,1721207338185
2.43,2.19,15.32,0.03,-0.05,0.18,1721207338195
1.72,0.81,10.10,-0.08,-0.12,-0.15,1721207338205
-3.55,2.60,13.34,0.09,-0.24,-0.20,1721207338215
-2.76,-2.20,0.97,0.12,-0.08,0.15,1721207338225
1.61,1.65,4.94,-0.07,0.23,0.35,1721207338235
3.67,2.84,9.60,-0.36,-0.08,0.00,1721207338245
-1.04,-2.11,21.98,-0.41,-0.26,-0.22,1721207338255
-5.47,-10.76,9.75,-0.21,-0.29,-0.07,1721207338265
-2.93,0.56,10.97,0.02,0.03,0.29,1721207338275
3.92,6.39,5.52,0.16,0.07,0.40,1721207338285
2.03,-6.72,3.32,-0.54,-0.30,0.21,1721207338295
0.05,5.45,33.65,-0.06,-0.02,-0.15,1721207338305
0.11,-0.02,5.27,0.46,-0.45,-0.02,1721207338315
-1.32,-3.66,-7.11,-0.42,0.18,0.03,1721207338325
-3.14,2.84,20.57,-0.01,-0.05,0.11,1721207338335
7.42,-0.17,-0.12,0.11,-0.36,0.15,1721207338345
0.50,6.46,6.99,0.33,0.11,0.08,1721207338355
4.98,0.21,5.56,0.03,0.00,0.08,1721207338365
2.87,-1.26,15.95,-0.16,-0.09,-0.19,1721207338375
-1.80,6.56,12.35,0.28,-0.27,-0.22,1721207338385
-1.92,-0.28,-2.16,0.11,-0.04,0.07,1721207338395
1.07,-2.82,11.71,-0.09,0.07,0.22,1721207338405
3.58,-1.34,15.84,0.01,-0.07,0.01,1721207338415
0.23,0.55,17.34,-0.10,-0.20,-0.32,1721207338425
-1.90,4.99,14.61,0.19,0.00,-0.09,1721207338435
0.59,-2.62,-1.89,0.13,-0.02,0.19,1721207338445
1.78,-0.13,5.69,-0.00,0.08,0.12,1721207338455
3.00,3.56,13.10,0.18,-0.09,-0.16,1721207338465
3.27,-3.67,6.56,-0.09,-0.02,-0.29,1721207338475
-1.15,-2.53,19.60,-0.15,-0.02,-0.32,1721207338485
-1.84,2.51,12.42,0.33,-0.02,-0.10,1721207338495
0.17,-0.64,-0.81,0.10,0.07,0.07,1721207338505
0.79,3.00,8.78,0.06,0.09,-0.08,1721207338515
0.87,-1.59,10.29,-0.01,0.09,-0.29,1721207338525
-1.97,-2.25,18.29,-0.04,-0.00,-0.31,1721207338535
-1.98,3.45,11.38,0.22,0.01,0.01,1721207338545
1.83,0.69,4.88,-0.18,0.23,0.21,1721207338555
4.46,0.63,13.32,-0.11,0.10,-0.06,1721207338565
4.44,-0.77,9.58,0.00,0.08,-0.56,1721207338575
-0.87,1.58,12.28,-0.13,0.06,-0.70,1721207338585
-5.91,4.10,14.39,-0.00,0.01,-0.40,1721207338595
-6.01,0.93,10.45,-0.03,0.15,0.06,1721207338605
-0.60,5.47,11.57,0.05,0.21,0.29,1721207338615
3.88,-1.41,4.16,-0.10,0.04,0.11,1721207338625
3.34,2.30,11.10,-0.11,0.15,-0.46,1721207338635
-0.16,4.48,11.45,0.14,0.03,-0.62,1721207338645
-4.69,-3.04,4.07,-0.09,-0.05,-0.26,1721207338655
-4.31,5.24,16.07,0.05,0.15,0.16,1721207338665
2.23,3.02,6.01,0.06,0.17,0.14,1721207338675
3.63,1.76,12.96,-0.27,0.11,-0.15,1721207338685
2.55,-1.91,9.72,-0.02,-0.05,-0.47,1721207338695
-0.63,-5.99,4.73,-0.16,0.14,-0.47,1721207338705
-5.49,0.86,10.44,-0.05,-0.07,-0.26,1721207338715
-1.08,-0.67,9.71,0.00,0.22,0.01,1721207338725
1.60,-2.23,12.30,0.00,0.21,0.00,1721207338735
0.09,2.43,11.49,0.04,0.06,-0.18,1721207338745
1.09,1.81,5.56,0.01,0.09,-0.23,1721207338755
0.72,-3.18,10.82,-0.17,0.17,-0.26,1721207338765
-2.92,-3.77,15.55,-0.06,0.01,-0.35,1721207338775
-3.34,1.43,11.65,0.05,0.08,-0.23,1721207338785
-2.52,-1.25,10.32,-0.08,0.06,0.06,1721207338795
-2.07,1.99,9.85,0.00,0.04,0.14,1721207338805
0.82,-1.99,5.36,0.02,0.17,-0.05,1721207338815
2.54,-5.22,10.04,-0.11,0.09,-0.13,1721207338825
-0.17,1.77,13.30,0.09,0.04,-0.17,1721207338835
-0.99,3.91,12.48,-0.02,0.19,-0.26,1721207338845
-1.28,-0.94,18.69,-0.03,0.05,-0.18,1721207338855
-2.12,4.67,22.40,0.12,0.19,-0.10,1721207338865
-2.01,7.31,5.17,0.39,-0.25,0.02,1721207338875
-3.84,-5.46,-5.14,0.08,-0.14,-0.00,1721207338885
2.60,-2.92,19.16,0.05,0.81,0.01,1721207338895
1.87,7.06,13.45,0.51,-0.33,-0.13,1721207338905
-4.00,3.80,-7.08,0.14,-0.14,-0.29,1721207338915
-2.36,-3.91,13.37,-0.10,0.55,-0.14,1721207338925
0.30,1.11,23.08,0.24,-0.27,0.23,1721207338935
-0.83,4.02,3.19,0.34,-0.14,0.17,1721207338945
1.86,-0.82,3.86,0.06,0.06,0.03,1721207338955
2.16,1.39,12.31,0.05,-0.02,-0.08,1721207338965
1.07,-1.47,15.52,-0.06,0.03,-0.12,1721207338975
-0.79,3.49,16.81,0.26,-0.11,-0.17,1721207338985
-1.27,1.36,4.42,0.12,-0.00,-0.18,1721207338995
-1.65,3.55,4.99,-0.00,0.02,0.02,1721207339005
0.12,-4.91,4.24,-0.29,0.02,0.04,1721207339015
-0.94,-6.34,15.13,-0.24,-0.08,0.01,1721207339025
-2.31,5.98,14.42,0.23,-0.08,-0.09,1721207339035
-0.18,0.40,7.85,-0.12,0.05,-0.04,1721207339045
-1.51,-3.75,12.13,-0.21,-0.15,0.17,1721207339055
-0.41,1.90,13.31,-0.09,0.11,0.06,1721207339065
1.84,6.93,10.53,0.13,-0.02,-0.01,1721207339075
2.34,-4.26,-0.85,-0.32,0.03,-0.01,1721207339085
-2.84,-6.49,22.53,-0.34,0.01,-0.22,1721207339095
-1.01,0.05,12.10,0.14,-0.27,-0.20,1721207339105
-2.38,3.23,2.90,-0.21,0.04,-0.06,1721207339115
-1.90,6.36,14.36,-0.01,0.01,0.26,1721207339125
0.88,-2.09,7.93,-0.11,-0.04,-0.02,1721207339668
4.55,-6.28,10.54,-0.18,-0.25,-0.08,1721207339672
-1.65,2.68,13.80,-0.20,0.20,-0.58,1721207339681
-3.08,9.38,18.41,0.16,0.17,-0.56,1721207339691
-7.64,-1.05,3.49,-0.02,-0.30,-0.10,1721207339700
-7.81,-5.30,5.49,-0.11,0.07,0.39,1721207339710
3.73,0.23,13.19,0.09,0.37,0.49,1721207339719
5.87,8.04,11.96,0.02,-0.12,-0.03,1721207339729
-0.19,2.95,9.43,-0.02,-0.21,-0.50,1721207339738
-4.05,-4.81,11.48,-0.02,0.13,-0.40,1721207339748
-5.96,5.64,16.06,0.16,-0.03,0.08,1721207339757
-1.67,5.74,9.22,0.13,-0.01,0.51,1721207339767
3.35,-3.21,10.91,-0.10,0.12,0.35,1721207339776
6.40,0.32,13.00,0.23,-0.06,-0.02,1721207339786
2.22,10.25,4.30,0.31,-0.18,-0.30,1721207339795
-1.47,6.60,6.02,0.02,0.05,-0.43,1721207339805
-2.78,-4.92,12.10,-0.04,-0.06,-0.26,1721207339814
-5.93,-0.08,10.67,0.10,-0.09,-0.09,1721207339824
-4.73,3.35,8.84,0.02,0.05,0.23,1721207339834
-1.59,1.14,11.30,-0.14,-0.09,0.47,1721207339844
1.53,-2.07,12.75,-0.07,-0.03,0.39,1721207339853
3.28,-2.23,7.19,0.07,-0.09,0.05,1721207339863
2.43,2.36,6.29,-0.09,0.05,-0.11,1721207339872
0.74,3.30,15.05,-0.19,-0.08,-0.14,1721207339882
-2.63,2.18,11.11,0.01,-0.24,0.12,1721207339892
-1.40,-6.89,7.63,-0.29,0.12,0.14,1721207339902
0.14,-2.51,15.09,-0.01,-0.18,0.18,1721207339912
0.46,6.32,4.52,0.12,-0.15,0.01,1721207339922
-1.79,-8.09,2.88,-0.45,-0.13,-0.02,1721207339932
-2.28,-9.07,28.14,-0.14,0.00,0.14,1721207339942
0.32,7.18,11.43,0.58,-0.27,0.29,1721207339952
2.09,16.74,-13.96,0.00,0.08,0.13,1721207339962
1.27,-7.69,16.23,-1.03,0.29,0.03,1721207339972
9.49,-6.09,30.08,-0.12,-1.12,-0.11,1721207339982
1.43,0.96,-12.14,0.65,0.09,-0.18,1721207339992
-6.30,-1.14,11.19,-0.40,0.41,0.33,1721207340002
7.45,16.76,24.05,0.01,0.09,0.41,1721207340011
2.30,-7.52,17.73,0.29,-0.83,0.06,1721207340021
-1.31,-8.91,0.93,-0.16,-0.15,-0.41,1721207340030
-1.35,2.33,17.63,-0.16,0.08,-0.36,1721207340040
-3.63,6.65,14.55,0.16,-0.14,0.01,1721207340050
-0.83,4.81,12.46,0.15,0.11,0.36,1721207340060
4.02,-1.68,1.88,0.20,0.03,0.21,1721207340070
6.30,-1.59,6.92,-0.06,0.18,-0.28,1721207340080
0.57,-0.31,16.59,-0.16,-0.12,-0.58,1721207340090
-5.93,9.31,14.42,0.36,-0.15,-0.40,1721207340100
-1.70,1.04,-7.41,0.49,0.08,0.21,1721207340109
3.18,-7.87,-8.38,0.03,0.15,0.42,1721207340119
8.32,-8.14,23.36,-0.55,0.52,-0.26,1721207340129
6.52,14.87,25.45,0.12,-0.07,-0.89,1721207340139
-4.31,6.36,4.83,0.87,0.02,-0.34,1721207340149
-0.94,-1.51,-9.56,0.04,0.34,0.54,1721207340159
1.35,-7.53,-3.24,0.04,0.28,0.35,1721207340169
4.15,-6.49,28.52,-0.37,0.30,-0.71,1721207340179
-7.26,2.05,26.23,0.80,-0.91,-0.67,1721207340189
-6.08,-3.19,-17.26,-0.09,0.19,-0.26,1721207340199
-3.66,2.27,18.30,-0.19,0.07,0.39,1721207340209
8.01,7.73,-3.28,0.34,0.02,0.35,1721207340219
8.46,-2.77,-0.75,-0.05,0.57,0.19,1721207340229
8.70,1.50,13.64,-0.19,0.11,-0.37,1721207340239
0.72,2.02,16.10,0.00,0.13,-0.64,1721207340249
-4.79,2.41,11.00,0.07,-0.10,-0.34,1721207340259
-4.61,3.84,9.40,-0.06,0.13,0.14,1721207340269
-0.06,2.35,3.77,0.08,0.01,0.21,1721207340279
3.32,-4.83,1.53,-0.18,0.20,0.08,1721207340289
2.25,-2.39,14.20,-0.25,0.20,-0.38,1721207340299
0.72,3.67,21.33,-0.05,0.05,-0.41,1721207340309
-4.47,3.54,10.76,0.10,-0.05,-0.30,1721207340319
-4.67,-4.67,6.64,-0.28,0.05,0.16,1721207340329
1.02,-0.52,17.32,-0.11,0.22,0.28,1721207340339
6.62,-1.52,12.11,-0.02,0.10,0.08,1721207340349
1.62,4.40,7.06,0.10,-0.13,-0.51,1721207340359
-0.34,2.53,7.94,0.16,0.33,-0.64,1721207340369
-5.10,-4.85,5.08,0.03,-0.20,-0.19,1721207340379
-7.31,-3.61,5.16,0.03,0.03,0.12,1721207340389
1.07,2.25,14.65,0.22,0.41,0.16,1721207340399
4.35,2.02,9.79,0.16,-0.05,0.07,1721207340409
0.43,0.63,7.80,0.11,0.02,-0.33,1721207340419
-0.96,-3.90,8.71,0.11,0.07,-0.32,1721207340429
-2.82,4.85,9.73,0.22,-0.02,-0.10,1721207340439
-2.79,5.05,10.49,0.04,0.13,0.02,1721207340449
-0.22,-1.84,13.81,-0.06,0.04,0.03,1721207340459
-0.53,-1.63,3.80,0.02,-0.17,0.03,1721207340469
1.33,-7.50,6.71,-0.29,0.29,-0.09,1721207340479
1.83,-0.88,18.63,0.15,0.06,-0.22,1721207340489
-1.77,6.00,7.55,0.28,-0.16,-0.20,1721207340499
-3.19,12.63,17.15,0.20,0.12,-0.07,1721207340509
-0.77,2.82,7.59,0.17,-0.13,-0.00,1721207340519
-0.69,-8.84,5.52,-0.26,0.12,-0.13,1721207340529
-1.00,2.89,18.54,0.10,-0.09,-0.08,1721207340539
-0.58,-0.46,6.57,0.20,-0.05,-0.18,1721207340549
-0.27,3.42,4.92,0.35,0.11,-0.05,1721207340559
1.70,4.99,2.58,0.20,0.03,-0.04,1721207340569
0.90,3.19,11.12,-0.09,0.10,-0.23,1721207340579
-2.04,1.98,8.38,0.17,-0.16,-0.28,1721207340589
-3.28,-4.85,-4.38,-0.13,-0.05,0.00,1721207340599
-1.86,-4.33,10.58,-0.41,0.33,0.18,1721207340609
1.89,-2.14,30.11,-0.11,0.28,0.17,1721207340619
4.10,8.46,23.38,0.40,-0.15,0.04,1721207340629
2.12,3.49,4.20,-0.08,-0.07,-0.24,1721207340639
-3.70,3.29,5.96,-0.12,-0.11,-0.37,1721207340649
-1.53,-0.40,-0.82,-0.01,0.02,-0.00,1721207340659
-1.50,-4.58,3.62,-0.53,0.01,0.20,1721207340669
-2.84,-1.98,22.27,-0.26,-0.11,0.16,1721207340679
-0.64,-3.67,13.79,0.13,-0.07,0.15,1721207340689
1.69,1.17,11.33,-0.25,0.09,0.25,1721207340699
0.23,5.09,14.67,-0.24,-0.20,0.06,1721207340709
1.04,-0.64,5.79,0.05,-0.06,0.01,1721207340719
0.52,-2.43,1.72,-0.01,0.14,-0.03,1721207340729
-2.23,-5.19,9.30,-0.19,-0.17,0.13,1721207340739
-2.43,4.90,18.85,0.02,-0.10,0.22,1721207340749
3.14,2.06,7.98,0.09,-0.02,0.40,1721207340759
2.49,2.56,9.15,-0.16,-0.08,0.14,1721207340769
3.00,1.70,10.46,-0.02,-0.06,-0.00,1721207340779
1.24,-6.68,5.69,-0.16,-0.08,-0.18,1721207340789
-2.99,-2.63,16.16,-0.13,-0.03,-0.11,1721207340799
-1.75,2.52,16.42,0.15,-0.10,0.23,1721207340809
1.70,5.94,8.87,0.15,-0.01,0.33,1721207340819
4.63,6.80,7.90,0.14,-0.03,0.21,1721207340829
5.13,-6.69,5.19,-0.04,0.01,-0.09,1721207340839
1.07,-5.70,11.26,-0.00,0.07,-0.45,1721207340849
-3.68,7.53,15.32,0.39,-0.18,-0.27,1721207340859
-3.52,9.85,6.72,0.29,-0.01,0.30,1721207340869
1.22,-11.07,3.30,-0.19,0.16,0.38,1721207340879
3.79,-2.67,15.75,0.05,0.10,0.03,1721207340889
3.00,5.06,10.27,0.22,-0.08,-0.27,1721207340899
-0.89,12.98,15.65,0.17,0.01,-0.15,1721207340909
-0.67,-1.37,0.10,0.16,-0.11,0.12,1721207340919
1.56,-14.38,3.42,-0.37,0.25,0.06,1721207340929
-1.17,3.61,22.27,0.10,-0.06,-0.19,1721207340939
-1.20,1.91,14.75,0.09,-0.03,-0.10,1721207340949
-1.36,2.93,13.71,0.33,-0.05,0.17,1721207340959
4.42,-1.96,1.11,0.21,0.24,0.21,1721207340969
4.90,6.14,11.97,0.02,0.11,-0.20,1721207340979
1.02,1.75,4.16,-0.13,-0.15,-0.52,1721207340989
-4.31,-6.24,22.87,-0.56,0.25,-0.53,1721207340999
-5.57,0.51,16.52,0.47,-0.28,0.15,1721207341009
-0.69,5.19,-16.50,0.14,0.17,0.43,1721207341019
1.25,-1.45,12.58,-0.29,0.68,0.10,1721207341029
-7.21,-4.90,50.74,0.07,-0.48,-0.29,1721207341039
-3.50,0.72,6.01,0.44,-0.52,-0.51,1721207341049
-2.35,4.51,-6.13,-0.25,0.26,-0.18,1721207341059
-3.38,-5.61,13.52,-0.48,-0.01,0.24,1721207341069
8.41,-1.59,14.55,-0.11,0.28,0.02,1721207341079
5.29,6.52,7.96,0.44,0.01,-0.42,1721207341089
-1.50,1.69,-0.54,-0.24,0.10,-0.47,1721207341099
2.08,2.60,14.77,-0.24,0.36,-0.28,1721207341109
2.83,0.56,10.72,0.23,0.34,0.08,1721207341119
2.30,-0.74,3.85,-0.17,0.08,0.06,1721207341129
0.35,0.10,14.66,-0.04,-0.10,-0.33,1721207341139
1.15,-1.27,8.96,0.22,0.00,-0.35,1721207341149
-0.59,-6.77,0.91,-0.21,0.12,-0.34,1721207341159
-4.55,-2.59,19.56,-0.14,0.06,-0.39,1721207341169
-2.36,4.65,13.38,0.53,-0.02,-0.27,1721207341179
-1.10,-1.67,-3.96,0.14,0.12,-0.12,1721207341189
-1.20,-8.60,15.12,-0.30,0.25,-0.06,1721207341199
-5.11,6.37,38.74,0.50,-0.22,-0.18,1721207341209
-0.47,2.99,-1.71,0.60,-0.24,-0.24,1721207341219
-2.49,-5.70,0.99,-0.43,0.15,-0.25,1721207341229
6.32,5.37,20.26,0.03,0.55,-0.17,1721207341239
-2.47,-1.27,1.89,0.25,-0.10,-0.04,1721207341249
-1.74,-6.98,7.88,-0.48,0.16,-0.09,1721207341259
-1.29,8.48,23.01,0.20,-0.05,-0.22,1721207341269
-1.41,-0.73,0.62,0.26,-0.05,-0.08,1721207341279
0.30,-8.28,9.48,-0.32,0.20,0.18,1721207341289
1.97,-1.91,21.37,0.12,-0.19,0.11,1721207341299
2.92,8.60,14.92,0.49,0.03,-0.06,1721207341309
3.15,6.24,-1.00,0.32,-0.14,-0.26,1721207341319
-1.56,0.91,-4.62,-0.14,-0.14,-0.27,1721207341329
-4.06,2.05,4.99,-0.21,0.11,-0.22,1721207341339
2.15,1.22,11.93,-0.13,0.37,-0.10,1721207341349
1.70,-1.77,11.97,0.02,-0.03,-0.01,1721207341359
-0.65,3.53,10.96,0.13,-0.07,-0.07,1721207341369
-1.03,9.18,8.20,-0.02,0.09,-0.21,1721207341379
-2.06,-1.02,14.26,-0.50,-0.06,-0.12,1721207341389
-2.76,-8.33,16.93,-0.31,-0.15,0.17,1721207341399
-0.04,-3.36,16.20,0.10,0.17,0.07,1721207341409
2.81,5.69,1.86,0.33,-0.07,0.10,1721207341419
1.41,6.85,2.70,-0.30,0.07,-0.04,1721207341429
12.39,14.59,17.33,-0.38,0.23,-0.47,1721207341439
-2.11,0.12,1.86,-0.07,-0.13,-0.43,1721207341449
-6.08,-13.83,4.01,-0.72,0.12,-0.10,1721207341459
-3.93,3.30,20.45,-0.20,0.04,0.12,1721207341469
-1.06,8.41,7.46,0.27,-0.10,0.16,1721207341479
0.95,-4.88,0.19,-0.29,0.14,0.16,1721207341489
-2.85,-5.65,21.97,-0.40,0.08,-0.16,1721207341499
-3.11,8.22,22.47,0.07,-0.25,-0.14,1721207341509
-1.53,-3.47,4.38,-0.15,-0.15,0.23,1721207341519
-1.21,-3.93,6.76,-0.06,-0.10,0.42,1721207341529
4.82,-1.13,10.19,-0.05,0.24,0.16,1721207341539
1.47,2.12,20.83,-0.20,-0.25,-0.13,1721207341549
-0.34,5.77,13.22,0.15,-0.21,-0.07,1721207341559
2.27,-0.59,2.08,0.17,0.05,0.07,1721207341569
0.77,-3.70,8.90,0.05,-0.18,0.18,1721207341579
2.45,1.75,11.79,0.25,0.07,0.14,1721207341589
3.21,1.48,11.83,0.13,0.04,-0.15,1721207341599
-0.46,1.12,16.51,0.19,-0.26,-0.13,1721207341609
-0.20,-1.08,6.56,0.23,0.01,0.01,1721207341619
1.49,0.98,9.05,0.24,0.11,0.03,1721207341629
1.58,2.92,15.13,0.21,0.01,-0.16,1721207341639
0.48,0.01,10.76,0.17,-0.12,-0.17,1721207341649
-0.12,4.57,7.29,0.26,0.07,-0.12,1721207341659
1.76,-3.68,8.76,-0.01,0.30,-0.22,1721207341674
-0.01,1.53,17.74,0.15,0.12,-0.29,1721207341679
-0.29,5.39,12.60,0.51,0.10,-0.23,1721207341689
-0.59,2.69,1.02,0.26,0.06,-0.08,1721207341699
-0.23,3.69,11.56,0.02,0.17,-0.13,1721207341709
1.26,-2.41,15.68,0.01,0.15,-0.33,1721207341719
-1.83,-0.30,9.33,0.29,-0.11,-0.19,1721207341729
-0.55,-1.11,2.17,0.13,0.33,-0.06,1721207341739
1.82,2.01,10.74,0.12,0.17,-0.05,1721207341749
2.00,2.12,7.26,0.04,0.09,-0.17,1721207341759
1.64,0.22,9.80,-0.04,0.17,-0.27,1721207341769
1.12,1.70,11.48,0.13,0.15,-0.27,1721207341779
1.08,0.29,3.05,0.07,0.13,-0.22,1721207341789
0.28,3.61,7.08,-0.19,0.24,-0.33,1721207341799
-1.11,0.92,21.96,-0.32,0.22,-0.49,1721207341809
-2.50,-4.65,16.85,0.13,0.03,-0.25,1721207341819
0.55,-8.26,3.94,-0.13,0.41,-0.06,1721207341829
2.78,3.42,12.63,0.20,0.26,-0.34,1721207341839
0.68,11.71,-1.48,0.34,-0.02,-0.57,1721207341849
-4.48,-1.52,-0.21,-0.42,0.20,-0.55,1721207341859
-9.00,-12.23,31.89,-0.43,0.35,-0.10,1721207341869
-2.81,-3.73,28.26,0.31,0.02,0.34,1721207341879
3.53,0.42,-0.51,-0.03,0.35,0.21,1721207341889
4.82,7.44,14.91,0.07,0.51,-0.39,1721207341899
2.22,-0.09,6.40,0.08,-0.06,-0.71,1721207341909
-7.61,-3.80,10.91,-0.26,0.08,-0.50,1721207341919
-6.14,-2.38,16.47,0.05,0.37,0.09,1721207341929
-0.16,1.06,10.13,0.10,0.27,0.26,1721207341939
1.24,3.75,5.30,0.15,0.03,-0.04,1721207341949
-0.26,-3.89,1.31,-0.14,0.17,-0.25,1721207341959
-2.55,-8.92,19.46,-0.36,0.33,-0.18,1721207341969
-0.96,2.14,32.47,0.22,0.17,-0.04,1721207341979
-1.80,7.13,-9.67,0.62,-0.37,0.17,1721207341989
-2.72,-2.77,-8.46,-0.36,0.56,0.01,1721207341999
4.83,-7.53,15.97,-0.21,-0.09,-0.00,1721207342009
-0.68,-2.27,22.78,0.09,0.34,-0.17,1721207342019
-5.37,3.03,5.02,0.24,-0.15,-0.11,1721207342029
0.71,-1.28,13.03,-0.29,0.72,0.03,1721207342039
-0.97,7.34,26.99,0.20,-0.19,0.29,1721207342049
0.56,-5.59,-4.97,0.05,-0.21,0.28,1721207342059
2.26,-4.62,13.49,-0.30,0.51,0.09,1721207342069
4.62,9.09,23.85,0.25,-0.28,-0.08,1721207342079
-3.05,10.98,0.78,0.16,-0.30,-0.15,1721207342089
-3.77,-4.94,5.12,-0.32,0.25,-0.06,1721207342099
0.05,-6.74,13.63,-0.04,0.14,0.21,1721207342109
1.09,1.57,11.57,-0.07,0.11,-0.05,1721207342119
-0.55,12.08,18.95,0.28,-0.06,-0.24,1721207342129
-1.82,3.88,-1.06,0.30,-0.29,-0.10,1721207342139
-3.62,-6.60,6.25,-0.38,0.15,0.09,1721207342149
-4.85,1.10,28.06,0.05,0.13,0.11,1721207342159
-0.96,11.79,9.52,0.34,-0.25,0.16,1721207342169
-1.29,6.51,-5.11,0.00,-0.15,0.22,1721207342179
2.40,-12.79,1.06,-0.46,0.21,0.31,1721207342189
2.74,-5.11,24.23,-0.09,0.35,0.09,1721207342199
2.60,2.41,20.72,0.21,-0.20,-0.25,1721207342209
-3.76,7.80,9.12,0.16,-0.33,-0.20,1721207342219
-2.28,0.25,-6.71,0.13,-0.19,0.37,1721207342229
1.97,-2.97,6.49,-0.52,0.44,0.32,1721207342239
-3.46,-6.08,32.88,-0.19,-0.07,-0.08,1721207342249
-4.41,-0.33,34.57,0.18,-0.27,-0.49,1721207342259
-8.32,7.90,-0.65,0.45,-0.41,-0.14,1721207342269
-5.36,6.11,-7.97,-0.24,0.18,0.61,1721207342279
6.34,-8.20,15.90,-0.46,0.49,0.73,1721207342289
0.34,-4.45,27.28,0.27,-1.10,0.06,1721207342299
-0.19,-2.80,2.20,0.22,-0.29,-0.31,1721207342309
-2.01,-0.02,-0.00,-0.24,-0.05,-0.13,1721207342319
0.18,4.45,19.79,-0.12,0.06,0.26,1721207342329
3.42,-1.31,19.11,0.00,-0.02,0.11,1721207342339
-0.98,0.32,4.65,0.15,-0.43,-0.04,1721207342349
-0.69,-1.29,1.87,-0.03,0.20,-0.10,1721207342359
-1.05,-3.42,10.66,-0.02,-0.19,0.14,1721207342369
0.14,6.02,16.17,0.27,-0.08,0.22,1721207342379
5.57,6.73,10.01,0.40,0.14,0.23,1721207342389
3.48,2.05,3.24,-0.07,-0.10,-0.21,1721207342399
-0.84,0.40,9.96,-0.06,-0.13,-0.46,1721207342409
-3.39,-11.83,12.25,-0.31,0.04,-0.24,1721207342419
-4.99,-0.71,24.14,0.38,-0.16,0.20,1721207342429
1.77,2.00,-4.74,0.34,0.01,0.39,1721207342439
4.79,3.05,13.71,-0.26,0.34,0.03,1721207342449
5.90,5.22,16.93,0.34,-0.40,-0.37,1721207342459
1.42,-9.49,-4.87,-0.01,0.13,-0.30,1721207342469
-0.51,-0.01,11.90,-0.12,0.17,-0.17,1721207342479
-0.79,2.41,10.16,0.10,0.08,0.19,1721207342489
-0.08,-0.34,20.33,-0.08,0.06,0.33,1721207342499
3.83,0.93,9.22,0.30,-0.03,0.21,1721207342509
6.66,6.17,4.88,0.09,0.21,-0.07,1721207342519
5.45,5.07,6.74,0.04,0.01,-0.39,1721207342529
-0.18,-2.76,1.29,-0.16,0.13,-0.59,1721207342539
-3.54,-7.45,17.09,-0.45,0.21,-0.29,1721207342549
-4.29,3.00,20.27,0.21,-0.02,0.01,1721207342559
0.64,1.28,0.48,-0.09,0.16,0.11,1721207342569
3.82,5.21,15.74,-0.22,0.35,-0.11,1721207342579
2.23,4.61,10.18,0.09,-0.02,-0.38,1721207342589
-2.23,0.56,4.27,-0.12,0.26,-0.57,1721207342599
-4.18,-11.75,12.56,-0.40,0.20,-0.29,1721207342609
-7.72,4.74,21.59,-0.02,0.06,-0.19,1721207342619
-8.57,12.76,-1.74,0.15,-0.22,0.15,1721207342629
0.60,-3.66,1.69,-0.49,0.39,0.50,1721207342639
8.58,-15.84,17.99,-0.44,0.46,0.56,1721207342649
11.88,9.90,15.33,0.16,0.23,-0.39,1721207342659
5.37,3.35,-2.68,0.04,-0.27,-1.17,1721207342669
-10.49,2.22,16.43,-0.38,-0.01,-1.18,1721207342679
-11.12,8.63,26.51,0.36,-0.33,-0.30,1721207342689
-9.62,-10.22,0.30,-0.27,0.12,0.56,1721207342699
-1.79,-6.28,18.26,-0.35,0.39,0.74,1721207342709
7.64,5.92,13.03,0.25,0.05,0.49,1721207342719
7.28,0.77,2.00,0.08,-0.09,-0.17,1721207342729
1.86,3.26,10.68,0.14,0.15,-0.56,1721207342739
-2.08,5.20,10.27,0.10,-0.01,-0.33,1721207342749
-4.32,-9.75,9.02,-0.37,0.11,-0.03,1721207342759
-0.64,0.03,16.45,0.13,0.19,0.18,1721207342769
3.03,7.42,3.90,0.24,-0.05,0.20,1721207342779
2.26,0.54,7.78,-0.05,0.14,-0.16,1721207342789
0.72,-3.20,11.18,0.13,0.01,-0.33,1721207342799
-2.23,-0.81,7.05,0.06,0.11,-0.20,1721207342809
-2.41,4.44,12.52,0.03,0.06,0.09,1721207342819
-1.37,7.19,9.41,0.19,-0.03,0.11,1721207342829
0.29,-4.83,-1.09,-0.15,0.07,0.14,1721207342839
3.81,-14.33,26.25,-0.59,0.62,-0.11,1721207342849
0.59,9.85,27.63,0.55,-0.28,-0.38,1721207342859
-2.91,6.17,-8.87,0.09,-0.15,-0.30,1721207342869
-7.05,9.49,22.01,-0.11,0.32,-0.04,1721207342879
-5.31,-5.91,12.33,0.36,-0.48,0.27,1721207342889
-0.74,-11.72,-8.75,-0.26,0.11,0.33,1721207342899
-5.98,1.90,31.50,-0.25,0.66,-0.20,1721207342909
-4.77,7.53,26.16,0.32,-0.89,-0.35,1721207342919
-2.34,-12.60,-12.27,0.08,-0.05,-0.07,1721207342929
-3.42,-0.97,17.33,-0.17,0.28,0.18,1721207342939
1.15,16.05,20.13,0.24,-0.09,0.40,1721207342949
3.14,-1.27,0.12,0.16,-0.01,0.23,1721207342959
1.63,9.54,7.82,0.17,-0.06,-0.20,1721207342969
-0.32,0.92,9.43,0.04,-0.19,-0.13,1721207342979
-2.55,-12.23,14.80,-0.19,-0.15,-0.01,1721207342989
-2.10,3.43,11.80,0.27,-0.21,0.19,1721207342999
0.73,9.28,10.52,0.03,0.05,0.16,1721207343009
1.37,3.33,6.83,0.26,-0.32,0.08,1721207343019
2.59,-5.69,0.67,0.02,0.05,-0.10,1721207343029
1.01,4.51,20.88,-0.16,0.05,-0.27,1721207343039
-2.20,1.09,13.54,0.07,-0.35,-0.31,1721207343049
-3.80,-3.51,2.54,-0.14,0.01,-0.06,1721207343059
-2.82,-4.44,6.54,-0.10,-0.15,0.23,1721207343069
1.24,-0.68,12.32,0.02,0.10,0.15,1721207343079
4.14,5.37,11.47,0.19,-0.10,0.02,1721207343089
0.17,4.95,1.01,-0.10,-0.30,-0.14,1721207343099
-1.86,-2.86,16.07,-0.40,0.09,-0.28,1721207343109
-3.02,-2.70,11.48,0.20,-0.41,0.08,1721207343119
-2.57,-3.25,-8.16,-0.20,-0.17,0.35,1721207343129
0.34,-4.60,22.32,-0.63,0.40,0.01,1721207343139
3.33,13.41,31.92,0.36,-0.58,-0.19,1721207343149
0.95,-1.79,-10.77,-0.06,-0.23,-0.24,1721207343159
-3.78,-7.59,9.37,-0.76,0.08,-0.07,1721207343169
-5.25,-4.06,29.82,-0.01,-0.41,0.11,1721207343179
-0.61,-2.72,2.00,0.14,-0.28,0.15,1721207343189
2.34,-8.33,7.37,-0.31,0.03,0.06,1721207343199
-0.40,8.60,26.30,0.09,-0.13,-0.20,1721207343209
0.83,10.06,14.05,0.20,-0.28,-0.18,1721207343219
-0.79,-0.99,-0.08,-0.12,-0.04,-0.13,1721207343229
-1.57,3.05,13.44,0.09,0.13,-0.26,1721207343239
-0.48,-2.93,0.17,0.37,-0.42,-0.03,1721207343249
-3.94,0.50,5.66,0.15,0.20,-0.03,1721207343259
2.82,4.66,21.42,0.15,-0.04,-0.09,1721207343269
1.77,4.11,9.10,0.14,-0.28,-0.08,1721207343279
0.33,-0.86,1.65,-0.04,0.13,-0.24,1721207343289
-0.98,-4.90,4.74,-0.01,-0.05,-0.26,1721207343299
-2.17,-4.58,16.00,0.08,0.07,-0.26,1721207343309
0.40,3.95,21.45,0.32,-0.07,0.08,1721207343319
0.98,7.22,8.68,0.25,-0.07,0.15,1721207343329
3.39,3.08,10.07,-0.02,0.20,-0.17,1721207343339
1.38,-4.15,6.85,0.13,-0.25,-0.33,1721207343349
-0.56,-2.00,-1.82,0.38,0.10,-0.40,1721207343359
0.68,4.14,3.65,0.37,0.21,-0.29,1721207343369
-0.25,-0.67,14.59,0.02,0.07,-0.14,1721207343379
-1.54,-2.70,16.79,-0.17,-0.06,-0.21,1721207343389
-0.52,-1.38,14.71,-0.14,0.02,-0.10,1721207343399
-0.18,-0.74,6.87,-0.06,0.04,-0.05,1721207343409
1.00,-8.08,5.18,-0.17,0.13,-0.04,1721207343419
0.47,-1.48,16.35,0.01,0.14,-0.19,1721207343429
-0.16,4.76,16.57,0.15,0.07,-0.25,1721207343439
-0.47,1.42,8.93,-0.06,-0.00,-0.06,1721207343449
0.98,1.69,11.41,0.03,0.14,0.05,1721207343459
2.91,3.17,-0.55,0.21,0.18,-0.09,1721207343469
2.88,-3.84,2.14,-0.13,0.24,-0.33,1721207343479
-4.40,-4.08,27.32,-0.03,-0.08,-0.55,1721207343489
-5.07,1.79,13.65,0.32,-0.08,-0.41,1721207343499
-4.25,2.60,9.28,-0.10,0.22,0.03,1721207343509
-1.48,5.00,11.15,0.07,0.06,0.19,1721207343519
2.75,-6.66,3.54,-0.23,0.26,-0.10,1721207343529
0.83,-2.24,18.42,-0.15,0.15,-0.44,1721207343539
-1.62,1.67,16.20,0.17,0.05,-0.44,1721207343549
-4.02,3.63,9.32,-0.04,0.16,-0.11,1721207343559
-1.98,6.49,15.26,0.08,0.16,0.14,1721207343569
2.95,-0.04,3.14,0.15,0.07,0.12,1721207343579
3.42,3.00,2.25,0.07,0.15,-0.18,1721207343589
1.83,5.50,14.53,0.00,0.20,-0.45,1721207343599
-3.10,2.34,13.72,0.07,-0.07,-0.41,1721207343609
-4.14,-1.93,4.35,-0.04,0.16,-0.08,1721207343619
-0.23,-0.68,11.34,-0.14,0.25,0.22,1721207343629
3.74,1.89,8.85,0.05,0.10,0.13,1721207343639
4.22,0.69,8.60,-0.02,0.24,-0.45,1721207343649
-0.80,-2.40,8.90,0.11,-0.08,-0.56,1721207343659
-4.12,-5.18,9.00,-0.14,0.19,-0.16,1721207343669
0.57,12.99,17.53,0.20,0.13,0.25,1721207343684
1.92,5.54,6.58,0.06,0.05,0.19,1721207343689
5.31,-6.23,5.05,-0.27,0.36,-0.13,1721207343699
2.67,-3.16,8.92,-0.03,0.03,-0.39,1721207343709
0.34,-1.22,7.77,-0.09,0.30,-0.54,1721207343719
-2.43,-3.31,15.89,-0.17,0.17,-0.42,1721207343729
-7.04,6.34,10.29,0.26,-0.00,-0.30,1721207343739
-5.51,5.15,-1.42,0.16,0.17,0.16,1721207343749
0.33,-4.80,11.49,-0.49,0.47,0.41,1721207343759
3.96,-1.21,31.00,-0.36,0.23,0.01,1721207343769
3.80,2.80,9.46,-0.02,-0.13,-0.31,1721207343779
-0.90,-5.51,-2.78,-0.34,0.21,-0.48,1721207343789
-5.02,-3.74,17.79,-0.08,0.58,-0.25,1721207343799
-1.08,7.88,13.13,0.38,-0.03,0.07,1721207343809
-2.18,0.68,-0.75,-0.04,0.13,0.13,1721207343819
1.89,-2.54,17.41,-0.10,0.48,0.03,1721207343829
2.59,-0.02,14.41,0.07,-0.06,-0.01,1721207343839
-1.62,6.02,13.52,-0.11,0.17,-0.29,1721207343849
-0.85,2.55,14.67,0.14,0.11,-0.18,1721207343859
-2.30,-9.54,-0.31,0.10,-0.09,0.11,1721207343869
-1.46,0.41,10.23,0.06,0.43,0.06,1721207343879
2.50,10.43,10.78,0.44,-0.17,0.08,1721207343889
-0.60,-0.73,0.28,0.13,0.04,-0.12,1721207343899
-1.51,-8.36,14.84,-0.08,0.22,-0.14,1721207343909
-1.69,0.98,13.71,0.25,-0.02,0.12,1721207343919
1.16,2.78,19.35,-0.21,0.38,0.09,1721207343929
2.03,7.88,21.55,0.22,-0.15,-0.03,1721207343939
-1.56,2.05,-3.20,0.26,-0.19,-0.22,1721207343949
-1.68,-6.80,5.16,-0.08,0.31,-0.10,1721207343959
-3.86,-7.47,12.54,-0.02,-0.08,0.13,1721207343969
-1.32,7.69,18.96,0.16,0.33,-0.03,1721207343979
0.21,15.45,12.28,0.60,-0.15,-0.03,1721207343989
-2.49,-7.24,-5.66,-0.07,-0.17,0.18,1721207343999
1.00,-19.66,13.95,-0.36,0.36,0.28,1721207344009
4.80,12.52,26.36,0.36,-0.27,0.19,1721207344019
3.59,12.29,2.75,0.34,-0.07,-0.23,1721207344029
-1.42,-2.39,-0.42,0.11,-0.20,-0.28,1721207344039
-2.16,-3.56,2.73,0.12,0.16,0.03,1721207344049
0.37,3.92,20.70,-0.09,0.25,0.07,1721207344059
2.25,-0.29,11.42,0.07,-0.26,0.06,1721207344069
1.09,0.09,8.09,-0.05,0.18,-0.21,1721207344079
-0.02,7.99,12.81,0.31,-0.01,-0.07,1721207344089
-2.33,-3.27,-3.01,-0.11,-0.15,0.10,1721207344099
-2.32,-9.85,25.39,-0.47,0.48,-0.01,1721207344109
-0.55,13.44,23.52,0.51,-0.39,0.09,1721207344119
0.90,-1.85,-11.62,-0.12,-0.05,0.07,1721207344129
-0.63,-8.47,9.45,-0.27,0.13,0.14,1721207344139
6.38,-0.34,1.95,-0.18,0.30,0.02,1721207344149
2.54,10.12,27.32,-0.08,0.34,-0.27,1721207344159
-2.73,8.10,14.09,0.29,-0.46,-0.24,1721207344169
-2.19,-3.62,-7.95,-0.39,0.07,0.10,1721207344179
-0.61,-8.75,24.77,-0.79,0.31,0.14,1721207344189
-3.83,-1.77,22.76,0.08,-0.80,0.01,1721207344199
-0.94,-1.65,-15.18,-0.13,-0.04,-0.04,1721207344209
-0.97,-4.02,16.01,-0.22,0.40,0.11,1721207344219
-4.33,-3.45,28.34,0.12,-0.60,0.35,1721207344229
2.28,-8.15,8.72,-0.39,0.04,-0.09,1721207344239
-0.91,3.34,15.05,-0.22,-0.15,-0.44,1721207344249
-2.99,3.83,5.16,0.01,-0.16,-0.24,1721207344259
-2.77,-2.40,8.03,-0.12,0.20,0.17,1721207344269
-1.07,0.21,15.37,-0.06,-0.02,0.24,1721207344279
0.62,6.28,14.86,-0.09,-0.07,0.08,1721207344289
1.09,3.74,1.36,0.04,-0.23,-0.06,1721207344299
1.46,-1.87,0.45,-0.12,0.15,-0.09,1721207344309
-3.21,-3.11,19.69,-0.16,-0.07,-0.10,1721207344319
-3.21,-0.97,19.78,-0.08,-0.20,-0.01,1721207344329
-1.65,-2.14,13.57,-0.29,0.03,-0.06,1721207344339
-0.54,4.75,18.51,-0.18,-0.10,0.09,1721207344349
-0.06,4.62,5.61,0.18,-0.09,0.25,1721207344359
3.24,-2.26,2.89,0.26,0.27,0.00,1721207344369
1.81,3.66,13.59,0.37,-0.07,-0.14,1721207344379
-0.14,7.77,11.78,0.46,-0.08,-0.16,1721207344389
-0.28,-2.20,7.08,0.07,0.04,-0.14,1721207344399
-1.80,3.99,11.63,0.23,-0.06,0.07,1721207344409
-0.14,6.16,7.21,0.39,0.05,0.14,1721207344419
3.10,-5.97,4.75,0.14,0.07,-0.04,1721207344429
1.08,-3.32,13.57,0.06,0.06,-0.32,1721207344439
-2.16,0.97,14.48,0.13,-0.07,-0.32,1721207344449
-2.98,-0.27,8.88,0.09,-0.07,0.22,1721207344459
-0.14,2.10,10.13,0.22,0.18,0.26,1721207344469
3.94,-0.93,5.09,0.24,0.02,0.12,1721207344479
2.83,-2.70,9.14,0.04,0.02,-0.14,1721207344489
-0.30,-0.63,19.39,0.07,0.09,-0.38,1721207344499
-2.85,5.03,8.22,0.44,-0.12,-0.04,1721207344509
-0.21,4.09,2.30,0.24,0.23,0.29,1721207344519
3.62,0.05,7.10,0.17,0.13,0.06,1721207344529
2.54,-0.96,8.68,-0.04,0.02,-0.27,1721207344539
-2.40,1.80,13.75,-0.07,0.06,-0.43,1721207344549
-5.11,-4.53,8.12,0.02,-0.01,-0.21,1721207344559
-4.47,-1.31,8.27,0.02,0.08,0.28,1721207344569
1.41,-2.19,15.52,-0.18,0.19,0.35,1721207344579
2.50,3.79,17.04,0.19,-0.10,0.10,1721207344589
2.10,2.46,1.50,-0.00,0.06,-0.17,1721207344599
-0.28,4.15,14.59,-0.22,0.04,-0.09,1721207344609
-1.61,0.60,10.53,0.06,-0.11,0.04,1721207344619
0.09,-4.19,6.83,-0.20,0.18,-0.03,1721207344629
-0.86,3.97,9.59,0.04,-0.11,0.06,1721207344639
0.73,5.61,6.53,0.04,0.05,0.07,1721207344649
1.83,0.66,5.45,-0.06,-0.04,-0.04,1721207344659
0.48,-0.18,5.68,-0.11,-0.08,-0.12,1721207344669
0.07,-5.25,10.00,-0.32,0.07,-0.09,1721207344679
-0.47,-1.88,16.05,-0.19,-0.03,-0.03,1721207344689
0.02,0.69,9.57,-0.10,-0.09,0.06,1721207344699
1.71,-4.85,16.33,-0.45,0.18,-0.03,1721207344709
1.05,7.83,17.55,0.16,-0.20,-0.05,1721207344719
2.00,1.10,-1.72,-0.11,0.06,-0.14,1721207344729
-0.35,-2.40,12.61,-0.42,0.19,-0.12,1721207344739
-0.87,3.39,14.32,0.10,-0.07,-0.21,1721207344749
0.46,-3.55,4.54,-0.14,0.05,-0.06,1721207344759
-0.94,4.92,13.04,0.04,0.01,0.07,1721207344769
0.75,2.38,12.26,-0.12,0.17,-0.12,1721207344779
-0.03,2.46,10.57,-0.07,-0.22,-0.20,1721207344789
-0.53,-4.64,3.73,-0.14,-0.02,-0.06,1721207344799
-0.07,-8.18,13.33,-0.23,0.21,-0.17,1721207344809
-1.09,3.03,14.31,0.16,-0.08,-0.18,1721207344819
-2.66,6.15,6.79,0.21,0.06,-0.20,1721207344829
-1.09,3.96,15.44,-0.00,0.15,-0.04,1721207344839
0.11,10.04,15.64,0.22,-0.01,0.07,1721207344849
1.11,-4.22,6.50,-0.05,0.08,-0.11,1721207344859
1.07,-6.00,8.98,-0.01,0.01,-0.17,1721207344869
-1.25,0.68,6.73,0.21,-0.08,-0.21,1721207344879
-2.69,-0.13,9.07,0.09,0.06,-0.32,1721207344889
-2.93,4.84,12.54,0.41,-0.08,-0.03,1721207344899
-1.62,-0.95,5.51,0.06,0.08,0.18,1721207344909
0.26,1.28,14.57,0.07,0.05,0.07,1721207344919
3.28,1.63,5.37,0.17,0.04,-0.09,1721207344929
1.19,-8.35,8.24,-0.24,0.04,-0.29,1721207344939
-1.87,-1.89,20.20,0.16,-0.11,-0.26,1721207344949
-2.13,5.05,11.29,0.38,0.02,-0.14,1721207344959
-2.57,3.53,0.80,0.01,-0.08,-0.01,1721207344969
-1.71,6.01,7.99,0.17,0.04,0.11,1721207344979
2.31,-3.34,4.51,-0.01,0.11,0.01,1721207344989
1.33,-8.83,12.00,-0.28,-0.01,-0.15,1721207344999
-1.89,-1.40,19.20,-0.11,-0.13,-0.36,1721207345009
-3.70,-0.93,14.05,-0.19,-0.10,-0.27,1721207345019
-3.41,9.73,15.63,0.21,0.07,-0.01,1721207345029
1.69,2.18,4.87,0.11,0.07,0.24,1721207345039
-0.33,-5.53,4.39,-0.18,-0.24,0.16,1721207345049
3.26,5.15,13.27,0.16,0.26,-0.31,1721207345059
3.71,3.31,8.05,0.04,-0.09,-0.56,1721207345069
-4.51,0.20,9.70,-0.11,-0.16,-0.43,1721207345079
-5.12,-2.11,10.70,0.01,0.03,-0.04,1721207345089
-0.83,2.88,11.15,0.03,0.09,0.17,1721207345099
3.20,9.99,11.01,0.13,0.11,0.06,1721207345109
3.01,-2.12,1.90,-0.10,-0.14,-0.17,1721207345119
0.68,-6.64,9.20,-0.21,0.23,-0.31,1721207345129
0.28,-3.99,15.21,-0.12,0.10,-0.30,1721207345139
-2.93,-0.62,13.55,-0.09,-0.19,-0.18,1721207345149
-1.41,5.25,12.13,0.21,0.14,0.01,1721207345159
2.79,2.82,4.19,0.10,0.10,0.04,1721207345169
0.83,-0.30,10.23,-0.16,0.11,-0.21,1721207345179
-0.48,-2.46,11.81,-0.13,0.12,-0.46,1721207345189
-2.92,-2.05,16.16,-0.25,0.05,-0.35,1721207345199
-4.35,9.61,15.80,0.19,-0.03,-0.07,1721207345209
-0.85,-3.47,-3.73,0.02,-0.01,0.21,1721207345219
-1.06,-7.45,9.16,-0.39,0.41,0.14,1721207345229
1.68,10.19,18.65,0.19,-0.19,-0.18,1721207345239
0.67,-4.40,2.50,-0.17,-0.13,-0.18,1721207345249
-3.96,1.82,15.90,-0.01,0.16,-0.12,1721207345259
0.83,-1.46,6.11,0.20,0.02,0.03,1721207345269
-0.16,-4.45,13.56,-0.35,0.13,0.04,1721207345279
-0.37,12.81,23.34,0.17,0.05,-0.14,1721207345289
-1.23,2.32,0.38,0.29,-0.39,-0.08,1721207345299
-3.14,-3.75,-0.91,0.06,0.24,0.01,1721207345309
-1.72,-1.01,19.03,0.25,0.21,0.10,1721207345319
-0.13,0.21,7.62,0.21,-0.30,0.07,1721207345329
-2.45,4.36,11.68,0.02,0.15,-0.03,1721207345339
0.31,2.03,11.41,0.11,-0.06,0.05,1721207345349
0.79,-3.77,6.46,-0.17,-0.03,0.22,1721207345359
1.08,-0.88,13.28,-0.09,0.12,0.02,1721207345369
1.00,-1.53,8.41,0.15,-0.10,-0.09,1721207345379
-0.14,-3.06,7.74,0.16,0.05,0.08,1721207345389
-0.54,0.75,8.33,0.20,0.05,0.11,1721207345399
1.41,11.43,15.50,0.27,0.10,-0.02,1721207345409
2.27,1.94,9.08,0.10,-0.06,0.06,1721207345419
-1.92,-9.37,1.72,-0.13,-0.11,-0.04,1721207345429
-1.78,-3.99,13.86,0.12,0.27,-0.17,1721207345439
-1.55,3.85,11.30,0.38,-0.20,0.17,1721207345449
-0.27,6.74,7.41,0.20,0.00,0.35,1721207345459
4.13,-3.61,8.04,-0.01,0.10,0.25,1721207345469
3.22,-6.39,14.32,-0.14,0.01,-0.11,1721207345479
-1.29,2.68,16.09,0.11,-0.24,-0.22,1721207345489
-1.70,-0.26,5.02,0.10,-0.04,0.19,1721207345499
0.96,-1.18,16.12,-0.01,0.22,0.32,1721207345509
3.70,-1.61,17.23,0.16,-0.10,0.15,1721207345519
1.67,3.51,8.07,0.11,-0.15,-0.04,1721207345529
0.31,10.86,14.10,0.03,0.18,-0.22,1721207345539
-0.19,2.28,9.46,0.19,-0.15,-0.01,1721207345549
-0.42,-9.52,-3.27,0.04,-0.01,0.20,1721207345559
3.10,-3.85,6.54,-0.07,0.35,0.03,1721207345569
2.39,3.26,16.85,0.09,-0.08,-0.10,1721207345579
-0.38,6.93,16.07,0.36,-0.08,-0.13,1721207345589
-0.48,8.43,0.55,0.61,-0.07,0.02,1721207345599
1.96,0.53,-8.89,-0.02,0.03,0.17,1721207345609
1.99,-6.68,18.05,-0.84,0.26,-0.19,1721207345619
-0.72,1.99,38.38,0.23,-0.50,-0.67,1721207345629
-3.74,2.28,-10.57,0.40,0.02,-0.15,1721207345639
-0.89,-1.54,0.49,-0.57,0.44,0.30,1721207345649
0.54,0.58,25.64,-0.12,0.11,0.11,1721207345659
9.12,3.61,13.73,0.02,-0.14,-0.31,1721207345669
-1.75,14.50,8.24,0.09,-0.11,-0.29,1721207345679
-3.38,-12.88,6.85,-0.62,-0.25,0.02,1721207345694
-0.19,-20.19,13.97,-0.70,0.20,0.09,1721207345699
0.38,2.70,24.71,0.13,-0.09,0.11,1721207345709
5.25,5.98,10.95,0.16,0.03,0.03,1721207345719
1.33,15.03,1.17,0.26,-0.20,-0.43,1721207345729
-0.72,-4.60,-4.25,-0.23,0.02,-0.66,1721207345739
-5.56,-14.01,17.71,-0.61,0.05,-0.21,1721207345749
-1.25,3.75,22.47,0.07,-0.33,0.28,1721207345759
1.57,3.75,-5.84,-0.05,-0.01,-0.10,1721207345769
-2.72,-16.16,21.91,-0.95,0.18,-0.37,1721207345779
-0.48,10.63,30.57,0.44,-0.42,-0.16,1721207345789
1.47,6.83,-16.18,0.23,0.11,-0.04,1721207345799
1.22,-9.94,13.52,-0.91,0.06,-0.06,1721207345809
-8.81,1.82,43.56,0.47,-0.06,-0.06,1721207345819
1.59,8.44,-12.04,0.73,-0.60,-0.18,1721207345829
7.71,-11.28,-15.45,-0.57,-0.23,-0.16,1721207345839
14.95,-5.52,39.19,-1.08,1.38,-0.43,1721207345849
5.38,34.18,21.87,0.91,-0.03,-0.44,1721207345859
-5.46,-19.01,-40.63,0.31,-0.61,-0.14,1721207345869
0.61,-21.84,28.89,-1.11,1.89,0.01,1721207345879
7.79,-3.10,62.23,0.14,-0.27,0.26,1721207345889
7.17,-4.55,-13.80,0.43,-0.37,-0.29,1721207345899
-2.71,2.14,6.34,-0.55,0.94,-0.49,1721207345909
-0.91,15.84,19.12,0.31,-0.19,0.07,1721207345919
2.84,-1.98,2.08,0.26,-0.34,0.35,1721207345929
1.94,-2.55,9.39,0.02,0.11,-0.08,1721207345939
2.02,0.83,19.63,0.09,0.08,-0.47,1721207345949
-1.54,2.43,6.55,0.13,-0.19,-0.37,1721207345959
-6.04,-0.39,0.38,-0.01,-0.01,-0.12,1721207345969
-0.62,-5.18,14.02,-0.00,0.34,0.17,1721207345979
0.56,0.56,12.14,0.27,-0.11,0.13,1721207345989
1.65,4.59,11.65,0.16,0.27,-0.21,1721207345999
1.58,1.85,14.42,0.06,-0.03,-0.26,1721207346009
-2.99,2.72,11.16,0.13,-0.16,-0.16,1721207346019
-0.38,-4.09,9.29,0.07,0.18,-0.07,1721207346029
-0.70,2.57,7.27,0.23,-0.21,0.04,1721207346039
-0.25,-1.27,1.31,0.06,0.05,-0.08,1721207346049
0.67,-2.86,10.81,-0.03,0.18,-0.20,1721207346059
-1.48,3.05,13.89,0.19,-0.06,-0.22,1721207346069
-2.50,3.98,12.98,0.09,0.06,-0.17,1721207346079
-2.36,3.12,9.17,0.12,-0.00,0.03,1721207346089
0.26,-5.86,10.69,-0.14,0.11,-0.00,1721207346099
0.82,-2.82,13.49,0.00,-0.12,-0.07,1721207346109
-0.97,2.30,9.07,0.05,-0.04,-0.19,1721207346119
-0.57,8.54,16.65,0.27,0.13,-0.11,1721207346129
0.76,0.63,-0.81,0.20,-0.18,0.03,1721207346139
-1.39,-4.92,3.32,-0.22,0.14,-0.06,1721207346149
2.01,9.54,12.90,0.18,0.12,-0.11,1721207346159
1.56,-2.94,-2.32,-0.21,-0.17,-0.01,1721207346169
-2.10,-10.87,35.75,-0.41,0.49,-0.17,1721207346179
-1.18,14.75,24.29,0.93,-0.42,-0.07,1721207346189
-0.40,2.79,-21.88,-0.23,-0.08,-0.08,1721207346199
-0.30,1.44,24.05,-0.47,0.42,0.08,1721207346209
-2.67,0.74,19.53,0.39,-1.12,-0.00,1721207346219
1.43,-1.72,-17.65,-0.26,0.22,-0.16,1721207346229
-0.64,-16.65,16.27,-0.87,0.31,0.01,1721207346239
-3.91,2.95,48.00,0.22,-0.72,0.04,1721207346249
-0.07,11.77,-4.32,0.73,-0.07,0.03,1721207346259
2.21,-5.43,-11.10,-0.62,0.19,0.08,1721207346269
3.06,-14.23,26.78,-0.14,0.74,0.10,1721207346279
5.35,4.09,12.66,0.28,-0.59,-0.32,1721207346289
-2.95,10.39,6.02,-0.06,-0.10,-0.33,1721207346299
-2.29,7.01,13.50,0.09,0.11,-0.19,1721207346309
-2.66,-6.18,1.47,-0.14,-0.13,0.06,1721207346319
-2.95,-7.35,8.59,-0.43,0.15,-0.04,1721207346329
-0.31,1.84,15.13,-0.02,-0.02,-0.12,1721207346339
-0.64,1.58,10.63,-0.09,0.00,-0.02,1721207346349
0.40,-3.95,8.94,-0.12,-0.07,0.30,1721207346359
1.18,2.47,17.26,-0.27,0.15,0.08,1721207346369
0.48,8.96,22.67,-0.20,-0.01,-0.46,1721207346379
0.57,-5.14,5.22,-0.07,-0.28,-0.18,1721207346389
-4.28,3.39,6.23,0.07,0.20,0.02,1721207346399
1.72,7.39,15.56,0.31,0.27,0.17,1721207346409
2.85,5.08,5.46,0.32,-0.17,0.08,1721207346419
3.10,4.92,12.27,0.20,0.11,-0.35,1721207346429
1.13,1.84,-1.14,0.28,-0.27,-0.38,1721207346439
-5.94,-3.68,-4.26,-0.10,0.07,-0.23,1721207346449
4.25,-4.99,10.13,-0.13,0.38,-0.05,1721207346459
1.37,-5.74,19.71,0.07,0.10,0.02,1721207346469
-0.31,4.23,16.65,0.27,-0.15,-0.04,1721207346479
2.66,2.10,8.37,0.06,0.18,0.04,1721207346489
1.20,-0.28,10.10,-0.02,-0.04,-0.09,1721207346499
0.75,-2.04,19.73,0.03,0.10,-0.14,1721207346509
0.01,5.82,5.10,0.48,-0.12,-0.17,1721207346519
-0.96,2.50,-8.50,-0.07,0.06,-0.18,1721207346529
-2.49,-10.85,24.75,-0.58,0.28,-0.22,1721207346539
-0.60,2.43,27.39,0.44,-0.57,0.08,1721207346549
1.66,9.38,-19.83,0.44,0.19,0.18,1721207346559
7.82,-3.66,9.97,-0.71,0.41,-0.01,1721207346569
-15.31,1.33,41.05,0.11,0.71,-0.48,1721207346579
-7.24,-0.13,5.18,0.60,-0.51,-0.11,1721207346589
-1.39,-2.17,8.56,-0.55,0.46,0.40,1721207346599
9.73,8.03,24.28,0.07,0.90,-0.03,1721207346609
3.90,3.91,0.07,0.38,0.08,-0.17,1721207346619
-0.92,-0.01,3.69,-0.02,0.18,-0.05,1721207346629
3.53,-5.08,11.65,-0.05,0.19,-0.22,1721207346639
-3.55,2.41,17.54,0.34,-0.43,-0.35,1721207346649
-5.09,5.45,-1.68,0.39,0.12,-0.03,1721207346659
-1.46,1.16,2.42,0.11,0.25,0.24,1721207346669
2.67,0.37,9.56,-0.01,0.08,0.15,1721207346679
2.68,-6.22,14.71,-0.35,0.08,-0.20,1721207346689
-2.38,-0.31,25.55,0.05,-0.03,-0.42,1721207346699
-3.65,3.82,-1.88,0.32,-0.05,-0.13,1721207346709
-1.65,0.60,1.16,-0.33,0.25,0.24,1721207346719
-4.21,-0.14,17.94,-0.09,0.42,0.11,1721207346729
3.94,-5.72,6.83,-0.04,-0.01,-0.17,1721207346739
-1.02,3.43,11.84,-0.06,0.15,-0.23,1721207346749
0.35,6.30,14.94,0.03,0.10,-0.09,1721207346759
-0.68,0.53,10.28,-0.22,-0.02,-0.01,1721207346769
-0.42,-1.13,13.47,-0.02,0.06,-0.05,1721207346779
2.88,-2.96,4.24,-0.15,0.23,-0.14,1721207346789
-0.31,-1.25,13.68,-0.20,-0.02,-0.22,1721207346799
-2.51,4.66,6.00,0.25,-0.04,-0.24,1721207346809
-2.61,-1.84,0.57,-0.03,0.18,-0.13,1721207346819
-2.71,-0.17,14.76,-0.04,0.12,0.12,1721207346829
1.01,1.43,12.95,-0.00,0.02,0.33,1721207346839
4.31,0.10,14.66,-0.39,0.25,-0.03,1721207346849
3.11,3.90,19.01,-0.01,-0.05,-0.33,1721207346859
1.07,-4.10,-2.95,-0.03,-0.13,-0.30,1721207346869
-2.15,-2.23,6.83,-0.12,0.26,-0.21,1721207346879
-1.96,2.18,17.40,0.06,0.05,-0.12,1721207346889
-3.17,4.75,13.02,0.12,-0.06,0.02,1721207346899
-3.84,4.75,1.80,0.07,-0.04,0.08,1721207346909
3.26,-8.17,9.37,-0.38,0.48,0.19,1721207346919
3.06,-0.02,26.59,-0.05,-0.02,-0.02,1721207346929
1.41,5.55,9.24,0.27,-0.12,-0.36,1721207346939
-1.84,2.62,7.81,-0.03,0.17,-0.41,1721207346949
-5.38,3.14,9.54,0.26,-0.09,-0.03,1721207346959
-2.20,-9.86,2.51,-0.18,0.06,0.30,1721207346969
1.34,7.03,19.08,0.18,0.24,0.16,1721207346979
3.39,5.38,1.43,0.28,-0.10,-0.22,1721207346989
-0.94,-10.80,4.02,-0.50,0.04,-0.22,1721207346999
-1.55,5.12,29.20,0.16,0.11,-0.08,1721207347009
1.97,3.49,4.02,0.30,-0.07,-0.02,1721207347019
-1.61,-0.62,5.98,-0.25,0.15,-0.19,1721207347029
-0.65,-0.90,8.63,0.13,0.11,-0.16,1721207347039
0.30,2.43,2.38,-0.04,0.01,-0.13,1721207347049
-1.85,5.30,13.91,0.04,0.15,-0.23,1721207347059
-1.05,-8.78,8.92,-0.33,0.05,-0.11,1721207347069
-4.35,1.23,15.73,-0.02,-0.01,-0.06,1721207347079
0.80,-0.69,4.39,0.05,0.22,-0.06,1721207347089
1.37,-4.85,17.22,-0.31,-0.01,-0.02,1721207347099
-0.97,4.50,16.08,0.30,-0.17,0.05,1721207347109
0.85,0.81,5.15,0.00,0.18,-0.18,1721207347119
-2.49,6.95,14.88,0.15,-0.08,-0.22,1721207347129
-1.23,2.89,5.09,0.12,0.02,-0.02,1721207347139
-0.72,-5.82,13.43,-0.23,0.07,0.04,1721207347149
-1.86,7.55,12.49,0.49,-0.12,-0.02,1721207347159
2.08,1.89,2.06,0.14,0.24,-0.09,1721207347169
-3.26,1.85,18.00,-0.02,-0.08,-0.09,1721207347179
-2.15,3.80,14.66,0.31,-0.03,-0.04,1721207347189
0.26,0.51,0.38,0.20,-0.06,0.10,1721207347199
1.34,-1.54,2.91,-0.02,0.14,0.06,1721207347209
2.45,-4.71,17.31,-0.15,0.09,-0.13,1721207347219
-1.28,2.08,15.14,0.37,-0.16,-0.15,1721207347229
0.36,1.78,5.27,0.18,0.27,-0.16,1721207347239
-0.77,2.05,14.45,0.09,-0.01,-0.00,1721207347249
-1.66,4.42,11.79,0.30,0.05,0.07,1721207347259
1.38,1.31,2.40,0.24,0.10,-0.05,1721207347269
-0.90,0.16,-1.32,-0.07,-0.16,-0.14,1721207347279
-5.24,2.63,11.50,-0.07,0.05,-0.08,1721207347289
-1.95,-9.57,6.45,-0.15,-0.03,0.08,1721207347299
-0.50,-6.54,16.70,-0.31,0.22,0.11,1721207347309
0.28,7.13,15.29,0.30,-0.22,0.14,1721207347319
1.39,-2.29,0.04,-0.23,0.06,0.03,1721207347329
0.51,-7.55,17.76,-0.36,0.10,-0.10,1721207347339
-1.13,4.73,15.70,0.23,-0.11,-0.08,1721207347349
-0.70,5.67,6.88,-0.13,0.03,-0.06,1721207347359
-0.23,-9.35,9.53,-0.44,-0.04,0.10,1721207347369
-2.09,-1.18,10.50,-0.01,-0.10,0.03,1721207347379
0.64,7.20,5.90,0.03,0.13,-0.08,1721207347389
0.47,1.62,6.23,-0.08,-0.09,0.01,1721207347399
-1.05,-2.60,6.12,-0.10,-0.04,0.06,1721207347409
-0.28,4.89,14.55,-0.09,0.09,-0.01,1721207347419
-1.55,2.21,10.84,-0.11,-0.15,0.01,1721207347429
-1.74,-4.72,9.04,-0.29,0.02,0.16,1721207347439
0.74,-2.60,15.74,-0.18,-0.00,0.32,1721207347449
0.70,8.35,23.30,0.01,0.09,-0.00,1721207347459
1.98,5.85,10.13,0.35,-0.36,0.08,1721207347469
2.03,-4.63,-3.87,0.01,0.04,0.07,1721207347479
9.12,6.87,16.40,-0.00,0.38,-0.23,1721207347489
-0.25,6.84,7.14,0.49,-0.27,-0.10,1721207347499
-1.98,-6.18,-2.40,0.04,0.01,0.06,1721207347509
-1.86,-5.33,19.92,-0.08,0.15,-0.03,1721207347519
-0.78,9.78,20.53,0.42,-0.18,0.02,1721207347529
1.58,2.86,0.91,0.27,0.04,0.11,1721207347539
-0.53,-5.20,3.31,-0.11,-0.07,0.08,1721207347549
1.17,-1.62,11.05,0.08,0.01,-0.21,1721207347559
0.89,-3.37,6.91,0.16,-0.02,-0.15,1721207347569
-1.47,-2.94,6.17,-0.18,-0.09,0.12,1721207347579
-0.88,1.88,25.60,-0.11,0.10,0.03,1721207347589
1.04,4.60,13.25,0.45,-0.14,0.10,1721207347599
4.64,-4.31,-1.21,-0.22,0.28,0.02,1721207347609
9.08,1.85,14.92,-0.34,0.10,-0.24,1721207347619
-0.17,-0.64,11.62,0.08,0.08,-0.23,1721207347629
-0.65,2.32,6.19,0.20,0.11,0.10,1721207347639
2.97,0.79,2.79,-0.05,0.12,0.21,1721207347649
3.37,-0.56,19.65,-0.25,0.07,-0.19,1721207347659
-1.31,3.35,15.61,0.17,-0.09,-0.57,1721207347669
-4.40,-0.31,2.48,0.04,0.08,-0.16,1721207347679
-3.43,-3.50,9.65,-0.15,0.19,0.19,1721207347689
1.00,-0.35,16.70,-0.07,0.03,0.11,1721207347704
1.77,6.03,18.22,0.15,0.07,-0.03,1721207347709
0.80,7.00,7.43,0.21,-0.06,-0.17,1721207347719
-0.46,-2.96,0.78,-0.14,-0.03,-0.02,1721207347729
0.26,0.95,13.62,-0.14,0.23,-0.07,1721207347739
1.04,6.57,12.56,0.13,0.00,-0.23,1721207347749
-1.85,0.84,0.03,-0.01,-0.13,-0.18,1721207347759
-1.65,-12.75,14.59,-0.53,0.24,0.04,1721207347769
1.13,8.77,28.57,0.33,0.05,0.13,1721207347779
3.76,15.93,-1.29,0.34,-0.08,-0.01,1721207347789
0.93,-0.29,4.50,-0.32,0.12,-0.27,1721207347799
-7.87,-12.61,21.01,-0.25,0.37,-0.30,1721207347809
-0.37,0.26,15.33,0.08,0.15,-0.14,1721207347819
0.00,-1.35,0.85,-0.21,-0.04,0.06,1721207347829
-0.48,5.68,22.23,0.03,0.24,-0.18,1721207347839
1.84,3.37,5.66,0.44,-0.13,-0.03,1721207347849
-0.19,-1.68,-2.80,-0.12,0.05,0.02,1721207347859
-0.39,0.76,11.23,-0.16,0.54,-0.14,1721207347869
4.69,-0.08,14.03,-0.09,0.14,-0.28,1721207347879
0.13,-1.24,15.06,-0.04,-0.03,-0.33,1721207347889
-2.68,0.98,-0.40,0.19,-0.03,-0.25,1721207347899
-2.01,-2.97,4.16,-0.25,0.29,-0.08,1721207347909
0.17,-1.24,23.57,-0.21,0.20,-0.07,1721207347919
-2.33,6.12,8.18,0.34,-0.13,-0.13,1721207347929
-0.40,-0.16,-1.55,-0.12,0.33,-0.12,1721207347939
2.16,-5.50,8.70,-0.34,0.07,0.04,1721207347949
-0.21,-1.77,25.56,-0.29,0.45,-0.14,1721207347959
1.39,10.12,18.72,0.34,-0.04,-0.17,1721207347969
-0.79,1.12,-5.58,-0.11,-0.09,-0.09,1721207347979
-3.92,-1.02,17.62,-0.17,0.29,-0.13,1721207347989
1.29,0.11,5.66,0.37,-0.18,0.09,1721207347999
0.28,1.13,3.89,-0.11,0.29,-0.13,1721207348009
-1.28,2.90,13.71,0.15,-0.10,-0.16,1721207348019
-2.21,1.19,3.43,0.13,0.11,-0.05,1721207348029
-0.39,1.07,19.79,-0.04,0.34,-0.08,1721207348039
-0.58,1.44,11.87,0.23,-0.38,0.09,1721207348049
-1.41,-0.12,0.49,0.02,0.14,0.03,1721207348059
1.42,-4.14,13.68,-0.05,0.18,-0.06,1721207348069
0.03,4.27,12.16,0.19,-0.31,-0.03,1721207348079
-2.32,5.76,2.76,0.22,-0.14,-0.10,1721207348089
-0.95,-2.81,4.17,0.00,0.15,-0.04,1721207348099
-0.34,-1.60,16.07,-0.04,0.07,0.18,1721207348109
0.21,0.85,13.18,0.09,-0.10,0.06,1721207348119
2.09,-1.12,11.06,-0.03,0.07,-0.05,1721207348129
0.34,2.64,16.26,0.15,-0.01,-0.17,1721207348139
-1.47,-0.62,6.68,0.02,-0.13,-0.15,1721207348149
-2.21,0.00,13.51,0.03,0.01,-0.03,1721207348159
-0.86,2.49,7.14,0.28,0.02,0.06,1721207348169
0.26,-0.47,2.94,-0.03,0.04,0.03,1721207348179
0.83,1.23,16.69,0.07,0.08,0.00,1721207348189
1.73,0.86,9.43,0.20,-0.12,0.01,1721207348199
-0.16,-1.39,8.87,-0.10,-0.06,-0.04,1721207348209
0.13,1.62,18.08,0.15,-0.09,-0.04,1721207348219
-0.52,-0.61,2.98,0.13,-0.28,-0.01,1721207348229
-1.18,5.35,6.41,0.08,0.08,-0.05,1721207348239
0.72,3.10,5.36,0.08,-0.01,-0.10,1721207348249
-0.45,-7.99,6.86,-0.31,-0.01,-0.12,1721207348259
-0.62,-2.83,20.71,-0.03,0.10,-0.11,1721207348269
-0.71,3.93,13.78,0.12,-0.09,-0.11,1721207348279
-2.74,11.40,15.56,0.20,0.01,-0.04,1721207348289
-0.35,-1.87,4.98,-0.07,-0.14,0.15,1721207348299
-2.38,-3.55,10.46,-0.26,-0.06,0.01,1721207348309
-0.49,4.92,4.90,0.24,-0.07,-0.13,1721207348319
0.31,-5.81,0.44,-0.48,-0.14,-0.06,1721207348329
-6.25,-3.88,20.19,-0.13,-0.07,0.18,1721207348339
1.86,-2.10,8.57,0.25,-0.05,0.20,1721207348349
2.97,4.82,6.68,-0.14,0.04,0.02,1721207348359
1.28,5.13,11.98,-0.16,-0.12,-0.25,1721207348369
-2.07,-1.68,8.86,-0.26,-0.15,-0.23,1721207348379
-4.53,-6.35,9.73,-0.29,-0.11,-0.02,1721207348389
-1.92,-3.37,10.10,-0.10,0.02,0.33,1721207348399
3.01,-5.71,10.18,-0.35,0.02,0.27,1721207348409
3.29,6.35,26.16,-0.15,-0.02,-0.10,1721207348419
0.15,14.34,6.52,0.39,-0.46,-0.23,1721207348429
0.70,-6.92,-7.14,-0.51,0.12,-0.17,1721207348439
-4.79,-11.16,13.00,-0.53,-0.01,-0.06,1721207348449
-6.38,-2.26,22.10,-0.26,-0.01,-0.09,1721207348459
-2.77,5.06,19.18,0.03,-0.14,0.26,1721207348469
2.93,5.43,8.95,0.20,-0.00,0.32,1721207348479
5.28,3.79,7.77,-0.01,0.01,0.09,1721207348489
3.02,10.35,17.82,0.02,0.09,-0.40,1721207348499
-1.87,-4.62,0.17,0.11,-0.46,-0.53,1721207348509
-7.21,-5.62,-1.86,-0.01,0.03,-0.37,1721207348519
1.44,-0.48,14.61,-0.03,-0.09,0.24,1721207348529
3.69,8.00,19.32,0.37,-0.09,0.55,1721207348539
5.06,4.94,7.83,0.28,-0.05,0.13,1721207348549
3.61,2.76,5.81,0.01,0.05,-0.43,1721207348559
0.60,-4.48,14.54,-0.01,-0.02,-0.54,1721207348569
-4.49,-3.22,8.40,0.28,-0.26,-0.20,1721207348579
-4.13,0.64,3.68,0.39,-0.00,0.34,1721207348589
3.36,4.51,16.08,0.11,0.31,0.21,1721207348599
3.07,3.60,13.02,0.27,-0.40,-0.07,1721207348609
2.56,1.60,7.00,0.07,0.15,-0.34,1721207348619
0.12,1.35,12.40,0.16,-0.12,-0.34,1721207348629
-3.07,0.51,0.03,0.18,-0.21,-0.04,1721207348639
0.15,-5.55,5.04,-0.00,0.29,0.05,1721207348649
2.32,-0.86,14.42,0.07,-0.02,0.08,1721207348659
2.07,1.90,28.75,0.00,0.02,-0.13,1721207348669
0.72,9.93,13.29,0.72,-0.26,0.01,1721207348679
2.96,-2.77,-11.95,0.03,0.16,-0.11,1721207348689
-1.46,-5.46,10.98,-0.18,0.12,-0.44,1721207348699
-13.04,-3.92,16.88,0.46,-0.10,-0.35,1721207348709
-2.56,3.13,8.03,-0.14,-0.11,-0.00,1721207348719
0.15,-3.75,13.53,0.03,0.15,0.16,1721207348729
2.61,1.55,17.58,0.26,0.03,-0.17,1721207348739
2.74,3.11,6.27,0.07,0.09,-0.38,1721207348749
-2.26,-1.57,8.24,-0.12,-0.12,-0.45,1721207348759
-4.86,-0.42,3.62,0.12,0.15,-0.35,1721207348769
-3.22,0.87,6.72,-0.26,0.25,-0.03,1721207348779
0.19,-2.06,22.79,-0.14,0.06,0.28,1721207348789
3.78,-7.56,14.24,-0.20,0.04,-0.07,1721207348799
2.36,9.79,14.02,0.23,-0.01,-0.27,1721207348809
3.67,2.66,-0.05,-0.20,0.20,-0.37,1721207348819
3.58,-1.11,11.23,-0.40,0.11,-0.52,1721207348829
-4.95,1.42,8.41,0.00,0.05,-0.39,1721207348839
-3.54,-2.34,4.54,-0.27,0.25,0.19,1721207348849
1.16,1.92,13.92,-0.08,0.20,0.24,1721207348859
4.99,-1.78,9.93,-0.22,0.05,-0.09,1721207348869
0.51,8.90,9.40,0.03,-0.15,-0.37,1721207348879
1.80,-2.94,-2.85,-0.15,0.18,-0.34,1721207348889
-2.74,-10.20,12.69,-0.63,0.20,-0.36,1721207348899
-3.11,6.27,24.47,0.03,-0.07,-0.15,1721207348909
-1.77,6.53,12.77,0.02,0.23,-0.00,1721207348919
1.70,-0.65,0.32,0.00,-0.06,0.05,1721207348929
1.20,-8.13,-0.47,-0.36,0.15,0.01,1721207348939
1.75,-4.00,30.44,-0.43,0.64,-0.22,1721207348949
-0.45,6.13,25.54,0.03,-0.14,-0.44,1721207348959
-4.72,3.27,3.71,-0.23,0.05,-0.64,1721207348969
-4.37,-0.84,10.13,-0.14,0.05,0.03,1721207348979
-0.77,-9.28,5.43,-0.28,0.07,0.50,1721207348989
5.10,3.72,19.83,-0.11,0.34,0.17,1721207348999
4.94,8.96,11.76,0.32,-0.20,-0.42,1721207349009
-1.62,-1.59,-5.78,0.21,-0.17,-0.67,1721207349019
-7.27,-3.08,15.49,-0.16,0.66,-0.30,1721207349029
-0.24,16.61,23.10,0.12,-0.06,-0.02,1721207349039
-3.35,-4.26,-4.36,0.19,-0.14,-0.09,1721207349049
-1.92,-8.83,1.64,-0.03,0.38,-0.04,1721207349059
3.70,-8.63,16.61,0.28,0.48,0.14,1721207349069
4.07,5.13,21.82,0.12,0.18,-0.13,1721207349079
-2.06,7.31,10.95,0.16,-0.18,-0.54,1721207349089
-5.16,-1.66,3.80,0.03,0.13,-0.46,1721207349099
-3.93,-2.28,11.10,0.07,0.22,0.17,1721207349109
1.69,0.14,13.84,0.11,0.19,0.37,1721207349119
2.04,1.93,13.22,0.00,0.07,-0.13,1721207349129
-0.01,1.64,10.48,0.14,-0.01,-0.44,1721207349139
-3.09,-1.68,6.89,-0.05,0.10,-0.18,1721207349149
-2.38,-4.75,9.98,-0.13,0.06,0.15,1721207349159
-0.41,2.14,9.92,0.24,0.05,0.06,1721207349169
1.66,1.99,5.36,0.32,0.20,-0.21,1721207349179
-0.48,-2.47,4.33,0.23,-0.04,-0.10,1721207349189
-2.15,-5.91,15.38,-0.19,0.25,-0.01,1721207349199
-0.75,5.90,28.10,0.15,0.02,-0.01,1721207349209
-1.46,13.23,2.90,0.63,-0.17,-0.23,1721207349219
-2.02,-4.65,-5.43,0.04,0.11,-0.10,1721207349229
-3.12,-8.35,9.18,0.06,0.04,0.33,1721207349239
2.99,3.49,14.24,0.05,0.49,0.10,1721207349249
1.82,1.32,8.67,0.23,-0.14,-0.15,1721207349259
0.73,2.57,7.09,0.16,0.19,-0.14,1721207349269
-0.45,9.23,13.00,0.31,-0.06,0.03,1721207349279
-0.64,3.22,0.07,0.04,-0.12,0.08,1721207349289
2.61,-19.17,24.90,-0.79,0.41,0.06,1721207349299
0.62,16.20,35.51,0.61,-0.31,-0.15,1721207349309
1.90,9.49,-15.83,0.45,-0.17,-0.18,1721207349319
-4.64,-15.24,13.71,-0.44,-0.02,0.07,1721207349329
15.45,15.22,10.57,0.27,0.60,-0.08,1721207349339
6.82,9.50,-7.18,0.43,0.80,-0.19,1721207349349
-3.16,-1.98,9.06,-0.28,-0.48,-0.22,1721207349359
-0.55,-5.13,7.20,-0.29,0.10,-0.36,1721207349369
-0.67,-0.67,8.75,0.06,0.30,-0.03,1721207349379
-1.05,2.55,13.41,-0.17,0.01,0.18,1721207349389
0.05,-2.24,10.77,-0.10,0.00,0.25,1721207349399
-0.38,-0.39,7.40,-0.04,-0.02,0.06,1721207349409
2.15,-1.83,9.88,-0.26,0.25,-0.08,1721207349419
0.19,-4.56,6.28,-0.19,-0.22,-0.05,1721207349429
-3.02,-0.62,9.67,-0.19,0.04,-0.08,1721207349439
-1.67,7.01,16.95,0.04,0.04,0.08,1721207349449
-0.32,-1.00,4.06,-0.25,-0.06,0.20,1721207349459
-1.53,-3.88,14.26,-0.48,0.08,0.03,1721207349469
0.57,2.85,17.32,-0.28,-0.07,-0.02,1721207349479
-3.14,4.85,7.47,-0.14,-0.12,0.01,1721207349489
-1.17,-8.68,1.30,-0.13,0.01,0.30,1721207349499
2.28,-1.65,12.25,-0.06,0.23,0.36,1721207349509
2.64,20.42,27.92,0.06,-0.08,0.11,1721207349519
0.15,-5.33,7.71,-0.08,-0.55,-0.07,1721207349529
1.35,-9.67,1.74,-0.27,0.33,-0.23,1721207349539
-2.19,3.59,23.20,0.13,-0.47,0.15,1721207349549
-6.87,-1.98,14.92,0.21,-0.32,0.37,1721207349559
2.37,4.31,11.14,0.18,0.26,0.24,1721207349569
5.45,6.56,12.06,0.14,-0.09,-0.04,1721207349579
1.08,-2.23,7.26,-0.03,-0.21,-0.21,1721207349589
-1.65,-4.26,5.27,0.14,0.12,-0.28,1721207349599
-1.73,-0.81,5.62,0.20,-0.06,0.04,1721207349609
-0.09,4.24,13.26,0.27,0.01,0.23,1721207349619
3.54,-3.33,7.53,0.08,-0.01,0.10,1721207349629
2.45,-0.55,13.40,-0.01,0.09,-0.24,1721207349639
-6.41,0.51,22.86,0.55,-0.70,-0.09,1721207350189
-3.97,0.15,3.09,0.41,-0.23,-0.09,1721207350194
-4.02,2.64,12.68,-0.09,0.25,-0.01,1721207350204
0.15,6.30,20.43,0.24,-0.20,0.11,1721207350214
-0.97,-5.29,-2.22,0.03,-0.34,0.23,1721207350224
-2.22,-2.02,11.22,-0.07,0.33,0.06,1721207350234
1.66,5.82,14.35,0.25,-0.11,-0.03,1721207350244
-0.27,-2.94,2.46,-0.03,-0.26,0.01,1721207350254
-2.43,-2.86,15.34,-0.06,0.03,-0.00,1721207350264
-0.09,7.59,21.26,0.14,-0.03,0.07,1721207350274
-0.44,3.30,12.13,0.11,-0.30,0.19,1721207350284
0.28,-6.51,6.71,-0.05,-0.11,0.18,1721207350294
0.51,0.69,7.31,0.08,-0.23,0.14,1721207350304
1.05,4.01,8.81,0.15,-0.06,-0.02,1721207350314
2.82,0.03,11.98,0.26,-0.05,-0.07,1721207350324
0.37,7.06,1.31,0.38,-0.30,0.06,1721207350334
-0.41,2.98,6.88,-0.18,0.05,-0.03,1721207350344
-0.73,4.57,19.28,-0.00,-0.32,-0.10,1721207350354
-2.47,-1.30,-7.30,0.07,-0.47,0.05,1721207350364
-0.86,-13.60,13.96,-0.91,0.32,0.09,1721207350374
2.91,14.01,37.48,0.24,-0.18,0.16,1721207350384
0.92,3.39,-8.49,0.55,-0.45,0.22,1721207350394
0.46,2.06,3.10,-0.43,0.27,0.16,1721207350404
8.58,-0.94,10.83,-0.09,-0.24,0.02,1721207350414
8.91,2.69,-1.01,0.14,-0.45,-0.28,1721207350424
1.27,3.57,6.07,-0.12,0.10,-0.29,1721207350434
-3.54,-5.64,17.12,-0.50,-0.24,-0.10,1721207350444
-3.89,-2.00,20.83,-0.04,-0.11,0.03,1721207350454
-1.02,2.40,0.57,0.11,-0.27,0.06,1721207350464
1.56,-1.40,4.87,-0.51,-0.02,0.24,1721207350474
-0.23,-0.21,19.33,-0.06,-0.32,0.03,1721207350484
2.81,-5.26,6.37,-0.11,-0.14,-0.31,1721207350494
0.40,4.99,11.20,-0.04,-0.14,-0.35,1721207350504
-1.22,-0.89,6.67,-0.35,-0.10,-0.24,1721207350514
-2.84,-6.29,26.66,-0.65,-0.02,-0.18,1721207350524
-0.98,1.99,13.75,0.18,-0.23,-0.00,1721207350534
0.83,-0.11,-6.85,-0.18,0.09,-0.08,1721207350544
0.19,1.11,12.90,-0.06,0.08,-0.18,1721207350554
5.74,1.50,6.26,0.19,-0.05,-0.19,1721207350564
0.62,-1.85,9.38,-0.08,0.12,-0.23,1721207350574
-0.13,1.82,13.92,0.14,-0.07,-0.18,1721207350584
-0.45,3.81,9.13,-0.06,-0.02,-0.28,1721207350594
-0.80,-1.41,21.59,-0.43,-0.02,-0.28,1721207350604
-1.53,3.60,20.33,-0.05,-0.10,-0.17,1721207350614
1.27,0.18,-0.91,0.27,0.07,-0.15,1721207350624
0.31,-6.65,5.56,-0.09,0.04,-0.20,1721207350634
-0.18,12.54,16.49,0.42,-0.10,-0.26,1721207350644
1.86,2.80,2.93,0.54,0.10,-0.24,1721207350654
0.34,-6.44,3.50,0.02,0.07,-0.20,1721207350664
-1.55,5.77,21.01,0.19,-0.02,-0.18,1721207350674
-1.07,1.26,13.49,0.20,-0.02,-0.10,1721207350684
1.70,4.23,4.08,0.33,0.17,-0.02,1721207350694
3.63,1.60,3.81,0.42,0.18,-0.13,1721207350704
2.09,0.39,5.28,0.22,-0.00,-0.30,1721207350714
0.02,-2.15,13.52,0.09,0.25,-0.50,1721207350724
-3.15,3.49,8.42,0.38,-0.08,-0.28,1721207350734
-1.00,-3.44,2.81,-0.00,0.23,-0.08,1721207350744
0.19,4.09,11.43,0.13,0.08,0.01,1721207350754
0.95,-5.64,7.97,-0.21,0.17,-0.26,1721207350764
-0.46,-2.63,26.21,0.00,0.17,-0.30,1721207350774
-1.62,-0.23,7.25,0.39,-0.07,-0.00,1721207350784
0.45,1.24,4.54,0.04,0.36,0.04,1721207350794
1.61,2.15,13.24,0.19,0.12,-0.16,1721207350804
1.17,2.63,12.55,0.22,0.21,-0.39,1721207350814
-1.00,-0.30,6.30,0.28,0.02,-0.25,1721207350824
-3.17,-1.36,3.43,-0.03,0.20,-0.17,1721207350834
-2.59,0.03,19.11,-0.15,0.22,-0.15,1721207350844
-1.73,0.26,10.00,0.32,-0.03,0.05,1721207350854
0.01,-0.99,-2.87,0.06,0.18,0.16,1721207350864
-0.47,-2.89,20.24,-0.55,0.45,-0.09,1721207350874
0.35,6.55,26.02,0.23,-0.06,-0.24,1721207350884
-0.07,1.19,-7.32,0.06,0.06,-0.27,1721207350894
-2.97,-1.04,10.75,-0.38,0.23,-0.04,1721207350904
0.48,-1.91,11.10,0.04,-0.15,0.07,1721207350914
1.59,0.67,11.62,0.09,0.27,-0.02,1721207350924
-0.25,12.11,7.15,0.21,-0.08,-0.09,1721207350934
0.94,3.58,9.91,-0.25,0.26,-0.09,1721207350944
0.52,-5.88,8.00,-0.09,-0.16,0.05,1721207350954
1.17,-0.15,5.81,-0.12,0.32,-0.05,1721207350964
2.63,-1.22,14.64,-0.18,0.13,-0.33,1721207350974
-2.12,0.51,11.91,-0.00,-0.14,-0.27,1721207350984
-4.32,1.49,5.56,0.04,0.12,-0.08,1721207350994
0.20,-1.86,8.63,-0.13,0.27,0.12,1721207351004
1.96,2.32,16.20,-0.01,0.06,0.20,1721207351014
3.31,0.67,8.51,0.04,0.08,-0.12,1721207351024
1.50,-2.39,7.23,-0.13,0.08,-0.33,1721207351034
-1.43,-1.46,15.66,-0.10,0.08,-0.33,1721207351044
-1.38,0.10,11.30,0.08,0.06,-0.04,1721207351054
-1.64,5.37,5.15,0.09,0.07,0.05,1721207351064
0.77,2.82,11.97,-0.04,0.33,-0.07,1721207351074
0.03,5.75,10.68,0.17,-0.07,-0.16,1721207351084
-1.28,-3.65,2.45,-0.28,0.08,-0.11,1721207351094
-0.84,-7.40,18.04,-0.40,0.31,-0.13,1721207351104
-0.22,3.80,19.12,0.12,0.07,-0.11,1721207351114
-1.23,2.60,6.05,0.03,0.05,-0.08,1721207351124
-1.71,-3.34,10.19,-0.05,0.10,0.17,1721207351134
0.27,2.30,16.53,0.17,0.14,0.09,1721207351144
2.40,4.10,9.11,0.18,0.03,-0.10,1721207351154
0.35,3.87,6.76,0.13,-0.00,-0.19,1721207351164
-1.39,-0.75,10.45,0.09,0.14,-0.19,1721207351174
-2.88,-3.89,6.27,0.10,-0.18,0.03,1721207351184
-1.12,2.20,8.73,0.13,0.29,0.05,1721207351194
2.17,1.76,11.93,0.06,0.13,-0.07,1721207351204
-0.73,0.61,6.57,0.16,-0.17,-0.07,1721207351214
-0.84,-2.97,5.62,0.03,0.27,-0.05,1721207351224
-0.38,-0.09,13.70,0.02,0.09,-0.03,1721207351234
-1.11,0.43,5.83,-0.06,-0.16,0.10,1721207351244
-0.44,-7.46,20.45,-0.54,0.28,-0.20,1721207351254
-0.36,1.52,24.70,0.34,-0.14,-0.09,1721207351264
0.54,4.80,-7.99,0.21,0.05,-0.03,1721207351274
1.07,-5.28,12.22,-0.40,0.29,0.06,1721207351284
-3.14,5.11,35.18,0.54,-0.47,0.14,1721207351294
-0.28,-2.35,-1.04,0.20,-0.19,-0.20,1721207351304
-1.27,-1.83,5.45,-0.22,0.11,-0.19,1721207351314
-1.24,5.52,15.01,0.26,-0.17,-0.07,1721207351324
-0.68,-4.31,6.91,-0.22,0.11,-0.02,1721207351334
-1.51,0.15,19.54,0.16,-0.13,0.01,1721207351344
1.26,4.85,3.04,0.38,0.12,-0.13,1721207351354
-0.28,-0.36,10.24,-0.26,0.10,-0.14,1721207351364
-0.81,5.64,23.54,0.29,-0.18,-0.02,1721207351374
-0.27,2.89,-5.34,0.25,-0.16,0.01,1721207351384
2.09,-1.80,8.95,-0.14,0.36,0.02,1721207351394
2.83,-2.75,21.91,0.13,-0.30,-0.09,1721207351404
-0.23,4.21,6.06,0.22,-0.17,-0.23,1721207351414
-0.02,6.19,11.91,0.22,0.38,-0.31,1721207351424
0.08,-1.57,6.88,0.08,-0.07,-0.09,1721207351434
-3.56,-1.90,8.00,-0.13,-0.13,0.06,1721207351444
-0.09,0.13,12.39,0.11,0.24,-0.05,1721207351454
0.58,-2.45,9.10,-0.03,-0.03,-0.10,1721207351464
-3.15,1.43,9.45,-0.07,-0.10,-0.06,1721207351474
-1.00,-2.03,7.93,-0.10,0.14,0.00,1721207351484
0.89,1.24,12.57,-0.00,0.16,0.07,1721207351494
1.13,0.35,6.69,-0.13,0.05,0.01,1721207351504
-1.07,-2.98,8.21,-0.28,-0.06,-0.13,1721207351514
-1.32,-1.47,9.40,-0.12,0.01,-0.03,1721207351524
-0.63,-2.06,9.12,-0.26,0.08,-0.01,1721207351534
-1.23,0.60,14.55,-0.13,-0.05,0.03,1721207351544
-1.17,-2.34,5.92,-0.11,0.09,-0.05,1721207351554
-1.18,-2.76,13.17,-0.37,0.16,-0.10,1721207351564
-1.27,4.64,18.20,-0.09,0.00,-0.04,1721207351574
-0.43,-5.21,7.44,-0.28,-0.03,0.03,1721207351584
-1.32,-0.97,12.85,-0.29,-0.03,0.05,1721207351594
1.17,5.86,13.96,-0.13,0.09,0.11,1721207351604
2.30,3.21,11.09,-0.23,-0.02,-0.04,1721207351614
0.51,1.17,8.34,-0.15,-0.11,-0.17,1721207351624
-0.30,-3.74,9.00,-0.24,0.09,-0.10,1721207351634
-1.85,2.67,14.43,-0.10,-0.01,-0.10,1721207351644
-0.86,7.17,12.63,0.19,-0.01,0.02,1721207351654
-0.64,0.19,7.21,0.10,-0.06,0.13,1721207351664
0.23,-1.13,10.15,0.16,0.11,0.07,1721207351674
1.46,-1.13,9.21,0.25,0.12,-0.09,1721207351684
-2.48,6.30,8.92,0.32,-0.21,-0.03,1721207351694
-1.60,8.08,11.82,0.41,0.06,0.16,1721207351704
2.35,2.38,7.99,0.27,0.15,0.23,1721207351714
2.29,-6.58,1.47,0.00,-0.10,-0.02,1721207351724
-0.19,-7.46,16.68,-0.34,0.11,-0.32,1721207351734
-3.50,9.89,22.56,0.43,-0.19,-0.25,1721207351744
-1.75,6.31,-8.61,0.56,-0.11,0.30,1721207351754
2.24,-13.84,-1.43,-0.41,0.26,0.42,1721207351764
5.24,3.93,30.59,0.02,0.07,-0.21,1721207351774
-0.92,1.40,14.80,0.60,-1.01,-0.22,1721207351784
-0.93,-1.19,-7.03,-0.13,0.20,0.00,1721207351794
10.00,3.65,15.73,-0.04,0.41,0.16,1721207351804
4.03,-4.50,0.25,0.24,0.04,0.17,1721207351814
0.35,-2.94,8.12,-0.11,0.06,-0.06,1721207351824
2.39,7.31,26.72,0.15,0.12,-0.29,1721207351834
-2.08,7.63,3.21,0.43,-0.28,-0.01,1721207351844
-0.20,-3.51,-11.83,-0.14,0.19,0.26,1721207351854
7.86,-7.72,19.53,-0.59,0.40,0.00,1721207351864
-3.91,-2.49,39.07,0.29,-1.12,-0.33,1721207351874
-5.54,-2.21,-0.91,0.26,-0.03,-0.15,1721207351884
-0.06,0.56,7.06,-0.16,0.39,0.25,1721207351894
4.19,4.86,13.46,0.23,0.16,0.23,1721207351904
3.93,0.83,5.64,0.01,0.05,-0.21,1721207351914
-0.88,0.98,10.00,0.05,0.00,-0.36,1721207351924
-3.01,1.76,6.61,0.07,0.12,-0.12,1721207351934
-1.72,1.37,8.28,-0.03,0.08,0.09,1721207351944
0.67,3.75,6.71,0.06,0.02,0.14,1721207351954
3.43,0.18,9.11,-0.20,0.31,-0.14,1721207351964
0.53,-1.64,12.17,-0.05,-0.10,-0.29,1721207351974
-2.02,1.16,-1.21,-0.01,-0.04,-0.20,1721207351984
-1.75,-6.11,7.25,-0.50,0.25,-0.13,1721207351994
-1.17,-0.79,24.99,-0.04,-0.06,0.01,1721207352004
-0.72,-1.56,5.17,0.12,-0.09,0.10,1721207352014
1.33,0.17,10.96,-0.39,0.27,-0.01,1721207352024
3.33,4.16,25.20,-0.18,0.10,-0.04,1721207352034
3.08,0.35,15.96,-0.09,0.06,-0.20,1721207352044
-0.30,4.24,0.90,0.00,-0.17,-0.21,1721207352054
-0.01,1.42,3.25,-0.26,0.34,-0.23,1721207352064
-0.32,0.09,15.70,-0.07,0.02,-0.19,1721207352074
-2.89,1.12,5.73,0.01,-0.16,-0.10,1721207352084
-2.75,-4.56,7.79,-0.28,0.34,-0.11,1721207352094
-1.85,3.74,17.19,-0.01,-0.01,0.12,1721207352104
-0.39,0.42,3.41,-0.10,-0.07,0.12,1721207352114
1.29,-2.96,16.35,-0.30,0.29,-0.09,1721207352124
1.88,4.12,15.40,0.18,-0.03,-0.17,1721207352134
0.94,-1.61,4.38,-0.07,0.05,-0.15,1721207352144
-1.69,-0.08,13.33,-0.03,0.03,-0.16,1721207352154
-3.39,4.26,7.72,0.27,0.04,-0.17,1721207352164
-1.41,3.83,6.44,0.17,0.14,0.07,1721207352174
0.06,1.01,10.17,0.02,0.04,0.17,1721207352184
2.01,-0.73,16.14,-0.10,0.03,0.07,1721207352199
1.66,0.43,9.99,0.02,-0.05,-0.05,1721207352204
-0.79,-3.97,5.97,-0.09,-0.03,-0.20,1721207352214
-3.70,-2.59,9.79,0.15,0.03,-0.12,1721207352224
-0.84,0.37,15.84,0.15,0.30,0.16,1721207352234
0.24,5.27,21.84,0.14,-0.03,0.14,1721207352244
0.67,8.22,7.01,0.36,-0.27,0.09,1721207352254
0.14,-5.55,-2.14,-0.03,0.03,0.00,1721207352264
1.08,-9.29,18.54,-0.08,0.27,-0.12,1721207352274
-1.05,8.99,14.19,0.50,-0.38,-0.05,1721207352284
-3.58,2.99,2.38,0.06,0.04,-0.08,1721207352294
-2.46,-6.89,12.61,-0.01,-0.04,0.10,1721207352304
0.66,-2.26,8.62,0.23,-0.01,0.32,1721207352314
2.02,4.65,11.20,0.20,0.11,0.16,1721207352324
2.49,2.89,5.97,0.27,-0.19,-0.12,1721207352334
-0.19,-6.12,11.55,-0.07,0.00,-0.23,1721207352344
-3.80,0.56,18.11,0.14,-0.23,-0.03,1721207352354
-2.65,1.80,7.77,0.15,0.00,0.05,1721207352364
-0.33,3.87,9.33,0.14,0.07,-0.01,1721207352374
-0.57,2.44,3.78,0.21,-0.42,0.09,1721207352384
-0.93,0.39,4.04,0.15,0.04,0.14,1721207352394
2.42,-6.14,12.75,-0.12,0.10,0.03,1721207352404
-0.49,3.64,18.92,0.11,-0.34,-0.14,1721207352414
-1.28,8.42,9.88,0.23,-0.10,-0.12,1721207352424
-1.32,-2.72,2.01,0.04,-0.24,0.04,1721207352434
-1.52,-4.56,3.87,0.10,-0.09,0.34,1721207352444
5.37,0.36,14.28,-0.01,0.23,0.32,1721207352454
6.83,12.60,19.42,0.23,-0.12,-0.20,1721207352464
2.20,7.21,3.68,0.11,-0.34,-0.57,1721207352474
-3.71,-10.15,3.14,-0.49,-0.09,-0.37,1721207352484
-6.81,-1.82,17.41,-0.14,-0.07,-0.03,1721207352494
-3.42,2.53,6.95,0.11,-0.08,0.33,1721207352504
0.62,-2.64,3.30,-0.18,-0.01,0.40,1721207352514
3.62,-1.42,21.10,-0.20,0.15,0.09,1721207352524
4.31,9.43,14.30,0.40,-0.34,-0.12,1721207352534
0.49,-5.22,-11.71,-0.41,-0.26,-0.28,1721207352544
-4.49,-9.25,18.61,-0.57,0.16,-0.31,1721207352554
-3.00,1.58,20.90,0.13,0.26,-0.05,1721207352564
-1.82,2.35,4.91,0.10,-0.19,0.23,1721207352574
1.34,4.24,6.30,-0.05,0.05,0.15,1721207352584
3.23,0.04,9.64,-0.30,-0.04,-0.18,1721207352594
-0.73,2.38,14.60,-0.25,-0.13,-0.48,1721207352604
-3.63,-7.66,7.42,-0.33,-0.24,-0.31,1721207352614
-6.34,-1.40,9.29,-0.21,-0.19,0.07,1721207352624
-0.58,-9.27,16.16,-0.48,0.06,0.26,1721207352634
1.34,9.61,24.42,-0.09,-0.26,0.25,1721207352644
2.37,11.80,2.99,0.17,-0.22,0.08,1721207352654
5.84,-8.11,9.31,-0.49,0.23,-0.17,1721207352664
-0.48,2.41,20.85,0.05,-0.48,-0.39,1721207352674
-1.99,2.10,-1.52,0.31,-0.07,-0.35,1721207352684
-4.35,-0.07,10.73,-0.04,0.07,0.02,1721207352694
0.26,11.83,22.79,0.42,-0.18,0.33,1721207352704
3.73,7.30,4.29,0.49,-0.12,0.25,1721207352714
3.16,-7.13,-4.10,-0.06,-0.06,-0.22,1721207352724
1.58,-5.80,15.73,-0.27,0.05,-0.61,1721207352734
-8.92,-3.15,23.32,0.34,-0.69,-0.43,1721207352744
-4.89,-6.31,-3.51,0.22,-0.09,0.16,1721207352754
-1.42,-3.85,19.14,-0.06,0.24,0.34,1721207352764
2.53,17.03,23.32,0.47,-0.19,0.12,1721207352774
5.17,6.27,-3.35,0.23,-0.14,-0.19,1721207352784
1.81,-6.82,9.99,-0.42,0.17,-0.47,1721207352794
-1.98,-6.36,5.96,0.14,-0.59,-0.37,1721207352804
0.34,-13.64,9.76,-0.30,0.30,-0.22,1721207352814
-1.37,10.21,28.82,0.45,-0.24,-0.02,1721207352824
2.38,3.09,-6.45,0.36,-0.09,0.16,1721207352834
2.13,-0.88,8.27,-0.33,0.28,-0.23,1721207352844
-8.31,-8.03,20.42,-0.18,0.24,-0.62,1721207352854
-5.11,1.77,13.90,-0.01,-0.05,-0.32,1721207352864
-4.31,-9.15,17.38,-0.34,0.19,0.18,1721207352874
-0.53,3.99,26.02,0.31,-0.10,0.32,1721207352884
6.12,13.16,2.65,0.45,0.07,0.24,1721207352894
6.63,-3.84,-0.10,-0.11,0.03,-0.13,1721207352904
6.77,5.07,7.43,0.17,0.10,-0.74,1721207352914
0.36,3.50,0.82,0.28,0.07,-0.66,1721207352924
-7.49,-2.58,7.48,-0.26,0.00,-0.28,1721207352934
-6.27,-4.05,24.20,-0.11,0.12,0.01,1721207352944
-0.45,-0.53,12.80,0.03,-0.02,0.32,1721207352954
3.38,7.30,15.10,0.02,0.11,0.18,1721207352964
7.36,1.17,-0.48,0.22,0.05,-0.16,1721207352974
3.63,3.54,3.91,-0.02,0.17,-0.63,1721207352984
-5.95,-0.05,20.57,-0.01,-0.01,-0.82,1721207352994
-9.91,1.56,13.20,0.17,-0.21,-0.35,1721207353004
-4.84,-0.40,-0.23,-0.10,0.16,0.45,1721207353014
3.43,-2.28,9.20,-0.28,0.25,0.35,1721207353024
6.56,-0.60,12.70,-0.00,-0.05,-0.13,1721207353034
5.05,-0.79,11.09,0.05,0.07,-0.55,1721207353044
-1.41,9.51,13.72,0.13,-0.01,-0.65,1721207353054
-5.04,4.26,12.26,-0.21,-0.03,-0.40,1721207353064
-2.99,-8.88,5.36,-0.35,-0.01,0.21,1721207353074
1.45,-2.95,11.45,-0.36,0.38,0.06,1721207353084
3.72,2.85,12.39,-0.02,-0.05,-0.27,1721207353094
0.29,3.08,8.55,-0.11,0.04,-0.53,1721207353104
-2.60,2.62,12.29,-0.12,0.07,-0.26,1721207353114
-1.81,-6.43,7.69,-0.44,0.04,-0.13,1721207353124
1.61,-0.71,9.75,-0.14,0.09,0.17,1721207353134
5.77,2.15,3.00,-0.08,0.11,0.00,1721207353144
2.77,0.12,10.96,-0.25,0.14,-0.72,1721207353154
-2.62,-1.60,15.59,-0.08,-0.06,-0.59,1721207353164
-3.90,0.17,17.14,-0.28,0.28,-0.02,1721207353174
-1.57,12.13,11.77,0.19,0.04,0.01,1721207353184
1.15,-7.24,-6.00,-0.26,-0.09,-0.06,1721207353194
1.07,-11.39,19.08,-0.39,0.28,0.06,1721207353204
-2.96,4.57,20.94,0.32,-0.49,-0.28,1721207353214
-0.98,-1.05,2.57,-0.24,0.36,-0.66,1721207353224
-4.40,-0.11,27.92,-0.24,-0.16,-0.02,1721207353234
-3.63,16.87,9.61,0.45,0.08,0.07,1721207353244
0.07,-6.63,-6.15,0.06,0.12,-0.01,1721207353254
0.45,-22.08,18.23,-0.51,0.19,0.24,1721207353264
3.56,19.57,31.53,0.22,0.17,-0.10,1721207353274
-0.39,10.42,4.33,0.42,-0.47,-0.69,1721207353284
-4.36,-2.63,6.49,-0.10,0.40,-0.42,1721207353294
-5.32,-1.95,10.72,0.53,-0.12,0.27,1721207353304
0.06,-7.38,4.76,0.20,0.33,0.46,1721207353314
3.38,4.11,20.41,0.12,0.01,0.10,1721207353324
1.33,5.20,5.91,0.34,-0.25,-0.38,1721207353334
-0.09,-6.41,9.72,-0.01,0.18,-0.47,1721207353344
-4.79,0.12,12.84,0.44,-0.39,0.15,1721207353354
0.77,4.00,-3.74,0.45,0.43,0.21,1721207353364
4.05,-4.49,13.76,-0.11,0.23,-0.03,1721207353374
1.62,12.72,17.98,0.41,-0.11,-0.25,1721207353384
-1.87,3.03,-7.29,0.49,-0.00,-0.41,1721207353394
-3.60,-10.67,2.80,-0.44,0.03,-0.12,1721207353404
7.51,-4.32,33.21,-0.49,0.66,-0.08,1721207353414
0.03,13.02,11.15,1.15,-0.05,0.01,1721207353424
-0.91,-4.37,-35.34,0.04,-0.20,-0.12,1721207353434
-0.59,-10.20,31.96,-1.05,1.06,-0.14,1721207353444
2.20,13.38,56.70,0.50,-1.25,-0.22,1721207353454
-0.88,4.50,-22.16,0.86,-0.51,-0.40,1721207353464
5.54,-2.96,8.96,-1.14,0.44,-0.26,1721207353474
-0.40,-0.60,26.72,-0.31,0.86,0.10,1721207353484
2.17,-0.41,4.92,0.67,-0.22,0.02,1721207353494
0.74,-1.04,-3.66,-0.32,0.21,-0.13,1721207353504
4.74,1.99,10.33,-0.00,0.12,-0.19,1721207353514
9.06,13.27,-4.92,0.47,-0.36,-0.47,1721207353524
-1.54,-0.04,-4.70,0.11,0.26,-0.16,1721207353534
-4.38,-11.67,11.99,-0.42,0.25,-0.02,1721207353544
-0.91,1.81,29.71,0.19,0.18,0.07,1721207353554
1.75,4.92,5.55,0.51,-0.14,-0.10,1721207353564
0.68,1.10,3.00,-0.24,0.21,-0.25,1721207353574
-1.07,-0.29,11.74,0.04,-0.16,-0.14,1721207353584
0.59,1.50,6.92,0.05,0.37,-0.16,1721207353594
-0.38,4.90,10.67,-0.16,0.04,-0.33,1721207353604
-3.38,-3.98,10.04,-0.38,-0.11,-0.23,1721207353614
-2.93,-9.91,25.80,-0.64,0.33,-0.10,1721207353624
-1.89,4.32,15.05,-0.05,-0.17,-0.03,1721207353634
-1.38,0.47,-0.25,-0.40,0.06,-0.02,1721207353644
0.16,3.34,13.48,-0.09,0.11,0.06,1721207353654
3.09,1.39,3.78,0.16,0.12,-0.01,1721207353664
1.74,-0.58,8.71,-0.15,0.26,-0.31,1721207353674
-0.55,8.93,14.11,0.13,-0.04,-0.37,1721207353684
-2.12,2.19,2.96,0.09,-0.12,-0.18,1721207353694
0.01,-9.07,1.41,0.01,0.15,0.04,1721207353704
-0.13,-1.09,7.14,0.21,0.17,-0.12,1721207353714
-0.55,7.73,12.34,0.17,0.16,-0.19,1721207353724
-0.18,3.94,11.09,-0.10,0.09,-0.13,1721207353734
-1.13,-3.95,15.91,-0.33,0.05,-0.19,1721207353744
-1.57,2.63,8.45,0.10,-0.06,0.04,1721207353754
1.36,-5.80,4.19,-0.38,0.38,0.05,1721207353764
0.77,1.03,32.17,-0.24,0.22,-0.04,1721207353774
0.14,10.57,13.13,0.38,-0.15,-0.13,1721207353784
1.39,-8.08,-7.39,-0.30,0.14,-0.26,1721207353794
-4.42,-2.43,14.75,-0.23,-0.15,-0.05,1721207353804
-2.48,4.99,17.73,0.36,-0.11,0.08,1721207353814
2.22,0.74,-0.76,0.17,0.15,0.04,1721207353824
0.93,-5.46,10.33,-0.02,0.22,-0.11,1721207353834
-0.19,-4.77,18.46,-0.03,-0.02,-0.25,1721207353844
-1.65,12.27,22.37,0.41,0.11,-0.16,1721207353854
0.74,8.14,1.81,0.60,0.11,0.17,1721207353864
1.77,-0.52,-2.42,0.15,0.26,0.23,1721207353874
4.03,-6.54,16.05,-0.19,0.38,-0.30,1721207353884
-1.52,-1.54,22.78,0.39,-0.46,-0.63,1721207353894
-4.06,1.07,-4.30,0.25,0.11,-0.14,1721207353904
-2.11,-0.03,11.23,-0.04,0.41,0.24,1721207353914
3.52,4.17,14.83,0.51,0.16,0.16,1721207353924
4.23,-3.13,4.66,0.10,0.27,-0.25,1721207353934
-0.68,-2.46,20.12,-0.06,0.17,-0.51,1721207353944
-5.15,4.98,17.28,0.49,0.10,-0.33,1721207353954
-3.28,1.68,-3.92,0.33,0.25,0.22,1721207353964
-0.16,-0.64,-0.19,-0.01,0.29,0.45,1721207353974
2.91,-7.16,20.06,-0.27,0.70,-0.21,1721207353984
2.19,8.93,21.28,0.60,-0.05,-0.52,1721207353994
-2.63,3.73,-13.46,0.01,0.01,-0.19,1721207354004
-3.50,-8.94,9.48,-0.60,0.38,0.13,1721207354014
20.59,3.33,10.34,0.09,0.79,-0.01,1721207354024
-1.24,3.03,2.95,0.12,0.37,-0.18,1721207354034
-3.00,-6.61,26.01,-0.71,0.27,-0.39,1721207354044
-8.78,5.88,37.70,0.43,-0.17,-0.21,1721207354054
-0.53,0.21,-13.37,0.03,-0.01,0.29,1721207354064
2.58,-4.15,12.52,-0.51,0.51,0.21,1721207354074
9.35,-1.72,12.67,-0.03,0.56,-0.34,1721207354084
0.33,3.00,1.70,0.05,0.36,-0.55,1721207354094
-8.16,-1.46,9.54,-0.32,0.11,-0.41,1721207354104
-4.79,-0.07,14.20,-0.10,0.02,-0.01,1721207354114
-1.10,-2.61,7.95,-0.22,0.28,0.37,1721207354124
2.15,0.91,11.82,-0.07,0.18,0.21,1721207354134
3.64,1.58,10.03,-0.10,0.14,-0.10,1721207354144
-0.31,-0.56,10.48,-0.22,0.16,-0.37,1721207354154
-1.31,-1.00,19.83,-0.24,0.30,-0.21,1721207354164
-3.52,5.13,8.84,0.11,-0.04,0.09,1721207354174
-1.27,-2.11,-0.28,-0.09,0.26,0.20,1721207354184
3.97,-3.36,19.44,-0.24,0.35,0.16,1721207354194
2.12,4.59,9.21,0.17,-0.01,-0.13,1721207354209
-0.68,6.14,4.07,0.05,0.25,-0.20,1721207354214
-1.13,-4.49,11.66,-0.19,0.15,0.01,1721207354224
-2.20,1.46,12.38,0.06,0.05,0.21,1721207354234
0.21,7.78,8.77,0.24,0.20,0.10,1721207354244
0.77,-8.74,4.36,-0.13,0.02,-0.05,1721207354254
-1.85,-1.00,20.56,-0.04,0.22,-0.00,1721207354264
-0.93,8.74,9.60,0.44,0.00,0.13,1721207354274
-1.97,-2.01,0.71,-0.00,0.05,0.08,1721207354284
-2.00,0.73,17.65,0.13,0.18,0.20,1721207354294
2.49,0.41,7.07,0.36,-0.01,0.23,1721207354304
1.47,-0.10,8.92,-0.10,0.08,0.09,1721207354314
-0.39,10.18,22.29,0.20,0.03,0.04,1721207354324
-1.31,-3.53,0.26,-0.00,-0.28,-0.06,1721207354334
-4.03,-5.88,6.31,-0.23,0.17,0.02,1721207354344
-4.04,-0.86,13.25,0.24,-0.11,0.47,1721207354354
0.30,-5.43,5.94,-0.11,0.15,0.53,1721207354364
1.97,4.81,23.73,0.27,0.00,0.25,1721207354374
2.88,7.30,-0.14,0.56,-0.41,0.17,1721207354384
0.78,-9.22,0.24,-0.34,0.04,0.22,1721207354394
-6.05,-9.23,45.20,-0.14,0.61,0.15,1721207354404
-0.36,22.76,13.89,0.99,-0.88,-0.11,1721207354414
-3.96,-7.12,-27.87,-0.28,-0.14,-0.05,1721207354424
-7.14,-17.66,24.76,-0.69,0.62,0.30,1721207354434
18.10,19.15,10.36,0.41,-0.34,0.33,1721207354444
4.71,-2.11,-16.45,0.20,-0.02,0.18,1721207354454
-1.85,-6.38,18.70,-0.49,-0.01,0.13,1721207354464
9.45,9.67,8.65,-0.20,-0.01,0.11,1721207354474
8.66,-1.71,4.47,-0.02,0.09,0.20,1721207354484
1.24,7.27,21.16,-0.04,-0.21,-0.05,1721207354494
2.16,6.50,11.77,0.25,-0.21,-0.09,1721207354504
-0.35,1.25,6.80,-0.11,-0.21,0.00,1721207354514
-2.47,3.35,3.78,-0.03,-0.32,0.07,1721207354524
1.66,0.85,7.92,0.00,0.14,-0.08,1721207354534
1.27,0.31,8.49,0.10,-0.14,-0.19,1721207354544
-4.72,0.14,2.25,-0.03,-0.49,-0.06,1721207354554
-3.04,1.31,7.42,0.06,0.01,0.22,1721207354564
3.56,-4.52,15.91,-0.30,0.21,0.24,1721207354574
2.13,4.46,31.32,0.05,-0.25,-0.12,1721207354584
-0.92,4.24,6.58,0.02,-0.49,-0.45,1721207354594
-4.83,1.24,2.67,-0.32,-0.16,-0.16,1721207354604
0.27,-4.91,9.12,-0.17,0.16,0.30,1721207354614
2.24,-8.78,7.05,-0.18,-0.14,0.09,1721207354624
0.00,4.58,9.71,0.25,-0.21,-0.16,1721207354634
4.31,3.46,3.80,0.16,0.19,-0.22,1721207354644
1.45,5.47,10.95,-0.25,-0.24,-0.23,1721207354654
-0.50,-1.42,17.19,-0.38,-0.03,-0.41,1721207354664
-2.54,-10.64,16.06,-0.31,-0.04,-0.49,1721207354674
-6.00,2.64,4.70,0.07,-0.36,-0.16,1721207354684
-4.21,5.99,9.46,-0.17,0.16,0.24,1721207354694
2.47,9.79,14.64,0.12,-0.02,0.35,1721207354704
6.27,-6.51,-3.68,-0.20,-0.08,0.06,1721207354714
1.13,-6.78,14.38,-0.51,0.35,-0.55,1721207354724
-0.63,3.88,21.17,-0.09,-0.51,-0.70,1721207354734
-6.26,3.92,8.87,-0.02,-0.14,-0.32,1721207354744
-2.91,2.48,15.60,-0.11,0.11,0.21,1721207354754
1.13,-3.99,9.14,-0.14,-0.08,0.31,1721207354764
2.65,3.79,8.22,0.07,0.15,-0.11,1721207354774
3.32,4.51,5.44,0.29,-0.06,-0.38,1721207354784
-1.90,-1.61,4.64,0.21,-0.07,-0.38,1721207354794
-1.82,1.53,12.71,0.27,0.20,-0.17,1721207354804
-0.83,-1.84,10.88,-0.02,-0.02,-0.08,1721207354814
-1.64,6.15,20.77,0.03,-0.02,-0.19,1721207354824
0.41,2.04,4.69,0.23,-0.02,-0.01,1721207354834
0.31,-6.80,0.93,-0.07,0.08,0.07,1721207354844
1.16,-1.04,19.94,-0.02,0.28,-0.22,1721207354854
0.66,0.45,19.01,0.25,-0.11,-0.41,1721207354864
-2.27,-0.24,5.35,0.12,-0.11,-0.07,1721207354874
-1.31,1.03,12.67,0.00,0.32,0.14,1721207354884
2.71,2.49,9.03,0.29,-0.02,0.13,1721207354894
2.34,2.84,1.14,0.25,0.06,-0.09,1721207354904
3.60,-9.21,16.20,-0.24,0.34,-0.37,1721207354914
-2.15,8.99,25.67,0.35,-0.20,-0.31,1721207354924
-2.84,8.49,-5.50,0.37,0.01,0.08,1721207354934
1.42,-9.70,3.01,-0.31,0.37,0.15,1721207354944
9.26,-1.71,15.39,0.02,0.50,-0.27,1721207354954
0.66,9.94,10.29,0.52,0.26,-0.41,1721207354964
-3.01,-0.00,7.41,-0.02,0.07,-0.23,1721207354974
-4.25,2.62,20.00,0.13,0.08,0.09,1721207354984
0.68,6.58,8.10,0.26,0.16,0.33,1721207354994
4.32,-0.77,2.77,-0.07,0.23,0.06,1721207355004
4.09,-2.80,9.48,-0.07,0.14,-0.37,1721207355014
-1.31,3.80,10.61,0.07,-0.02,-0.54,1721207355024
-4.97,3.47,5.66,0.18,0.05,-0.22,1721207355034
-2.10,-6.84,-0.96,-0.16,0.23,0.12,1721207355044
-1.44,-1.36,15.21,-0.18,0.11,0.17,1721207355054
2.06,0.98,21.58,-0.01,0.05,-0.08,1721207355064
0.72,6.22,13.20,0.22,0.04,-0.29,1721207355074
-0.65,0.76,1.06,-0.14,0.07,-0.20,1721207355084
-1.48,-6.13,11.84,-0.49,0.16,-0.07,1721207355094
0.23,1.34,15.63,0.04,0.02,-0.04,1721207355104
2.54,4.68,-0.11,0.04,0.13,-0.13,1721207355114
-0.10,0.03,3.95,-0.23,0.09,-0.29,1721207355124
-4.09,-9.45,15.24,-0.37,0.08,-0.24,1721207355134
-2.39,-0.82,19.99,-0.15,0.11,0.03,1721207355144
1.88,5.75,14.92,-0.23,0.18,0.14,1721207355154
0.81,7.68,16.29,-0.15,0.09,-0.18,1721207355164
-0.62,-5.86,1.81,-0.19,-0.13,-0.21,1721207355174
-0.62,-6.60,11.60,-0.45,0.42,-0.12,1721207355184
-0.68,5.05,21.54,0.05,-0.00,-0.21,1721207355194
-2.80,3.94,2.25,0.19,-0.01,-0.14,1721207355204
-4.95,0.76,3.44,0.07,0.16,0.18,1721207355214
1.73,1.78,12.06,0.17,0.26,0.47,1721207355224
5.63,0.44,10.69,0.01,0.13,0.15,1721207355234
4.28,2.03,16.29,-0.08,0.08,-0.39,1721207355244
0.29,7.59,9.12,0.23,-0.01,-0.56,1721207355254
-3.67,-4.03,0.03,-0.09,0.09,-0.17,1721207355264
-3.75,-7.92,16.37,-0.12,0.28,0.17,1721207355274
-0.15,3.28,14.93,0.29,0.14,0.02,1721207355284
0.77,1.66,4.93,-0.02,0.02,-0.10,1721207355294
-2.15,4.55,8.25,0.12,0.01,-0.06,1721207355304
-0.96,-5.43,14.67,-0.22,0.34,-0.06,1721207355314
0.64,-2.04,19.75,0.14,0.03,0.07,1721207355324
1.35,0.81,3.30,0.15,0.15,-0.04,1721207355334
-0.62,-3.53,8.46,-0.15,-0.01,-0.10,1721207355344
-1.25,9.96,15.22,0.39,0.18,-0.16,1721207355354
1.72,12.81,0.96,0.56,0.08,-0.07,1721207355364
-1.62,-15.51,-6.99,-0.29,-0.12,0.06,1721207355374
-2.58,-12.13,25.82,-0.37,0.52,-0.07,1721207355384
1.70,17.34,27.96,0.55,-0.74,-0.17,1721207355394
-1.64,2.97,-7.10,-0.04,-0.02,-0.21,1721207355404
-7.31,-12.16,17.10,-0.35,0.25,0.08,1721207355414
1.01,0.96,13.01,0.41,-0.41,0.49,1721207355424
3.56,5.98,-4.25,-0.01,0.19,0.21,1721207355434
9.44,5.00,15.86,-0.19,0.15,-0.25,1721207355444
-0.56,5.07,8.37,0.34,-0.17,-0.31,1721207355454
-2.33,-7.60,1.47,-0.18,0.13,-0.15,1721207355464
-4.25,-3.46,19.13,-0.24,0.03,0.14,1721207355474
-1.06,12.58,17.42,0.33,0.14,0.13,1721207355484
2.04,6.57,-1.09,0.17,-0.09,0.13,1721207355494
0.83,-7.85,4.51,-0.23,0.07,0.02,1721207355504
1.52,0.55,15.51,0.08,0.13,0.02,1721207355514
1.92,0.55,5.64,-0.01,-0.00,-0.16,1721207355524
-2.25,1.23,16.91,-0.10,0.10,-0.23,1721207355534
-3.26,2.60,4.58,0.44,-0.16,0.21,1721207355544
1.74,0.96,5.48,-0.11,0.41,0.39,1721207355554
4.30,4.29,19.24,-0.08,0.06,0.02,1721207355564
2.24,-0.27,6.73,-0.02,-0.07,-0.12,1721207355574
-0.20,-2.37,9.21,-0.30,0.07,-0.18,1721207355584
