AccX,AccY,AccZ,GyrX,GyrY,GyrZ,Time
-1.53,1.08,10.64,0.00,-0.00,-0.03,1721207653143
-1.39,1.13,9.56,0.01,0.04,-0.07,1721207653148
-1.33,1.43,10.38,0.01,0.03,-0.12,1721207653158
-2.17,0.96,10.18,0.01,0.00,-0.10,1721207653168
-3.03,0.75,9.57,0.00,-0.00,-0.05,1721207653178
-2.34,1.07,9.78,0.01,0.05,-0.05,1721207653188
-1.89,1.30,10.07,-0.00,0.01,-0.06,1721207653198
-2.29,1.28,10.51,0.01,0.01,-0.05,1721207653208
-1.83,1.16,10.24,0.01,0.05,-0.05,1721207653218
-1.76,1.28,9.70,0.01,0.00,-0.04,1721207653228
-2.01,1.22,9.88,0.01,0.02,-0.05,1721207653238
-2.11,1.23,9.84,0.02,0.03,-0.03,1721207653248
-1.77,1.33,9.97,0.02,0.03,-0.03,1721207653258
-1.63,1.51,9.85,0.01,0.02,-0.05,1721207653268
-1.88,1.24,10.02,0.01,0.02,-0.08,1721207653278
-2.31,1.11,10.04,0.02,0.01,-0.07,1721207653288
-2.51,1.24,9.64,0.02,0.00,-0.05,1721207653298
-2.12,1.22,9.97,0.01,0.02,-0.02,1721207653308
-2.16,1.02,9.98,0.01,-0.02,0.01,1721207653318
-2.40,0.92,9.51,0.00,-0.06,0.01,1721207653328
-2.73,0.82,9.54,-0.02,-0.09,0.05,1721207653338
-2.41,1.20,9.89,-0.03,-0.11,0.10,1721207653348
-1.09,1.48,10.93,-0.00,0.01,0.05,1721207653358
-0.03,1.57,10.87,0.03,0.08,-0.11,1721207653368
-0.23,1.37,10.62,0.04,0.13,-0.29,1721207653378
-3.28,0.43,9.04,0.02,0.01,-0.24,1721207653388
-3.80,1.12,10.04,0.02,0.09,-0.08,1721207653398
-2.38,0.48,11.07,0.03,0.12,0.09,1721207653408
0.08,1.68,10.93,0.05,-0.01,0.06,1721207653418
-0.38,1.65,9.25,0.02,-0.06,-0.14,1721207653428
-1.73,0.86,10.67,0.03,-0.05,-0.24,1721207653438
-3.66,0.69,9.79,0.02,-0.04,-0.19,1721207653448
-3.81,0.68,10.13,0.02,-0.00,-0.03,1721207653458
-2.35,0.96,9.74,0.02,0.00,0.05,1721207653468
-0.97,1.11,10.06,0.01,-0.01,0.00,1721207653478
1.73,4.43,7.82,0.04,0.04,-0.19,1721207653488
0.59,3.83,9.42,0.04,-0.10,-0.22,1721207653498
-8.29,1.93,10.58,0.10,0.07,0.00,1721207653508
-2.68,2.02,9.89,0.14,-0.10,-0.01,1721207653518
-1.16,2.39,9.50,0.01,-0.07,-0.04,1721207653528
-0.90,2.39,9.52,0.03,0.05,-0.11,1721207653538
-1.10,1.34,10.16,0.00,0.01,-0.16,1721207653548
-2.13,1.26,10.24,0.02,-0.08,-0.12,1721207653558
-2.04,1.26,9.20,0.02,-0.00,-0.10,1721207653568
-1.03,1.30,10.21,-0.01,0.01,-0.11,1721207653578
-1.55,1.02,10.11,0.01,-0.02,-0.12,1721207653588
-1.98,1.04,10.15,0.02,-0.01,-0.11,1721207653598
-2.26,0.77,9.89,0.03,0.01,-0.08,1721207653608
-2.00,0.85,10.01,0.02,-0.02,-0.03,1721207653618
-1.53,1.01,9.93,0.02,-0.02,-0.04,1721207653628
-1.42,0.97,9.88,0.01,-0.01,-0.07,1721207653638
-1.77,0.83,9.04,-0.00,-0.13,-0.05,1721207653648
-2.84,0.66,9.55,0.02,-0.02,-0.02,1721207653658
-1.69,0.76,9.84,0.03,0.01,0.00,1721207653668
-1.04,1.02,10.22,0.02,-0.01,-0.03,1721207653678
-1.06,1.01,10.09,0.01,-0.01,-0.07,1721207653688
-1.57,0.91,10.03,0.02,-0.01,-0.09,1721207653698
-2.14,0.38,10.58,0.01,-0.03,-0.06,1721207653708
-1.82,0.29,10.33,0.01,-0.00,-0.04,1721207653718
-1.42,0.41,9.63,0.02,-0.02,-0.04,1721207653728
-1.46,0.86,9.71,0.01,-0.01,-0.06,1721207653738
-1.45,0.82,9.96,-0.00,0.02,-0.08,1721207653748
-1.33,0.55,10.52,-0.01,0.03,-0.08,1721207653758
-1.69,0.71,9.21,-0.03,-0.04,-0.07,1721207653768
-1.23,0.35,10.05,-0.02,0.03,-0.07,1721207653778
-1.16,0.11,9.85,-0.01,-0.02,-0.06,1721207653788
-1.50,-0.25,9.55,0.00,0.05,-0.06,1721207653798
-1.32,0.71,10.23,0.01,0.04,-0.07,1721207653808
-1.29,0.73,9.39,0.00,0.05,-0.10,1721207653818
-1.41,0.49,10.53,0.01,0.08,-0.10,1721207653828
-1.29,0.14,10.35,0.02,0.07,-0.07,1721207653838
-1.62,0.48,9.93,0.01,0.02,-0.07,1721207653848
-1.99,0.68,9.53,0.01,0.04,-0.08,1721207653858
-1.70,0.58,10.15,-0.00,0.07,-0.10,1721207653868
-2.24,1.21,10.81,0.01,0.08,-0.09,1721207653878
-2.01,1.10,9.97,-0.01,0.06,-0.09,1721207653888
-2.26,1.04,9.89,0.01,0.03,-0.09,1721207653898
-1.81,0.62,10.38,0.01,0.07,-0.07,1721207653908
-1.67,0.24,10.05,-0.02,0.03,-0.03,1721207653918
-2.07,1.36,9.90,0.03,0.07,-0.08,1721207653928
-2.09,1.08,10.92,-0.02,0.11,-0.09,1721207653938
-1.45,0.30,11.25,0.05,0.02,-0.04,1721207653948
-2.65,0.63,10.00,-0.00,-0.05,-0.01,1721207653958
-2.37,0.96,9.47,0.02,0.05,-0.06,1721207653968
-0.69,0.65,10.23,0.01,0.11,-0.08,1721207653978
-1.72,1.05,10.33,0.01,-0.03,-0.07,1721207653988
-1.95,0.75,9.58,-0.00,0.02,-0.06,1721207653998
-1.70,0.63,10.46,0.01,0.04,-0.05,1721207654008
-1.62,0.61,9.76,0.00,0.01,-0.04,1721207654018
-1.72,0.85,10.21,0.01,0.02,-0.06,1721207654028
-3.49,5.69,10.92,-0.14,0.09,-0.15,1721207654038
-1.47,2.34,12.97,-0.03,0.19,-0.09,1721207654048
-2.27,3.09,9.05,-0.11,0.06,-0.02,1721207654058
-2.63,1.53,11.90,0.09,-0.06,-0.01,1721207654068
-2.73,0.55,9.22,-0.03,-0.01,-0.09,1721207654078
-2.01,0.91,11.47,0.03,0.04,-0.08,1721207654088
-2.09,0.53,8.68,-0.01,0.03,-0.07,1721207654098
-2.67,1.34,11.03,0.01,0.02,-0.06,1721207654108
-2.34,0.36,9.08,0.02,-0.03,-0.02,1721207654118
-2.36,0.86,10.52,-0.00,0.01,-0.03,1721207654128
-2.14,0.84,9.71,0.03,-0.03,-0.05,1721207654138
-2.40,1.10,10.11,-0.01,-0.01,-0.08,1721207654148
-2.75,0.93,10.27,0.02,-0.05,-0.08,1721207654158
-2.86,0.69,9.71,0.00,-0.03,-0.05,1721207654168
-2.77,1.00,10.14,0.02,-0.06,-0.02,1721207654178
-2.34,0.51,9.43,0.00,-0.07,-0.01,1721207654188
-2.34,0.83,10.17,0.00,-0.06,-0.04,1721207654198
-2.29,0.75,10.02,0.01,-0.08,-0.05,1721207654208
-2.52,0.75,10.10,-0.00,-0.08,-0.03,1721207654218
-2.38,0.75,9.99,-0.00,-0.10,-0.01,1721207654228
-1.84,0.63,9.91,-0.01,-0.08,0.00,1721207654238
-1.53,0.82,10.01,0.01,-0.10,-0.02,1721207654248
-1.57,0.70,9.68,-0.00,-0.09,-0.05,1721207654258
-1.55,0.60,10.44,0.01,-0.10,-0.04,1721207654268
-1.60,0.83,10.03,0.00,-0.08,-0.04,1721207654278
-1.27,1.62,10.24,0.01,-0.09,-0.05,1721207654288
-1.26,0.99,9.65,-0.01,-0.11,-0.06,1721207654298
-1.36,1.46,10.04,0.02,-0.04,-0.07,1721207654308
-1.14,0.86,9.94,-0.01,-0.09,-0.07,1721207654318
-1.57,1.27,10.21,0.03,-0.09,-0.04,1721207654328
-1.27,1.22,9.91,0.01,-0.09,-0.07,1721207654338
-3.19,2.37,8.63,0.02,-0.03,-0.07,1721207654348
-0.99,4.21,11.10,0.02,0.02,-0.06,1721207654358
0.37,2.22,10.85,-0.01,-0.06,-0.09,1721207654368
-1.72,1.80,9.24,0.02,-0.21,-0.09,1721207654378
-1.58,0.05,10.22,0.00,-0.01,-0.08,1721207654388
-1.40,0.21,10.41,0.03,-0.12,-0.05,1721207654398
-1.61,0.58,9.34,-0.00,-0.07,-0.07,1721207654408
-1.46,0.37,10.69,0.01,-0.06,-0.09,1721207654418
-1.51,0.03,10.03,0.01,-0.09,-0.10,1721207654428
-1.75,0.63,10.08,0.01,-0.08,-0.09,1721207654438
-1.62,0.40,9.60,-0.01,-0.06,-0.11,1721207654448
-2.06,0.06,10.57,-0.00,-0.07,-0.10,1721207654458
-2.02,0.09,10.03,0.02,-0.09,-0.06,1721207654468
-1.65,0.64,9.85,0.00,-0.06,-0.06,1721207654478
-1.54,0.51,10.12,-0.00,-0.09,-0.09,1721207654488
-1.88,0.15,10.14,-0.00,-0.09,-0.11,1721207654498
-1.99,0.35,10.17,0.01,-0.09,-0.08,1721207654508
-1.75,0.31,9.81,-0.00,-0.09,-0.04,1721207654518
-1.55,0.30,10.23,0.01,-0.10,-0.05,1721207654528
-1.14,0.35,10.13,0.01,-0.09,-0.07,1721207654538
-1.31,0.52,10.19,0.00,-0.11,-0.09,1721207654548
-1.64,0.29,9.91,-0.00,-0.10,-0.08,1721207654558
-1.43,0.09,10.21,0.01,-0.09,-0.05,1721207654568
-1.02,0.43,10.11,0.01,-0.10,-0.06,1721207654578
-0.36,0.09,10.64,0.07,-0.08,-0.04,1721207654588
-0.70,0.31,10.83,-0.02,-0.10,-0.14,1721207654598
-2.41,-1.25,9.10,-0.01,-0.25,-0.09,1721207654608
-2.47,-0.14,9.51,0.02,-0.00,-0.05,1721207654618
-0.29,0.54,10.86,0.02,-0.04,-0.06,1721207654628
-0.31,0.11,9.72,-0.04,-0.10,-0.08,1721207654638
-1.09,-0.43,9.97,0.01,-0.11,-0.08,1721207654648
-0.45,1.32,5.36,-0.12,-0.03,0.02,1721207654658
3.52,-0.15,13.03,-0.35,0.36,0.17,1721207654668
1.58,-1.66,13.44,0.01,-0.30,-0.21,1721207654678
-0.67,0.00,14.56,0.16,0.11,-0.55,1721207654688
-2.96,4.38,10.77,0.08,-0.15,-0.22,1721207654698
-5.26,-0.53,5.05,-0.22,-0.13,0.09,1721207654708
-2.56,-1.11,10.43,-0.06,0.07,0.11,1721207654718
1.02,1.69,9.06,-0.03,0.01,0.04,1721207654728
0.05,1.13,10.31,-0.11,-0.04,-0.09,1721207654738
-0.69,-1.75,13.26,0.02,0.01,-0.16,1721207654748
-0.87,-0.08,11.83,0.08,-0.03,-0.01,1721207654758
1.23,2.04,9.35,0.10,0.03,0.07,1721207654768
3.33,0.67,9.87,0.06,0.09,-0.16,1721207654778
1.50,0.71,8.94,0.09,-0.04,-0.39,1721207654788
-1.15,0.67,8.35,0.03,0.08,-0.37,1721207654798
-2.17,-0.17,10.87,-0.03,0.11,-0.24,1721207654808
-2.64,-0.07,11.86,0.02,0.05,-0.21,1721207654818
-2.87,0.32,10.58,0.08,0.05,-0.20,1721207654828
-2.97,0.90,9.02,0.09,0.02,-0.09,1721207654838
-1.65,0.88,9.22,0.02,0.10,-0.00,1721207654848
-0.22,0.58,10.58,0.01,0.09,-0.06,1721207654858
-0.32,0.12,11.03,0.03,0.04,-0.18,1721207654868
-1.41,0.20,10.08,0.05,0.01,-0.17,1721207654878
-1.08,0.36,9.28,0.05,0.07,-0.04,1721207654888
0.75,0.58,9.83,0.02,0.10,-0.02,1721207654898
1.65,1.06,10.22,0.03,0.10,-0.18,1721207654908
0.61,0.49,10.56,0.03,0.11,-0.39,1721207654918
-2.86,-0.11,9.98,0.04,0.01,-0.41,1721207654928
-4.63,-0.10,9.55,0.03,0.09,-0.19,1721207654938
-2.95,-0.06,10.42,0.01,0.11,0.04,1721207654948
-0.68,0.28,10.56,0.03,0.08,-0.00,1721207654958
-0.15,0.41,10.49,0.03,0.08,-0.17,1721207654968
-1.26,0.41,9.99,0.02,0.06,-0.20,1721207654978
-1.84,-0.44,10.07,0.03,0.08,-0.10,1721207654988
-0.80,-0.35,9.85,0.02,0.11,-0.01,1721207654998
0.35,0.74,9.92,0.01,0.10,-0.05,1721207655008
1.43,0.15,10.27,0.02,0.12,-0.14,1721207655018
0.89,0.22,10.58,0.03,0.14,-0.27,1721207655028
-0.40,0.48,10.30,0.02,0.14,-0.28,1721207655038
-1.46,0.21,9.85,0.01,0.13,-0.23,1721207655048
-1.68,-0.37,10.13,0.02,0.17,-0.21,1721207655058
-1.78,-0.22,10.09,0.03,0.14,-0.19,1721207655068
-2.01,0.26,10.03,0.02,0.15,-0.16,1721207655078
-1.54,0.00,10.46,0.02,0.18,-0.12,1721207655088
-1.13,0.01,10.49,0.05,0.17,-0.12,1721207655098
-0.95,0.39,9.41,0.03,0.17,-0.16,1721207655108
-0.89,0.35,9.48,0.01,0.16,-0.11,1721207655118
-0.29,-0.06,10.22,0.02,0.21,-0.10,1721207655128
0.35,0.18,10.30,0.03,0.19,-0.14,1721207655138
-0.09,0.35,10.23,0.02,0.19,-0.27,1721207655153
-0.32,0.06,10.24,0.02,0.20,-0.26,1721207655157
-1.20,-0.11,10.60,0.03,0.23,-0.25,1721207655167
-1.23,-0.04,10.28,0.04,0.25,-0.23,1721207655177
-1.53,0.29,9.58,0.03,0.21,-0.21,1721207655187
-1.62,-0.23,10.04,0.02,0.25,-0.21,1721207655197
-1.71,-0.14,10.12,0.04,0.24,-0.18,1721207655207
-1.55,0.34,9.89,0.04,0.26,-0.16,1721207655217
-0.84,-0.16,10.68,0.03,0.29,-0.19,1721207655227
-1.01,0.26,9.18,0.03,0.24,-0.18,1721207655237
-1.80,0.84,9.22,0.02,0.19,-0.17,1721207655247
-1.07,0.76,9.97,0.02,0.29,-0.18,1721207655257
0.26,-0.54,11.74,0.02,0.32,-0.19,1721207655267
-0.44,-0.37,9.67,0.04,0.24,-0.23,1721207655277
-1.56,-0.02,9.35,0.03,0.29,-0.28,1721207655287
-2.11,0.22,9.52,0.05,0.30,-0.27,1721207655297
-2.30,-0.76,9.29,0.03,0.30,-0.22,1721207655307
-2.67,0.76,10.12,0.04,0.25,-0.20,1721207655317
-2.43,1.19,10.02,0.02,0.33,-0.24,1721207655327
-0.85,-0.80,11.31,0.02,0.37,-0.18,1721207655337
-1.89,-1.12,10.82,0.05,0.27,-0.20,1721207655347
-3.50,1.00,9.22,0.05,0.24,-0.24,1721207655357
-2.37,0.29,9.08,0.04,0.32,-0.17,1721207655367
-1.07,-0.16,9.71,0.04,0.35,-0.14,1721207655377
-1.50,0.87,9.97,0.05,0.27,-0.24,1721207655387
-2.79,0.51,8.14,-0.04,0.28,-0.29,1721207655397
-3.87,-3.39,13.17,-0.01,0.30,-0.25,1721207655407
-4.93,0.94,8.90,0.21,0.15,-0.21,1721207655417
-3.32,3.05,6.54,-0.03,0.38,-0.10,1721207655427
-1.87,-1.69,13.29,-0.10,0.29,-0.08,1721207655437
-2.49,-2.89,11.03,0.10,0.15,-0.19,1721207655447
-4.54,1.84,6.96,0.09,0.18,-0.24,1721207655457
-5.60,-2.19,8.61,-0.10,0.21,-0.20,1721207655467
-5.89,-2.93,11.03,0.04,0.04,-0.08,1721207655477
-4.73,-3.25,11.10,0.04,0.19,0.05,1721207655487
-2.44,0.51,9.05,0.10,0.18,-0.00,1721207655497
-3.58,-0.50,7.17,-0.11,-0.04,-0.26,1721207655507
-6.51,0.85,15.70,0.07,0.27,-0.33,1721207655517
-5.94,-6.14,7.59,-0.04,-0.13,0.05,1721207655527
-4.44,1.01,7.92,0.23,0.18,0.33,1721207655537
3.24,1.53,6.89,0.09,0.09,0.19,1721207655547
-0.96,3.61,9.04,-0.05,-0.07,-0.15,1721207655557
-2.59,-6.79,5.49,-0.17,-0.09,-0.25,1721207655567
-4.23,-4.00,16.10,0.17,0.17,-0.13,1721207655577
-4.06,-0.00,8.97,0.13,0.08,0.00,1721207655587
-2.65,-1.30,12.02,-0.02,0.13,0.09,1721207655597
-1.69,-1.44,9.02,-0.00,-0.13,0.13,1721207655607
-0.39,0.21,10.52,0.02,0.08,0.06,1721207655617
1.89,-0.38,9.58,-0.02,0.08,-0.12,1721207655627
-0.16,-2.11,10.43,-0.05,0.16,-0.36,1721207655637
-4.31,-2.24,11.98,0.09,-0.10,-0.33,1721207655647
-7.96,-0.28,5.88,0.02,-0.11,-0.09,1721207655657
-6.32,-1.89,9.71,-0.10,0.23,0.08,1721207655667
-2.53,-3.87,14.88,-0.00,-0.01,0.09,1721207655677
-2.50,-0.37,10.70,0.09,-0.14,-0.04,1721207655687
-3.72,0.13,6.60,-0.02,0.00,-0.18,1721207655697
-5.46,-3.54,8.80,-0.07,-0.08,-0.16,1721207655707
-5.49,-3.06,10.60,0.02,-0.10,0.13,1721207655717
-3.14,-0.48,8.88,0.00,-0.07,0.21,1721207655727
-2.13,-1.06,10.46,-0.06,-0.10,-0.03,1721207655737
-2.99,-3.25,11.66,-0.01,-0.23,-0.11,1721207655747
-3.94,-1.91,7.24,0.02,-0.19,0.09,1721207655757
-1.83,-1.14,8.51,-0.03,-0.04,0.14,1721207655767
-0.93,-3.77,8.71,-0.09,-0.25,-0.02,1721207655777
-2.30,-4.40,11.26,0.03,-0.18,-0.15,1721207655787
-4.20,-4.36,11.31,-0.02,-0.26,-0.12,1721207655797
-6.31,-2.81,12.20,0.04,-0.27,0.04,1721207655807
-5.09,-3.40,8.24,0.04,-0.27,0.23,1721207655817
-3.21,-2.20,12.29,0.01,-0.16,0.28,1721207655827
-0.82,-3.93,8.17,0.06,-0.41,0.22,1721207655837
-0.06,-3.20,13.28,0.09,-0.13,0.01,1721207655847
-2.00,-1.75,8.44,0.10,-0.43,-0.11,1721207655857
-3.99,-1.65,9.10,0.01,-0.17,0.01,1721207655867
-3.00,-5.05,7.16,-0.11,-0.40,0.26,1721207655877
-2.76,-0.86,13.14,0.15,-0.22,0.17,1721207655887
0.05,-1.11,10.86,0.05,-0.20,-0.11,1721207655897
-5.21,-1.94,9.40,-0.03,-0.60,-0.07,1721207655907
-5.42,-6.79,8.88,-0.10,-0.34,0.21,1721207655917
-2.75,-2.89,19.15,0.22,-0.24,0.25,1721207655927
-0.65,-0.39,3.35,0.13,-0.60,0.08,1721207655937
-2.81,-2.45,8.16,-0.25,-0.29,0.04,1721207655947
-1.72,-5.74,18.11,0.02,-0.30,0.30,1721207655957
0.99,0.40,14.71,0.20,-0.12,0.27,1721207655967
0.99,-1.76,-0.25,-0.16,-0.61,0.10,1721207655977
-0.52,-1.99,13.47,-0.14,-0.11,0.13,1721207655987
3.26,-8.80,14.21,-0.04,-0.31,0.42,1721207655997
3.23,-4.45,9.54,0.03,-0.15,0.21,1721207656007
4.00,-2.34,6.06,-0.07,-0.21,-0.14,1721207656017
0.66,-2.68,9.81,-0.23,-0.11,-0.06,1721207656027
1.46,-3.14,14.66,0.06,-0.04,0.25,1721207656037
5.98,-2.00,9.75,-0.00,0.07,0.15,1721207656047
2.98,-3.95,12.17,-0.17,-0.13,-0.19,1721207656057
-1.02,-0.43,21.24,0.39,-0.01,-0.27,1721207656067
-0.41,1.62,1.49,0.16,-0.23,-0.02,1721207656077
-2.75,-2.49,11.52,-0.29,0.03,0.06,1721207656087
-2.94,-5.70,10.74,0.18,-0.30,0.01,1721207656097
-2.41,-1.30,0.79,0.08,0.02,0.00,1721207656107
-2.45,2.15,9.20,-0.16,0.12,0.09,1721207656117
-3.54,-1.54,12.98,-0.15,-0.25,0.01,1721207656127
-5.86,-0.19,13.52,-0.08,-0.16,-0.10,1721207656137
-5.90,2.86,12.56,-0.14,-0.11,0.16,1721207656147
-4.47,0.98,7.18,-0.21,-0.33,0.51,1721207656157
-2.09,2.47,9.06,-0.17,-0.06,0.37,1721207656167
-0.28,0.87,11.31,-0.15,-0.29,0.09,1721207656177
-4.19,5.07,4.43,-0.06,-0.44,0.17,1721207656187
-0.77,2.60,12.92,-0.26,0.12,0.33,1721207656197
-0.42,1.70,15.16,-0.12,-0.49,0.38,1721207656207
-0.76,4.93,11.32,0.10,-0.21,0.25,1721207656217
1.49,1.08,7.94,-0.12,-0.29,0.28,1721207656227
-0.58,3.67,14.07,0.01,-0.31,0.38,1721207656237
2.36,1.95,4.98,0.05,-0.28,0.33,1721207656247
2.51,5.02,9.39,0.00,-0.12,0.20,1721207656257
3.68,5.08,10.11,0.06,-0.26,0.23,1721207656267
3.06,1.53,11.89,-0.15,-0.19,0.20,1721207656277
0.84,2.17,10.89,0.09,-0.32,0.06,1721207656287
-0.01,4.59,6.13,-0.06,-0.12,0.01,1721207656297
-2.86,3.70,7.78,-0.20,-0.28,0.19,1721207656307
-2.67,1.11,9.60,-0.04,-0.14,0.31,1721207656317
-1.36,1.54,5.92,-0.10,-0.22,0.41,1721207656327
-1.21,2.23,7.26,-0.18,-0.23,0.46,1721207656337
1.95,0.25,15.97,-0.10,-0.00,0.41,1721207656347
2.64,-0.22,12.66,0.04,-0.33,0.40,1721207656357
1.79,-0.98,7.87,-0.14,-0.16,0.32,1721207656367
1.82,-1.77,12.56,-0.02,-0.15,0.22,1721207656377
2.09,-1.17,10.98,-0.04,-0.13,0.15,1721207656387
-0.40,-0.82,9.78,-0.08,-0.25,0.11,1721207656397
-1.90,-2.57,7.82,-0.05,-0.19,0.01,1721207656407
-2.32,-2.18,9.49,-0.04,-0.13,0.08,1721207656417
-3.13,-1.87,9.72,-0.08,-0.24,0.23,1721207656427
-3.27,-1.95,13.44,-0.02,-0.18,0.22,1721207656437
-2.71,-5.16,8.03,-0.03,-0.34,0.22,1721207656447
-2.27,-1.97,12.55,-0.12,-0.08,0.23,1721207656457
-1.86,0.84,5.95,-0.10,-0.48,0.30,1721207656467
0.09,-3.05,8.08,-0.22,-0.18,0.29,1721207656477
-0.35,-1.31,14.77,0.08,-0.40,0.23,1721207656487
1.33,0.04,7.90,0.02,-0.22,0.25,1721207656497
3.16,0.73,17.31,-0.08,-0.13,0.31,1721207656507
2.39,0.86,6.84,0.12,-0.61,0.17,1721207656517
2.95,1.79,7.58,-0.08,0.06,-0.10,1721207656527
2.10,0.52,13.73,-0.05,-0.31,-0.17,1721207656537
-0.92,-1.62,9.34,-0.09,-0.38,-0.07,1721207656547
-1.71,0.28,11.20,0.06,-0.25,0.04,1721207656557
-1.28,1.33,1.21,-0.12,-0.29,0.12,1721207656567
2.01,1.01,14.78,-0.03,0.06,0.10,1721207656577
5.43,-4.94,16.10,-0.15,-0.28,0.02,1721207656587
-0.13,3.89,11.96,0.33,-0.42,-0.17,1721207656597
6.38,-3.64,7.60,-0.04,0.22,-0.26,1721207656607
-0.93,-2.35,18.61,0.02,-0.35,-0.25,1721207656617
0.79,7.06,7.29,0.60,-0.09,-0.21,1721207656627
5.63,3.33,6.49,-0.28,0.24,-0.21,1721207656637
-3.33,-0.06,5.35,-0.03,-0.20,-0.33,1721207656647
1.45,-1.67,14.53,-0.03,0.42,-0.68,1721207656657
-4.48,8.36,15.16,0.13,-0.29,-0.59,1721207656667
-4.98,-1.05,-0.19,-0.17,-0.12,-0.23,1721207656677
-3.56,-4.18,16.69,0.01,0.07,0.36,1721207656687
5.36,1.58,-1.73,0.28,-0.17,0.63,1721207656697
16.44,6.15,10.16,-0.35,0.84,-0.31,1721207656707
3.57,4.74,44.66,0.10,0.00,-1.23,1721207656717
-6.29,2.73,-4.28,0.64,-0.80,-1.47,1721207656727
-12.80,1.76,-4.11,-0.80,0.49,-0.70,1721207656737
-9.81,0.75,24.95,0.26,0.36,0.28,1721207656747
3.66,-1.10,6.49,0.24,-0.73,0.32,1721207656757
3.35,10.37,-6.52,-0.22,0.26,-0.30,1721207656767
1.31,-1.25,14.40,-0.26,0.20,-0.64,1721207656777
-2.22,-4.40,27.57,0.13,0.30,-0.57,1721207656787
-2.71,3.16,6.84,0.28,-0.14,-0.35,1721207656797
-0.80,6.60,5.25,-0.06,0.24,-0.34,1721207656807
1.79,-0.40,8.35,-0.14,-0.01,-0.42,1721207656817
1.85,-2.65,13.58,0.02,0.18,-0.57,1721207656827
-0.19,0.64,10.18,0.11,-0.00,-0.70,1721207656837
-3.73,1.92,5.30,0.03,0.04,-0.70,1721207656847
-3.29,-0.29,9.28,-0.09,0.13,-0.45,1721207656857
-2.82,0.28,12.68,-0.01,0.08,-0.40,1721207656867
-1.47,1.43,17.40,0.07,0.12,-0.53,1721207656877
-1.79,1.49,9.13,0.11,-0.23,-0.48,1721207656887
-3.30,3.42,4.85,-0.08,0.03,-0.52,1721207656897
-3.17,2.81,14.63,0.02,0.10,-0.61,1721207656907
-4.35,2.18,10.15,0.01,-0.17,-0.64,1721207656917
-6.41,5.07,8.96,-0.01,-0.09,-0.50,1721207656927
-5.02,4.67,9.80,0.02,-0.12,-0.30,1721207656937
-4.77,4.98,9.73,-0.06,-0.19,-0.39,1721207656947
0.10,-2.56,22.08,-0.06,-0.27,0.20,1721207656957
12.60,1.04,3.38,0.16,0.44,0.74,1721207656967
21.04,6.54,10.66,-0.48,0.68,-0.64,1721207656977
2.72,0.97,9.89,-0.10,-0.98,-2.48,1721207656987
-14.23,-6.76,9.85,0.32,-0.11,-2.53,1721207656997
-26.80,-1.23,1.29,0.03,-0.49,-0.33,1721207657007
-18.17,-6.56,5.16,-0.19,0.40,1.40,1721207657017
2.97,-9.43,19.00,-0.00,0.09,1.50,1721207657027
14.43,1.02,10.21,0.21,0.08,0.56,1721207657037
19.17,7.07,14.00,0.01,0.29,-0.67,1721207657047
8.09,-0.57,14.36,0.04,-0.50,-1.36,1721207657057
-2.19,-4.05,2.60,0.11,-0.23,-1.27,1721207657067
-3.63,-4.41,8.89,-0.13,0.32,-0.55,1721207657077
-0.05,-1.49,16.74,0.22,0.16,-0.07,1721207657087
5.53,0.20,12.88,0.11,0.20,-0.50,1721207657097
-2.15,-0.03,7.12,-0.10,-0.37,-1.07,1721207657107
-8.17,-1.93,12.15,0.07,0.21,-1.03,1721207657117
-10.71,-1.85,8.44,-0.04,-0.12,-0.44,1721207657127
-10.92,0.77,7.11,0.02,-0.09,-0.05,1721207657137
-1.35,-1.39,13.68,0.07,0.25,0.21,1721207657147
7.73,-1.17,9.59,-0.18,0.15,-0.12,1721207657162
5.96,-1.13,12.11,-0.20,0.40,-0.41,1721207657166
1.59,-0.74,20.81,0.21,-0.34,-0.86,1721207657176
-4.23,-0.29,9.49,0.18,-0.13,-0.84,1721207657186
-3.46,0.72,13.54,0.08,-0.00,-0.13,1721207657196
0.30,2.04,4.14,-0.02,-0.05,-0.06,1721207657206
2.91,0.49,10.62,0.04,0.04,-0.60,1721207657216
-1.49,-3.77,4.40,0.07,-0.56,-0.79,1721207657226
-10.12,-1.24,4.80,0.01,-0.20,-0.56,1721207657236
-7.19,-3.25,15.63,0.14,0.07,-0.02,1721207657246
-3.96,-1.59,11.86,0.07,-0.35,0.32,1721207657256
0.52,3.98,12.50,0.26,-0.11,0.19,1721207657266
7.40,2.49,4.12,0.07,-0.15,-0.10,1721207657276
3.62,-0.91,3.01,-0.32,-0.32,-0.36,1721207657286
2.11,-8.29,19.82,-0.06,-0.08,-0.44,1721207657296
-1.44,-3.83,9.64,0.22,-0.39,-0.09,1721207657306
4.34,2.94,9.32,0.10,0.34,0.16,1721207657316
8.60,2.61,12.33,-0.08,-0.03,-0.22,1721207657326
1.85,-2.38,14.33,0.05,-0.35,-0.86,1721207657336
-6.00,-0.72,5.83,0.24,-0.33,-0.72,1721207657346
-6.25,-1.51,5.32,-0.15,0.10,-0.05,1721207657356
-3.09,-4.73,14.35,-0.10,-0.05,0.25,1721207657366
-1.08,-3.75,13.56,0.23,-0.18,0.00,1721207657376
-0.45,3.02,7.99,0.21,-0.08,-0.10,1721207657386
-0.47,1.22,11.19,-0.08,-0.15,0.06,1721207657396
-0.43,-1.96,12.62,0.09,-0.25,0.27,1721207657406
0.26,0.44,3.80,0.17,-0.28,0.36,1721207657416
4.98,-1.28,10.56,-0.12,0.10,0.41,1721207657426
6.00,1.74,3.20,0.11,-0.37,0.37,1721207657436
12.02,-0.78,15.85,-0.14,0.57,0.04,1721207657446
6.94,4.05,14.76,0.25,-0.43,-0.12,1721207657456
4.94,1.97,3.28,0.01,0.21,-0.21,1721207657466
1.67,4.06,14.07,-0.11,0.05,-0.22,1721207657476
1.91,0.76,10.62,0.11,0.08,-0.15,1721207657486
1.28,2.81,8.20,-0.08,0.17,0.01,1721207657496
-0.93,4.71,3.30,-0.03,0.01,0.13,1721207657506
1.68,2.99,16.45,-0.12,0.59,-0.04,1721207657516
1.13,5.60,15.16,0.30,-0.18,0.00,1721207657526
2.86,6.48,6.51,-0.02,0.43,0.21,1721207657536
5.90,8.73,15.26,-0.03,0.33,0.29,1721207657546
7.96,5.40,7.75,-0.07,0.19,0.05,1721207657556
6.92,4.69,11.17,-0.12,0.44,-0.23,1721207657566
4.91,2.08,13.37,-0.02,0.24,-0.37,1721207657576
0.93,3.37,8.31,0.03,0.33,-0.42,1721207657586
-0.75,2.97,8.46,-0.08,0.39,-0.38,1721207657596
-2.92,1.40,10.77,-0.05,0.30,-0.30,1721207657606
-2.69,-1.43,7.87,0.01,0.29,-0.12,1721207657616
-1.46,-2.28,4.89,-0.10,0.34,-0.11,1721207657626
0.57,-0.60,15.57,0.16,0.57,-0.36,1721207657636
0.29,-4.46,7.42,-0.01,0.10,-0.43,1721207657646
-6.03,-3.45,12.13,0.04,0.22,-0.33,1721207657656
-1.95,-1.94,5.33,0.16,0.40,-0.08,1721207657666
0.81,-4.78,6.28,-0.23,0.40,-0.07,1721207657676
0.37,0.34,17.42,0.21,0.43,-0.42,1721207657686
2.36,-5.93,12.91,0.10,0.27,-0.71,1721207657696
-7.18,-0.92,11.25,0.13,0.06,-0.59,1721207657706
-5.70,-4.99,3.49,0.02,0.34,-0.16,1721207657716
-1.61,-5.19,13.63,-0.02,0.48,0.09,1721207657726
1.79,-3.75,10.53,0.17,0.19,-0.12,1721207657736
1.09,-1.94,9.76,0.05,0.26,-0.56,1721207657746
-2.57,-4.55,15.91,0.06,0.24,-0.63,1721207657756
-5.12,-5.26,12.07,0.21,0.13,-0.28,1721207657766
-3.08,0.20,7.52,0.12,0.32,0.05,1721207657776
0.42,-1.15,3.54,0.06,0.20,-0.02,1721207657786
3.79,1.16,10.91,0.04,0.48,-0.39,1721207657796
2.06,-6.37,14.62,-0.09,0.11,-0.54,1721207657806
-5.24,-3.99,10.99,0.10,0.10,-0.42,1721207657816
0.02,-1.72,11.29,0.10,0.54,-0.22,1721207657826
2.15,-1.01,12.25,-0.07,0.29,-0.22,1721207657836
0.32,-0.17,-0.40,0.01,0.05,-0.38,1721207657846
1.64,-5.94,13.60,-0.26,0.77,-0.57,1721207657856
-2.70,2.41,12.87,0.28,-0.05,-0.56,1721207657866
-1.66,-2.99,12.83,-0.25,0.63,-0.58,1721207657876
-8.56,2.97,9.81,0.08,-0.28,-0.21,1721207657886
-2.93,-3.05,6.54,-0.11,0.71,-0.04,1721207657896
0.03,-1.21,13.74,-0.00,0.20,-0.05,1721207657906
0.18,-2.64,6.19,0.10,0.16,-0.43,1721207657916
-4.42,3.17,9.18,0.18,0.14,-0.61,1721207657926
-4.28,-0.89,9.55,0.07,0.20,-0.29,1721207657936
-4.67,1.47,17.01,0.18,0.28,-0.02,1721207657946
-0.92,2.60,6.16,0.14,0.08,0.03,1721207657956
-0.07,4.60,9.24,-0.14,0.23,-0.13,1721207657966
0.61,1.63,5.15,0.03,-0.05,-0.27,1721207657976
-2.88,2.50,12.08,-0.06,0.39,-0.55,1721207657986
-5.58,3.47,11.67,0.24,-0.13,-0.42,1721207657996
-5.27,3.67,7.48,-0.03,0.20,-0.02,1721207658006
-3.73,4.43,9.92,-0.04,-0.05,0.21,1721207658016
-0.21,2.84,13.22,0.01,0.27,-0.12,1721207658026
-1.21,5.50,12.31,0.16,-0.18,-0.26,1721207658036
-4.34,3.86,2.44,-0.20,-0.11,0.02,1721207658046
-5.12,3.37,10.51,-0.14,0.07,0.24,1721207658056
0.49,2.21,10.83,0.01,0.01,0.26,1721207658066
1.74,3.96,8.62,-0.10,-0.13,0.23,1721207658076
3.80,5.42,10.71,-0.02,0.15,0.18,1721207658086
5.73,0.12,8.97,-0.23,-0.00,-0.00,1721207658096
1.06,-0.20,8.61,-0.14,0.03,-0.33,1721207658106
-2.21,-0.39,8.74,-0.01,0.08,-0.36,1721207658116
-5.36,-2.25,11.39,-0.12,0.04,-0.06,1721207658126
-5.47,-4.65,21.51,0.11,0.10,0.20,1721207658136
-2.37,-1.85,8.77,0.27,-0.28,0.32,1721207658146
3.02,-0.20,19.06,0.00,0.43,0.25,1721207658156
1.65,2.05,6.69,0.28,-0.55,0.25,1721207658166
1.65,-2.64,6.48,-0.08,0.37,-0.20,1721207658176
-3.70,-2.70,16.33,0.26,-0.21,-0.20,1721207658186
-6.60,-2.06,2.77,-0.09,-0.28,0.28,1721207658196
-3.78,3.64,10.06,0.05,0.08,0.62,1721207658206
5.87,0.31,8.92,0.11,0.09,0.28,1721207658216
3.21,-1.21,18.90,0.07,-0.23,-0.18,1721207658226
-2.75,-5.14,3.39,0.27,-0.63,-0.01,1721207658236
-5.85,-1.85,-0.11,-0.22,0.19,0.22,1721207658246
-1.52,3.56,13.39,0.06,0.01,0.42,1721207658256
1.22,-7.99,1.19,-0.23,-0.47,0.42,1721207658266
-2.12,-5.35,16.54,0.03,0.01,0.05,1721207658276
0.23,-1.16,16.53,0.42,-0.39,-0.06,1721207658286
-3.39,5.61,3.65,-0.20,-0.21,0.02,1721207658296
-4.12,-3.55,14.39,-0.21,-0.22,0.24,1721207658306
-4.92,-6.98,5.57,-0.10,-0.45,0.41,1721207658316
-2.04,-6.98,15.74,-0.15,-0.11,0.45,1721207658326
-0.20,0.70,11.57,0.20,-0.62,0.53,1721207658336
6.17,-3.90,9.18,-0.04,0.05,0.39,1721207658346
2.63,-0.44,15.11,0.15,-0.51,0.15,1721207658356
-0.90,-3.81,4.45,-0.10,-0.37,-0.02,1721207658366
-2.27,1.00,16.44,0.04,-0.09,0.30,1721207658376
2.40,-3.40,7.10,-0.01,-0.42,0.83,1721207658386
6.22,-2.47,12.74,0.06,0.06,0.56,1721207658396
8.97,-1.20,11.62,0.27,-0.34,0.08,1721207658406
2.66,-0.62,3.68,-0.14,-0.33,-0.17,1721207658416
-0.24,2.60,15.73,0.15,-0.01,0.03,1721207658426
1.39,-1.41,3.43,0.01,-0.28,0.49,1721207658436
2.95,-4.62,11.33,-0.05,0.09,0.59,1721207658446
6.51,5.38,12.32,0.41,-0.12,0.37,1721207658456
8.87,7.94,8.60,-0.11,0.22,0.14,1721207658466
3.93,5.81,6.86,-0.27,-0.11,0.09,1721207658476
2.89,-2.01,5.76,-0.19,0.12,-0.11,1721207658486
0.78,0.24,17.26,-0.29,0.26,-0.12,1721207658496
0.03,3.28,15.23,0.11,-0.12,0.44,1721207658506
6.96,5.08,6.27,-0.04,0.49,0.56,1721207658516
9.50,12.43,10.23,-0.01,0.38,-0.13,1721207658526
6.27,3.89,8.82,-0.25,0.11,-0.70,1721207658536
-1.59,-0.26,17.32,-0.11,0.33,-0.36,1721207658546
-0.92,-1.34,14.43,0.10,0.30,0.26,1721207658556
2.15,6.30,4.27,0.09,0.37,0.21,1721207658566
6.33,6.97,-4.36,-0.24,0.38,-0.28,1721207658576
3.63,-2.04,19.99,-0.42,0.70,-0.66,1721207658586
-1.83,-4.30,16.21,0.19,-0.01,-0.42,1721207658596
-0.91,2.26,13.80,0.32,0.89,-0.20,1721207658606
2.07,7.14,2.26,0.17,0.33,0.12,1721207658616
6.56,-1.15,14.20,-0.25,0.88,-0.03,1721207658626
6.72,-4.35,9.00,0.22,0.05,-0.47,1721207658636
2.72,-1.39,9.22,0.39,0.82,-1.03,1721207658646
-5.12,-1.07,-1.38,-0.14,0.23,-0.88,1721207658656
-8.47,-8.49,22.50,-0.16,0.88,-0.44,1721207658666
-3.46,-7.28,7.40,0.29,0.30,0.18,1721207658676
1.77,-1.00,12.85,0.27,1.00,-0.09,1721207658686
0.72,5.20,-8.21,0.17,0.08,-0.59,1721207658696
-3.70,-0.57,7.33,-0.47,0.98,-0.83,1721207658706
-13.33,-11.98,25.23,-0.18,0.66,-0.35,1721207658716
-4.45,-10.11,15.83,0.11,0.77,-0.08,1721207658726
-2.18,-5.98,5.43,0.18,0.39,-0.30,1721207658736
-2.07,-0.64,11.56,0.16,0.73,-0.55,1721207658746
-3.39,1.57,-12.09,-0.01,0.02,-0.37,1721207658756
-7.04,-16.59,24.08,-0.80,1.03,-0.48,1721207658766
-7.90,-10.19,29.66,0.59,-0.31,-0.60,1721207658776
-7.37,6.54,5.43,1.15,0.69,-0.38,1721207658786
-6.08,12.16,-2.21,-0.16,0.30,0.04,1721207658796
-6.64,-2.12,9.98,-0.37,0.15,0.14,1721207658806
-12.18,-18.39,21.62,0.00,0.30,-0.11,1721207658816
-8.30,-7.26,19.98,0.17,-0.12,-0.37,1721207658826
-8.85,6.08,4.17,0.41,-0.05,-0.21,1721207658836
-5.97,7.70,11.97,-0.16,0.33,0.04,1721207658846
-10.66,2.26,-10.76,-0.33,-0.86,0.28,1721207658856
-7.87,3.11,-0.13,-0.10,0.44,0.15,1721207658866
5.92,-6.89,24.27,-0.06,0.04,0.14,1721207658876
-1.81,3.16,8.15,0.34,-0.74,-0.13,1721207658886
-1.48,9.28,12.08,-0.01,0.21,-0.27,1721207658896
-6.12,5.39,-0.23,0.02,-0.69,0.11,1721207658906
-6.10,-1.01,4.28,-0.33,0.13,0.40,1721207658916
-1.56,-3.44,17.63,-0.11,-0.46,0.41,1721207658926
-1.73,0.70,17.79,0.17,-0.34,0.22,1721207658936
-2.05,11.52,5.15,0.32,-0.33,0.24,1721207658946
0.03,3.65,-3.07,-0.41,-0.29,0.39,1721207658956
-1.97,-4.95,14.29,-0.24,-0.39,0.42,1721207658966
2.81,-11.64,28.97,0.06,-0.35,0.43,1721207658976
-1.82,8.73,10.57,0.82,-0.72,0.27,1721207658986
4.13,7.50,-1.60,-0.11,-0.00,0.08,1721207658996
-5.57,6.37,-6.99,-0.60,-1.20,0.45,1721207659006
3.81,-8.18,17.15,-0.37,0.54,0.62,1721207659016
8.58,-6.35,23.58,-0.03,-0.19,0.18,1721207659026
-1.44,1.65,0.03,0.34,-0.79,-0.18,1721207659036
-4.30,6.04,8.32,-0.09,-0.06,0.20,1721207659046
-2.16,-3.45,5.63,-0.33,-0.56,1.03,1721207659056
6.09,-7.43,21.87,-0.10,0.29,0.86,1721207659066
7.52,-3.68,22.03,0.44,-0.67,0.03,1721207659076
-1.55,5.68,1.25,0.11,-0.61,-0.17,1721207659086
-3.47,2.69,8.89,-0.46,0.02,0.46,1721207659096
-0.78,-7.34,15.73,-0.23,-0.17,0.98,1721207659106
5.88,-7.07,14.96,0.27,-0.28,0.81,1721207659116
11.53,6.05,5.61,0.43,-0.14,0.43,1721207659126
9.59,6.45,-7.91,-0.33,-0.32,-0.06,1721207659136
-0.23,1.83,7.88,-0.38,-0.21,-0.36,1721207659146
6.39,-8.39,8.64,-0.51,0.14,-0.08,1721207659156
-1.02,-0.14,9.53,0.38,-0.46,0.93,1721207659171
-0.39,0.98,5.79,0.23,-0.33,0.84,1721207659175
3.13,7.41,2.83,-0.36,-0.13,0.50,1721207659185
6.22,-5.08,20.63,-0.20,-0.18,0.16,1721207659195
0.03,-2.56,10.00,0.09,-0.34,0.12,1721207659205
-3.01,4.63,9.67,0.06,-0.11,0.17,1721207659215
-4.25,7.95,-0.51,-0.17,-0.49,0.48,1721207659225
-2.58,-0.57,8.41,-0.59,-0.03,0.71,1721207659235
1.88,-2.74,16.43,-0.11,-0.29,0.71,1721207659245
6.29,-1.39,10.95,-0.25,-0.16,0.55,1721207659255
4.47,10.93,18.41,0.08,-0.19,0.24,1721207659265
7.90,1.96,6.27,-0.11,-0.27,0.19,1721207659275
4.03,1.83,5.47,-0.26,0.03,0.06,1721207659285
4.30,-0.37,9.34,-0.36,-0.03,-0.15,1721207659295
-1.71,3.18,14.98,-0.22,-0.28,-0.27,1721207659305
-2.35,5.03,10.63,-0.03,-0.14,-0.04,1721207659315
-3.73,0.24,11.04,-0.41,-0.17,0.29,1721207659325
-1.00,1.20,17.95,-0.33,0.00,0.34,1721207659335
3.19,-0.45,10.10,-0.22,-0.26,0.27,1721207659345
3.60,5.42,8.78,-0.21,0.08,-0.04,1721207659355
2.47,-1.23,4.02,-0.23,-0.42,-0.07,1721207659365
2.19,-2.72,10.54,-0.30,0.17,-0.24,1721207659375
2.51,8.09,17.41,-0.14,-0.11,-0.29,1721207659385
1.91,5.56,6.99,-0.01,-0.25,-0.25,1721207659395
0.06,-4.59,8.05,-0.33,-0.04,-0.25,1721207659405
1.05,2.51,12.78,-0.08,0.12,-0.30,1721207659415
3.05,2.30,6.55,0.07,-0.06,-0.48,1721207659425
-1.46,-0.99,5.71,-0.04,-0.03,-0.67,1721207659435
-2.39,-1.32,11.94,-0.02,0.10,-0.55,1721207659445
-3.26,-2.53,8.54,0.06,-0.09,-0.17,1721207659455
0.79,-3.30,9.85,0.00,0.29,-0.04,1721207659465
2.30,-2.79,12.80,0.01,0.10,-0.21,1721207659475
3.24,1.01,20.33,-0.05,0.26,-0.52,1721207659485
-0.36,2.43,12.67,0.17,-0.24,-0.53,1721207659495
-2.16,0.49,2.80,0.20,0.16,-0.51,1721207659505
-0.04,0.39,9.84,0.01,0.27,-0.32,1721207659515
-1.21,0.00,11.28,0.17,0.00,-0.26,1721207659525
0.17,-3.68,5.50,0.17,0.06,-0.28,1721207659535
0.18,-3.52,10.32,-0.05,0.20,-0.32,1721207659545
0.38,6.63,10.85,0.26,0.17,-0.40,1721207659555
-0.30,-4.83,7.58,-0.06,0.01,-0.46,1721207659565
-4.17,3.68,11.42,0.16,0.22,-0.56,1721207659575
-1.34,-2.52,9.18,0.04,0.10,-0.41,1721207659585
-3.31,4.58,14.31,-0.04,0.18,-0.27,1721207659595
-2.22,-1.25,12.02,0.05,-0.04,-0.24,1721207659605
-2.79,5.66,9.49,0.08,0.07,-0.33,1721207659615
-4.08,0.41,3.11,0.26,-0.13,-0.41,1721207659625
-3.77,-2.44,6.84,-0.00,0.18,-0.29,1721207659635
-2.66,2.93,16.32,0.08,0.11,-0.21,1721207659645
1.00,7.55,17.41,0.17,0.12,-0.19,1721207659655
0.01,4.62,7.98,0.03,-0.11,-0.22,1721207659665
-1.75,-5.31,8.26,-0.25,0.02,-0.37,1721207659675
-1.46,-2.30,12.71,-0.02,0.03,-0.30,1721207659685
-1.65,4.86,9.53,0.11,-0.08,-0.24,1721207659695
-1.26,4.13,7.21,0.33,-0.05,-0.11,1721207659705
0.21,-1.15,5.60,0.16,0.13,-0.20,1721207659715
-2.05,4.82,10.63,0.14,0.06,-0.41,1721207659725
-3.08,-0.11,10.85,-0.11,-0.07,-0.32,1721207659735
-5.58,0.10,11.95,0.06,-0.08,0.05,1721207659745
-1.23,-4.47,7.17,-0.00,0.05,0.35,1721207659755
1.87,-3.18,10.06,-0.01,0.07,0.44,1721207659765
7.39,0.54,15.65,0.02,0.20,0.14,1721207659775
4.90,4.40,12.00,0.04,-0.16,-0.34,1721207659785
2.50,0.86,7.80,-0.03,0.03,-0.62,1721207659795
-3.71,-4.48,8.03,-0.14,-0.08,-0.45,1721207659805
-6.66,-3.85,8.71,-0.05,0.05,-0.09,1721207659815
-4.30,-0.73,11.22,-0.00,0.10,0.15,1721207659825
-0.32,-2.20,7.89,-0.02,-0.09,0.33,1721207659835
2.26,-4.16,8.78,-0.17,0.20,0.10,1721207659845
2.35,-0.35,15.43,-0.09,-0.00,-0.13,1721207659855
1.12,1.41,9.75,-0.03,-0.12,-0.24,1721207659865
1.34,-2.85,9.94,-0.10,0.19,-0.23,1721207659875
-1.05,0.22,9.39,-0.05,-0.04,-0.15,1721207659885
-0.17,-0.15,11.06,-0.09,0.16,-0.09,1721207659895
-1.07,-2.01,11.01,-0.11,-0.07,-0.03,1721207659905
0.45,0.92,19.67,-0.16,0.31,-0.06,1721207659915
-1.25,7.13,11.48,0.17,-0.17,0.01,1721207659925
2.57,2.64,6.06,0.09,0.13,-0.03,1721207659935
-0.68,0.35,5.43,0.15,0.03,-0.12,1721207659945
3.84,-3.76,9.73,0.15,0.34,-0.19,1721207659955
-1.32,2.70,12.03,0.20,0.01,-0.26,1721207659965
-0.03,-1.41,7.96,0.21,0.09,-0.13,1721207659975
-0.57,1.87,14.49,0.09,0.27,-0.10,1721207659985
1.42,5.44,13.59,0.45,0.07,-0.09,1721207659995
0.35,-1.26,4.55,0.35,-0.01,-0.20,1721207660005
-1.65,3.18,8.06,0.30,0.28,-0.20,1721207660015
-2.59,6.68,12.22,0.22,0.08,-0.17,1721207660025
-1.98,-0.85,11.81,0.15,0.06,0.08,1721207660035
0.05,-7.38,7.08,0.00,0.12,0.27,1721207660045
3.96,-1.51,12.11,-0.04,0.38,0.17,1721207660055
5.61,4.39,13.11,0.24,0.07,-0.13,1721207660065
1.43,-0.70,3.71,0.10,0.00,-0.44,1721207660075
-4.94,8.78,8.04,0.25,0.22,-0.44,1721207660085
-2.88,-1.86,6.65,-0.19,0.08,0.03,1721207660095
-4.24,-1.81,14.87,-0.25,0.13,0.34,1721207660105
2.86,-1.53,11.56,-0.14,0.16,0.35,1721207660115
4.76,-2.62,12.78,-0.36,0.19,-0.01,1721207660125
2.45,3.16,12.90,-0.08,0.07,-0.29,1721207660135
-0.39,-2.73,3.49,-0.30,-0.03,-0.32,1721207660145
-3.98,1.76,11.86,-0.23,0.24,-0.22,1721207660155
-1.96,-6.33,6.35,-0.26,0.00,0.19,1721207660165
-1.07,-2.41,12.00,-0.25,0.23,0.26,1721207660175
3.38,5.75,12.19,0.16,0.02,0.06,1721207660185
4.22,-1.46,7.59,-0.34,0.14,-0.17,1721207660195
0.01,0.42,19.12,-0.17,0.15,-0.50,1721207660205
-2.22,-4.85,7.35,-0.00,-0.14,-0.29,1721207660215
-2.35,1.75,11.32,-0.06,0.39,-0.11,1721207660225
-3.23,-1.75,5.36,0.09,-0.22,0.01,1721207660235
-1.53,-3.21,11.01,-0.16,0.30,0.02,1721207660245
0.77,0.15,13.75,0.02,-0.06,0.04,1721207660255
-0.21,-4.51,8.24,-0.17,0.04,-0.14,1721207660265
-1.48,-4.59,23.24,-0.25,0.25,-0.23,1721207660275
-2.07,1.95,12.93,0.16,-0.12,-0.01,1721207660285
1.44,0.02,5.17,0.08,0.40,0.20,1721207660295
0.55,-1.29,8.54,0.11,-0.09,0.19,1721207660305
4.96,2.36,14.88,0.16,0.38,-0.05,1721207660315
1.91,10.47,13.85,0.32,-0.14,-0.33,1721207660325
-3.23,-1.48,7.46,-0.11,-0.08,-0.51,1721207660335
-9.26,-2.45,13.65,0.03,-0.11,-0.19,1721207660345
-2.37,0.59,17.49,0.19,0.35,0.28,1721207660355
-1.51,3.80,7.75,0.32,-0.19,0.33,1721207660365
1.17,3.46,5.89,0.32,0.14,0.13,1721207660375
3.23,3.06,11.92,0.31,0.06,-0.02,1721207660385
2.30,5.71,13.27,0.35,-0.02,-0.16,1721207660395
-0.22,7.05,7.74,0.42,-0.00,-0.25,1721207660405
-3.42,-0.87,-1.86,0.14,-0.23,-0.15,1721207660415
-3.70,-2.68,9.87,-0.05,0.32,0.02,1721207660425
-2.36,-2.91,13.27,0.10,-0.24,0.18,1721207660435
-0.81,2.32,12.36,0.18,0.11,0.07,1721207660445
1.17,2.51,10.75,0.20,-0.03,0.02,1721207660455
-2.44,-1.55,5.60,-0.14,-0.12,0.04,1721207660465
-2.08,-0.67,11.80,0.01,0.02,0.17,1721207660475
1.63,-0.09,3.89,0.11,-0.02,0.25,1721207660485
3.23,0.65,8.58,-0.17,0.14,0.08,1721207660495
-0.29,-3.39,8.81,-0.14,-0.42,-0.09,1721207660505
0.11,-0.22,13.88,-0.03,0.23,-0.13,1721207660515
-0.54,-0.13,10.03,-0.18,-0.18,-0.09,1721207660525
-4.61,-4.08,7.34,-0.34,-0.16,0.02,1721207660535
-1.18,-4.13,12.32,-0.22,0.10,0.14,1721207660545
1.62,-4.22,11.80,-0.21,-0.05,0.14,1721207660555
-0.36,-2.22,9.87,-0.16,-0.05,0.07,1721207660565
0.39,-1.75,9.12,-0.20,0.04,0.02,1721207660575
0.60,-1.81,10.73,-0.23,-0.03,0.00,1721207660585
0.55,1.08,10.94,-0.17,0.01,-0.03,1721207660595
1.88,-0.25,12.84,-0.20,-0.02,-0.04,1721207660605
-1.30,-0.80,8.20,-0.21,-0.18,-0.05,1721207660615
-0.25,-3.11,13.48,-0.32,0.20,-0.09,1721207660625
-1.43,0.33,14.91,-0.08,-0.15,0.00,1721207660635
-0.80,-0.81,8.09,-0.13,0.08,0.04,1721207660645
-1.54,-1.79,11.43,0.01,-0.09,-0.02,1721207660655
0.18,7.96,13.11,0.22,0.16,-0.00,1721207660665
1.25,3.72,9.35,0.21,-0.14,0.15,1721207660675
0.05,-0.57,10.46,0.01,0.20,-0.11,1721207660685
3.01,2.71,16.87,0.32,-0.02,-0.07,1721207660695
1.21,-0.81,6.68,0.11,-0.16,-0.05,1721207660705
1.25,8.25,11.90,0.46,0.29,-0.24,1721207660715
1.50,-5.09,3.18,0.22,-0.21,-0.31,1721207660725
0.56,-3.37,12.28,0.18,0.32,-0.29,1721207660735
-3.93,0.14,11.42,0.31,-0.09,-0.04,1721207660745
-1.74,6.34,16.87,0.26,0.36,0.20,1721207660755
2.05,-0.27,8.94,0.25,-0.24,0.42,1721207660765
5.39,4.87,8.02,0.39,0.38,0.19,1721207660775
8.32,-1.47,7.56,0.07,-0.02,-0.23,1721207660785
0.84,1.54,12.68,0.07,0.13,-0.58,1721207660795
-1.87,3.24,10.07,0.30,0.01,-0.42,1721207660805
-2.02,2.15,1.63,0.09,0.14,-0.07,1721207660815
0.01,-1.14,10.01,-0.10,0.16,0.16,1721207660825
1.71,-2.88,13.85,-0.09,0.12,-0.04,1721207660835
0.89,2.83,11.78,0.19,0.11,-0.37,1721207660845
-0.67,2.32,4.52,0.02,0.08,-0.29,1721207660855
-1.92,-1.22,9.48,-0.13,0.16,-0.16,1721207660865
-0.29,-4.20,12.79,-0.12,0.13,0.04,1721207660875
0.79,3.49,10.85,0.13,0.08,-0.09,1721207660885
1.58,0.11,2.42,-0.04,0.06,-0.27,1721207660895
-1.88,-5.58,7.91,-0.32,0.16,-0.45,1721207660905
-4.44,-5.08,15.18,-0.09,0.01,-0.22,1721207660915
-3.14,-1.02,13.23,-0.08,0.20,0.00,1721207660925
-1.62,-8.05,9.85,-0.30,-0.04,0.08,1721207660935
-1.08,0.19,9.23,0.07,0.16,0.00,1721207660945
3.97,-5.19,17.88,-0.21,0.38,-0.24,1721207660955
-6.09,-1.94,6.89,0.04,-0.46,-0.11,1721207660965
-1.44,3.08,6.49,0.01,0.57,0.11,1721207660975
-0.48,-4.99,7.97,-0.27,-0.34,0.33,1721207660985
0.68,0.72,15.39,0.07,0.18,0.11,1721207660995
3.63,-2.87,10.02,0.02,-0.05,-0.16,1721207661005
-2.64,8.20,6.91,0.21,-0.10,-0.22,1721207661015
-2.26,-6.98,0.51,-0.28,-0.12,0.11,1721207661025
-3.96,-1.77,20.51,-0.21,0.22,0.18,1721207661035
1.54,2.61,20.32,0.27,-0.08,0.10,1721207661045
-2.30,3.11,1.78,0.06,-0.34,0.05,1721207661055
1.23,4.50,9.89,0.04,0.35,0.17,1721207661065
1.07,4.14,13.91,0.06,-0.18,0.16,1721207661075
1.10,2.97,10.83,0.24,-0.08,-0.01,1721207661085
2.11,-1.78,5.86,0.14,-0.04,-0.04,1721207661095
-1.09,3.35,9.47,0.11,-0.04,-0.24,1721207661105
0.01,2.86,13.30,0.09,0.05,-0.22,1721207661115
-2.63,6.71,14.64,0.18,-0.19,-0.16,1721207661125
-6.94,4.62,6.40,0.19,-0.24,-0.02,1721207661135
-3.83,-7.07,9.60,-0.20,0.08,0.39,1721207661145
-0.55,3.67,14.07,0.09,-0.15,0.61,1721207661155
6.77,2.01,8.43,0.03,-0.04,0.53,1721207661165
6.89,3.03,5.82,0.11,-0.30,-0.14,1721207661180
4.52,-1.60,0.91,-0.08,-0.44,-0.31,1721207661184
0.84,-3.89,10.54,-0.32,0.25,-0.56,1721207661194
-7.83,1.13,15.30,-0.19,-0.40,-0.45,1721207661204
-11.75,0.26,9.48,-0.00,-0.08,0.16,1721207661214
-5.34,-10.65,7.54,-0.11,-0.19,1.09,1721207661224
10.46,-0.22,9.01,0.07,0.56,1.16,1721207661234
13.65,-5.19,6.01,-0.46,-0.33,0.12,1721207661244
4.39,-0.68,17.28,-0.27,0.20,-0.93,1721207661254
-1.58,-4.75,11.70,0.11,-0.54,-0.90,1721207661264
-13.88,0.89,2.09,0.03,-0.06,-0.18,1721207661274
-6.60,1.03,11.69,-0.09,0.13,0.87,1721207661284
3.04,-2.11,14.89,-0.34,-0.01,1.03,1721207661294
9.54,2.95,14.50,-0.18,0.08,0.43,1721207661304
7.96,1.35,6.83,-0.09,-0.30,-0.27,1721207661314
2.02,-3.78,8.59,-0.26,0.04,-0.65,1721207661324
-3.28,4.06,15.95,0.11,-0.18,-0.45,1721207661334
-5.78,-6.72,1.42,-0.20,-0.32,-0.11,1721207661344
-7.16,1.61,21.73,-0.19,0.21,0.24,1721207661354
4.81,3.36,17.34,0.17,-0.17,0.64,1721207661364
3.30,-0.93,-0.91,-0.01,-0.19,0.21,1721207661374
5.48,2.42,15.29,0.01,0.29,-0.44,1721207661384
-2.08,-0.49,16.28,0.09,-0.50,-0.52,1721207661394
-6.47,7.49,10.46,0.41,-0.04,-0.32,1721207661404
-2.80,-4.01,7.29,0.15,-0.15,0.19,1721207661414
-2.98,5.29,7.40,0.35,-0.04,0.41,1721207661424
6.58,0.87,12.14,0.27,0.06,0.17,1721207661434
2.35,0.12,9.95,0.27,-0.31,-0.17,1721207661444
1.84,-0.09,8.61,0.35,-0.01,-0.30,1721207661454
1.24,2.53,12.23,0.30,-0.07,-0.10,1721207661464
-0.96,3.44,4.18,0.34,-0.32,0.05,1721207661474
0.63,4.73,2.99,0.34,0.11,0.03,1721207661484
2.76,-5.81,6.96,-0.03,-0.06,0.03,1721207661494
0.32,0.83,11.58,0.13,0.01,-0.15,1721207661504
2.69,-0.57,9.17,0.12,-0.04,-0.22,1721207661514
-0.38,0.45,6.12,-0.05,-0.08,-0.20,1721207661524
-0.83,-4.32,12.52,-0.14,-0.01,-0.04,1721207661534
1.13,-1.59,17.84,0.06,0.10,-0.02,1721207661544
3.38,3.54,10.35,0.16,0.01,-0.17,1721207661554
1.24,3.07,7.22,-0.14,0.01,-0.37,1721207661564
-0.53,-3.30,4.86,-0.28,-0.02,-0.25,1721207661574
0.92,-6.18,17.87,-0.23,0.36,-0.22,1721207661584
0.44,4.42,12.61,0.11,0.07,-0.45,1721207661594
-8.77,3.95,-1.12,-0.28,-0.54,-0.37,1721207661604
-6.35,-4.41,14.77,-0.54,0.39,0.33,1721207661614
7.36,-1.60,15.99,-0.07,0.17,0.59,1721207661624
13.37,1.18,4.37,-0.23,0.11,-0.04,1721207661634
7.62,4.15,8.41,-0.25,0.07,-1.21,1721207661644
-0.66,2.24,11.41,-0.23,-0.08,-1.62,1721207661654
-12.59,-3.30,12.56,-0.44,-0.19,-0.83,1721207661664
-13.06,-2.57,13.39,-0.27,0.18,0.07,1721207661674
-1.44,-3.74,15.27,-0.40,0.38,0.43,1721207661684
2.75,0.66,12.29,-0.13,-0.07,0.23,1721207661694
6.44,0.16,8.52,-0.03,0.16,-0.28,1721207661704
4.35,5.22,9.18,0.08,0.07,-0.63,1721207661714
0.32,0.22,8.47,-0.09,0.05,-0.71,1721207661724
-3.75,0.46,16.57,-0.07,0.10,-0.52,1721207661734
-3.28,-1.69,11.67,0.02,0.08,-0.26,1721207661744
-1.73,0.74,9.79,0.06,0.19,-0.08,1721207661754
0.23,3.30,9.16,0.15,0.05,-0.05,1721207661764
1.43,-2.30,11.95,-0.11,0.14,-0.23,1721207661774
1.64,8.02,18.00,0.33,0.21,-0.36,1721207661784
-0.01,-4.82,4.48,0.06,-0.19,-0.23,1721207661794
-3.28,4.12,8.70,0.19,0.35,-0.32,1721207661804
1.50,1.53,12.89,0.23,0.23,-0.19,1721207661814
-1.68,-0.91,12.79,0.08,-0.00,-0.15,1721207661824
1.00,-0.28,7.72,0.32,0.16,-0.17,1721207661834
1.29,-0.77,5.94,0.21,0.23,-0.25,1721207661844
-0.85,4.45,8.73,0.33,0.08,-0.33,1721207661854
0.49,2.48,5.33,0.31,0.22,-0.36,1721207661864
-1.52,-0.85,13.14,0.09,0.21,-0.33,1721207661874
-4.12,-1.82,12.43,0.02,0.01,-0.16,1721207661884
-1.71,-3.98,10.48,0.04,0.25,-0.03,1721207661894
1.71,-0.52,11.91,0.10,0.18,-0.08,1721207661904
0.19,3.12,7.05,0.26,-0.01,-0.21,1721207661914
0.79,2.94,6.46,0.20,0.25,-0.28,1721207661924
-0.97,-3.59,8.25,-0.13,0.01,-0.16,1721207661934
-2.27,-4.04,10.63,-0.11,0.17,-0.16,1721207661944
0.34,-2.88,13.53,-0.01,0.23,-0.21,1721207661954
-1.18,2.84,6.64,0.19,-0.04,-0.16,1721207661964
-2.51,-3.01,-4.08,-0.05,0.04,-0.15,1721207661974
-1.06,-0.54,15.45,-0.30,0.61,-0.14,1721207661984
0.06,-0.36,22.77,-0.09,-0.12,0.02,1721207661994
-1.41,1.17,7.09,0.03,0.08,-0.13,1721207662004
-0.50,-1.05,6.30,-0.12,0.18,-0.25,1721207662014
-2.02,-2.45,13.02,-0.22,0.09,-0.16,1721207662024
-3.21,1.66,14.85,0.05,0.01,0.03,1721207662034
-1.23,1.41,8.23,0.08,0.06,0.01,1721207662044
0.22,2.28,10.28,0.03,0.11,0.01,1721207662054
0.89,-0.57,11.32,-0.12,0.09,-0.02,1721207662064
-1.32,3.10,11.54,0.10,-0.02,-0.13,1721207662074
-0.20,2.21,5.63,0.04,0.03,-0.08,1721207662084
-0.25,-0.40,8.78,-0.09,0.04,0.00,1721207662094
0.96,1.36,14.60,-0.00,0.18,-0.07,1721207662104
2.48,5.43,15.73,0.05,0.13,-0.14,1721207662114
-1.15,3.19,5.16,-0.01,-0.20,-0.23,1721207662124
-2.24,-3.65,9.41,-0.18,0.21,-0.06,1721207662134
-0.23,-1.50,13.96,-0.01,0.08,0.07,1721207662144
1.14,2.02,10.07,0.03,0.07,0.05,1721207662154
1.60,4.47,9.30,0.14,0.09,-0.09,1721207662164
1.27,2.45,7.40,0.11,0.08,-0.18,1721207662174
-1.28,0.57,10.29,0.07,0.12,-0.15,1721207662184
-3.40,0.03,9.46,0.01,0.02,-0.10,1721207662194
-3.65,2.55,10.69,0.01,0.07,0.08,1721207662204
-0.21,-2.55,11.20,-0.19,0.16,0.19,1721207662214
-0.15,0.71,14.83,0.00,0.04,0.10,1721207662224
0.79,-0.78,4.34,0.00,-0.06,-0.03,1721207662234
-1.46,1.48,7.57,-0.02,0.08,-0.04,1721207662244
0.06,-2.80,10.74,-0.18,0.17,0.04,1721207662254
-1.02,0.09,15.12,-0.12,-0.03,0.05,1721207662264
0.24,0.08,6.48,-0.05,-0.12,0.04,1721207662274
0.21,-2.50,8.71,-0.34,0.13,-0.03,1721207662284
-2.05,0.91,11.32,-0.11,-0.12,-0.00,1721207662294
-0.20,-2.22,6.84,-0.12,0.14,0.08,1721207662304
-1.79,-0.46,6.76,-0.07,-0.09,0.05,1721207662314
-0.51,-1.88,10.71,-0.16,0.04,0.06,1721207662324
-0.60,-0.83,14.18,-0.25,-0.02,0.14,1721207662334
0.39,0.79,16.97,-0.30,0.05,0.05,1721207662344
-1.36,1.69,10.53,-0.12,-0.33,0.19,1721207662354
2.72,1.77,4.97,-0.09,0.27,0.14,1721207662364
3.26,-5.41,6.97,-0.27,-0.01,-0.02,1721207662374
-1.15,-0.29,12.14,0.02,0.01,-0.25,1721207662384
-1.36,8.29,13.28,0.14,-0.02,-0.18,1721207662394
-1.30,5.62,8.03,0.04,-0.03,0.11,1721207662404
0.88,-0.91,11.66,-0.16,0.11,0.18,1721207662414
0.71,-0.53,14.74,-0.06,-0.10,0.10,1721207662424
1.36,6.99,11.32,0.10,0.05,0.00,1721207662434
1.58,2.95,8.10,-0.04,-0.05,-0.10,1721207662444
0.52,-7.67,6.02,-0.09,-0.04,-0.11,1721207662454
-0.67,-2.75,11.21,0.06,0.10,-0.19,1721207662464
-0.86,1.55,11.82,0.08,-0.08,-0.10,1721207662474
-2.02,3.08,12.29,0.10,-0.02,0.10,1721207662484
1.35,5.71,14.02,0.18,0.18,0.13,1721207662494
0.47,-8.21,5.08,-0.04,-0.28,0.06,1721207662504
1.06,-5.68,10.87,-0.05,0.31,-0.22,1721207662514
-2.67,-0.71,10.90,0.23,-0.31,-0.06,1721207662524
0.10,8.30,9.76,0.45,0.31,0.10,1721207662534
2.19,3.22,9.25,0.24,-0.10,0.13,1721207662544
0.05,-0.09,8.40,0.18,0.08,-0.12,1721207662554
1.15,-5.30,14.09,-0.03,0.06,-0.22,1721207662564
-2.01,1.89,14.58,0.15,-0.08,0.01,1721207662574
0.12,2.88,3.26,0.36,-0.06,0.19,1721207662584
3.49,-1.88,-3.10,0.26,0.16,0.09,1721207662594
5.45,-1.05,8.43,0.02,0.23,-0.21,1721207662604
2.36,2.26,19.22,-0.08,0.04,-0.46,1721207662614
-6.68,6.73,14.19,0.22,-0.18,-0.28,1721207662624
-2.61,-4.62,4.02,-0.04,0.19,0.13,1721207662634
0.19,-9.62,9.66,-0.36,0.15,0.39,1721207662644
2.03,2.02,25.92,-0.06,0.24,0.01,1721207662654
1.77,1.56,13.86,0.27,-0.38,-0.13,1721207662664
-0.90,6.33,-1.05,0.25,0.18,-0.14,1721207662674
1.47,-0.81,9.08,-0.09,0.22,-0.17,1721207662684
-4.26,-4.20,13.08,-0.04,-0.29,-0.09,1721207662694
-4.57,-2.42,11.64,0.03,0.17,0.08,1721207662704
-0.33,10.39,19.49,0.30,0.20,0.21,1721207662714
1.84,1.81,-2.83,0.12,-0.37,0.36,1721207662724
2.43,4.44,2.28,0.11,0.32,0.09,1721207662734
6.62,-1.33,4.02,-0.16,-0.15,-0.23,1721207662744
-1.81,-1.93,13.20,-0.08,0.06,-0.48,1721207662754
-3.40,0.77,11.60,0.15,-0.09,-0.31,1721207662764
-3.15,-3.13,8.46,-0.26,-0.01,0.06,1721207662774
-2.17,1.64,12.09,0.08,-0.10,0.29,1721207662784
6.18,2.27,11.58,-0.02,0.31,0.08,1721207662794
2.68,1.91,6.06,-0.08,-0.29,-0.25,1721207662804
-0.06,1.94,10.33,-0.13,0.21,-0.53,1721207662814
-2.67,-0.91,11.12,-0.19,-0.11,-0.33,1721207662824
-3.57,-10.13,13.73,-0.58,0.05,0.02,1721207662834
-0.44,-0.35,21.87,-0.17,0.05,0.21,1721207662844
4.93,4.99,6.22,0.05,-0.03,0.08,1721207662854
3.87,1.47,5.41,-0.32,0.16,-0.30,1721207662864
-2.03,-2.79,15.23,-0.06,-0.05,-0.61,1721207662874
-3.95,-2.94,10.03,-0.03,0.05,-0.40,1721207662884
-4.97,6.76,11.32,0.11,0.07,-0.01,1721207662894
-0.78,3.74,6.93,0.15,0.05,0.24,1721207662904
3.23,-1.89,6.55,0.06,0.18,0.15,1721207662914
4.40,-2.86,6.57,0.14,0.06,-0.22,1721207662924
4.56,-1.80,12.94,-0.05,0.32,-0.61,1721207662934
-2.36,8.26,15.48,0.15,-0.08,-0.68,1721207662944
-4.71,1.77,9.58,-0.01,0.12,-0.35,1721207662954
-4.53,-1.96,10.77,-0.02,0.13,0.04,1721207662964
1.05,-1.91,7.98,-0.01,0.23,0.14,1721207662974
3.73,5.32,9.64,0.01,0.23,-0.14,1721207662984
1.55,0.80,8.94,-0.04,0.07,-0.57,1721207662994
-3.19,-6.59,8.19,-0.12,0.08,-0.53,1721207663004
-4.18,-2.42,11.90,0.01,0.24,-0.09,1721207663014
-0.91,-1.97,9.46,-0.18,0.20,0.09,1721207663024
2.85,3.72,22.95,-0.04,0.47,-0.24,1721207663034
1.91,2.71,12.91,0.18,-0.14,-0.40,1721207663044
-2.56,1.35,3.75,0.07,0.21,-0.40,1721207663054
-1.66,-4.84,11.52,0.01,0.32,-0.15,1721207663064
-1.18,1.07,13.17,0.14,0.12,-0.11,1721207663074
0.02,3.72,8.70,0.29,0.18,-0.23,1721207663084
-1.74,-1.98,1.75,0.15,0.06,-0.21,1721207663094
-1.86,-0.94,6.32,0.15,0.38,-0.14,1721207663104
0.13,-1.07,12.38,-0.05,0.29,-0.13,1721207663114
-1.53,-1.96,13.73,0.12,0.02,-0.11,1721207663124
1.56,0.34,7.40,0.14,0.20,0.27,1721207663671
1.14,0.10,5.67,0.12,0.13,0.14,1721207663676
2.70,2.26,10.30,-0.05,0.11,-0.12,1721207663685
0.79,2.64,13.52,-0.10,0.01,-0.20,1721207663695
-1.22,-2.38,11.94,-0.19,0.02,-0.06,1721207663705
-2.37,-4.03,7.82,-0.09,-0.04,0.13,1721207663715
2.51,-5.42,10.06,-0.03,0.22,0.23,1721207663725
2.41,2.39,11.10,0.07,0.01,0.02,1721207663735
0.65,5.54,9.55,0.09,0.02,-0.16,1721207663745
-0.87,6.89,2.02,0.23,0.06,-0.07,1721207663755
0.56,-11.77,3.85,-0.56,0.29,0.03,1721207663765
-6.49,-0.37,30.09,-0.40,-0.05,-0.23,1721207663775
-3.27,7.36,9.79,0.78,-0.21,0.25,1721207663785
6.94,-5.84,-1.90,-0.29,0.37,0.58,1721207663795
-0.97,7.29,17.57,0.22,0.46,0.45,1721207663805
1.96,-4.69,16.88,-0.02,-0.31,-0.22,1721207663815
-5.44,3.41,19.21,-0.01,0.31,-0.52,1721207663825
-6.45,-5.43,14.21,0.20,-0.32,-0.03,1721207663835
-7.79,0.36,10.16,-0.02,0.24,0.54,1721207663845
0.31,8.97,18.78,0.25,0.06,0.76,1721207663855
5.51,8.12,5.39,0.27,-0.10,0.54,1721207663865
6.30,-0.67,6.27,0.05,0.12,-0.07,1721207663875
1.10,-3.92,12.37,-0.09,-0.04,-0.38,1721207663885
-4.62,9.82,9.84,0.27,-0.09,-0.16,1721207663895
-2.03,-0.70,2.68,-0.11,0.03,0.22,1721207663905
-1.84,-6.42,12.97,-0.14,-0.01,0.32,1721207663915
1.14,0.04,10.28,0.15,-0.10,0.23,1721207663925
2.00,3.45,8.10,-0.01,0.00,0.02,1721207663935
0.87,2.16,14.57,-0.09,0.05,-0.14,1721207663945
-2.45,5.53,11.49,0.13,-0.12,-0.10,1721207663955
-1.70,-1.52,1.72,-0.11,-0.11,0.10,1721207663965
0.01,-9.10,8.28,-0.38,0.08,0.24,1721207663975
2.43,-2.15,14.31,-0.07,0.04,0.19,1721207663985
3.38,2.18,12.79,-0.03,-0.01,-0.08,1721207663995
-2.30,4.00,6.67,0.10,-0.27,-0.20,1721207664005
-2.15,2.61,5.85,-0.05,0.15,-0.06,1721207664015
-1.12,-4.36,7.04,-0.40,-0.16,0.33,1721207664025
1.02,-3.00,15.73,-0.28,0.17,0.26,1721207664035
3.24,2.28,11.25,0.01,-0.14,-0.02,1721207664045
1.07,4.55,-0.55,0.09,-0.18,-0.18,1721207664055
-1.87,-6.87,-0.08,-0.42,-0.10,-0.12,1721207664065
-4.32,-6.32,21.40,-0.55,0.16,-0.07,1721207664075
0.40,3.81,26.14,0.03,-0.05,0.10,1721207664085
0.28,4.86,4.07,0.02,-0.25,0.21,1721207664095
0.68,1.08,6.08,-0.28,0.08,0.14,1721207664105
1.90,-1.27,24.68,-0.24,0.05,0.06,1721207664115
-0.86,1.11,11.77,0.09,-0.38,-0.00,1721207664125
0.82,9.88,3.52,0.16,0.32,-0.13,1721207664135
-0.47,-1.46,6.46,-0.22,-0.27,0.10,1721207664145
-3.01,-1.35,11.59,0.14,-0.10,0.18,1721207664155
5.06,-5.91,10.94,0.03,0.22,0.09,1721207664165
1.74,5.58,20.15,0.06,-0.02,-0.20,1721207664175
-0.59,4.99,10.46,0.40,-0.31,-0.16,1721207664185
-0.34,3.00,5.46,0.36,0.19,-0.09,1721207664195
-1.66,-3.90,1.16,0.32,-0.21,0.02,1721207664205
1.08,-3.36,11.75,0.15,0.31,-0.02,1721207664215
1.54,8.73,18.82,0.41,-0.02,-0.11,1721207664225
-0.34,1.60,5.21,0.15,-0.07,-0.34,1721207664235
-3.31,-2.31,13.25,0.02,0.10,-0.27,1721207664245
-1.36,-0.67,8.36,0.43,-0.09,0.22,1721207664255
1.69,-5.51,4.30,0.00,0.17,0.19,1721207664265
2.93,5.32,17.08,0.31,0.19,-0.26,1721207664275
1.71,-0.48,7.30,0.18,-0.18,-0.45,1721207664285
-4.83,1.44,8.03,0.19,0.08,-0.32,1721207664295
-1.88,-2.52,6.11,0.12,0.11,-0.00,1721207664305
-1.47,-1.01,11.85,-0.09,0.10,0.07,1721207664315
1.82,1.33,14.54,0.21,0.05,-0.05,1721207664325
1.70,-1.01,5.61,0.04,0.01,-0.25,1721207664335
-1.09,2.51,12.35,0.03,0.12,-0.37,1721207664345
-1.97,-6.47,17.68,-0.23,0.08,-0.30,1721207664355
-5.97,5.55,14.41,0.37,-0.23,0.02,1721207664365
2.75,6.88,5.14,0.27,0.48,0.03,1721207664375
-2.78,-3.98,-2.15,-0.21,-0.48,0.12,1721207664385
0.76,-0.96,11.54,0.05,0.43,-0.06,1721207664395
3.94,-0.37,13.43,0.04,0.03,-0.21,1721207664405
-1.51,4.79,7.00,0.05,-0.17,-0.24,1721207664415
-1.63,-0.10,6.95,-0.15,0.11,-0.10,1721207664425
-2.95,-2.40,14.21,-0.13,0.05,0.10,1721207664435
0.56,1.61,13.56,0.07,0.30,-0.02,1721207664445
1.58,0.77,7.82,-0.15,-0.15,-0.12,1721207664455
-2.98,1.69,9.14,-0.13,-0.04,-0.06,1721207664465
-0.91,-1.27,8.18,-0.04,0.08,0.12,1721207664475
-0.17,-0.32,10.03,-0.05,0.00,0.17,1721207664485
0.67,1.64,9.22,-0.09,-0.03,0.06,1721207664495
-1.67,2.12,8.02,-0.08,-0.16,-0.07,1721207664505
-1.19,-1.30,11.38,-0.18,0.20,-0.04,1721207664515
-2.90,-4.93,7.91,-0.20,-0.22,0.12,1721207664525
-3.31,1.13,10.30,-0.06,0.10,0.19,1721207664535
1.10,0.05,13.27,-0.10,-0.04,0.37,1721207664545
1.34,-0.11,12.98,-0.16,-0.07,0.28,1721207664555
3.11,3.16,14.90,-0.07,0.03,-0.02,1721207664565
0.04,-0.84,6.40,-0.18,-0.35,-0.01,1721207664575
-2.13,0.85,7.93,-0.18,0.13,0.03,1721207664585
-0.54,-3.49,12.35,-0.23,-0.08,0.11,1721207664595
-1.62,1.87,11.01,0.03,-0.10,0.18,1721207664605
2.50,2.23,8.23,-0.08,-0.03,0.19,1721207664615
-0.39,3.16,9.28,-0.13,-0.16,0.13,1721207664625
1.35,0.12,13.59,-0.11,0.05,-0.03,1721207664635
-1.18,-2.34,8.83,-0.06,-0.30,-0.04,1721207664645
-1.43,0.53,10.68,0.03,0.03,0.01,1721207664655
-2.05,0.03,10.95,-0.08,-0.24,0.19,1721207664665
-1.24,4.97,9.72,0.04,-0.01,0.23,1721207664675
3.10,1.08,9.52,0.03,-0.10,0.21,1721207664685
1.01,-2.94,7.69,-0.05,-0.15,0.07,1721207664695
1.86,1.52,12.28,0.01,0.09,-0.11,1721207664705
-1.45,-0.16,11.83,-0.00,-0.36,-0.08,1721207664715
-1.94,4.51,10.05,0.20,-0.03,0.05,1721207664725
3.20,0.19,7.84,0.11,-0.07,0.22,1721207664735
-0.61,1.19,6.28,0.07,-0.18,0.09,1721207664745
2.26,-0.94,11.53,0.02,0.09,-0.12,1721207664755
-1.09,-4.87,10.77,-0.07,-0.32,-0.15,1721207664765
-1.43,-1.58,11.40,0.14,-0.00,0.02,1721207664775
1.48,0.85,6.99,0.15,-0.14,0.19,1721207664785
1.96,1.17,8.85,0.05,0.05,0.06,1721207664795
3.18,-0.46,14.88,0.07,-0.02,-0.23,1721207664805
-0.20,-1.25,7.24,0.06,-0.26,-0.25,1721207664815
-1.48,0.36,7.95,-0.01,0.11,-0.17,1721207664825
-0.71,-5.02,12.39,-0.18,-0.04,0.03,1721207664835
-0.76,1.80,17.44,0.16,-0.04,0.06,1721207664845
3.26,1.07,6.24,0.20,-0.12,0.01,1721207664855
1.75,3.02,6.21,-0.04,0.10,-0.15,1721207664865
-0.39,-2.29,11.62,-0.13,-0.08,-0.29,1721207664875
-2.47,-3.27,11.51,0.04,-0.03,-0.18,1721207664885
-0.19,-2.41,11.34,0.04,0.04,0.05,1721207664895
1.14,3.38,8.83,0.17,-0.05,0.12,1721207664905
4.70,3.41,11.45,0.12,0.21,-0.12,1721207664915
0.91,-3.54,7.71,0.05,-0.20,-0.23,1721207664925
-2.57,0.45,8.73,0.21,0.12,-0.39,1721207664935
-1.87,3.13,15.68,0.19,0.06,-0.15,1721207664945
-3.68,-0.60,12.01,0.06,-0.21,0.10,1721207664955
-1.76,2.89,13.23,0.28,0.07,0.13,1721207664965
3.76,3.10,8.49,0.07,0.17,0.01,1721207664975
-0.10,3.95,7.26,0.00,-0.18,-0.18,1721207664985
1.27,-1.75,10.49,-0.01,0.20,-0.33,1721207664995
-2.54,-2.32,6.73,0.06,-0.20,-0.18,1721207665005
-2.10,0.15,6.38,0.06,0.16,-0.02,1721207665015
0.09,5.34,12.41,0.13,-0.04,0.06,1721207665025
1.48,2.79,10.08,-0.02,-0.07,-0.02,1721207665035
0.71,-1.81,8.79,-0.06,-0.03,-0.11,1721207665045
1.19,-0.01,10.47,-0.08,0.09,-0.26,1721207665055
0.98,-0.88,8.83,-0.12,-0.07,-0.10,1721207665065
-0.04,-0.07,13.75,-0.13,0.12,-0.22,1721207665075
-0.83,0.60,13.24,0.07,-0.08,-0.21,1721207665085
-1.34,3.59,-2.35,0.20,-0.11,-0.07,1721207665095
2.08,-11.10,-0.55,-0.47,0.13,-0.01,1721207665105
-0.36,-3.70,32.09,-0.24,0.60,-0.21,1721207665115
-1.34,1.93,19.62,0.17,-0.43,-0.49,1721207665125
-2.95,3.35,-1.25,0.00,0.14,-0.44,1721207665135
-2.01,-1.48,4.00,-0.40,0.06,0.07,1721207665145
1.88,-6.05,17.07,-0.53,0.29,0.24,1721207665155
3.54,3.15,12.88,-0.01,-0.01,-0.06,1721207665165
5.07,-3.94,3.38,-0.21,0.04,-0.50,1721207665175
-2.92,-8.24,10.67,-0.53,0.08,-0.68,1721207665185
-2.88,7.15,23.64,-0.05,0.16,-0.39,1721207665195
-4.61,4.44,9.39,0.15,-0.32,-0.04,1721207665205
-2.95,-0.17,1.50,0.01,0.32,-0.07,1721207665215
2.98,-0.37,13.28,-0.04,0.25,0.07,1721207665225
0.21,6.87,12.86,0.05,-0.04,0.02,1721207665235
2.81,3.14,10.56,0.10,0.18,-0.25,1721207665245
0.32,-5.41,8.64,-0.19,-0.07,-0.48,1721207665255
-4.79,-2.52,11.20,-0.04,0.14,-0.47,1721207665265
-1.73,0.37,10.29,0.26,0.14,-0.12,1721207665275
-1.71,8.45,12.82,0.30,0.11,0.05,1721207665285
-0.83,17.65,14.56,0.43,0.13,-0.01,1721207665295
0.01,0.12,4.04,0.21,-0.14,-0.10,1721207665305
-0.59,-23.45,0.35,-0.32,0.06,0.04,1721207665315
0.28,2.85,17.55,0.12,0.16,-0.01,1721207665325
1.60,0.71,9.53,0.06,-0.37,-0.10,1721207665335
-4.52,-0.70,10.46,0.20,0.23,-0.30,1721207665345
-0.42,-9.88,7.68,0.14,0.10,-0.10,1721207665355
0.12,3.17,18.08,0.03,0.39,0.04,1721207665365
0.07,21.81,20.44,0.40,-0.13,-0.04,1721207665375
-1.15,4.72,-3.62,0.30,-0.30,-0.25,1721207665385
-5.04,-30.79,-9.35,-0.41,0.05,-0.10,1721207665395
-3.37,-1.98,17.93,0.21,0.07,0.38,1721207665405
-8.76,12.49,25.46,-0.50,-0.05,0.10,1721207665415
9.66,13.94,34.39,0.15,0.22,-0.32,1721207665425
-2.87,-13.30,-0.61,0.09,-0.89,-0.75,1721207665435
-13.68,1.84,0.88,-0.06,0.02,-0.15,1721207665445
3.14,13.82,9.79,-0.27,0.42,0.47,1721207665455
6.82,2.50,11.41,-0.09,-0.01,0.55,1721207665465
1.47,-3.45,-2.44,0.10,-0.52,0.27,1721207665475
2.75,-4.18,-9.31,-0.32,0.09,-0.02,1721207665485
3.39,-19.40,36.94,-1.41,0.63,-0.35,1721207665495
-1.99,17.12,64.23,0.43,-0.84,-0.21,1721207665505
-3.71,11.87,-19.73,1.02,-0.97,-0.07,1721207665515
6.34,3.14,-19.20,-0.82,0.44,0.18,1721207665525
1.11,-6.50,25.25,-0.05,-0.14,0.59,1721207665535
0.32,0.84,21.56,0.38,-0.99,0.72,1721207665545
8.74,16.29,-8.05,0.41,0.51,-0.20,1721207665555
-0.15,-7.27,-0.24,-0.51,-0.59,-0.39,1721207665565
-6.83,-13.67,26.55,-0.39,-0.12,-0.20,1721207665575
-2.72,5.86,42.38,0.46,-0.51,0.28,1721207665585
0.55,13.77,-5.05,0.58,-0.37,0.28,1721207665595
1.69,-1.50,0.99,-0.37,0.21,0.18,1721207665605
-5.37,-0.94,17.58,0.02,-0.07,-0.06,1721207665615
5.81,6.23,16.02,-0.02,0.63,-0.43,1721207665625
-2.97,7.05,9.60,0.25,-0.85,-0.04,1721207665635
-0.99,-1.01,-2.55,-0.10,0.14,0.17,1721207665645
2.63,3.75,12.96,-0.01,0.14,0.12,1721207665655
3.53,-3.85,6.97,-0.06,-0.18,-0.18,1721207665665
-3.12,5.67,24.42,-0.06,-0.22,-0.50,1721207665680
-2.73,5.72,21.55,0.16,-0.36,-0.43,1721207665684
-4.03,2.41,-1.82,0.17,-0.23,-0.00,1721207665694
-3.94,-3.71,0.53,-0.23,0.10,0.32,1721207665704
8.10,-3.06,6.56,-0.12,0.15,0.20,1721207665714
4.69,0.41,16.19,0.17,0.09,-0.12,1721207665724
3.16,4.34,9.50,0.26,-0.38,-0.23,1721207665734
0.31,-0.73,1.85,-0.13,-0.11,-0.22,1721207665744
-2.09,-1.99,12.96,-0.17,0.06,-0.19,1721207665754
1.13,-0.57,16.00,0.09,-0.02,-0.08,1721207665764
0.93,3.73,2.32,0.20,-0.23,-0.11,1721207665774
-0.96,-6.16,-1.35,-0.17,-0.11,-0.27,1721207665784
-1.61,-0.50,20.63,-0.31,0.36,-0.26,1721207665794
-1.04,6.96,23.31,0.00,-0.33,-0.14,1721207665804
-0.09,1.38,0.86,0.22,-0.32,0.13,1721207665814
3.20,-2.67,4.55,-0.30,0.22,-0.06,1721207665824
0.35,-4.89,13.41,-0.16,-0.10,-0.31,1721207665834
-0.85,2.57,17.86,0.16,-0.05,-0.38,1721207665844
-3.11,3.00,4.80,0.33,-0.34,0.02,1721207665854
2.23,-4.53,6.13,0.02,0.20,0.09,1721207665864
0.78,7.86,13.86,0.32,0.02,-0.02,1721207665874
3.10,1.04,12.68,0.24,-0.19,-0.09,1721207665884
-1.68,3.92,8.94,0.21,-0.02,-0.19,1721207665894
3.76,-3.96,10.16,0.19,0.06,-0.21,1721207665904
-0.25,-0.87,6.15,0.24,-0.16,-0.28,1721207665914
0.24,-2.88,11.67,0.17,0.14,-0.32,1721207665924
-1.43,4.86,15.44,0.37,-0.06,-0.07,1721207665934
2.34,3.80,9.36,0.34,0.08,0.04,1721207665944
2.78,-6.99,5.36,0.03,0.01,-0.07,1721207665954
0.53,-0.56,14.99,0.06,0.24,-0.47,1721207665964
0.81,0.89,16.84,0.24,-0.00,-0.45,1721207665974
-2.05,4.17,5.93,0.41,-0.09,-0.14,1721207665984
1.25,0.83,1.73,0.28,0.21,-0.04,1721207665994
2.20,-6.08,10.42,-0.06,0.17,-0.24,1721207666004
-0.35,-4.32,15.11,0.17,0.04,-0.40,1721207666014
-1.07,5.46,15.39,0.41,0.18,-0.45,1721207666024
-1.06,8.03,6.19,0.45,-0.06,-0.09,1721207666034
0.02,-2.82,-2.92,0.09,0.14,-0.05,1721207666044
1.07,-3.60,7.99,-0.21,0.38,-0.36,1721207666054
-1.17,0.56,8.31,0.03,-0.14,-0.42,1721207666064
-3.59,-0.40,4.56,-0.10,0.15,-0.43,1721207666074
-3.85,-5.41,7.97,-0.19,0.11,-0.16,1721207666084
-2.36,-9.09,17.39,-0.35,0.13,0.03,1721207666094
2.00,7.50,25.03,0.24,0.24,-0.03,1721207666104
5.97,9.94,-1.89,0.41,-0.20,-0.29,1721207666114
0.80,-1.57,-6.82,-0.69,0.31,-0.66,1721207666124
-10.70,-15.63,32.01,-0.63,0.01,-0.65,1721207666134
-10.14,-0.27,40.93,0.41,0.14,-0.30,1721207666144
-4.35,10.08,-6.01,0.45,-0.43,0.31,1721207666154
2.18,1.41,-6.43,-0.75,0.55,0.13,1721207666164
2.89,-2.36,15.95,-0.23,0.35,-0.22,1721207666174
6.33,3.17,9.19,-0.04,0.22,-0.68,1721207666184
-2.94,5.84,13.31,-0.08,-0.14,-0.51,1721207666194
-5.25,3.81,9.61,-0.26,-0.01,-0.11,1721207666204
-1.75,-3.04,4.40,-0.55,0.06,0.37,1721207666214
4.57,-4.80,11.57,-0.48,0.30,0.19,1721207666224
5.58,-6.30,15.39,-0.29,0.03,-0.43,1721207666234
-1.42,1.99,6.61,0.02,-0.16,-0.74,1721207666244
-3.28,-1.92,7.26,-0.36,0.27,-0.47,1721207666254
-4.17,4.97,21.58,-0.28,0.06,-0.04,1721207666264
-2.55,6.52,11.63,0.12,-0.13,0.17,1721207666274
1.70,-1.05,-1.10,0.00,0.20,0.22,1721207666284
3.57,-5.91,6.20,-0.24,0.25,-0.01,1721207666294
4.13,7.00,17.06,0.07,0.28,-0.24,1721207666304
2.50,2.32,12.32,-0.04,-0.11,-0.47,1721207666314
-3.62,-0.44,9.30,-0.15,0.01,-0.54,1721207666324
-3.45,-1.65,11.12,-0.05,0.18,-0.28,1721207666334
-3.75,-5.86,9.87,-0.16,-0.02,0.15,1721207666344
-0.26,5.31,13.27,0.28,0.31,0.04,1721207666354
3.09,8.43,0.88,0.58,-0.04,-0.15,1721207666364
-0.92,-4.33,0.51,-0.00,-0.01,-0.21,1721207666374
-5.09,-6.77,24.12,-0.19,0.27,-0.22,1721207666384
0.47,6.83,26.74,0.17,-0.01,-0.19,1721207666394
-1.98,-2.17,0.48,0.18,-0.27,-0.08,1721207666404
-2.24,-3.68,7.47,-0.04,0.44,-0.05,1721207666414
1.91,4.89,17.20,0.35,0.00,0.03,1721207666424
1.34,4.18,1.37,0.54,-0.09,-0.15,1721207666434
-0.18,-2.36,1.47,0.08,0.16,-0.39,1721207666444
-2.12,-1.37,15.03,-0.05,0.01,-0.32,1721207666454
-4.28,-1.25,12.02,0.16,-0.04,-0.10,1721207666464
-2.15,-0.16,11.88,0.09,0.21,-0.07,1721207666474
-2.12,-0.96,0.86,0.20,-0.18,0.00,1721207666484
1.99,-1.48,15.69,-0.13,0.58,0.03,1721207666494
2.60,1.79,26.99,0.08,-0.13,0.06,1721207666504
-1.51,4.54,1.04,0.41,-0.26,-0.22,1721207666514
-0.44,-0.90,7.64,-0.08,0.33,-0.40,1721207666524
-6.43,3.08,12.81,0.18,-0.36,-0.12,1721207666534
-1.87,-1.59,1.56,0.24,0.09,0.21,1721207666544
1.02,-0.20,9.28,0.11,0.22,0.13,1721207666554
0.29,2.43,9.01,0.15,-0.13,-0.16,1721207666564
0.34,2.98,11.55,0.04,0.20,-0.31,1721207666574
-0.82,-2.27,10.70,-0.04,-0.16,-0.09,1721207666584
-1.70,0.88,10.62,-0.02,0.05,0.05,1721207666594
2.42,-0.53,12.17,-0.00,0.04,0.09,1721207666604
2.16,-1.86,11.34,-0.10,0.01,-0.01,1721207666614
1.87,-1.67,12.35,0.02,0.06,-0.19,1721207666624
0.84,3.81,6.22,0.20,0.06,-0.28,1721207666634
-1.27,2.60,6.87,-0.16,0.10,-0.17,1721207666644
-3.57,0.12,13.91,-0.03,-0.14,0.07,1721207666654
0.05,-3.03,11.22,0.05,0.21,0.11,1721207666664
0.18,-4.15,3.83,-0.08,-0.15,0.01,1721207666674
-1.39,5.10,15.43,-0.11,0.28,-0.13,1721207666684
-1.16,8.91,10.75,0.09,-0.24,0.09,1721207666694
1.47,-4.49,4.53,-0.16,0.17,0.05,1721207666704
-0.11,-5.57,7.53,-0.28,0.04,-0.08,1721207666714
-1.88,3.23,16.01,-0.25,0.06,-0.02,1721207666724
0.51,3.00,20.27,-0.18,-0.03,0.22,1721207666734
-0.57,-2.48,3.51,0.05,-0.33,0.16,1721207666744
1.04,-3.78,-4.72,-0.19,0.21,-0.21,1721207666754
-0.81,-5.21,23.61,-0.60,0.31,-0.24,1721207666764
-3.49,5.11,34.06,-0.11,-0.68,0.04,1721207666774
-4.34,3.20,-4.62,0.25,-0.22,0.10,1721207666784
0.06,-6.01,-0.69,-0.41,0.28,0.21,1721207666794
0.93,-0.94,24.89,0.03,0.43,0.47,1721207666804
1.65,4.42,22.24,0.19,-0.40,0.25,1721207666814
2.93,3.49,0.63,0.29,-0.13,-0.13,1721207666824
0.45,-3.42,-2.95,-0.02,-0.05,-0.37,1721207666834
-7.20,-3.22,16.80,-0.48,0.12,-0.28,1721207666844
-0.57,9.95,30.32,0.06,-0.09,0.08,1721207666854
1.07,0.62,-6.87,0.45,-0.48,0.07,1721207666864
3.24,-4.60,-8.45,-0.24,0.49,-0.17,1721207666874
-2.88,-3.14,17.02,-0.13,0.10,-0.11,1721207666884
-2.96,12.81,24.27,0.09,-0.32,0.08,1721207666894
1.85,-5.29,-1.51,0.47,-0.17,0.28,1721207666904
1.99,-4.55,4.09,-0.56,0.41,-0.06,1721207666914
4.29,11.32,15.19,-0.49,0.30,-0.51,1721207666924
6.15,9.23,12.24,0.68,-0.07,0.04,1721207666934
3.58,-10.42,-12.10,0.27,-0.04,0.06,1721207666944
0.29,-3.13,16.54,-0.02,0.45,-0.29,1721207666954
-14.60,5.17,19.20,0.23,0.27,-0.41,1721207666964
-1.96,3.81,11.27,0.41,-0.28,-0.14,1721207666974
-0.84,-6.68,-1.80,0.07,0.26,0.11,1721207666984
-1.69,10.52,20.78,0.41,0.33,0.05,1721207666994
3.31,1.53,7.82,0.33,-0.38,0.03,1721207667004
2.66,-10.17,6.51,-0.16,0.39,-0.20,1721207667014
-0.39,-1.30,14.98,0.03,0.13,-0.37,1721207667024
-0.91,4.43,9.17,0.34,0.05,-0.29,1721207667034
-0.43,-3.61,9.03,0.08,0.20,-0.14,1721207667044
-1.56,-2.49,8.79,0.28,0.04,0.02,1721207667054
1.77,6.36,10.65,0.27,0.41,-0.08,1721207667064
0.89,6.72,12.76,0.07,0.05,-0.22,1721207667074
-1.74,-5.76,9.68,0.02,0.05,-0.32,1721207667084
-1.84,-8.25,11.18,0.10,0.14,-0.12,1721207667094
-2.67,4.27,6.70,0.18,0.06,0.12,1721207667104
1.15,8.34,6.69,0.25,0.27,0.02,1721207667114
1.52,-3.96,5.65,-0.11,0.06,-0.27,1721207667124
-3.02,-7.06,10.61,-0.17,0.13,-0.26,1721207667134
-2.18,2.55,15.39,0.01,0.16,-0.05,1721207667144
-0.41,2.68,11.30,-0.13,0.04,0.15,1721207667154
-0.05,1.22,4.70,-0.05,0.05,0.00,1721207667164
1.51,-3.65,4.89,-0.34,0.20,-0.15,1721207667174
-0.01,-2.29,15.68,-0.23,0.11,-0.20,1721207667184
-1.84,-0.63,13.98,-0.19,-0.02,-0.27,1721207667194
-4.53,-0.37,16.89,-0.31,0.04,-0.14,1721207667204
-2.47,6.55,15.38,0.12,0.01,0.25,1721207667214
3.65,11.99,-3.12,0.28,0.00,0.41,1721207667224
3.69,-11.54,-9.98,-0.55,-0.02,0.11,1721207667234
1.07,-10.48,20.71,-0.52,0.33,-0.46,1721207667244
-2.82,12.95,29.83,0.22,-0.81,-0.58,1721207667254
-4.40,10.34,-0.21,0.28,-0.16,-0.12,1721207667264
-5.34,-10.77,2.60,-0.74,0.17,0.26,1721207667274
0.45,-6.69,22.11,-0.27,0.12,0.45,1721207667284
6.19,7.30,9.44,0.09,-0.05,0.25,1721207667294
4.02,0.97,2.76,-0.31,0.01,-0.33,1721207667304
-0.61,-7.76,13.06,-0.21,-0.00,-0.68,1721207667314
-4.53,-5.31,13.32,-0.08,-0.07,-0.11,1721207667324
-3.01,8.90,12.71,0.08,0.17,0.32,1721207667334
2.39,5.56,9.18,0.14,-0.04,0.23,1721207667344
2.65,-8.20,6.15,-0.15,-0.01,-0.04,1721207667354
2.28,-6.51,12.80,0.01,0.20,-0.20,1721207667364
1.04,16.23,12.59,0.38,0.07,-0.32,1721207667374
-1.73,0.44,2.23,-0.07,-0.30,-0.34,1721207667384
-4.85,-12.00,13.75,-0.28,0.29,-0.22,1721207667394
-2.11,2.20,20.31,0.18,0.08,0.07,1721207667404
-1.02,7.36,4.15,0.18,-0.16,0.19,1721207667414
2.85,-0.62,8.86,-0.01,0.26,0.05,1721207667424
2.17,-2.60,8.74,0.14,-0.11,-0.22,1721207667434
-0.60,-2.59,10.58,0.03,0.12,-0.35,1721207667444
-4.27,1.42,12.64,0.11,-0.20,-0.08,1721207667454
0.28,8.24,16.41,0.25,0.32,0.08,1721207667464
0.96,-2.48,9.53,0.03,-0.25,0.11,1721207667474
-0.58,-4.35,7.90,0.10,0.14,-0.09,1721207667484
3.74,-0.29,15.72,0.18,0.34,-0.23,1721207667494
-2.46,2.34,4.22,0.23,-0.50,-0.22,1721207667504
-2.43,1.62,3.67,0.26,0.29,-0.24,1721207667514
2.07,-4.80,11.84,0.18,0.18,-0.04,1721207667524
-1.52,-1.29,7.34,0.14,-0.16,-0.04,1721207667534
0.45,6.31,10.40,0.25,0.29,-0.22,1721207667544
-0.41,4.28,8.06,0.01,-0.14,-0.25,1721207667554
-4.59,-1.05,8.53,-0.26,0.02,-0.26,1721207667564
-2.28,-7.39,19.63,-0.10,0.25,-0.09,1721207667574
-0.92,-0.92,5.45,0.02,-0.08,0.17,1721207667584
1.38,-0.36,7.73,-0.16,0.20,0.04,1721207667594
2.69,4.88,17.90,0.16,0.07,-0.20,1721207667604
0.39,4.27,2.41,0.30,-0.22,-0.29,1721207667614
-2.01,-4.40,4.45,-0.17,0.21,-0.22,1721207667624
-0.35,4.07,20.58,-0.02,0.10,-0.02,1721207667634
0.05,4.41,7.03,0.04,-0.23,-0.06,1721207667644
1.04,-0.51,5.28,-0.04,0.25,-0.22,1721207667654
2.15,-1.87,15.74,-0.13,0.11,-0.23,1721207667664
-2.09,4.20,9.26,0.04,-0.14,-0.15,1721207667674
-2.60,-3.13,9.80,-0.28,0.07,-0.09,1721207667689
-0.63,-4.29,13.97,-0.19,-0.01,-0.05,1721207667693
-0.87,2.13,10.43,0.17,0.02,0.04,1721207667703
-0.16,3.45,1.41,0.20,-0.07,0.15,1721207667713
2.69,-0.01,10.23,-0.06,0.32,-0.02,1721207667723
1.63,1.18,12.11,-0.02,-0.06,-0.17,1721207667733
-1.68,2.71,17.61,-0.23,0.24,-0.34,1721207667743
-3.59,-0.08,21.94,-0.22,-0.06,-0.17,1721207667753
-5.43,-4.22,6.07,-0.16,-0.28,0.10,1721207667763
-1.12,6.03,4.88,0.06,0.36,0.25,1721207667773
5.04,2.57,8.35,-0.16,0.04,0.17,1721207667783
-1.21,2.99,9.24,0.00,-0.06,-0.25,1721207667793
-0.72,-11.18,3.35,-0.08,-0.00,-0.27,1721207667803
-3.43,-5.47,14.24,-0.13,0.30,-0.02,1721207667813
-2.97,10.44,15.28,0.13,-0.11,0.20,1721207667823
-0.17,1.68,4.21,0.05,-0.10,0.28,1721207667833
-0.39,-7.47,7.99,-0.15,0.10,0.05,1721207667843
1.96,-5.68,20.84,-0.21,0.22,-0.19,1721207667853
-2.30,4.14,11.44,0.03,-0.36,-0.06,1721207667863
-1.29,-0.55,4.53,-0.08,0.10,0.16,1721207667873
0.32,4.93,7.29,0.39,-0.01,0.34,1721207667883
4.13,-1.84,-0.64,0.18,-0.04,0.20,1721207667893
-0.05,3.88,13.47,-0.11,0.17,-0.19,1721207667903
1.19,-2.71,19.08,-0.21,-0.16,-0.24,1721207667913
-4.17,-4.33,12.62,-0.44,-0.25,-0.01,1721207667923
-1.71,4.03,13.29,-0.09,0.09,0.30,1721207667933
3.73,2.73,7.21,0.08,0.02,0.32,1721207667943
2.91,-9.43,5.06,-0.24,-0.04,-0.01,1721207667953
1.04,2.96,15.42,-0.00,0.23,-0.35,1721207667963
-1.79,3.73,14.60,-0.10,-0.25,-0.20,1721207667973
-3.91,5.00,13.11,0.08,0.03,0.01,1721207667983
1.44,1.01,3.67,0.46,-0.12,0.30,1721207667993
-0.06,-10.25,-2.60,0.14,-0.02,0.21,1721207668003
1.40,0.25,17.71,0.19,0.39,-0.04,1721207668013
2.05,7.78,22.64,0.28,-0.26,-0.01,1721207668023
-0.89,9.00,6.70,0.31,-0.14,0.08,1721207668033
2.96,-4.94,6.83,-0.01,0.16,0.03,1721207668043
2.01,1.84,8.65,0.25,0.01,-0.11,1721207668053
1.86,1.02,1.41,0.08,-0.01,-0.17,1721207668063
-1.77,-4.22,7.26,-0.21,0.06,-0.10,1721207668073
0.48,-8.46,17.97,-0.01,0.16,-0.00,1721207668083
0.62,-2.01,17.25,0.05,-0.02,-0.04,1721207668093
-0.91,6.58,15.18,0.15,-0.07,0.03,1721207668103
0.60,5.15,8.56,0.09,0.08,-0.05,1721207668113
0.52,-7.16,7.47,0.01,0.03,-0.11,1721207668123
-0.46,-1.21,11.82,0.18,0.19,-0.26,1721207668133
-2.07,2.33,6.37,0.15,-0.12,-0.20,1721207668143
-3.54,1.94,13.82,0.04,0.14,-0.07,1721207668153
-0.74,5.58,12.85,0.34,-0.01,0.18,1721207668163
1.92,1.25,1.59,0.01,0.04,0.13,1721207668173
3.83,-1.05,11.98,-0.06,0.25,-0.18,1721207668183
0.40,-0.37,4.65,-0.05,-0.25,-0.42,1721207668193
-3.47,3.66,4.39,-0.01,0.17,-0.34,1721207668203
-0.25,-4.39,14.63,-0.21,0.20,-0.07,1721207668213
-3.14,-0.79,14.60,-0.07,-0.20,0.10,1721207668223
1.43,-0.92,19.87,-0.23,0.28,0.04,1721207668233
2.52,3.83,17.76,-0.09,-0.12,0.03,1721207668243
2.57,4.98,5.39,-0.02,0.01,-0.23,1721207668253
0.46,0.41,11.04,-0.05,0.15,-0.39,1721207668263
-3.29,0.05,6.86,0.24,-0.14,-0.23,1721207668273
-2.13,-4.58,0.30,-0.03,0.05,-0.01,1721207668283
-1.92,0.54,17.14,-0.02,0.31,-0.00,1721207668293
2.06,5.16,15.20,0.26,-0.01,-0.03,1721207668303
0.51,3.23,2.13,0.21,-0.12,-0.05,1721207668313
0.90,1.35,6.11,0.10,0.26,-0.12,1721207668323
1.38,3.37,10.07,0.07,0.05,-0.15,1721207668333
0.55,-3.28,9.39,-0.16,0.05,-0.29,1721207668343
-2.90,-3.38,9.70,-0.05,-0.06,-0.30,1721207668353
-3.33,-4.13,10.94,-0.15,0.10,-0.03,1721207668363
-2.13,4.07,12.74,0.12,0.07,0.11,1721207668373
2.05,0.47,4.24,0.08,0.01,0.14,1721207668383
2.17,-2.09,10.15,-0.13,0.24,-0.10,1721207668393
2.02,2.04,19.04,-0.01,0.14,-0.25,1721207668403
-0.30,3.29,14.53,-0.03,-0.04,-0.22,1721207668413
-2.47,-0.24,5.86,-0.01,-0.02,-0.06,1721207668423
-1.06,-0.84,5.15,0.03,0.10,0.02,1721207668433
0.49,0.47,8.87,0.10,0.12,0.01,1721207668443
0.81,1.57,9.95,0.16,0.08,-0.20,1721207668453
-0.54,0.30,5.97,0.17,0.04,-0.26,1721207668463
-0.89,-4.46,8.23,-0.12,0.14,-0.15,1721207668473
-2.94,8.22,11.61,0.20,0.04,-0.01,1721207668483
0.88,-0.59,2.60,0.06,0.04,-0.03,1721207668493
-0.70,-11.24,3.98,-0.22,0.02,-0.05,1721207668503
-0.04,-2.77,22.09,-0.14,0.35,-0.15,1721207668513
-0.21,6.22,18.67,0.12,-0.19,-0.17,1721207668523
-1.10,3.64,5.90,-0.01,0.14,-0.21,1721207668533
-2.07,-2.37,10.92,-0.14,0.05,-0.05,1721207668543
-2.70,2.56,12.40,0.12,-0.02,0.09,1721207668553
1.24,0.87,8.66,-0.01,0.13,0.03,1721207668563
0.51,-1.57,11.66,-0.05,-0.04,-0.16,1721207668573
-0.58,-0.22,10.80,0.05,0.03,-0.19,1721207668583
-2.55,0.77,11.98,0.07,0.06,-0.08,1721207668593
-1.46,5.99,14.56,0.23,0.13,-0.04,1721207668603
1.04,3.57,7.79,0.22,-0.07,0.11,1721207668613
0.43,-1.59,8.09,0.07,0.04,-0.02,1721207668623
0.72,2.34,12.61,0.25,0.07,-0.14,1721207668633
1.03,0.88,8.34,0.19,-0.01,-0.08,1721207668643
-0.46,2.96,7.75,0.25,-0.03,-0.03,1721207668653
0.14,-1.07,6.67,0.14,0.08,-0.08,1721207668663
-0.79,-5.04,12.46,-0.06,0.02,-0.12,1721207668673
-1.12,1.58,15.85,0.32,0.09,-0.04,1721207668683
0.32,7.29,1.99,0.25,0.03,-0.06,1721207668693
-0.17,6.48,13.55,-0.04,0.25,-0.07,1721207668703
0.20,-3.72,10.13,0.02,-0.20,0.05,1721207668713
-0.25,-6.86,8.19,-0.23,0.20,-0.14,1721207668723
-2.51,0.41,15.39,-0.09,-0.12,-0.12,1721207668733
-2.40,-2.60,7.02,-0.07,-0.05,0.06,1721207668743
-0.30,1.45,14.27,0.07,0.18,0.13,1721207668753
2.33,4.15,2.82,0.24,-0.20,0.14,1721207668763
1.62,-1.13,1.08,-0.29,0.19,-0.14,1721207668773
0.28,0.25,19.74,-0.24,0.23,-0.35,1721207668783
-2.71,-3.35,12.71,-0.07,-0.23,-0.16,1721207668793
-5.76,-4.05,5.45,-0.20,-0.12,0.16,1721207668803
-0.95,3.43,11.28,0.05,0.26,0.32,1721207668813
3.85,-0.85,5.81,-0.24,0.02,0.11,1721207668823
0.08,-1.39,10.89,-0.28,-0.01,-0.17,1721207668833
-0.91,-1.02,10.21,-0.10,-0.02,-0.17,1721207668843
-1.64,-0.58,10.71,-0.20,0.08,0.04,1721207668853
-1.02,-0.06,7.89,-0.19,-0.09,0.19,1721207668863
0.95,1.93,10.88,-0.21,0.14,0.08,1721207668873
-1.21,-2.52,6.39,-0.40,-0.24,-0.03,1721207668883
-0.08,-6.69,26.20,-0.56,0.41,-0.17,1721207668893
-0.67,12.25,22.65,0.01,-0.32,-0.06,1721207668903
-1.93,-0.59,-4.28,-0.10,-0.31,0.12,1721207668913
-1.04,-3.07,16.27,-0.36,0.47,0.13,1721207668923
0.10,14.52,15.96,0.29,-0.38,0.28,1721207668933
2.48,-7.82,-2.82,0.22,-0.27,0.16,1721207668943
3.67,-6.19,12.52,-0.33,0.25,-0.14,1721207668953
-0.32,16.51,16.80,0.18,-0.30,-0.03,1721207668963
-0.72,7.66,5.24,0.42,-0.18,0.07,1721207668973
-0.11,-6.39,4.64,0.12,-0.03,0.10,1721207668983
-0.03,-7.01,7.75,0.15,-0.03,0.08,1721207668993
0.65,-1.03,14.78,0.09,0.10,-0.02,1721207669003
0.22,5.57,15.68,0.23,-0.23,0.08,1721207669013
1.90,4.63,4.91,0.32,-0.13,0.23,1721207669023
2.77,-4.74,1.03,0.05,-0.03,0.18,1721207669033
3.58,-2.65,16.22,-0.15,0.33,-0.24,1721207669043
0.25,4.08,19.03,0.10,-0.30,-0.37,1721207669053
-2.82,-5.88,4.86,-0.18,-0.18,-0.11,1721207669063
-2.96,-6.25,14.46,-0.13,0.17,0.22,1721207669073
2.45,1.79,13.01,0.13,0.08,0.14,1721207669083
3.24,2.32,7.74,0.05,-0.07,-0.08,1721207669093
2.06,6.57,10.44,0.11,0.14,-0.26,1721207669103
0.38,0.34,10.71,-0.06,0.00,-0.29,1721207669113
-2.97,-4.27,13.45,-0.10,0.03,-0.17,1721207669123
-1.16,-0.47,7.37,0.14,-0.08,0.07,1721207669133
1.76,-0.71,0.09,0.05,0.04,0.14,1721207669143
3.51,0.83,15.45,-0.06,0.39,-0.24,1721207669153
-0.40,5.00,20.88,0.29,-0.22,-0.50,1721207669163
-3.21,0.26,6.43,0.13,-0.06,-0.31,1721207669173
-3.05,4.47,11.55,-0.10,0.24,0.13,1721207669183
0.64,3.71,12.11,-0.05,-0.03,0.19,1721207669193
2.08,-3.68,3.60,-0.04,-0.01,-0.12,1721207669203
1.60,-0.45,7.81,0.04,0.17,-0.44,1721207669213
-1.39,-1.46,10.18,-0.11,-0.08,-0.33,1721207669223
-3.32,1.93,20.10,-0.12,0.15,-0.23,1721207669233
-1.67,10.69,14.40,0.26,-0.07,0.04,1721207669243
1.10,-1.19,0.85,-0.13,0.03,0.15,1721207669253
2.90,-9.04,7.22,-0.19,0.18,0.00,1721207669263
4.08,5.20,11.82,0.24,0.16,-0.41,1721207669273
1.33,6.12,9.99,0.06,-0.05,-0.55,1721207669283
-6.34,-1.57,5.58,-0.01,-0.22,-0.36,1721207669293
-5.82,-9.79,15.79,-0.18,0.28,-0.09,1721207669303
-1.56,3.87,14.35,0.18,-0.02,0.42,1721207669313
6.39,7.11,1.20,0.12,0.24,0.31,1721207669323
6.40,2.60,10.47,-0.18,0.19,-0.42,1721207669333
-0.56,-4.24,16.44,-0.09,-0.33,-0.77,1721207669343
-6.14,-8.04,6.10,-0.01,0.00,-0.45,1721207669353
-4.95,-4.27,5.82,-0.16,0.23,0.19,1721207669363
-0.12,5.84,17.60,-0.10,0.30,0.28,1721207669373
1.71,16.20,19.92,0.23,-0.10,-0.04,1721207669383
0.10,-1.64,-6.79,0.14,-0.39,-0.20,1721207669393
0.05,-19.46,-1.78,-0.64,0.45,-0.15,1721207669403
0.53,-6.01,20.27,-0.60,0.00,-0.09,1721207669413
2.77,17.74,19.22,0.16,-0.47,-0.10,1721207669423
-1.54,-1.33,-1.17,0.17,0.04,-0.53,1721207669433
-9.04,-9.80,5.07,-0.31,-0.04,-0.06,1721207669443
-1.08,9.79,16.24,0.10,0.65,0.35,1721207669453
5.89,0.35,10.82,-0.08,-0.06,0.25,1721207669463
0.34,-0.79,8.09,-0.04,-0.12,-0.30,1721207669473
0.06,-2.60,7.97,0.34,0.04,-0.40,1721207669483
-4.71,-2.48,2.34,0.04,-0.05,-0.10,1721207669493
-2.41,9.39,15.17,0.17,0.33,0.15,1721207669503
3.77,1.88,15.90,0.02,0.01,0.03,1721207669513
-1.62,-10.13,4.23,-0.04,-0.25,-0.13,1721207669523
-0.78,-0.94,12.30,0.16,0.42,-0.12,1721207669533
1.12,7.96,14.20,0.20,-0.01,0.09,1721207669543
-0.80,2.60,6.70,0.02,-0.10,-0.04,1721207669553
-1.56,-3.30,6.54,0.08,-0.03,-0.21,1721207669563
-0.74,-3.51,14.53,0.00,0.26,-0.09,1721207669573
-0.93,2.83,14.07,0.04,-0.09,0.10,1721207669583
-0.43,3.78,7.38,0.12,-0.02,0.04,1721207669593
1.41,-1.58,13.81,-0.02,0.11,-0.12,1721207669603
-2.29,2.44,13.01,0.18,-0.32,-0.14,1721207669613
-2.24,0.31,7.72,0.12,0.09,0.04,1721207669623
0.32,-2.53,12.31,-0.00,0.07,0.09,1721207669633
-0.63,5.01,10.74,0.20,-0.18,0.00,1721207669643
0.27,4.27,7.10,0.24,0.04,-0.00,1721207669653
1.32,-2.66,5.32,0.16,-0.13,0.07,1721207669663
2.46,-2.73,3.44,0.10,0.02,0.05,1721207669673
1.46,-0.78,13.88,-0.15,0.03,-0.13,1721207669683
-0.74,8.35,22.24,0.45,-0.02,-0.19,1721207669698
-3.36,6.26,5.94,0.43,-0.39,-0.17,1721207669702
-1.49,-0.20,-5.64,0.04,0.19,-0.08,1721207669712
0.07,-4.15,18.57,-0.33,0.28,0.13,1721207669722
-4.12,-0.02,30.07,0.00,-0.12,0.10,1721207669732
-1.19,2.37,0.90,0.31,-0.32,-0.01,1721207669742
0.94,-1.32,-2.85,0.01,0.13,-0.01,1721207669752
1.13,2.14,14.92,-0.07,0.24,-0.04,1721207669762
-0.74,2.02,5.65,-0.13,-0.24,-0.14,1721207669772
-3.67,-4.04,13.53,-0.36,0.22,-0.23,1721207669782
-1.37,0.84,22.45,0.04,0.02,-0.03,1721207669792
-0.10,-0.84,2.34,-0.09,-0.22,0.15,1721207669802
2.70,5.17,15.38,-0.23,0.41,0.07,1721207669812
3.14,2.59,14.15,-0.13,-0.27,-0.05,1721207669822
-0.78,-7.36,8.15,-0.30,-0.01,-0.44,1721207669832
-3.45,-2.77,13.52,-0.13,-0.03,-0.32,1721207669842
-3.50,4.29,5.23,-0.02,-0.11,0.03,1721207669852
-0.17,6.97,10.27,-0.01,0.20,0.22,1721207669862
2.12,3.01,4.74,0.14,-0.16,0.18,1721207669872
2.27,-8.43,0.14,-0.17,0.09,-0.23,1721207669882
-0.75,-10.44,20.09,-0.64,0.15,-0.50,1721207669892
-4.16,9.84,25.08,0.04,-0.27,-0.18,1721207669902
0.94,0.96,2.43,0.10,-0.05,0.32,1721207669912
1.38,-4.00,1.40,-0.04,0.06,0.37,1721207669922
5.60,6.09,9.64,0.20,0.28,-0.16,1721207669932
2.85,-2.11,10.74,-0.26,-0.15,-0.52,1721207669942
-5.37,1.60,18.33,-0.07,-0.11,-0.49,1721207669952
-3.17,-0.14,8.74,0.15,-0.07,0.09,1721207669962
-1.98,-4.25,5.04,-0.20,0.07,0.37,1721207669972
2.53,1.51,15.77,0.04,0.23,0.16,1721207669982
4.52,-2.54,12.13,-0.11,-0.10,-0.17,1721207669992
0.13,5.67,13.66,0.01,0.09,-0.37,1721207670002
0.75,5.08,13.97,0.21,0.08,-0.31,1721207670012
-3.45,-0.79,2.51,0.15,-0.24,-0.00,1721207670022
-0.46,-2.59,9.07,0.08,0.37,0.05,1721207670032
-0.36,3.10,10.81,0.22,-0.12,0.09,1721207670042
1.70,-0.14,10.32,0.07,0.17,-0.02,1721207670052
1.29,1.41,16.97,0.20,-0.06,-0.08,1721207670062
0.44,0.59,6.03,0.33,-0.11,-0.06,1721207670072
-0.48,-1.39,4.98,0.09,0.20,-0.10,1721207670082
-0.58,4.42,19.55,0.19,0.21,-0.19,1721207670092
-0.08,4.12,12.46,0.36,-0.08,-0.00,1721207670102
0.28,-0.97,5.20,0.18,0.09,0.14,1721207670112
0.62,-0.74,6.41,0.13,0.07,-0.04,1721207670122
3.40,-3.26,11.50,0.12,0.19,-0.16,1721207670132
-0.39,1.90,9.69,0.23,-0.15,-0.20,1721207670142
-2.22,4.41,7.02,0.23,0.08,-0.22,1721207670152
-1.06,-1.97,12.98,0.12,0.19,-0.12,1721207670162
-0.55,-3.98,9.91,0.14,0.03,0.02,1721207670172
-0.43,0.83,9.13,0.03,0.12,-0.00,1721207670182
-0.23,6.62,10.11,0.24,0.02,-0.11,1721207670192
1.53,-1.36,8.09,0.01,0.18,-0.22,1721207670202
-1.99,-2.31,12.48,-0.00,-0.08,-0.16,1721207670212
-1.17,3.14,6.80,0.03,0.19,-0.06,1721207670222
0.96,1.51,11.46,-0.28,0.19,-0.06,1721207670232
0.64,-4.17,8.46,-0.06,-0.07,-0.16,1721207670242
1.24,-2.28,5.39,-0.01,0.21,-0.22,1721207670252
-1.03,8.69,10.73,0.03,0.08,-0.22,1721207670262
-1.02,-1.05,1.78,-0.19,-0.10,-0.11,1721207670272
-1.68,-6.33,13.15,-0.48,0.29,-0.11,1721207670282
0.95,1.78,21.28,0.02,0.04,-0.04,1721207670292
2.87,2.71,7.32,-0.04,-0.01,-0.07,1721207670302
0.45,3.74,10.92,-0.12,0.18,-0.31,1721207670312
-0.47,-1.28,4.70,-0.11,0.03,-0.30,1721207670322
-2.53,3.02,16.29,-0.27,0.40,-0.23,1721207670332
-1.92,0.55,17.24,-0.03,-0.09,-0.10,1721207670342
-2.46,-5.37,-0.36,-0.11,-0.07,0.02,1721207670352
0.56,2.37,13.28,-0.17,0.53,0.07,1721207670362
2.56,5.74,11.56,0.14,-0.16,-0.01,1721207670372
0.40,-6.18,2.28,-0.18,0.08,-0.24,1721207670382
-2.48,-6.04,17.18,-0.17,0.24,-0.36,1721207670392
-1.42,9.41,18.28,0.26,0.10,-0.18,1721207670402
-0.80,7.86,6.68,0.13,0.02,0.04,1721207670412
-2.09,-3.71,9.07,0.02,0.01,0.13,1721207670422
-0.02,-0.10,7.97,0.32,0.14,0.01,1721207670432
2.56,-0.91,4.45,0.10,0.05,-0.03,1721207670442
0.39,1.81,17.69,-0.02,0.17,-0.23,1721207670452
-2.77,5.43,9.95,0.25,-0.27,-0.21,1721207670462
-4.39,-1.69,-0.66,-0.04,0.07,-0.01,1721207670472
0.40,-8.78,19.80,-0.21,0.49,0.21,1721207670482
0.57,-0.40,15.80,0.11,-0.27,0.19,1721207670492
-0.32,5.26,5.55,0.08,0.04,-0.08,1721207670502
1.46,5.29,15.49,0.19,0.24,-0.19,1721207670512
-0.97,-5.56,6.21,0.07,-0.28,0.05,1721207670522
-2.23,-2.74,8.75,-0.07,0.19,0.15,1721207670532
0.08,8.07,17.03,0.18,-0.05,0.18,1721207670542
1.80,-0.05,3.96,0.06,-0.11,0.05,1721207670552
-0.89,-4.36,3.79,-0.00,-0.00,-0.09,1721207670562
-1.11,-1.25,5.42,0.07,-0.03,0.06,1721207670572
0.89,-0.67,12.40,-0.17,0.10,0.13,1721207670582
0.53,1.74,15.19,-0.02,-0.13,-0.05,1721207670592
-0.06,0.01,11.49,-0.06,-0.02,-0.12,1721207670602
-1.75,1.37,11.63,-0.01,-0.18,0.10,1721207670612
-1.84,0.00,3.95,-0.07,-0.16,0.18,1721207670622
-0.24,-3.56,12.27,-0.28,0.10,0.10,1721207670632
-0.01,-0.10,18.11,0.11,-0.18,0.05,1721207670642
1.47,-3.04,3.87,0.04,-0.19,0.15,1721207670652
0.85,5.72,14.05,0.02,0.13,0.06,1721207670662
1.33,12.02,12.04,0.26,-0.27,-0.01,1721207670672
0.27,-7.07,2.64,-0.25,-0.16,-0.14,1721207670682
-0.21,-4.16,20.58,-0.09,0.17,-0.04,1721207670692
-2.15,3.66,7.55,0.15,-0.60,0.12,1721207670702
-0.05,2.78,6.95,-0.10,0.18,0.13,1721207670712
1.47,2.06,15.33,0.07,-0.20,0.04,1721207670722
-0.18,-0.77,7.86,0.01,-0.19,-0.16,1721207670732
-2.34,2.34,10.34,-0.02,-0.12,-0.12,1721207670742
-3.40,2.20,7.30,-0.05,-0.29,0.21,1721207670752
-1.24,1.85,11.00,-0.06,-0.04,0.31,1721207670762
2.25,-2.74,7.79,0.07,-0.29,0.30,1721207670772
3.33,-2.34,12.61,-0.22,0.01,-0.01,1721207670782
-0.37,6.49,15.50,0.09,-0.51,-0.12,1721207670792
-2.61,0.60,-3.05,-0.10,-0.41,-0.04,1721207670802
-1.81,-6.32,15.90,-0.48,0.32,-0.05,1721207670812
-1.39,1.63,18.59,0.15,-0.52,0.17,1721207670822
1.70,3.56,-2.04,0.02,-0.11,0.15,1721207670832
1.13,0.06,9.77,-0.40,-0.03,-0.04,1721207670842
-1.33,0.04,20.35,-0.11,-0.47,-0.16,1721207670852
-0.22,-1.26,9.20,0.02,-0.23,-0.08,1721207670862
-0.91,-5.28,5.10,-0.24,-0.37,0.09,1721207670872
-2.64,2.80,10.42,-0.11,-0.17,0.02,1721207670882
1.85,0.09,7.50,-0.06,-0.29,-0.02,1721207670892
2.41,-3.06,14.65,-0.21,-0.04,-0.12,1721207670902
2.82,0.73,13.39,0.06,-0.32,-0.17,1721207670912
1.47,-0.12,8.06,-0.11,-0.17,-0.24,1721207670922
-0.49,2.94,12.66,-0.03,-0.13,-0.26,1721207670932
1.05,-0.96,9.66,0.05,-0.20,-0.17,1721207670942
0.27,1.86,9.42,0.13,-0.14,-0.17,1721207670952
1.16,3.60,5.60,0.18,-0.13,-0.28,1721207670962
2.70,-2.47,13.45,-0.15,0.05,-0.39,1721207670972
-0.48,1.53,17.95,-0.07,-0.16,-0.47,1721207670982
-1.35,2.83,9.00,0.15,-0.26,-0.36,1721207670992
0.12,-0.29,5.50,0.06,0.03,-0.20,1721207671002
1.47,-8.72,10.62,-0.16,0.02,-0.33,1721207671012
0.08,4.97,16.26,0.22,0.02,-0.48,1721207671022
1.96,4.64,9.67,0.12,-0.08,-0.38,1721207671032
-1.28,-4.26,9.82,-0.04,-0.04,-0.34,1721207671042
-0.19,-3.39,10.20,0.18,0.15,-0.45,1721207671052
0.73,4.00,8.37,0.19,0.09,-0.42,1721207671062
-0.58,4.10,13.76,0.12,0.10,-0.33,1721207671072
-0.29,4.24,8.45,0.31,-0.05,-0.31,1721207671082
1.62,-0.62,3.01,0.10,0.15,-0.43,1721207671092
0.42,-1.02,10.79,-0.15,0.18,-0.53,1721207671102
-1.87,0.35,14.67,0.03,0.05,-0.61,1721207671112
-0.83,-6.99,3.22,0.04,0.03,-0.35,1721207671122
0.66,-6.39,3.95,-0.14,0.28,-0.18,1721207671132
2.25,7.67,23.57,0.25,0.36,-0.41,1721207671142
1.06,4.26,10.54,0.23,-0.24,-0.52,1721207671152
-4.50,4.01,11.90,-0.10,0.35,-0.57,1721207671162
-3.96,-3.54,10.88,-0.20,0.00,-0.35,1721207671172
-2.40,-5.97,15.22,-0.33,0.27,-0.07,1721207671182
1.50,4.57,5.33,0.25,0.07,0.03,1721207671192
4.77,-5.25,-1.89,-0.25,0.35,-0.39,1721207671202
0.28,-4.60,12.66,-0.29,0.19,-0.71,1721207671212
-2.22,3.94,17.46,0.26,-0.01,-0.55,1721207671222
-3.54,4.87,-2.08,-0.03,0.14,-0.24,1721207671232
-2.09,1.71,9.64,-0.19,0.41,0.03,1721207671242
2.20,-6.47,11.62,-0.20,-0.10,-0.06,1721207671252
0.34,1.95,10.80,0.09,0.29,-0.37,1721207671262
2.25,1.22,10.45,-0.13,0.26,-0.47,1721207671272
-2.60,-6.54,18.64,-0.59,0.13,-0.40,1721207671282
-2.09,10.10,22.62,0.06,0.28,-0.25,1721207671292
1.28,12.21,-0.97,0.31,0.01,-0.05,1721207671302
-0.23,-8.34,-8.10,-0.19,0.24,-0.18,1721207671312
-0.52,-12.22,16.13,-0.37,0.44,-0.32,1721207671322
2.07,10.95,14.59,0.11,-0.05,-0.36,1721207671332
0.17,-0.53,5.76,-0.12,0.18,-0.28,1721207671342
-6.06,-3.57,18.17,-0.39,0.21,-0.22,1721207671352
0.49,8.13,15.43,0.25,0.19,0.17,1721207671362
4.67,0.74,2.57,0.08,0.21,0.30,1721207671372
2.66,0.75,10.08,0.07,0.22,-0.25,1721207671382
1.03,6.47,10.24,0.42,0.18,-0.67,1721207671392
-4.75,-2.03,2.00,0.15,0.03,-0.53,1721207671402
-7.15,-4.92,4.65,0.20,0.19,0.12,1721207671412
0.10,-1.25,11.72,0.14,0.44,0.45,1721207671422
2.10,4.60,9.86,0.18,0.03,0.27,1721207671432
5.88,3.71,9.86,0.25,0.39,-0.29,1721207671442
1.37,-5.77,7.97,-0.07,-0.05,-0.44,1721207671452
-4.53,2.55,13.60,0.14,0.15,-0.20,1721207671462
-1.86,2.13,7.99,0.09,0.10,0.08,1721207671472
-2.72,-10.05,11.05,-0.37,0.09,0.01,1721207671482
-0.35,-1.55,23.65,0.09,0.29,0.02,1721207671492
2.43,11.00,4.35,0.35,-0.06,0.12,1721207671502
-0.46,-2.91,1.68,-0.33,0.08,-0.08,1721207671512
-1.07,-5.52,21.33,-0.19,0.10,-0.26,1721207671522
-2.53,2.79,8.10,0.28,-0.26,0.01,1721207671532
-1.54,0.43,4.35,-0.08,0.22,0.18,1721207671542
0.79,0.47,12.59,0.03,-0.01,0.23,1721207671552
2.31,-0.29,6.11,0.14,0.00,0.05,1721207671562
1.12,-0.79,10.66,-0.02,0.22,-0.27,1721207671572
-1.14,2.82,17.09,0.13,-0.01,-0.24,1721207671582
-2.40,4.05,7.53,0.20,-0.05,-0.01,1721207671592
-1.41,0.88,8.25,0.07,0.06,0.15,1721207671602
-0.57,-0.35,9.33,0.17,-0.04,0.13,1721207671612
0.65,-0.89,8.11,0.15,-0.00,0.05,1721207671622
0.01,3.95,3.32,0.32,-0.17,0.02,1721207671632
1.79,-2.41,8.20,-0.07,0.19,-0.03,1721207671642
0.25,4.68,24.70,0.10,0.07,-0.09,1721207671652
-0.64,6.77,6.48,0.38,-0.31,-0.11,1721207671662
-2.07,-5.63,-3.34,-0.20,0.07,-0.15,1721207671672
-1.02,-11.61,24.69,-0.56,0.56,-0.03,1721207671682
1.22,7.15,25.34,0.36,-0.17,0.01,1721207671692
1.18,-1.65,-7.58,-0.00,0.16,-0.28,1721207671707
0.99,-2.00,3.01,-0.13,0.21,-0.24,1721207671711
4.55,6.95,12.53,-0.05,0.03,-0.30,1721207671721
1.27,5.61,7.46,0.29,-0.01,-0.16,1721207671731
-1.07,0.22,0.67,-0.07,-0.12,-0.00,1721207671741
-0.32,-3.22,13.30,-0.19,0.31,-0.01,1721207671751
2.85,-0.38,20.31,0.02,0.05,0.03,1721207671761
0.40,6.70,4.37,0.21,-0.20,-0.13,1721207671771
1.54,-0.47,-0.33,-0.03,0.16,-0.18,1721207671781
0.88,-2.21,18.92,-0.11,0.34,-0.13,1721207671791
-0.72,3.63,10.60,0.18,-0.29,-0.18,1721207671801
-1.03,-3.56,1.67,-0.22,0.19,-0.29,1721207671811
-2.10,5.50,15.74,-0.03,0.21,-0.25,1721207671821
-0.50,-0.67,9.72,-0.23,0.01,-0.08,1721207671831
-4.11,-5.25,15.96,-0.41,0.13,-0.09,1721207671841
-0.18,-2.87,16.86,-0.07,0.14,-0.04,1721207671851
-0.29,4.10,7.85,-0.16,-0.07,-0.09,1721207671861
-0.50,4.70,7.07,-0.08,0.07,-0.11,1721207671871
0.88,-0.70,3.41,0.03,0.11,-0.12,1721207671881
-0.57,-3.40,5.19,-0.16,0.21,-0.27,1721207671891
-2.19,4.01,12.10,-0.07,0.07,-0.19,1721207671901
-0.17,-2.26,13.50,-0.25,0.20,-0.01,1721207671911
-0.72,-1.58,14.07,-0.18,0.02,0.03,1721207671921
0.15,4.43,7.22,0.06,0.03,-0.01,1721207671931
1.17,1.59,6.31,-0.10,0.11,0.04,1721207671941
1.63,-2.12,16.39,-0.19,0.25,-0.11,1721207671951
-0.89,-2.53,8.21,-0.05,-0.18,-0.14,1721207671961
-1.59,0.28,10.60,-0.33,0.42,-0.12,1721207671971
-0.18,4.62,21.05,-0.08,0.05,-0.05,1721207671981
0.58,-9.79,5.54,-0.06,-0.17,0.03,1721207671991
-1.42,-4.62,5.35,-0.05,0.31,-0.09,1721207672001
-0.10,5.46,18.47,0.12,0.32,-0.40,1721207672011
-5.95,1.62,9.24,0.12,-0.38,0.07,1721207672021
-0.17,7.97,11.29,0.26,0.45,0.44,1721207672031
6.11,-3.08,6.44,-0.00,-0.12,0.34,1721207672041
4.43,-2.69,14.67,-0.18,0.40,-0.30,1721207672051
0.25,12.89,16.08,0.36,-0.18,-0.43,1721207672061
-1.52,-5.86,-3.65,0.01,-0.06,-0.20,1721207672071
-4.63,-16.01,22.13,-0.41,0.79,-0.16,1721207672081
-1.90,8.43,23.09,0.44,-0.14,0.08,1721207672091
2.92,10.62,-6.05,0.36,0.14,0.27,1721207672101
3.79,-2.47,10.01,-0.19,0.45,0.03,1721207672111
1.09,-0.27,30.29,0.22,0.54,-0.38,1721207672121
-2.27,8.88,2.58,0.76,-0.39,-0.23,1721207672131
-3.31,-6.21,-10.37,-0.21,0.49,0.02,1721207672141
-6.40,-12.25,43.22,-0.43,1.04,0.19,1721207672151
-6.55,19.31,45.29,0.86,-0.49,0.13,1721207672161
4.02,-8.09,-27.47,0.50,-0.29,0.32,1721207672171
2.47,7.96,19.65,-0.23,0.97,-0.20,1721207672181
6.44,4.90,-3.45,-0.28,0.23,-1.08,1721207672191
-5.13,-0.47,17.01,0.17,0.51,-0.60,1721207672201
-10.86,-7.03,3.02,-0.22,-0.19,0.46,1721207672211
-1.56,-5.98,18.35,-0.18,0.34,0.62,1721207672221
6.92,0.34,13.63,0.21,-0.07,0.41,1721207672231
7.93,5.82,12.09,-0.14,0.35,-0.30,1721207672241
0.37,8.00,14.96,0.07,-0.10,-0.60,1721207672251
-3.70,-3.61,1.73,-0.08,0.07,-0.45,1721207672261
-5.65,-6.54,13.03,-0.38,0.28,0.11,1721207672271
-1.82,7.92,11.82,0.27,0.02,0.45,1721207672281
5.22,-2.59,-1.12,-0.21,0.09,0.27,1721207672291
6.75,-2.04,9.45,-0.38,0.25,-0.28,1721207672301
1.07,1.47,13.58,-0.09,0.14,-0.44,1721207672311
-2.32,-2.19,7.49,-0.29,0.07,-0.09,1721207672321
-2.43,-1.48,10.77,-0.29,0.13,0.20,1721207672331
0.66,2.29,12.89,-0.04,0.16,0.11,1721207672341
0.93,-0.66,8.12,-0.09,0.03,-0.02,1721207672351
-0.48,0.38,11.26,-0.16,0.20,-0.06,1721207672361
-0.28,-4.52,13.97,-0.40,0.06,0.02,1721207672371
-1.48,6.02,20.29,0.03,0.08,0.10,1721207672381
1.05,6.40,5.28,0.22,-0.15,0.22,1721207672391
1.87,0.08,2.82,0.03,0.24,0.06,1721207672401
2.93,-3.71,11.19,-0.08,0.15,-0.04,1721207672411
-0.28,2.88,9.78,0.13,0.07,-0.21,1721207672421
-1.37,-0.57,10.60,0.02,0.21,-0.27,1721207672431
-4.54,3.31,12.30,0.23,-0.07,0.04,1721207672441
-2.08,-1.30,4.67,0.08,0.09,0.30,1721207672451
3.27,-0.89,21.73,-0.09,0.47,0.16,1721207672461
4.19,3.99,15.92,0.22,-0.18,-0.07,1721207672471
0.68,1.37,1.95,0.13,0.04,-0.30,1721207672481
-1.28,-2.46,12.26,0.07,0.28,-0.40,1721207672491
-4.26,1.23,8.64,0.37,-0.09,-0.06,1721207672501
-1.78,-1.86,4.72,0.07,0.27,0.15,1721207672511
1.02,0.05,13.85,0.07,0.15,0.14,1721207672521
2.45,1.33,9.42,0.24,0.07,-0.12,1721207672531
0.86,2.44,7.45,0.11,0.17,-0.31,1721207672541
-1.58,-0.17,7.87,0.12,0.04,-0.26,1721207672551
-2.97,-1.65,6.08,0.06,0.06,-0.05,1721207672561
-1.34,2.95,11.60,0.11,0.27,0.04,1721207672571
0.62,-0.67,8.62,0.01,0.03,0.02,1721207672581
-0.64,-0.26,11.45,-0.02,0.11,-0.11,1721207672591
0.18,1.93,13.19,0.07,0.15,-0.11,1721207672601
-1.05,1.99,9.58,0.03,0.03,-0.16,1721207672611
-1.20,-3.40,7.07,-0.11,0.12,-0.03,1721207672621
-1.06,-2.56,12.18,-0.06,0.14,0.04,1721207672631
0.83,2.03,11.44,0.11,0.14,0.05,1721207672641
2.31,2.88,10.51,0.07,0.22,-0.10,1721207672651
0.49,-0.50,10.36,-0.00,0.03,-0.18,1721207672661
-2.54,1.23,11.97,0.05,0.07,-0.11,1721207672671
-1.44,5.84,7.34,0.29,0.14,-0.08,1721207672681
-0.15,-2.01,7.26,-0.01,0.30,-0.00,1721207672691
-2.97,0.58,8.28,0.17,-0.07,0.15,1721207672701
1.78,2.09,10.62,0.10,0.48,0.03,1721207672711
1.30,-0.27,15.65,0.04,0.03,0.04,1721207672721
-1.72,2.83,7.79,0.13,-0.01,0.00,1721207672731
-0.02,3.54,12.00,0.02,0.36,-0.03,1721207672741
-0.42,1.89,9.83,0.17,-0.03,0.05,1721207672751
-0.66,-0.89,2.85,-0.04,0.23,-0.02,1721207672761
-1.20,-2.43,14.15,-0.19,0.22,0.08,1721207672771
-0.88,-1.08,12.29,0.06,-0.01,0.08,1721207672781
0.48,-0.95,12.23,-0.05,0.23,0.03,1721207672791
-0.93,2.37,12.17,0.07,-0.04,0.13,1721207672801
-0.64,3.27,8.13,0.01,0.13,0.10,1721207672811
-1.20,1.75,8.22,0.05,0.02,0.03,1721207672821
-1.29,-1.87,6.31,-0.07,0.12,0.09,1721207672831
-1.24,-3.06,7.15,-0.09,0.06,0.18,1721207672841
0.26,-2.97,8.20,-0.16,0.13,0.26,1721207672851
1.02,1.95,12.96,-0.15,0.13,0.10,1721207672861
-0.44,2.80,4.77,0.01,-0.20,0.10,1721207672871
0.68,-3.98,4.90,-0.31,0.22,0.17,1721207672881
-0.72,-2.74,13.40,-0.29,0.04,0.20,1721207672891
-1.53,-5.94,11.36,-0.43,0.11,0.03,1721207672901
-2.46,2.21,16.94,-0.02,-0.03,0.13,1721207672911
1.14,-4.80,6.71,-0.23,-0.03,0.54,1721207672921
0.59,7.95,14.82,-0.12,0.23,0.39,1721207672931
3.61,3.02,9.17,-0.05,-0.15,0.08,1721207672941
2.21,-7.37,12.20,-0.42,0.13,-0.13,1721207672951
-3.02,-0.41,11.51,-0.07,-0.19,-0.02,1721207672961
-2.46,6.34,7.34,0.04,0.23,0.19,1721207672971
0.54,3.24,12.84,-0.03,0.13,0.32,1721207672981
0.81,-3.37,9.54,-0.02,-0.16,0.23,1721207672991
1.04,-2.32,12.89,-0.12,0.22,0.08,1721207673001
-0.86,6.24,16.23,0.02,-0.06,0.05,1721207673011
-1.97,3.26,10.30,0.09,-0.09,0.16,1721207673021
-0.97,0.03,5.62,0.18,-0.01,0.36,1721207673031
2.61,-0.67,9.22,0.14,0.16,0.28,1721207673041
2.56,-2.04,16.03,-0.02,0.01,0.08,1721207673051
-0.69,3.96,12.67,0.22,-0.12,-0.00,1721207673061
-1.03,0.91,7.88,0.18,-0.05,0.18,1721207673071
-0.46,1.54,7.92,0.25,0.03,0.32,1721207673081
2.26,1.31,6.05,0.26,0.03,0.19,1721207673091
0.52,-0.41,9.28,0.03,-0.03,0.02,1721207673101
-2.19,1.35,11.51,0.18,-0.11,0.09,1721207673111
-1.18,-3.32,10.15,0.07,0.03,0.25,1721207673121
-0.21,2.54,11.64,0.26,-0.04,0.41,1721207673131
2.51,0.63,5.09,0.06,-0.08,0.32,1721207673141
0.92,1.56,13.91,-0.06,-0.02,0.06,1721207673151
0.84,-1.71,13.43,0.07,-0.11,0.09,1721207673161
-0.77,-1.02,9.76,0.00,-0.08,0.21,1721207673171
0.04,-1.18,6.66,0.02,-0.11,0.29,1721207673181
1.86,1.26,10.95,-0.04,0.05,0.13,1721207673191
1.17,2.47,16.17,-0.03,-0.16,0.01,1721207673201
-0.70,1.77,9.60,0.08,-0.24,0.04,1721207673211
-1.42,1.47,5.28,-0.16,-0.08,0.20,1721207673221
-0.86,2.45,14.33,-0.15,-0.05,0.20,1721207673231
0.95,0.18,3.75,-0.06,-0.31,0.14,1721207673241
1.70,-3.38,6.20,-0.26,0.11,0.02,1721207673251
1.42,-0.35,14.14,-0.07,-0.11,0.01,1721207673261
-0.20,1.01,9.77,-0.10,-0.10,-0.02,1721207673271
-1.92,1.18,8.22,-0.11,-0.13,-0.02,1721207673281
0.25,-1.28,16.33,-0.15,0.12,0.02,1721207673291
0.08,3.35,11.16,0.11,-0.30,0.11,1721207673301
1.34,-1.44,2.80,-0.07,-0.04,0.08,1721207673311
2.42,0.27,13.70,-0.12,0.13,-0.08,1721207673321
0.82,0.91,15.14,-0.07,-0.17,-0.22,1721207673331
-1.31,2.02,12.93,-0.04,-0.03,-0.16,1721207673341
-2.35,4.75,7.28,0.01,-0.17,-0.00,1721207673351
-0.62,-1.17,4.37,-0.11,-0.05,0.18,1721207673361
1.79,-4.50,5.97,-0.16,-0.03,0.16,1721207673371
2.80,-1.12,11.67,-0.12,-0.07,-0.04,1721207673381
4.13,2.63,17.42,-0.06,0.10,-0.25,1721207673391
0.04,-2.52,9.48,-0.16,-0.21,-0.37,1721207673401
-3.39,-0.84,14.27,-0.16,0.16,-0.28,1721207673411
-0.66,5.07,18.84,0.07,0.09,-0.00,1721207673421
-1.82,1.13,1.37,0.13,-0.39,0.08,1721207673431
1.52,-3.74,7.86,0.02,0.38,-0.04,1721207673441
2.05,2.22,14.07,0.18,-0.07,-0.13,1721207673451
-2.11,-0.32,5.01,-0.01,-0.14,-0.41,1721207673461
-4.01,1.77,13.32,0.08,0.17,-0.37,1721207673471
-2.69,-1.68,7.04,0.21,-0.17,0.11,1721207673481
-1.25,-7.08,-1.32,0.03,0.08,0.29,1721207673491
5.71,-2.32,17.49,-0.02,0.51,-0.02,1721207673501
4.40,6.47,20.03,0.12,-0.20,-0.49,1721207673511
-3.35,1.14,4.38,0.04,-0.24,-0.67,1721207673521
-5.35,-5.02,17.20,-0.19,0.33,-0.38,1721207673531
-5.38,3.84,19.06,0.10,-0.19,0.20,1721207673541
-1.31,3.76,1.72,0.21,-0.03,0.36,1721207673551
3.29,2.15,12.56,0.08,0.27,0.06,1721207673561
1.16,2.50,8.72,0.29,-0.30,-0.22,1721207673571
0.15,-4.59,4.79,0.06,0.15,-0.30,1721207673581
-1.96,0.76,15.53,0.06,0.13,-0.25,1721207673591
-0.98,5.29,13.43,0.30,-0.06,-0.03,1721207673601
-0.03,3.50,6.28,0.23,-0.02,0.09,1721207673611
0.79,-1.05,4.73,0.23,0.02,0.01,1721207673621
1.85,-0.95,9.76,0.02,0.19,-0.19,1721207673631
-1.50,2.08,13.69,0.05,-0.10,-0.26,1721207673641
-3.72,0.28,9.30,0.07,0.05,-0.11,1721207673651
1.97,5.49,19.00,-0.10,-0.42,-0.13,1721207674198
3.69,5.10,13.43,0.14,-0.24,-0.32,1721207674203
-0.15,-1.83,0.89,-0.27,-0.19,-0.35,1721207674213
-2.61,1.85,11.34,-0.13,0.09,-0.30,1721207674223
-0.43,-0.46,10.07,-0.14,-0.19,-0.06,1721207674233
-1.26,1.50,9.46,-0.12,-0.13,-0.05,1721207674243
1.56,-1.26,7.50,-0.05,-0.10,-0.06,1721207674253
2.34,-2.90,11.80,-0.25,0.07,-0.21,1721207674263
1.11,3.10,14.99,-0.07,-0.08,-0.36,1721207674273
0.87,1.17,8.41,-0.03,-0.11,-0.38,1721207674283
-0.70,-1.92,9.33,-0.14,-0.00,-0.31,1721207674293
-0.08,3.73,14.23,0.06,0.06,-0.26,1721207674303
0.25,1.18,9.47,-0.03,-0.11,-0.15,1721207674313
0.22,-1.81,10.94,-0.15,0.05,-0.25,1721207674323
1.09,0.40,10.06,0.01,-0.02,-0.34,1721207674333
0.31,1.26,7.75,0.03,0.03,-0.39,1721207674343
-0.57,-1.16,12.28,-0.01,0.08,-0.37,1721207674352
-1.78,0.08,10.34,0.07,-0.02,-0.27,1721207674362
-1.35,-0.60,8.05,0.02,0.12,-0.27,1721207674372
-0.07,0.11,13.63,0.03,0.17,-0.34,1721207674382
-0.52,1.11,7.78,0.16,-0.05,-0.30,1721207674392
0.29,1.46,10.87,0.14,0.34,-0.35,1721207674402
0.23,-1.63,12.12,0.09,0.05,-0.39,1721207674412
-2.64,4.00,11.38,0.12,0.11,-0.38,1721207674422
-0.79,7.49,9.31,0.22,0.11,-0.30,1721207674432
-0.22,-4.92,6.89,-0.06,0.02,-0.22,1721207674442
-0.55,-3.14,13.11,0.07,0.24,-0.24,1721207674452
0.86,1.30,8.52,0.18,0.05,-0.36,1721207674462
-1.34,1.65,7.61,-0.01,0.11,-0.39,1721207674472
0.33,1.96,18.50,0.02,0.38,-0.40,1721207674482
-1.20,-3.42,11.17,0.02,-0.06,-0.27,1721207674492
-3.69,1.12,8.35,0.04,0.20,-0.17,1721207674502
0.54,1.07,9.77,0.11,0.18,-0.07,1721207674512
1.38,1.19,7.99,0.10,0.10,-0.15,1721207674522
1.34,0.23,9.16,0.15,0.21,-0.34,1721207674532
-1.00,-3.06,6.45,0.03,0.07,-0.43,1721207674542
-2.59,3.05,11.88,0.07,0.25,-0.29,1721207674552
-0.97,3.92,11.54,0.04,0.15,-0.07,1721207674562
-1.81,-0.45,8.54,-0.06,0.04,-0.09,1721207674572
-1.01,-2.27,8.77,0.02,0.16,-0.09,1721207674582
0.77,0.13,7.37,0.06,0.11,-0.01,1721207674592
1.06,-2.37,7.99,-0.17,0.13,-0.06,1721207674602
0.44,-0.85,18.06,-0.03,0.16,-0.21,1721207674612
0.52,-0.15,10.18,0.19,0.04,-0.19,1721207674622
-1.30,5.82,9.16,0.06,0.24,-0.19,1721207674632
-1.21,5.16,11.60,0.01,0.09,-0.02,1721207674642
-2.34,-2.33,10.23,-0.14,-0.01,0.06,1721207674652
-0.88,3.89,15.15,0.12,0.23,0.04,1721207674662
0.96,3.17,6.39,0.07,-0.09,0.10,1721207674672
0.63,-1.71,10.21,-0.21,0.24,0.02,1721207674682
1.19,1.40,17.07,0.04,0.04,-0.12,1721207674692
-0.64,4.42,4.04,0.14,-0.08,-0.06,1721207674702
-0.89,2.36,9.39,-0.06,0.35,-0.03,1721207674712
-0.20,-0.29,11.58,0.01,-0.06,0.07,1721207674722
-0.48,-2.70,8.93,-0.13,0.12,-0.03,1721207674732
-0.42,1.17,13.93,0.01,0.12,-0.08,1721207674742
-0.58,0.62,6.99,0.05,-0.04,0.06,1721207674752
-0.15,-0.54,6.66,0.03,0.17,0.11,1721207674762
0.37,-0.74,8.77,-0.03,0.11,-0.02,1721207674772
-0.18,1.85,12.37,-0.02,0.13,-0.18,1721207674782
-0.61,0.50,9.11,-0.07,-0.04,-0.17,1721207674792
-3.22,-1.63,-0.06,-0.07,-0.05,0.15,1721207674802
1.02,-6.33,10.12,-0.42,0.40,0.09,1721207674812
-0.20,-2.20,18.98,-0.15,-0.09,0.02,1721207674822
0.60,1.27,6.74,0.12,-0.08,-0.00,1721207674832
1.66,1.74,7.73,-0.24,0.25,0.00,1721207674842
0.03,-1.53,19.16,-0.40,0.01,-0.06,1721207674852
-0.15,-3.90,14.19,-0.10,-0.05,-0.05,1721207674862
0.22,0.03,4.79,-0.08,0.04,-0.01,1721207674872
-0.25,2.42,10.32,-0.20,0.19,0.02,1721207674882
0.13,2.69,15.15,-0.09,0.09,0.00,1721207674892
1.46,-0.94,10.73,-0.05,-0.02,-0.02,1721207674902
-0.23,-1.07,6.94,-0.11,-0.02,-0.13,1721207674912
-1.00,1.08,12.12,-0.03,0.06,-0.01,1721207674922
-0.62,2.66,13.53,0.07,0.04,0.11,1721207674932
-0.17,2.04,8.43,0.13,0.03,0.06,1721207674942
1.24,-2.09,9.89,-0.00,0.09,0.01,1721207674952
0.11,-1.47,14.83,0.02,-0.00,-0.12,1721207674962
-0.58,2.82,14.76,0.16,0.07,0.00,1721207674972
-0.00,4.88,10.25,0.26,0.03,0.18,1721207674982
0.62,-0.89,7.88,0.20,0.04,0.08,1721207674992
1.86,1.25,7.58,0.35,0.11,-0.07,1721207675002
2.11,2.27,8.30,0.26,0.12,-0.17,1721207675012
-1.42,-0.86,13.15,0.16,0.02,-0.11,1721207675022
-1.62,2.80,10.52,0.41,0.00,0.04,1721207675032
2.18,4.86,2.52,0.48,0.09,0.15,1721207675042
2.87,-5.98,3.91,-0.07,0.06,-0.03,1721207675052
-0.99,2.22,24.81,0.01,0.19,-0.42,1721207675062
-3.00,9.45,8.78,0.58,-0.30,-0.20,1721207675072
-1.00,-12.05,-5.94,-0.14,0.23,0.13,1721207675082
-4.86,-5.25,16.98,-0.14,-0.02,0.05,1721207675092
-0.57,0.65,14.05,0.32,-0.56,0.09,1721207675102
1.55,-1.15,0.28,0.21,0.38,-0.05,1721207675112
0.64,5.32,8.22,0.14,0.19,-0.08,1721207675122
1.85,4.39,13.25,0.12,0.03,-0.10,1721207675132
-1.27,0.02,12.24,0.01,-0.08,-0.14,1721207675142
-1.18,-0.72,7.86,-0.08,0.04,-0.03,1721207675152
-0.04,2.53,12.78,-0.07,0.10,-0.01,1721207675162
0.81,-0.51,4.04,0.02,-0.16,-0.05,1721207675172
1.27,-4.30,6.14,-0.16,0.22,-0.18,1721207675182
-0.85,-1.15,12.24,-0.11,0.00,-0.24,1721207675192
-2.64,3.79,12.10,-0.11,0.01,-0.09,1721207675202
-1.55,1.73,10.36,-0.10,-0.03,0.12,1721207675212
1.28,-1.59,6.69,-0.22,0.08,0.15,1721207675222
3.34,-1.82,12.79,-0.17,0.17,0.01,1721207675232
3.69,-2.63,11.04,-0.24,0.05,-0.23,1721207675242
0.57,5.97,23.28,-0.08,0.16,-0.42,1721207675252
-3.35,5.37,6.98,0.22,-0.40,-0.17,1721207675262
-3.46,-0.51,-1.69,-0.10,0.30,0.06,1721207675272
1.24,-1.68,17.89,-0.13,0.22,0.14,1721207675282
2.39,3.33,3.86,0.18,-0.23,0.08,1721207675292
3.37,-2.09,3.93,-0.17,0.32,-0.30,1721207675302
-1.29,-3.90,18.12,-0.08,0.03,-0.40,1721207675312
-2.24,1.22,12.71,0.09,0.10,-0.09,1721207675322
-0.07,6.51,6.42,0.09,0.18,0.08,1721207675332
3.01,0.66,12.05,-0.13,0.28,-0.13,1721207675342
1.41,-1.04,17.03,0.04,-0.05,-0.16,1721207675352
-1.20,0.04,5.57,0.09,-0.02,-0.24,1721207675362
-1.48,1.54,7.03,-0.03,0.32,-0.26,1721207675372
0.29,-1.39,13.67,-0.06,0.18,-0.21,1721207675382
-1.54,-1.17,12.33,0.06,0.08,-0.09,1721207675392
-1.90,2.12,8.15,0.19,0.12,-0.06,1721207675402
0.46,5.61,5.87,0.28,0.15,0.05,1721207675412
2.22,-0.93,7.34,-0.11,0.16,-0.12,1721207675422
0.03,-4.47,16.07,-0.14,-0.01,-0.28,1721207675432
-1.21,2.79,12.36,0.20,0.16,-0.29,1721207675442
-2.22,-2.55,3.24,-0.21,-0.01,-0.16,1721207675452
-3.90,-3.66,18.61,-0.19,0.40,-0.17,1721207675462
1.04,3.00,16.61,0.25,0.14,0.08,1721207675472
-0.89,-1.93,-0.71,-0.09,-0.14,-0.00,1721207675482
-0.65,1.44,14.44,0.00,0.45,-0.15,1721207675492
1.47,4.31,14.95,0.19,-0.09,-0.07,1721207675502
-0.81,3.76,8.15,0.01,0.05,-0.08,1721207675512
-1.08,2.84,10.28,0.00,0.07,-0.14,1721207675522
-1.34,-4.51,8.72,-0.11,-0.02,-0.10,1721207675532
-1.40,-0.33,10.80,-0.02,0.20,-0.07,1721207675542
-0.21,-0.70,11.09,-0.00,0.07,-0.08,1721207675552
-2.10,1.51,11.79,0.14,-0.01,-0.05,1721207675562
-0.60,5.23,6.76,0.36,0.09,0.09,1721207675572
0.67,-0.49,5.37,-0.03,0.07,0.11,1721207675582
-0.79,-0.65,15.05,0.01,0.03,-0.00,1721207675592
2.10,-0.41,10.64,0.23,0.07,-0.03,1721207675602
1.03,2.86,7.80,0.12,0.06,-0.08,1721207675612
-1.51,1.46,5.86,0.16,-0.05,-0.09,1721207675622
0.11,0.73,15.48,0.02,0.36,-0.07,1721207675632
-1.03,5.23,14.10,0.17,-0.12,-0.08,1721207675642
-2.35,4.01,6.68,0.09,-0.00,-0.05,1721207675652
-0.07,-1.66,8.71,-0.07,0.07,0.15,1721207675662
-0.84,-0.15,8.71,-0.06,-0.05,0.07,1721207675672
-0.55,-0.71,8.60,-0.02,0.13,-0.15,1721207675682
-2.60,-1.35,9.75,-0.07,-0.06,-0.04,1721207675692
-2.59,-1.15,15.71,-0.16,0.04,0.18,1721207675702
-0.73,2.15,14.44,0.12,-0.09,0.35,1721207675712
4.27,7.79,7.08,0.11,0.24,0.10,1721207675722
3.90,0.51,8.97,-0.25,-0.07,-0.16,1721207675732
-2.41,0.22,7.12,0.06,-0.16,-0.24,1721207675742
-2.12,-3.54,4.97,-0.12,0.17,-0.03,1721207675752
-4.94,-3.19,9.91,-0.18,-0.19,0.29,1721207675762
-0.25,-0.22,8.28,0.06,0.02,0.41,1721207675772
4.73,3.29,7.87,-0.02,0.03,0.28,1721207675782
2.00,0.07,5.85,-0.23,-0.16,-0.13,1721207675792
0.68,-2.89,16.62,-0.24,0.13,-0.32,1721207675802
-3.65,-0.09,10.19,-0.09,-0.24,-0.09,1721207675812
-3.67,-5.84,7.89,-0.47,0.10,0.23,1721207675822
-1.44,-2.27,22.84,-0.29,0.03,0.35,1721207675832
3.21,6.28,12.67,0.06,-0.15,0.33,1721207675842
5.86,3.52,2.83,-0.16,0.07,0.04,1721207675852
1.93,2.55,9.62,-0.04,-0.07,-0.26,1721207675862
-0.82,-4.15,5.34,-0.11,-0.09,-0.36,1721207675872
-5.35,0.28,11.11,-0.12,0.03,-0.14,1721207675882
-1.41,2.65,13.33,0.06,-0.01,0.25,1721207675892
1.58,-2.98,8.05,-0.16,-0.02,0.39,1721207675902
3.38,1.60,17.02,-0.07,0.23,0.01,1721207675912
3.00,1.16,12.76,0.09,-0.24,-0.18,1721207675922
-1.18,-1.79,6.22,0.03,-0.01,-0.21,1721207675932
-1.25,3.27,13.54,0.23,0.13,-0.07,1721207675942
-2.31,-0.04,5.35,0.16,-0.32,0.22,1721207675952
-0.53,0.60,10.35,0.12,0.22,0.18,1721207675962
3.06,1.78,11.74,0.21,-0.02,-0.09,1721207675972
1.28,-0.43,7.78,0.06,-0.04,-0.14,1721207675982
0.31,1.57,17.32,0.18,0.20,-0.17,1721207675992
-0.60,3.57,9.89,0.34,-0.21,0.01,1721207676002
-0.77,1.37,3.75,0.26,0.06,0.10,1721207676012
2.03,-3.48,9.71,0.08,0.12,0.02,1721207676022
0.33,0.45,21.12,0.06,0.04,-0.19,1721207676032
-1.48,3.77,8.71,0.38,-0.31,-0.12,1721207676042
-0.89,-2.29,1.30,0.21,0.16,-0.07,1721207676052
0.75,1.78,17.38,0.09,0.30,-0.05,1721207676062
-1.60,4.72,8.90,0.29,-0.31,-0.16,1721207676072
-1.77,-3.96,6.67,0.04,0.18,-0.16,1721207676082
-1.39,-1.67,14.10,0.08,0.01,-0.00,1721207676092
-1.39,3.23,9.97,0.17,-0.07,0.08,1721207676102
0.73,8.81,6.57,0.27,0.09,0.04,1721207676112
2.29,-0.50,0.84,0.00,-0.06,-0.11,1721207676122
0.68,-2.95,11.78,-0.25,0.15,-0.28,1721207676132
-1.61,-1.87,11.84,-0.02,-0.19,-0.14,1721207676142
-0.68,-2.50,8.14,-0.26,0.14,-0.09,1721207676152
-0.65,2.18,12.57,-0.04,-0.05,-0.04,1721207676162
1.97,2.02,3.62,-0.04,0.05,-0.12,1721207676172
1.27,0.79,12.24,-0.31,0.12,-0.24,1721207676182
-0.67,-0.64,18.39,-0.22,-0.00,-0.31,1721207676192
-3.10,2.20,5.82,-0.12,-0.12,-0.07,1721207676207
-1.54,0.41,5.65,-0.14,-0.01,0.03,1721207676211
-0.04,-3.34,4.04,-0.25,0.08,0.04,1721207676221
2.71,-1.66,9.89,-0.07,0.15,-0.11,1721207676231
2.41,-1.76,7.66,-0.17,0.02,-0.30,1721207676241
-1.91,2.21,16.89,-0.07,0.17,-0.43,1721207676251
-1.62,5.50,12.92,0.13,0.03,-0.12,1721207676261
0.98,3.24,7.38,-0.04,0.16,0.14,1721207676271
1.75,-0.80,6.15,-0.09,0.01,0.02,1721207676281
4.33,-4.84,17.30,-0.16,0.51,-0.43,1721207676291
-0.55,5.20,16.65,0.15,-0.05,-0.59,1721207676301
-5.51,2.55,6.18,0.00,0.09,-0.33,1721207676311
-4.91,0.69,16.93,0.06,0.33,0.08,1721207676321
-0.23,2.42,7.73,0.21,-0.03,0.38,1721207676331
3.23,-3.57,4.87,0.02,0.29,0.13,1721207676341
5.15,0.48,15.19,0.16,0.30,-0.31,1721207676351
0.85,5.41,9.35,0.29,-0.06,-0.46,1721207676361
-2.64,1.19,7.18,0.15,0.22,-0.38,1721207676371
-3.84,2.29,14.08,0.17,0.23,-0.08,1721207676381
-1.40,-2.74,7.67,0.07,0.08,0.22,1721207676391
1.78,-2.09,9.15,0.07,0.30,0.05,1721207676401
2.19,3.58,7.05,0.28,0.03,-0.24,1721207676411
0.11,-1.17,3.05,0.10,0.17,-0.37,1721207676421
-4.11,-3.58,11.03,-0.01,0.16,-0.26,1721207676431
-3.76,3.56,13.64,0.26,0.19,0.04,1721207676441
-0.71,-0.18,5.88,-0.03,0.11,0.24,1721207676451
1.18,-0.38,14.89,-0.13,0.23,0.07,1721207676461
2.03,2.68,11.74,0.17,-0.05,-0.13,1721207676471
0.34,-3.50,3.16,-0.07,0.07,-0.21,1721207676481
-3.40,-4.59,10.61,-0.24,0.15,-0.17,1721207676491
-2.97,0.14,19.19,0.02,0.13,-0.02,1721207676501
-1.37,5.47,9.38,0.26,-0.05,0.21,1721207676511
0.93,5.04,5.93,0.08,0.20,0.13,1721207676521
0.32,-0.93,7.28,-0.01,-0.07,0.06,1721207676531
-0.62,-2.29,9.28,-0.06,0.10,-0.05,1721207676541
0.52,-0.86,14.01,-0.04,0.20,-0.02,1721207676551
-0.60,3.29,14.43,0.02,-0.02,0.05,1721207676561
-0.84,7.13,15.41,0.23,0.07,0.06,1721207676571
-0.35,-2.86,3.75,0.02,-0.11,0.13,1721207676581
-1.65,-1.81,7.14,-0.09,0.12,0.10,1721207676591
0.52,-0.60,13.79,-0.03,0.11,0.08,1721207676601
-2.68,3.65,5.13,0.17,-0.31,0.16,1721207676611
0.64,0.41,6.82,0.12,0.25,0.21,1721207676621
0.69,1.08,10.88,0.03,-0.08,0.14,1721207676631
-0.70,2.03,13.15,-0.11,0.00,0.02,1721207676641
-0.92,2.82,19.67,-0.10,-0.02,0.02,1721207676651
-2.93,-1.57,4.35,0.07,-0.38,0.27,1721207676661
0.34,3.60,2.54,0.04,0.25,0.34,1721207676671
3.99,0.73,9.67,-0.15,-0.12,0.22,1721207676681
0.09,1.95,9.45,-0.05,-0.17,-0.11,1721207676691
-1.57,-3.47,9.42,-0.24,-0.06,-0.16,1721207676701
-4.90,-4.96,16.04,-0.32,-0.22,0.19,1721207676711
-2.48,1.47,13.89,0.02,-0.12,0.44,1721207676721
1.96,8.09,6.57,0.17,-0.17,0.37,1721207676731
1.58,-4.48,3.20,-0.35,-0.26,0.15,1721207676741
-2.09,-6.87,21.04,-0.38,-0.03,-0.18,1721207676751
-1.80,0.45,13.76,0.23,-0.31,-0.01,1721207676761
0.87,3.54,4.35,-0.11,-0.01,0.32,1721207676771
0.14,5.19,10.54,0.05,-0.33,0.42,1721207676781
3.51,0.93,5.67,0.08,-0.11,0.20,1721207676791
2.25,-0.79,10.55,-0.14,-0.13,-0.17,1721207676801
-1.28,-2.47,10.54,-0.16,-0.29,-0.24,1721207676811
-4.79,-3.81,4.88,-0.19,-0.29,0.04,1721207676821
-2.89,-5.71,15.11,-0.26,0.11,0.37,1721207676831
2.60,3.82,16.84,0.14,-0.18,0.45,1721207676841
4.80,1.60,3.14,0.07,-0.27,0.16,1721207676851
4.62,0.05,20.50,-0.27,0.20,-0.36,1721207676861
-1.39,3.39,17.84,0.09,-0.64,-0.27,1721207676871
-3.12,0.97,0.14,0.19,-0.11,0.04,1721207676881
0.19,1.17,12.84,-0.01,0.19,0.21,1721207676891
-0.01,3.53,3.56,0.21,-0.42,0.27,1721207676901
6.90,-0.23,12.72,-0.13,0.41,-0.15,1721207676911
1.80,1.08,22.58,-0.06,-0.46,-0.30,1721207676921
-1.96,1.82,4.45,0.25,-0.26,-0.22,1721207676931
0.97,1.78,5.27,0.12,0.18,-0.02,1721207676941
1.09,2.54,6.79,0.11,-0.15,0.03,1721207676951
1.09,-3.05,10.40,-0.03,-0.03,-0.15,1721207676961
-0.56,-2.54,11.60,0.11,-0.10,-0.34,1721207676971
-1.72,-2.71,6.85,0.02,0.04,-0.23,1721207676981
-0.88,1.32,18.56,0.06,0.17,-0.07,1721207676991
1.12,5.23,7.68,0.31,-0.30,0.17,1721207677001
4.58,0.44,5.80,0.01,0.26,-0.15,1721207677011
3.02,0.94,10.83,0.15,-0.13,-0.57,1721207677021
-1.28,-1.91,4.89,-0.02,-0.04,-0.63,1721207677031
-6.63,-3.82,10.52,-0.06,-0.01,-0.42,1721207677041
-4.38,-3.31,7.04,0.15,0.03,0.06,1721207677051
0.21,4.57,12.62,0.16,0.27,0.16,1721207677061
3.34,1.98,9.27,0.02,-0.12,-0.05,1721207677071
2.37,-2.21,19.33,-0.26,0.26,-0.44,1721207677081
-0.96,6.38,20.10,0.17,-0.16,-0.43,1721207677091
-1.49,-0.36,2.81,-0.11,0.01,-0.13,1721207677101
-0.23,-1.42,11.60,-0.09,0.26,-0.09,1721207677111
1.17,1.72,7.93,0.15,-0.11,-0.18,1721207677121
0.39,3.35,4.93,-0.05,0.20,-0.26,1721207677131
-1.47,2.95,14.79,0.01,0.08,-0.35,1721207677141
-2.50,1.27,13.52,0.02,-0.00,-0.14,1721207677151
-2.09,2.29,5.26,0.02,-0.11,0.12,1721207677161
2.20,0.89,8.81,-0.07,0.21,0.01,1721207677171
5.12,-2.65,13.17,-0.09,0.10,-0.29,1721207677181
0.25,0.05,8.96,-0.01,-0.09,-0.48,1721207677191
-3.06,0.51,10.57,-0.09,0.18,-0.45,1721207677201
-4.85,2.78,12.26,-0.02,0.06,-0.21,1721207677211
-2.25,-2.54,8.52,-0.08,0.05,0.17,1721207677221
2.60,-0.71,4.64,0.09,0.14,0.22,1721207677231
5.45,-3.02,3.88,-0.23,0.19,-0.15,1721207677241
0.58,0.57,16.81,-0.07,0.02,-0.54,1721207677251
-1.78,1.50,9.90,0.18,0.04,-0.57,1721207677261
-4.78,-2.33,9.99,-0.38,0.17,-0.19,1721207677271
-3.23,0.28,18.71,-0.06,0.10,0.17,1721207677281
3.65,0.39,8.84,-0.01,0.21,0.14,1721207677291
3.07,2.94,7.90,-0.08,0.11,-0.29,1721207677301
-0.19,3.41,11.72,0.04,0.17,-0.66,1721207677311
-4.59,0.75,9.84,0.02,-0.04,-0.39,1721207677321
-5.19,-2.12,10.35,-0.10,0.12,0.12,1721207677331
-1.35,1.40,9.04,0.04,0.06,0.39,1721207677341
4.09,0.54,8.61,0.01,0.19,0.16,1721207677351
5.30,-0.95,9.62,0.01,0.09,-0.29,1721207677361
0.47,-1.03,10.21,0.01,0.05,-0.54,1721207677371
-2.48,-0.41,14.43,-0.02,0.20,-0.37,1721207677381
-3.13,0.50,14.42,0.05,0.10,-0.09,1721207677391
-1.64,3.69,11.98,0.21,0.11,0.12,1721207677401
1.20,0.19,2.32,0.23,-0.02,0.08,1721207677411
0.40,0.94,3.34,0.16,0.15,-0.13,1721207677421
1.22,3.12,15.97,0.05,0.37,-0.27,1721207677431
-2.64,-1.90,7.84,0.03,-0.22,-0.19,1721207677441
-2.99,-3.22,11.11,-0.09,0.36,-0.06,1721207677451
0.10,0.63,15.61,0.12,0.06,0.06,1721207677461
1.05,2.60,8.57,0.06,0.07,0.06,1721207677471
1.02,4.94,9.15,0.20,0.13,-0.17,1721207677481
-0.53,-2.57,6.77,-0.04,-0.02,-0.31,1721207677491
-4.85,1.47,14.27,0.02,0.01,-0.15,1721207677501
-2.59,2.25,8.67,0.24,0.03,0.12,1721207677511
-1.04,-3.46,8.88,-0.13,0.12,0.16,1721207677521
0.51,1.76,18.45,0.19,0.14,0.07,1721207677531
2.68,4.28,6.54,0.33,-0.00,0.00,1721207677541
0.64,-2.05,5.00,-0.11,0.05,-0.14,1721207677551
-0.72,7.98,19.99,0.28,0.09,-0.18,1721207677561
-0.40,2.49,2.95,0.30,-0.27,0.08,1721207677571
-1.34,-5.67,3.65,-0.17,0.18,0.10,1721207677581
-0.12,0.66,13.28,0.06,0.02,0.07,1721207677591
1.89,-0.48,6.94,-0.06,0.03,0.06,1721207677601
-0.35,-2.89,12.45,-0.19,0.01,-0.02,1721207677611
-1.25,1.76,10.84,0.14,-0.02,-0.00,1721207677621
0.42,2.50,5.52,-0.00,0.06,0.13,1721207677631
1.02,2.45,12.97,-0.16,0.13,0.13,1721207677641
1.02,-2.42,19.53,-0.20,-0.07,0.06,1721207677651
-2.67,-2.33,7.70,0.05,-0.37,-0.01,1721207677661
-0.26,2.96,-0.48,0.06,0.20,-0.04,1721207677671
3.33,1.78,12.85,-0.33,0.24,0.01,1721207677681
-2.68,3.08,16.62,-0.08,-0.29,0.09,1721207677691
-2.47,-0.87,4.97,-0.01,-0.07,0.04,1721207677701
-0.32,-0.51,4.71,-0.20,0.15,0.16,1721207677711
-0.51,-3.88,6.29,-0.35,-0.18,0.23,1721207677721
1.73,0.47,14.75,-0.09,0.09,0.20,1721207677731
3.79,-3.58,11.88,-0.08,-0.17,0.10,1721207677741
1.08,1.33,17.11,-0.15,0.03,-0.13,1721207677751
0.14,8.34,15.90,-0.01,-0.16,-0.26,1721207677761
-2.89,-0.64,5.21,-0.32,-0.15,-0.15,1721207677771
-4.19,-3.85,13.00,-0.11,0.11,0.08,1721207677781
-0.95,-0.65,5.63,0.14,-0.12,0.25,1721207677791
0.92,-1.55,2.51,-0.02,0.00,0.25,1721207677801
4.12,7.02,17.48,0.09,0.21,0.03,1721207677811
0.61,10.39,9.59,0.02,-0.43,-0.12,1721207677821
1.27,-7.54,8.64,-0.38,0.12,-0.25,1721207677831
-1.29,-3.60,16.19,-0.12,-0.00,-0.16,1721207677841
-2.69,0.94,2.82,-0.00,-0.24,0.02,1721207677851
0.45,-4.82,12.09,-0.27,0.31,0.04,1721207677861
0.14,1.05,19.07,0.12,-0.26,0.10,1721207677871
2.04,4.83,3.45,0.17,-0.03,0.01,1721207677881
1.84,-2.41,7.08,-0.17,0.03,-0.11,1721207677891
-0.54,-0.09,15.18,-0.01,-0.03,-0.26,1721207677901
-0.80,4.90,12.33,0.23,0.00,-0.16,1721207677911
-0.11,1.24,5.04,0.10,0.03,0.04,1721207677921
0.39,-4.49,7.36,-0.04,0.04,-0.02,1721207677931
1.12,-3.82,15.59,-0.14,0.11,-0.13,1721207677941
-0.60,4.52,16.65,0.17,-0.08,-0.19,1721207677951
1.42,7.68,4.97,0.37,0.00,-0.02,1721207677961
0.77,-0.09,2.69,0.10,-0.03,0.03,1721207677971
-0.33,2.80,12.78,0.15,0.16,-0.27,1721207677981
0.40,-5.44,6.62,-0.10,-0.12,-0.28,1721207677991
-3.76,-0.79,20.93,-0.24,0.39,-0.17,1721207678001
-0.62,6.75,21.84,0.35,-0.13,0.06,1721207678011
1.47,-5.87,-1.97,0.11,-0.15,0.17,1721207678021
2.75,-0.88,20.11,0.02,0.63,-0.21,1721207678031
0.22,6.72,17.06,0.37,-0.49,-0.38,1721207678041
-5.26,1.99,0.67,0.33,0.05,-0.31,1721207678051
-3.46,2.46,14.01,0.33,0.26,0.10,1721207678061
-1.19,8.98,-2.57,0.59,-0.27,0.48,1721207678071
5.18,-0.60,2.86,-0.05,0.46,0.15,1721207678081
6.48,-4.37,12.20,-0.29,0.17,-0.41,1721207678091
0.74,3.27,9.56,0.35,0.07,-0.42,1721207678101
0.23,-4.66,8.49,-0.23,0.20,-0.32,1721207678111
-4.70,2.78,13.85,0.20,-0.20,-0.06,1721207678121
2.30,10.32,3.42,0.35,0.32,0.01,1721207678131
0.99,2.81,-0.04,-0.23,-0.21,-0.06,1721207678141
-2.44,-8.05,10.04,-0.22,0.14,-0.27,1721207678151
0.68,-9.25,17.65,-0.27,0.16,-0.21,1721207678161
-1.07,0.26,17.49,-0.12,-0.03,-0.02,1721207678171
1.62,5.28,12.01,0.10,0.09,-0.04,1721207678181
2.27,-0.55,4.44,-0.20,-0.01,-0.22,1721207678191
-0.20,-1.71,15.18,-0.19,0.26,-0.40,1721207678201
-2.49,2.19,4.37,0.01,0.24,-0.29,1721207678216
-3.93,-1.30,0.73,-0.13,0.08,-0.17,1721207678220
-0.77,-1.47,15.34,-0.15,0.48,-0.09,1721207678230
-1.49,10.88,5.25,0.37,-0.23,0.05,1721207678240
2.12,-2.72,2.16,-0.31,0.32,-0.07,1721207678250
-1.66,-8.38,26.64,-0.42,-0.06,-0.10,1721207678260
0.25,4.70,14.34,0.10,-0.12,-0.14,1721207678270
2.32,-4.25,6.10,-0.51,0.27,-0.32,1721207678280
-3.32,1.83,17.90,-0.08,0.01,-0.34,1721207678290
-1.75,5.08,10.24,0.23,0.14,-0.28,1721207678300
-4.29,-0.89,4.24,-0.14,-0.05,0.01,1721207678310
-1.57,6.69,10.47,0.26,0.30,0.25,1721207678320
4.88,-3.51,10.39,-0.13,0.13,0.11,1721207678330
-0.09,3.24,12.66,0.07,-0.14,-0.09,1721207678340
4.39,4.63,10.91,0.24,0.24,-0.27,1721207678350
0.49,-4.82,5.81,-0.10,-0.13,-0.30,1721207678360
-2.95,-0.33,14.87,0.13,0.26,-0.22,1721207678370
-1.60,3.50,7.35,0.32,-0.03,-0.06,1721207678380
-1.56,-3.44,3.73,0.12,0.15,-0.06,1721207678390
0.86,3.59,16.24,0.36,0.33,-0.03,1721207678400
-0.40,4.58,0.12,0.22,-0.29,-0.02,1721207678410
0.35,-3.58,14.17,-0.31,0.61,-0.24,1721207678420
-1.69,-1.17,25.12,0.09,-0.16,-0.28,1721207678430
-4.88,0.23,0.24,0.18,-0.13,0.01,1721207678440
-0.39,-4.20,9.89,-0.18,0.44,0.11,1721207678450
-0.60,1.13,11.75,0.14,-0.29,0.19,1721207678460
2.71,1.69,4.28,0.14,0.28,0.07,1721207678470
1.42,-2.98,8.47,-0.13,-0.02,-0.18,1721207678480
-2.11,2.04,9.71,0.16,-0.07,-0.18,1721207678490
0.45,-1.22,11.66,-0.12,0.32,-0.01,1721207678500
-1.62,1.75,16.42,0.01,-0.09,-0.00,1721207678510
-1.69,2.78,5.71,0.07,-0.06,-0.01,1721207678520
-1.17,-3.99,10.35,-0.34,0.11,-0.05,1721207678530
-1.28,0.51,20.20,0.06,-0.02,0.01,1721207678540
0.64,3.63,5.71,0.12,-0.07,0.08,1721207678550
-0.69,3.69,7.00,-0.08,0.03,0.05,1721207678560
0.32,5.60,11.22,0.21,-0.02,0.10,1721207678570
0.65,-4.69,-0.71,-0.11,-0.19,0.06,1721207678580
-0.22,-2.37,18.70,-0.30,0.40,-0.07,1721207678590
1.22,6.06,21.96,0.10,-0.24,-0.06,1721207678600
-1.73,-1.51,2.33,-0.10,-0.23,-0.01,1721207678610
-1.70,3.28,17.82,0.04,0.38,0.03,1721207678620
1.86,3.43,9.23,0.21,-0.32,0.21,1721207678630
-0.92,1.13,1.50,0.02,-0.05,0.09,1721207678640
1.23,1.87,15.85,0.02,0.23,-0.06,1721207678650
-2.06,4.81,6.71,0.17,-0.43,-0.01,1721207678660
-2.30,-3.40,3.92,-0.16,0.10,0.05,1721207678670
-1.28,-2.58,14.11,-0.15,0.02,0.11,1721207678680
-0.57,-0.94,7.64,-0.09,-0.16,0.16,1721207678690
0.55,-2.36,12.87,-0.29,0.09,0.14,1721207678700
2.43,0.48,15.53,0.06,-0.12,0.13,1721207678710
2.19,3.32,5.35,0.04,-0.04,-0.06,1721207678720
0.63,-2.38,6.16,-0.26,-0.06,-0.16,1721207678730
-1.32,2.94,14.20,-0.02,-0.01,-0.16,1721207678740
-0.56,-0.52,7.53,-0.10,-0.13,0.04,1721207678750
-1.40,-3.41,12.96,-0.30,-0.02,0.12,1721207678760
-0.06,0.78,11.89,-0.06,-0.13,0.03,1721207678770
1.99,0.20,5.67,-0.18,-0.05,-0.11,1721207678780
-0.28,-1.40,12.39,-0.24,-0.08,-0.11,1721207678790
-0.78,-1.87,12.98,-0.12,-0.03,-0.07,1721207678800
-0.42,1.84,10.72,-0.01,-0.01,-0.01,1721207678810
0.65,2.12,8.14,-0.07,-0.02,-0.04,1721207678820
0.37,0.71,9.97,-0.13,-0.02,-0.08,1721207678830
0.43,-0.96,15.18,-0.08,0.03,-0.11,1721207678840
-0.01,1.64,11.88,0.05,-0.09,-0.10,1721207678850
0.42,-1.20,6.41,-0.02,0.02,-0.05,1721207678860
0.96,-1.60,11.86,0.04,0.09,-0.15,1721207678870
1.20,3.29,12.39,0.19,0.01,-0.12,1721207678880
1.58,7.31,12.61,0.30,0.11,-0.10,1721207678890
0.79,-0.65,5.47,0.17,-0.12,-0.17,1721207678900
-0.47,-2.00,9.45,0.16,0.18,-0.25,1721207678910
-0.63,0.35,12.14,0.13,0.03,-0.17,1721207678920
-2.79,0.62,10.86,0.11,-0.09,-0.09,1721207678930
1.33,2.76,13.24,0.33,0.22,0.08,1721207678940
3.17,-0.74,5.64,0.16,0.02,-0.03,1721207678950
1.43,-0.48,11.33,0.03,0.21,-0.38,1721207678960
-1.07,2.39,13.47,0.22,-0.06,-0.40,1721207678970
-2.28,0.23,6.12,0.20,0.08,-0.10,1721207678980
0.11,-0.62,9.07,0.24,0.25,0.10,1721207678990
1.94,0.31,5.74,0.25,0.04,-0.01,1721207679000
2.25,0.20,9.51,0.05,0.24,-0.38,1721207679010
-0.02,1.41,14.83,0.20,0.09,-0.44,1721207679020
-2.32,1.06,8.64,0.27,0.07,-0.18,1721207679030
-2.32,0.15,10.45,0.13,0.21,-0.08,1721207679040
-0.82,-0.39,10.42,0.20,0.06,-0.01,1721207679050
1.35,5.38,8.01,0.22,0.25,-0.15,1721207679060
1.58,-3.27,7.93,-0.08,0.08,-0.18,1721207679070
-1.14,-4.31,12.33,-0.02,0.19,-0.24,1721207679080
-0.43,2.35,9.91,0.28,0.21,-0.19,1721207679090
0.68,0.74,4.27,0.03,0.19,-0.10,1721207679100
-0.49,1.60,9.97,-0.12,0.20,-0.22,1721207679110
-0.35,3.55,15.93,0.07,0.19,-0.25,1721207679120
-0.38,0.87,10.40,0.03,0.13,-0.14,1721207679130
-0.60,-1.10,10.18,-0.15,0.23,-0.18,1721207679140
-1.27,2.20,10.32,0.03,0.02,-0.14,1721207679150
0.14,0.61,5.45,-0.04,0.25,-0.18,1721207679160
-0.68,-3.86,7.41,-0.17,0.18,-0.33,1721207679170
-2.78,-3.51,12.57,-0.12,0.19,-0.32,1721207679180
-3.00,3.09,15.47,0.07,0.19,-0.18,1721207679190
-3.22,4.34,7.71,-0.00,0.05,0.03,1721207679200
-1.94,3.99,6.37,-0.09,0.23,0.06,1721207679210
1.98,-5.07,14.56,-0.41,0.26,0.07,1721207679220
0.22,-3.33,15.62,-0.12,-0.06,-0.00,1721207679230
0.62,2.26,8.00,0.01,0.19,-0.19,1721207679240
-1.43,0.42,10.53,-0.29,0.07,-0.21,1721207679250
-3.40,1.07,10.88,-0.03,0.04,-0.04,1721207679260
-1.46,1.45,6.51,-0.00,0.20,0.13,1721207679270
0.33,-2.14,6.65,-0.27,0.05,0.16,1721207679280
0.24,3.62,11.15,-0.00,0.09,0.01,1721207679290
1.12,-4.04,3.26,-0.17,-0.10,0.01,1721207679300
-2.28,-6.52,15.06,-0.35,0.26,-0.06,1721207679310
-0.57,4.66,16.87,0.06,0.05,0.08,1721207679320
0.04,1.78,5.87,-0.19,-0.03,0.14,1721207679330
-0.28,3.60,16.58,-0.15,0.21,0.08,1721207679340
1.33,3.83,12.61,0.08,-0.16,0.12,1721207679350
-1.68,-3.22,0.04,-0.05,-0.12,0.18,1721207679360
1.41,1.15,12.80,-0.01,0.48,0.09,1721207679370
-0.56,-3.15,8.96,-0.15,-0.45,0.12,1721207679380
-2.75,0.11,15.41,-0.07,0.25,0.00,1721207679390
2.25,3.36,15.09,0.15,-0.03,0.16,1721207679400
-1.46,1.48,5.45,-0.00,-0.18,0.24,1721207679410
0.78,1.38,13.32,0.02,0.28,0.12,1721207679420
1.38,0.26,15.89,0.02,-0.16,0.05,1721207679430
-2.44,1.03,7.23,0.10,-0.27,0.10,1721207679440
-0.79,-2.14,9.57,0.04,0.09,0.28,1721207679450
-0.19,-0.68,12.47,0.07,-0.15,0.35,1721207679460
1.72,3.19,9.54,0.22,0.01,0.21,1721207679470
2.35,0.23,7.16,0.11,-0.13,0.03,1721207679480
0.69,-0.90,9.85,0.12,-0.04,-0.02,1721207679490
-0.01,3.20,8.27,0.24,-0.06,0.03,1721207679500
-1.39,-1.09,4.43,-0.00,-0.17,0.07,1721207679510
-1.63,-1.82,13.10,-0.07,0.06,0.01,1721207679520
0.93,1.72,12.71,0.19,-0.11,0.07,1721207679530
0.28,2.14,6.32,0.00,-0.12,0.02,1721207679540
0.82,-0.13,17.58,-0.13,0.08,-0.02,1721207679550
-0.48,0.35,13.12,0.09,-0.35,-0.02,1721207679560
-1.81,1.68,1.67,0.11,-0.21,0.00,1721207679570
0.47,-0.68,8.90,-0.07,0.08,0.06,1721207679580
0.18,2.30,10.10,0.14,-0.25,0.12,1721207679590
3.06,-0.90,10.66,-0.02,0.13,-0.07,1721207679600
1.35,0.81,14.40,0.02,-0.16,-0.21,1721207679610
-1.33,3.71,8.78,0.03,-0.12,-0.29,1721207679620
