AccX,AccY,AccZ,GyrX,GyrY,GyrZ,Time
2.38,3.91,6.93,0.05,0.15,0.64,1721207166143
6.03,4.41,7.18,-0.20,0.11,0.26,1721207166148
3.72,0.41,17.33,-0.17,-0.20,-0.70,1721207166158
-9.04,-1.25,5.05,0.03,-0.40,-1.06,1721207166168
-17.25,-1.61,9.05,-0.14,-0.28,-0.22,1721207166178
-12.26,0.70,7.62,0.07,-0.18,0.93,1721207166188
1.08,-2.49,12.53,-0.21,0.10,1.17,1721207166198
7.88,-1.84,11.71,0.02,-0.32,0.57,1721207166208
9.85,-3.09,8.38,-0.16,-0.18,-0.18,1721207166218
3.93,1.84,14.51,0.08,-0.17,-0.61,1721207166228
-0.66,-7.00,3.75,-0.12,-0.26,-0.62,1721207166238
-9.59,-6.90,13.11,-0.15,-0.52,-0.30,1721207166248
-7.02,-6.55,6.44,0.04,-0.22,0.24,1721207166258
-0.15,-1.79,13.20,0.06,0.03,0.41,1721207166268
3.64,-4.86,10.36,0.01,-0.36,0.15,1721207166278
-0.87,0.68,12.24,0.06,-0.32,-0.45,1721207166288
-2.43,-3.65,12.47,0.02,-0.19,-0.52,1721207166298
-7.17,-2.28,9.24,-0.04,-0.44,-0.02,1721207166308
-2.22,-1.52,8.29,-0.12,-0.21,0.41,1721207166318
3.71,1.86,11.77,-0.10,-0.15,0.25,1721207166327
6.98,-0.35,9.42,-0.08,-0.39,-0.25,1721207166337
0.59,2.61,8.69,-0.04,-0.46,-0.68,1721207166347
-3.05,-1.89,9.77,-0.05,-0.19,-0.54,1721207166357
-4.09,0.55,13.04,0.07,-0.18,-0.07,1721207166367
2.41,-1.81,12.25,0.00,-0.07,0.16,1721207166377
5.10,0.49,10.50,-0.01,-0.33,0.06,1721207166387
5.51,0.94,5.70,-0.10,-0.21,-0.27,1721207166397
2.69,-0.81,9.39,-0.21,-0.13,-0.53,1721207166407
1.28,0.08,11.19,-0.18,-0.02,-0.49,1721207166417
-3.22,-2.55,5.12,-0.30,-0.17,-0.25,1721207166427
-2.99,2.73,14.04,-0.28,0.03,-0.13,1721207166437
3.43,-0.10,9.36,-0.22,0.05,0.07,1721207166447
0.92,2.19,11.72,-0.35,-0.09,-0.17,1721207166457
0.55,3.01,13.41,-0.28,0.00,-0.28,1721207166467
-2.13,3.76,10.54,-0.15,-0.10,-0.23,1721207166477
-2.76,0.67,9.63,-0.15,-0.02,-0.04,1721207166487
-1.99,2.82,14.24,0.03,0.01,0.13,1721207166497
1.60,3.17,13.57,0.11,0.06,0.21,1721207166507
4.07,5.45,12.70,0.19,0.09,0.06,1721207166517
5.57,4.15,10.53,0.17,0.04,-0.16,1721207166527
3.64,3.50,11.14,0.18,0.00,-0.36,1721207166537
1.07,1.02,7.66,0.23,-0.02,-0.40,1721207166547
-0.90,1.38,8.02,0.14,0.09,-0.35,1721207166557
-1.72,1.17,9.75,0.15,0.05,-0.23,1721207166567
-1.75,-0.75,8.66,-0.00,0.14,-0.21,1721207166577
-2.28,-0.23,11.89,0.01,0.02,-0.16,1721207166587
-1.77,-0.70,9.50,-0.01,0.04,-0.07,1721207166597
-0.35,-0.92,11.15,-0.00,0.07,-0.03,1721207166607
1.29,-1.22,9.08,0.03,0.04,-0.09,1721207166617
1.63,-0.71,10.03,0.01,0.03,-0.19,1721207166627
0.58,-0.86,9.36,0.02,0.03,-0.26,1721207166637
-0.98,0.79,11.46,-0.00,0.01,-0.26,1721207166647
-1.07,-0.63,10.77,0.01,-0.00,-0.10,1721207166657
-0.14,-1.36,8.48,-0.01,0.03,-0.12,1721207166667
0.03,0.04,9.78,-0.04,-0.03,-0.09,1721207166677
-1.84,-0.20,9.03,-0.04,-0.06,-0.14,1721207166687
-1.37,0.39,9.58,-0.03,0.09,-0.09,1721207166697
-0.87,0.56,10.92,-0.04,-0.07,0.14,1721207166707
0.73,-0.21,9.77,-0.07,0.01,0.16,1721207166717
2.94,-0.70,10.48,-0.04,0.02,0.09,1721207166727
4.77,-0.41,12.22,-0.06,0.16,-0.08,1721207166737
1.58,0.60,11.22,0.04,-0.14,-0.17,1721207166747
-1.02,1.92,10.26,0.08,-0.05,-0.09,1721207166757
-0.16,-2.01,10.13,0.07,0.05,-0.00,1721207166767
0.33,2.17,11.99,0.11,0.01,0.06,1721207166777
0.25,0.26,9.23,0.05,0.10,-0.14,1721207166787
-1.58,0.37,9.50,0.09,-0.10,-0.03,1721207166797
-2.09,-3.82,7.45,0.00,0.04,-0.02,1721207166807
-2.12,0.00,12.82,0.07,0.07,-0.00,1721207166817
0.15,-1.70,10.03,0.09,0.10,-0.05,1721207166827
-0.79,-1.92,10.18,0.08,-0.13,-0.03,1721207166837
-0.14,-1.37,7.30,0.09,0.04,-0.10,1721207166847
0.27,-2.40,8.64,0.12,-0.10,-0.06,1721207166857
-1.15,-1.26,9.02,0.04,0.02,-0.12,1721207166867
-0.95,-3.37,8.97,0.03,-0.04,-0.13,1721207166877
0.90,-0.98,11.99,-0.03,0.03,-0.05,1721207166887
1.09,-3.91,9.32,0.07,-0.03,0.07,1721207166897
1.43,2.81,12.49,0.06,0.22,-0.17,1721207166907
4.01,0.93,11.79,0.04,0.04,-0.38,1721207166917
-1.89,-4.24,11.75,-0.04,-0.17,-0.35,1721207166927
-4.97,-0.49,11.99,0.07,0.03,-0.24,1721207166937
-3.33,-2.72,6.26,0.06,-0.01,0.02,1721207166947
-0.39,-0.95,11.10,-0.06,0.14,0.02,1721207166957
1.53,0.24,12.00,0.19,-0.01,-0.14,1721207166967
2.05,-0.91,9.61,0.02,0.11,-0.28,1721207166977
0.73,0.06,11.92,0.11,-0.00,-0.31,1721207166987
0.15,0.77,11.31,0.12,0.02,-0.30,1721207166997
-0.87,1.45,10.16,0.13,-0.07,-0.24,1721207167007
-0.26,0.49,3.21,0.09,-0.09,-0.20,1721207167017
3.57,-1.90,10.69,-0.08,0.31,-0.25,1721207167027
2.93,1.33,13.23,0.11,-0.08,-0.43,1721207167037
-0.01,0.96,8.09,-0.06,0.12,-0.71,1721207167047
-3.26,0.81,13.58,0.02,0.04,-0.59,1721207167057
-5.08,0.59,9.28,0.03,0.05,-0.32,1721207167067
-4.31,-0.26,9.16,-0.02,0.08,-0.05,1721207167077
-1.39,1.47,9.93,0.03,0.06,0.06,1721207167087
0.98,0.97,9.01,-0.01,0.03,-0.01,1721207167097
1.64,1.48,11.14,0.05,0.03,-0.17,1721207167107
1.09,-0.43,10.55,0.01,0.05,-0.31,1721207167117
-1.25,0.89,10.24,0.03,-0.03,-0.37,1721207167127
-3.13,3.12,9.55,0.03,-0.05,-0.27,1721207167137
-3.20,-1.36,5.09,-0.15,-0.00,-0.18,1721207167147
-4.30,-4.12,11.44,-0.18,-0.11,-0.21,1721207167157
-2.58,-5.25,12.64,-0.02,-0.05,0.01,1721207167167
-2.29,-2.83,9.14,-0.05,-0.09,0.15,1721207167177
-2.46,3.37,10.64,-0.00,-0.13,-0.06,1721207167187
0.46,-1.66,10.87,-0.09,0.03,-0.25,1721207167197
-1.01,-5.54,10.09,-0.05,-0.22,-0.05,1721207167207
-4.44,-0.93,10.51,-0.06,-0.17,0.17,1721207167217
-1.80,1.18,11.72,0.01,-0.07,0.21,1721207167227
3.46,-0.29,12.34,0.03,-0.13,0.10,1721207167237
4.64,-1.07,9.04,-0.06,-0.16,0.09,1721207167247
2.29,3.52,11.81,-0.01,-0.03,-0.13,1721207167257
0.36,0.84,16.42,0.06,-0.17,-0.27,1721207167267
-1.02,-4.64,-1.69,0.09,-0.45,-0.02,1721207167277
1.16,-5.12,13.79,-0.24,0.37,0.06,1721207167287
-0.81,-4.21,17.59,0.26,-0.33,0.07,1721207167297
-0.04,5.79,7.96,0.26,-0.01,-0.15,1721207167307
5.43,-4.39,7.50,-0.10,0.12,-0.09,1721207167317
-0.80,-4.26,13.37,0.08,-0.49,0.04,1721207167327
1.30,-1.93,11.72,0.09,0.34,-0.17,1721207167337
3.02,-3.49,15.37,0.16,-0.09,-0.15,1721207167347
0.08,-3.80,5.68,0.00,-0.24,-0.04,1721207167357
-1.29,0.52,14.42,0.02,0.17,-0.24,1721207167367
0.10,-3.68,9.21,0.09,-0.06,-0.15,1721207167377
-0.68,4.59,12.56,0.10,0.04,0.06,1721207167387
2.59,-3.12,6.88,-0.08,0.20,0.01,1721207167397
2.42,-4.44,11.84,-0.15,0.02,-0.09,1721207167407
2.01,-2.13,9.41,0.08,0.02,-0.18,1721207167417
1.30,-1.49,10.06,0.07,0.22,-0.25,1721207167427
-0.74,1.36,9.11,0.02,0.02,-0.22,1721207167437
-2.66,1.95,-1.64,0.08,-0.05,-0.23,1721207167447
-2.83,-0.71,16.60,-0.35,0.49,-0.36,1721207167457
-4.18,0.08,19.38,0.29,-0.18,-0.20,1721207167467
-2.94,-0.30,8.40,0.05,0.12,0.08,1721207167477
0.70,7.08,11.22,0.24,0.08,0.35,1721207167487
6.52,0.99,3.28,-0.19,0.23,0.11,1721207167497
4.77,3.46,15.95,-0.04,0.01,-0.38,1721207167507
3.70,0.17,5.19,0.01,0.03,-0.56,1721207167517
-0.76,3.22,11.47,-0.00,0.12,-0.45,1721207167527
-0.68,0.96,7.91,0.02,0.13,-0.28,1721207167537
-1.81,2.31,6.78,-0.01,-0.02,-0.20,1721207167547
-0.80,-2.27,13.27,-0.35,0.17,-0.19,1721207167557
-1.14,3.27,19.03,0.24,0.08,-0.14,1721207167567
2.43,-4.98,0.22,-0.13,0.04,-0.04,1721207167577
-0.74,2.00,13.62,-0.09,0.07,-0.08,1721207167587
3.47,-1.45,6.75,0.08,0.24,-0.22,1721207167597
3.51,-1.15,13.54,-0.05,0.12,-0.42,1721207167607
-1.62,-3.02,7.35,0.13,-0.20,-0.53,1721207167617
-3.57,-2.06,9.71,-0.01,0.34,-0.37,1721207167627
-0.78,-2.61,11.19,0.07,0.12,-0.10,1721207167637
0.45,-3.00,5.99,0.03,-0.12,0.03,1721207167647
0.62,-4.09,7.72,-0.14,0.31,-0.39,1721207167657
1.74,-4.97,8.75,-0.12,0.22,-0.47,1721207167667
-1.76,-5.55,22.03,-0.18,0.35,-0.57,1721207167677
-4.39,-0.88,10.35,0.29,-0.17,-0.35,1721207167687
-1.65,-6.06,15.05,-0.23,0.52,-0.31,1721207167697
-0.46,1.23,15.89,0.17,-0.06,-0.19,1721207167707
2.25,0.89,3.50,-0.13,0.22,-0.45,1721207167717
-2.68,-6.30,8.82,-0.23,-0.38,-0.65,1721207167727
-7.66,-3.75,4.42,-0.07,0.02,-0.67,1721207167737
-3.75,-1.44,16.27,-0.09,0.53,-0.39,1721207167747
-1.05,3.53,14.80,-0.09,0.03,-0.14,1721207167757
-2.67,1.71,13.05,-0.19,-0.00,-0.27,1721207167767
-3.47,0.49,8.94,0.18,-0.23,-0.19,1721207167777
-0.71,2.24,7.45,0.01,0.20,-0.11,1721207167787
1.52,4.22,14.50,0.22,-0.02,0.02,1721207167797
1.99,2.90,4.99,0.22,-0.06,-0.07,1721207167807
2.56,2.04,6.53,0.11,-0.04,-0.18,1721207167817
0.47,5.50,13.40,0.10,0.03,-0.46,1721207167827
-2.89,0.98,10.70,0.06,-0.04,-0.59,1721207167837
-7.47,2.65,12.45,0.07,-0.12,-0.35,1721207167847
-8.51,3.23,8.18,0.16,-0.09,0.07,1721207167857
-6.57,2.81,6.37,-0.00,-0.05,0.34,1721207167867
-1.38,-1.02,8.59,-0.05,-0.09,0.37,1721207167877
2.33,-0.94,9.07,0.00,-0.06,0.13,1721207167887
3.10,1.74,9.62,0.10,-0.22,-0.01,1721207167897
0.72,-0.58,7.40,-0.02,-0.24,-0.13,1721207167907
0.74,-2.58,13.20,-0.05,-0.13,-0.07,1721207167917
-0.48,-0.24,11.88,0.17,-0.22,-0.02,1721207167927
0.65,1.05,7.60,0.02,-0.03,-0.10,1721207167937
0.03,1.41,9.35,0.12,-0.34,0.04,1721207167947
0.18,-5.58,5.36,-0.19,0.00,-0.02,1721207167957
0.57,-4.46,14.92,-0.02,-0.02,0.01,1721207167967
1.13,-8.90,14.95,-0.02,-0.04,0.15,1721207167977
1.01,0.50,15.97,0.25,-0.18,0.19,1721207167987
5.68,-1.34,5.78,0.06,0.02,0.09,1721207167997
2.78,-0.24,11.80,0.02,-0.12,-0.30,1721207168007
-0.26,-3.52,15.25,-0.02,-0.05,-0.38,1721207168017
-2.51,-2.96,9.98,0.11,-0.07,-0.12,1721207168027
-0.85,1.30,5.49,0.04,0.09,0.00,1721207168037
1.23,-2.96,7.87,0.06,-0.02,0.02,1721207168047
2.16,-3.19,13.16,-0.04,0.15,-0.18,1721207168057
1.17,-1.01,7.97,0.01,0.03,-0.31,1721207168067
-1.28,0.77,13.58,-0.21,0.10,-0.18,1721207168077
-0.67,-6.67,5.80,-0.05,-0.06,-0.01,1721207168087
1.75,-3.40,14.76,-0.02,0.27,-0.09,1721207168097
3.52,8.58,14.33,0.41,0.02,-0.08,1721207168107
1.28,7.82,5.28,0.04,0.11,-0.25,1721207168117
0.46,-0.88,13.98,-0.16,0.10,-0.35,1721207168127
-2.49,-5.76,13.99,-0.02,0.05,-0.28,1721207168137
-1.54,5.88,13.60,0.41,0.16,0.23,1721207168152
0.02,5.50,6.38,0.41,0.12,0.30,1721207168156
6.55,5.29,-0.81,0.07,0.33,0.20,1721207168166
7.25,4.18,8.08,-0.13,0.23,-0.28,1721207168176
4.53,0.23,10.71,-0.12,0.15,-0.60,1721207168186
-0.62,-0.91,16.75,-0.11,0.18,-0.59,1721207168196
-3.36,3.75,15.16,0.29,0.11,-0.40,1721207168206
-0.45,-2.32,0.24,-0.07,0.21,-0.12,1721207168216
-0.72,8.04,6.42,-0.02,0.19,-0.15,1721207168226
6.12,-1.78,8.32,-0.34,0.61,-0.48,1721207168236
2.26,-2.36,17.86,-0.08,-0.04,-0.58,1721207168246
-0.90,-7.92,4.39,-0.06,0.27,-0.68,1721207168256
-4.73,-1.90,16.00,-0.01,0.34,-0.50,1721207168266
-2.45,-2.53,13.09,0.03,0.26,-0.23,1721207168276
1.69,-1.20,8.94,-0.03,0.28,-0.19,1721207168286
3.02,-3.14,8.41,-0.03,0.23,-0.43,1721207168296
-0.88,-4.95,10.56,-0.08,0.30,-0.86,1721207168306
-5.08,-2.84,14.03,0.08,0.22,-0.82,1721207168316
-5.88,-2.68,6.84,0.06,0.21,-0.33,1721207168326
-4.07,6.16,3.86,0.16,0.33,0.01,1721207168336
-1.10,-10.38,0.63,-0.54,0.07,-0.04,1721207168346
-4.35,-4.21,25.20,-0.25,0.16,-0.30,1721207168356
3.25,-6.46,19.78,0.30,0.49,-0.20,1721207168366
-3.06,-1.81,7.75,0.03,-0.09,-0.18,1721207168376
-7.39,5.83,0.53,0.08,-0.03,-0.17,1721207168386
0.06,-3.18,9.06,-0.13,0.26,0.02,1721207168396
-3.34,-0.34,10.10,0.04,-0.27,0.13,1721207168406
-0.83,3.42,6.02,0.03,0.39,-0.09,1721207168416
-1.10,1.40,12.66,-0.08,0.06,-0.21,1721207168426
-5.68,3.45,13.44,0.07,-0.16,-0.06,1721207168436
-5.17,8.55,9.55,0.24,0.10,0.17,1721207168446
-1.22,2.32,9.21,-0.00,-0.02,0.45,1721207168456
1.76,-0.26,14.72,-0.13,-0.05,0.44,1721207168466
4.55,0.83,15.54,0.15,-0.05,0.10,1721207168476
3.69,8.75,11.29,0.35,0.03,-0.28,1721207168486
-2.20,9.28,2.41,0.12,-0.19,-0.43,1721207168496
-8.88,-2.12,4.07,-0.32,-0.22,-0.13,1721207168506
-5.72,-9.22,11.71,-0.12,0.09,0.42,1721207168516
-0.97,0.39,7.68,0.18,-0.02,0.48,1721207168526
1.18,3.85,5.93,0.10,-0.21,0.26,1721207168536
1.75,3.09,9.78,0.02,-0.02,-0.00,1721207168546
-2.90,-0.17,4.35,-0.15,-0.33,-0.12,1721207168556
-5.53,-6.61,19.97,-0.46,-0.08,0.19,1721207168566
-2.73,-6.06,23.26,0.03,-0.24,0.86,1721207168576
4.50,-0.83,6.84,0.21,-0.13,0.93,1721207168586
11.60,1.70,-1.38,0.05,0.05,0.48,1721207168596
8.83,-2.64,7.61,-0.39,-0.21,-0.26,1721207168606
1.19,-1.43,21.29,-0.18,-0.22,-0.70,1721207168616
-6.03,1.18,11.85,0.01,-0.28,-0.38,1721207168626
-6.78,-0.13,1.92,-0.08,-0.07,0.34,1721207168636
1.55,-7.68,5.67,-0.21,0.11,0.72,1721207168646
4.17,3.74,13.62,0.05,0.02,0.19,1721207168656
4.54,3.71,10.67,0.09,-0.13,-0.35,1721207168666
-0.97,-2.31,9.86,-0.09,-0.26,-0.41,1721207168676
-2.88,-1.26,17.17,-0.01,0.02,-0.12,1721207168686
-2.67,2.06,11.96,0.28,-0.15,0.12,1721207168696
1.19,2.40,8.64,0.12,0.02,0.28,1721207168706
4.57,-1.81,11.46,0.11,-0.02,0.12,1721207168716
4.99,-0.49,14.98,0.22,0.03,-0.28,1721207168726
1.36,5.33,8.96,0.42,-0.15,-0.47,1721207168736
-1.98,1.94,0.42,0.14,-0.14,-0.22,1721207168746
-0.30,1.29,13.06,-0.04,0.21,0.09,1721207168756
4.08,-6.87,12.73,0.05,0.09,0.02,1721207168766
2.74,2.39,15.79,0.36,0.02,-0.26,1721207168776
1.80,2.72,6.34,0.25,0.01,-0.18,1721207168786
1.26,6.81,15.70,0.09,0.41,-0.31,1721207168796
0.55,-2.79,8.29,0.19,-0.06,-0.47,1721207168806
-4.14,6.29,14.31,0.19,0.37,-0.67,1721207168816
-8.38,-2.48,-2.24,0.18,-0.24,-0.31,1721207168826
-3.83,1.73,15.95,-0.34,0.58,0.48,1721207168836
7.78,-1.15,11.96,0.21,0.03,0.60,1721207168846
16.29,1.25,6.06,0.08,0.56,-0.25,1721207168856
10.58,6.13,10.06,0.14,-0.05,-1.24,1721207168866
-2.29,0.11,6.05,-0.22,0.11,-1.66,1721207168876
-14.31,-0.98,16.18,-0.09,0.02,-1.09,1721207168886
-15.90,-4.74,9.08,0.03,0.24,-0.09,1721207168896
-7.17,1.27,8.66,0.02,0.27,0.64,1721207168906
4.93,-5.85,2.73,-0.31,0.22,0.64,1721207168916
6.87,2.57,14.31,-0.09,0.31,-0.41,1721207168926
4.12,0.49,11.45,-0.13,-0.10,-0.84,1721207168936
-4.61,3.67,12.47,0.08,0.03,-0.60,1721207168946
-0.38,-2.73,2.15,-0.17,0.29,-0.04,1721207168956
-0.37,-2.81,11.68,-0.36,-0.01,0.03,1721207168966
3.34,-3.29,16.55,-0.01,0.45,-0.42,1721207168976
0.53,2.40,11.48,0.22,0.03,-0.61,1721207168986
-7.00,3.29,0.70,-0.06,-0.05,-0.41,1721207168996
-7.13,1.30,11.24,-0.22,0.33,0.02,1721207169006
-0.63,-7.28,11.59,-0.26,0.18,0.35,1721207169016
2.36,2.77,17.30,-0.01,0.23,0.12,1721207169026
4.07,3.61,5.81,0.14,-0.04,-0.17,1721207169036
-0.67,-0.55,6.07,-0.22,0.12,-0.28,1721207169046
-2.13,-4.48,10.19,-0.11,0.11,-0.13,1721207169056
-0.72,-1.73,14.92,-0.03,0.23,0.06,1721207169066
-0.72,5.89,11.59,0.08,0.03,0.05,1721207169076
0.22,3.25,9.66,-0.07,0.23,-0.04,1721207169086
-0.40,-3.81,8.42,-0.13,0.01,0.01,1721207169096
-1.00,-4.50,11.81,-0.05,0.15,0.12,1721207169106
0.04,1.46,12.40,0.19,0.15,0.11,1721207169116
0.22,4.58,11.53,0.17,-0.00,0.11,1721207169126
0.14,6.67,10.97,0.21,0.09,0.09,1721207169136
1.77,0.70,6.59,0.06,0.11,0.01,1721207169146
-0.41,-3.48,8.49,-0.15,0.04,-0.09,1721207169156
-0.91,3.20,17.94,0.20,0.13,-0.07,1721207169166
-2.08,-2.23,4.54,0.10,-0.04,0.03,1721207169176
-4.05,1.58,11.34,0.06,0.07,0.15,1721207169186
2.45,-2.11,11.14,0.03,0.30,0.23,1721207169196
1.63,5.86,12.53,0.14,-0.13,0.05,1721207169206
-0.56,-0.58,1.86,-0.08,-0.04,-0.21,1721207169216
-3.56,-1.26,10.95,-0.10,0.04,-0.15,1721207169226
-1.57,-4.32,9.07,0.04,0.12,0.15,1721207169236
-0.73,1.77,15.11,0.00,0.04,0.19,1721207169246
0.52,4.06,11.02,0.14,-0.06,0.03,1721207169256
1.09,4.72,8.20,0.14,0.07,-0.06,1721207169266
0.03,0.49,2.35,0.01,-0.12,0.01,1721207169276
-0.39,1.41,10.46,-0.13,0.20,0.08,1721207169286
1.89,-0.65,12.79,-0.00,-0.01,0.14,1721207169296
0.53,0.16,10.64,-0.14,-0.05,-0.04,1721207169306
0.71,1.19,12.62,0.06,0.03,-0.06,1721207169316
0.17,1.98,3.99,-0.01,-0.05,-0.05,1721207169326
-1.95,1.31,4.96,-0.17,-0.12,-0.07,1721207169336
-3.05,-2.47,14.37,-0.19,0.05,-0.05,1721207169346
-2.27,4.76,22.06,0.15,0.12,0.04,1721207169356
-0.90,1.77,5.22,0.24,-0.23,0.13,1721207169366
-2.11,-0.86,4.26,-0.18,0.05,0.21,1721207169376
0.14,-0.05,17.23,-0.17,0.09,0.23,1721207169386
1.70,3.91,15.09,0.27,-0.16,0.16,1721207169396
2.83,0.91,4.15,0.20,0.01,0.10,1721207169406
1.81,0.57,6.94,-0.04,-0.10,0.07,1721207169416
-0.40,5.77,14.72,0.03,-0.06,-0.06,1721207169426
0.92,0.68,12.72,0.11,-0.00,-0.15,1721207169436
-1.73,2.48,3.64,0.32,-0.24,-0.10,1721207169446
-0.76,-6.94,1.90,-0.30,0.18,-0.02,1721207169456
-2.79,3.11,25.21,0.13,-0.18,0.18,1721207169466
1.10,-0.48,6.22,0.26,-0.03,0.23,1721207169476
1.57,4.83,9.29,0.20,-0.13,0.11,1721207169486
2.73,-2.84,3.22,-0.19,0.02,-0.03,1721207169496
-1.08,-0.78,23.78,-0.22,-0.11,-0.17,1721207169506
-3.45,-3.29,16.30,0.22,-0.19,-0.01,1721207169516
-3.50,3.20,5.37,0.26,-0.09,0.20,1721207169526
-1.50,-0.55,-5.61,-0.03,-0.20,0.45,1721207169536
0.80,0.45,8.08,-0.17,0.07,0.39,1721207169546
5.49,-2.39,13.76,0.02,-0.06,0.11,1721207169556
2.08,1.53,12.57,0.05,-0.26,-0.29,1721207169566
-2.32,-1.62,12.56,-0.08,-0.18,-0.22,1721207169576
-4.18,1.29,12.07,0.02,-0.21,0.18,1721207169586
-0.27,-1.67,6.39,-0.14,-0.03,0.34,1721207169596
1.36,0.15,10.02,-0.01,-0.21,0.17,1721207169606
0.94,0.74,8.96,-0.08,-0.08,-0.16,1721207169616
-2.10,-0.45,14.37,-0.01,-0.31,-0.05,1721207169626
-2.77,-1.58,16.09,-0.07,-0.16,0.23,1721207169636
-0.86,0.40,8.26,0.16,-0.28,0.31,1721207169646
2.89,-1.47,7.87,-0.03,-0.04,0.12,1721207169656
3.73,1.08,8.90,0.12,-0.31,0.04,1721207169666
2.76,1.58,8.15,0.01,-0.14,-0.08,1721207169676
2.06,-2.23,7.60,0.00,-0.07,-0.19,1721207169686
0.08,-2.92,11.48,-0.07,-0.11,-0.25,1721207169696
-0.29,5.38,17.65,0.28,-0.19,-0.06,1721207169706
1.80,1.89,10.33,0.11,0.01,-0.04,1721207169716
1.70,1.87,4.61,0.13,-0.13,-0.24,1721207169726
1.96,-3.34,3.19,-0.13,0.06,-0.42,1721207169736
-0.98,-3.18,13.01,-0.04,-0.13,-0.40,1721207169746
-1.45,0.35,16.94,0.19,-0.00,-0.16,1721207169756
2.14,-3.17,9.77,0.05,0.10,-0.16,1721207169766
1.42,-1.62,10.70,0.06,-0.08,-0.39,1721207169776
-0.91,-0.30,16.56,0.05,0.12,-0.68,1721207169786
-2.40,-0.05,14.17,0.22,-0.01,-0.33,1721207169796
-1.76,3.56,8.12,0.12,0.11,-0.02,1721207169806
2.45,-2.92,4.65,-0.02,0.18,-0.12,1721207169816
3.18,-5.71,8.65,-0.20,0.17,-0.46,1721207169826
-1.41,-0.85,16.03,0.09,-0.01,-0.49,1721207169836
-1.10,0.84,10.60,0.20,0.22,-0.23,1721207169846
1.69,6.34,10.23,0.25,0.28,-0.12,1721207169856
2.48,3.74,-1.18,-0.14,0.09,-0.26,1721207169866
-0.68,-4.57,16.78,-0.47,0.30,-0.62,1721207169876
-5.81,-5.32,18.60,0.24,-0.09,-0.55,1721207169886
-7.55,7.96,-4.50,0.39,0.08,0.06,1721207169896
1.78,3.77,-2.45,-0.57,0.60,0.35,1721207169906
3.46,-6.72,27.14,-0.37,0.05,-0.10,1721207169916
0.21,0.12,26.40,0.66,-0.08,-0.52,1721207169926
-0.48,4.98,-1.28,0.28,0.16,-0.21,1721207169936
-1.64,8.74,1.83,-0.17,0.14,-0.00,1721207169946
1.88,-2.43,6.21,-0.26,0.19,-0.24,1721207169956
0.27,0.00,15.55,0.16,0.11,-0.49,1721207169966
-1.60,2.14,3.52,0.07,0.02,-0.33,1721207169976
-4.11,-0.53,9.16,-0.24,0.15,-0.14,1721207169986
-2.60,-4.93,13.40,0.04,0.15,-0.05,1721207169996
-0.25,-0.68,24.73,0.10,0.21,0.11,1721207170006
0.94,8.27,10.71,0.47,-0.13,0.37,1721207170016
7.14,6.83,-8.07,-0.15,0.44,0.11,1721207170026
7.18,-5.61,8.70,-0.67,0.14,-0.22,1721207170036
1.43,-6.81,8.01,0.03,-0.07,-0.31,1721207170046
5.76,-5.97,15.82,-0.02,0.75,-0.53,1721207170056
-1.41,0.08,34.76,0.32,-0.10,-0.45,1721207170066
-8.05,5.95,7.32,0.40,-0.14,-0.08,1721207170076
-2.82,4.41,-5.18,-0.24,0.32,0.37,1721207170086
4.81,-10.19,8.92,-0.57,0.57,0.29,1721207170096
5.37,-10.51,17.72,0.19,0.05,-0.19,1721207170106
2.68,7.65,6.85,0.56,0.27,-0.53,1721207170116
-2.04,9.43,9.34,-0.12,0.27,-0.51,1721207170126
-5.81,-3.62,9.91,-0.24,0.07,-0.12,1721207170136
-1.17,-8.78,16.34,-0.18,0.53,0.21,1721207170146
6.63,1.05,4.38,0.07,0.32,0.05,1721207170161
5.20,2.13,6.51,-0.18,0.65,-0.23,1721207170165
1.63,1.04,19.84,0.09,-0.07,-0.47,1721207170175
-2.62,-1.24,8.94,0.09,0.32,-0.32,1721207170185
-3.89,-0.48,-1.04,-0.06,0.06,0.02,1721207170195
-2.21,-3.85,12.96,-0.28,0.64,0.09,1721207170205
0.08,-2.98,26.98,0.16,0.28,-0.01,1721207170215
0.60,7.35,17.90,0.45,0.10,-0.01,1721207170225
0.05,4.84,3.66,0.13,0.20,-0.13,1721207170235
-1.40,-3.28,2.76,-0.13,0.20,-0.19,1721207170245
-2.87,0.51,8.60,0.12,0.26,-0.06,1721207170255
-0.14,-1.58,7.29,0.11,0.20,0.18,1721207170265
-1.72,1.69,17.73,0.15,0.17,0.05,1721207170275
0.21,-1.94,9.16,0.21,0.20,-0.20,1721207170285
-3.33,5.42,1.62,0.08,0.13,-0.26,1721207170295
-2.57,-1.11,6.72,-0.29,0.30,-0.07,1721207170305
-3.09,-9.81,22.93,-0.07,-0.05,0.19,1721207170315
-2.47,-1.04,15.27,0.44,0.08,0.08,1721207170325
-0.67,8.24,-2.89,0.17,0.07,-0.01,1721207170335
-2.82,6.98,2.54,-0.57,0.13,-0.09,1721207170345
-1.64,-12.06,23.81,-0.41,0.28,0.01,1721207170355
-3.46,-7.20,17.55,0.34,-0.19,0.34,1721207170365
1.99,3.61,4.64,0.30,0.22,0.49,1721207170375
5.28,5.97,3.27,-0.07,-0.07,0.22,1721207170385
2.43,5.21,7.41,-0.22,-0.08,-0.13,1721207170395
2.42,4.85,18.46,0.04,0.26,-0.17,1721207170405
1.14,-1.39,1.42,-0.09,-0.07,-0.06,1721207170415
-0.04,-7.50,15.20,-0.33,0.47,-0.07,1721207170425
-0.88,1.47,22.62,0.32,0.03,0.12,1721207170435
-1.18,13.92,5.95,0.35,-0.08,0.25,1721207170445
0.46,4.63,-7.72,-0.30,-0.03,0.30,1721207170455
1.88,-8.73,12.44,-0.55,0.38,0.12,1721207170465
1.65,0.08,23.78,0.24,0.00,-0.08,1721207170475
0.26,7.81,6.57,0.23,0.09,-0.18,1721207170485
-0.87,0.69,14.01,-0.18,0.36,-0.11,1721207170495
-3.46,0.96,10.95,0.43,-0.34,0.11,1721207170505
-3.62,6.82,-3.37,-0.04,0.12,-0.06,1721207170515
-4.99,-5.52,8.19,-0.80,-0.07,-0.03,1721207170525
-7.61,-7.30,28.93,0.27,-0.35,0.29,1721207170535
-3.13,5.56,9.04,0.83,0.03,0.48,1721207170545
2.83,4.65,-7.99,-0.14,-0.04,0.51,1721207170555
2.70,-2.07,6.02,-0.39,0.05,0.33,1721207170565
4.67,-6.70,25.73,0.08,0.25,-0.18,1721207170575
1.10,1.27,16.08,0.36,-0.30,-0.15,1721207170585
-3.08,-5.16,1.47,-0.34,-0.26,0.26,1721207170595
-2.25,-1.17,23.08,0.07,-0.16,0.29,1721207170605
2.20,6.65,4.60,0.52,-0.26,-0.13,1721207170615
2.27,4.15,-5.19,-0.26,0.10,-0.33,1721207170625
-5.18,-5.69,21.72,0.03,-0.16,-0.07,1721207170635
-4.81,4.27,8.79,0.40,-0.11,0.09,1721207170645
-0.95,-0.07,3.67,-0.34,-0.20,0.30,1721207170655
-2.61,-4.95,26.68,-0.31,-0.23,0.35,1721207170665
1.59,-0.13,10.87,0.48,-0.24,0.23,1721207170675
3.69,3.72,-11.16,-0.02,-0.11,0.03,1721207170685
3.33,-3.13,10.84,-0.53,0.17,-0.12,1721207170695
2.15,-0.97,28.80,0.21,-0.05,-0.33,1721207170705
-1.75,7.13,11.42,0.47,-0.18,-0.38,1721207170715
-4.48,5.22,-0.37,-0.17,-0.29,0.01,1721207170725
-2.81,-6.02,2.36,-0.38,-0.17,0.29,1721207170735
1.56,-6.00,12.83,-0.13,0.03,0.14,1721207170745
3.67,2.06,12.74,0.18,-0.18,-0.02,1721207170755
2.63,3.37,5.33,0.06,-0.05,-0.18,1721207170765
2.91,-2.59,12.90,-0.25,0.14,-0.20,1721207170775
-1.79,-2.89,16.20,-0.06,-0.25,-0.15,1721207170785
-1.88,0.10,13.84,0.09,-0.01,0.07,1721207170795
1.08,-3.20,0.30,0.03,-0.18,0.22,1721207170805
2.18,0.12,9.39,-0.16,0.12,0.05,1721207170815
2.50,-1.22,19.50,-0.13,0.11,-0.18,1721207170825
-2.05,-1.49,16.73,0.02,-0.14,-0.23,1721207170835
-2.52,0.29,12.45,0.04,0.07,-0.06,1721207170845
-0.73,0.28,6.88,0.00,-0.04,0.25,1721207170855
0.17,0.21,5.68,-0.13,-0.04,0.30,1721207170865
2.76,-1.32,8.30,-0.21,0.16,0.14,1721207170875
1.39,0.59,7.34,-0.09,-0.13,-0.10,1721207170885
-0.36,-1.35,14.79,-0.19,0.18,-0.29,1721207170895
-3.94,-1.02,15.67,0.10,-0.15,-0.17,1721207170905
-6.18,2.71,10.64,0.10,-0.08,0.25,1721207170915
-1.24,3.47,7.74,-0.10,0.05,0.54,1721207170925
2.47,1.84,12.17,-0.17,-0.15,0.37,1721207170935
3.11,0.44,16.50,0.00,-0.05,-0.17,1721207170945
1.21,-2.87,8.89,0.06,-0.17,-0.18,1721207170955
-3.08,4.22,6.31,0.10,-0.20,0.07,1721207170965
-0.33,5.26,4.76,-0.04,0.11,0.13,1721207170975
0.31,5.15,8.11,0.02,-0.23,0.11,1721207170985
1.20,-5.62,9.36,-0.38,-0.05,0.08,1721207170995
-0.91,-2.06,27.10,0.21,-0.10,0.06,1721207171005
0.75,4.31,5.39,0.33,-0.23,0.19,1721207171015
2.09,5.97,2.77,-0.14,-0.01,0.22,1721207171025
5.57,-4.19,5.94,-0.07,-0.08,0.15,1721207171035
5.55,-6.77,9.68,-0.08,-0.04,0.06,1721207171045
4.33,4.71,19.97,0.33,0.00,-0.10,1721207171055
4.70,8.57,12.31,0.28,-0.05,-0.34,1721207171065
0.50,5.97,1.98,-0.02,-0.23,-0.39,1721207171075
-0.57,-1.73,6.10,-0.27,0.17,-0.17,1721207171085
0.68,-6.07,12.43,-0.18,0.01,0.04,1721207171095
1.42,-8.24,12.41,-0.01,-0.02,-0.17,1721207171105
-0.46,1.53,20.71,0.38,0.06,-0.44,1721207171115
-3.58,5.98,7.66,0.34,-0.06,-0.33,1721207171125
-2.37,2.56,4.98,-0.12,0.20,0.07,1721207171135
2.63,-0.57,9.46,-0.03,0.18,0.06,1721207171145
4.85,-2.13,10.90,-0.05,0.21,-0.36,1721207171155
0.31,3.51,10.33,0.21,-0.10,-0.61,1721207171165
-3.00,-1.52,3.75,-0.10,0.11,-0.53,1721207171175
-3.29,-3.56,19.33,0.08,0.14,-0.12,1721207171185
0.58,0.25,10.12,0.26,0.12,0.04,1721207171195
0.51,7.69,11.82,0.12,0.15,-0.31,1721207171205
-0.33,0.59,0.73,0.01,0.00,-0.35,1721207171215
-0.53,-4.07,4.87,-0.19,0.35,-0.19,1721207171225
1.12,-10.79,10.97,-0.30,0.18,-0.19,1721207171235
-4.30,2.92,31.26,0.32,0.05,-0.42,1721207171245
-2.45,3.10,10.18,0.54,0.15,-0.37,1721207171255
-2.95,5.34,-0.93,0.01,0.07,-0.18,1721207171265
0.41,-6.23,2.27,-0.49,0.41,-0.18,1721207171275
-0.10,-5.51,24.83,-0.09,0.12,-0.34,1721207171285
-2.49,4.15,12.79,0.35,0.00,-0.51,1721207171295
-5.04,2.12,5.02,-0.11,0.10,-0.48,1721207171305
-5.94,-6.52,12.73,-0.33,0.10,-0.18,1721207171315
-3.80,-1.13,14.53,0.01,-0.00,0.17,1721207171325
1.12,5.90,5.50,0.03,0.20,0.00,1721207171335
1.05,0.40,8.56,-0.29,0.04,-0.32,1721207171345
-3.35,-3.39,7.79,-0.05,-0.20,-0.15,1721207171355
-0.73,1.55,5.19,-0.17,0.32,0.11,1721207171365
4.07,0.59,18.54,-0.28,0.23,0.07,1721207171375
3.16,-0.14,13.55,0.20,-0.16,-0.07,1721207171385
2.90,4.95,-3.84,0.08,0.11,-0.12,1721207171395
2.43,-2.27,6.63,-0.66,0.34,-0.20,1721207171405
-0.21,-4.13,41.02,0.12,0.19,-0.25,1721207171415
0.16,5.79,8.52,0.90,-0.06,-0.15,1721207171425
-2.09,14.16,-12.92,-0.04,0.17,-0.20,1721207171435
-3.74,2.50,7.23,-0.54,0.16,-0.03,1721207171445
-2.21,-7.68,18.91,-0.08,0.22,0.21,1721207171455
0.01,-3.91,12.85,0.16,0.13,0.12,1721207171465
-1.10,1.77,17.61,0.27,0.05,-0.03,1721207171475
-1.00,9.39,12.73,0.49,0.05,0.08,1721207171485
-0.74,9.42,-4.93,0.03,-0.11,0.16,1721207171495
0.16,-7.23,2.31,-0.54,0.22,-0.08,1721207171505
-2.16,-9.35,28.12,0.12,0.01,-0.21,1721207171515
-4.86,0.94,12.34,0.51,-0.17,0.09,1721207171525
-4.69,4.19,-1.82,0.26,-0.12,0.40,1721207171535
3.12,3.88,8.49,0.01,0.40,0.34,1721207171545
2.63,8.67,16.68,-0.08,-0.16,0.09,1721207171555
-1.70,-6.71,9.77,-0.33,-0.27,-0.04,1721207171565
-2.77,-11.81,13.69,0.07,0.08,-0.02,1721207171575
-2.46,4.88,1.34,0.30,-0.27,0.15,1721207171585
2.59,0.78,5.74,-0.41,0.21,0.38,1721207171595
6.48,-7.02,22.77,0.01,0.07,0.19,1721207171605
3.51,3.61,10.50,0.37,-0.30,-0.47,1721207171615
-3.06,5.75,6.05,-0.05,-0.06,-0.73,1721207171625
-7.24,-9.84,4.22,-0.33,-0.22,-0.14,1721207171635
-7.09,-0.35,19.17,0.11,-0.03,0.51,1721207171645
1.91,-1.36,4.89,0.03,-0.00,0.52,1721207171655
7.01,-9.41,14.39,-0.16,0.03,0.10,1721207171665
4.98,1.34,14.66,0.59,-0.13,-0.42,1721207171675
1.20,3.77,-6.17,-0.01,-0.04,-0.47,1721207171685
-6.14,-2.31,14.23,-0.29,-0.12,0.09,1721207171695
-1.20,-2.05,12.39,0.29,0.01,0.24,1721207171705
4.97,-2.22,3.16,-0.13,0.19,-0.10,1721207171715
1.53,-8.46,29.74,-0.27,0.08,-0.51,1721207171725
-3.00,-0.21,22.12,0.82,-0.20,-0.33,1721207171735
-1.93,11.22,-6.98,0.44,0.13,0.14,1721207171745
3.28,-0.39,1.97,-0.29,0.31,0.27,1721207171755
3.11,-0.39,20.56,0.17,0.10,-0.25,1721207171765
0.46,0.48,5.65,0.07,0.00,-0.52,1721207171775
-5.16,1.04,13.15,-0.28,0.11,-0.08,1721207171785
-2.38,1.73,15.98,0.19,0.15,0.41,1721207171795
5.32,-0.68,0.44,-0.03,0.24,0.47,1721207171805
6.04,-1.79,7.32,-0.26,0.26,-0.16,1721207171815
1.00,-5.90,20.15,0.18,0.03,-0.56,1721207171825
-6.11,17.89,4.22,0.78,-0.07,-0.27,1721207171835
-4.32,17.08,-17.32,-0.51,0.34,0.37,1721207171845
-0.67,-7.89,16.60,-1.13,0.38,0.41,1721207171855
0.24,-20.60,26.13,-0.08,-0.05,-0.08,1721207171865
-1.64,2.38,22.58,0.37,-0.01,-0.13,1721207171875
-0.19,9.96,4.79,0.44,0.07,0.25,1721207171885
1.72,15.25,-5.26,0.09,0.14,0.13,1721207171895
2.14,2.34,-11.29,-0.72,0.01,-0.19,1721207171905
-4.39,-12.12,26.17,-0.89,0.02,-0.36,1721207171915
-7.89,-9.66,36.79,0.42,-0.09,0.00,1721207171925
-4.59,6.31,11.02,0.59,-0.02,0.50,1721207171935
1.04,7.73,2.98,0.17,0.08,0.59,1721207171945
6.45,-4.05,3.48,-0.35,-0.04,0.54,1721207171955
7.99,-7.18,18.53,-0.11,0.26,0.16,1721207171965
8.26,-2.91,16.92,0.55,-0.02,-0.28,1721207171975
1.53,17.28,-3.42,0.69,-0.16,-0.51,1721207171985
-2.07,5.85,-18.75,-0.54,-0.03,-0.29,1721207171995
-7.01,-29.13,33.81,-1.08,0.23,0.08,1721207172005
-1.72,-8.92,64.15,0.96,0.06,0.37,1721207172015
3.81,14.88,-14.49,1.30,-0.26,0.28,1721207172025
6.11,15.08,-22.32,-0.55,0.36,-0.14,1721207172035
2.31,-9.82,14.53,-0.66,0.04,-0.37,1721207172045
-1.02,-9.46,18.72,0.39,-0.08,-0.03,1721207172055
3.04,8.49,14.99,0.29,0.47,-0.09,1721207172065
-0.89,0.80,7.52,-0.16,-0.26,-0.33,1721207172075
-8.94,-4.38,10.42,-0.22,-0.09,-0.07,1721207172085
-3.44,-2.99,6.83,0.06,0.18,0.33,1721207172095
2.68,-2.65,18.82,-0.16,0.36,0.20,1721207172105
-0.50,10.33,15.49,0.51,-0.36,-0.25,1721207172115
-3.22,10.21,-17.90,-0.14,-0.12,-0.39,1721207172125
-2.84,-11.59,10.41,-1.11,0.39,-0.02,1721207172135
-2.50,-13.54,34.62,0.04,-0.06,0.30,1721207172145
-1.73,-1.07,8.87,0.49,-0.29,0.11,1721207172155
-0.69,5.16,12.18,-0.00,-0.24,0.04,1721207172170
1.16,0.77,10.38,-0.05,-0.14,0.11,1721207172174
-0.49,-4.77,6.02,-0.34,-0.06,-0.19,1721207172184
-3.09,-1.16,21.15,-0.06,0.01,-0.39,1721207172194
-4.93,-0.37,4.78,0.16,-0.29,-0.10,1721207172204
-2.62,1.87,1.85,-0.32,0.03,0.23,1721207172214
-0.42,-5.04,17.84,-0.33,-0.24,0.28,1721207172224
0.85,3.26,19.28,0.28,-0.24,0.04,1721207172234
1.41,3.81,-9.66,0.10,-0.43,-0.08,1721207172244
-0.52,-3.39,4.80,-0.78,0.10,-0.13,1721207172254
0.28,-4.47,31.95,0.08,-0.23,0.25,1721207172264
4.00,1.59,16.31,0.42,0.00,0.30,1721207172274
4.02,9.13,13.83,0.22,-0.15,-0.10,1721207172284
2.39,5.60,5.90,0.06,-0.27,-0.26,1721207172294
-0.51,5.53,5.94,-0.07,-0.03,-0.21,1721207172304
0.76,-1.92,1.86,-0.23,-0.09,0.00,1721207172314
-0.24,-0.75,14.98,-0.09,0.05,-0.03,1721207172324
-0.09,5.51,7.28,0.36,-0.22,-0.15,1721207172334
-0.46,3.50,-1.92,-0.19,-0.03,-0.05,1721207172344
-0.14,4.11,21.10,-0.21,0.15,0.00,1721207172354
2.75,2.25,12.12,0.11,-0.16,-0.14,1721207172364
0.28,-4.07,4.52,-0.35,-0.00,-0.39,1721207172374
-4.38,-1.87,12.42,0.17,-0.26,-0.34,1721207172384
-3.09,-0.49,-1.84,-0.07,0.08,-0.05,1721207172394
-1.29,4.08,21.91,-0.08,0.08,0.12,1721207172404
2.83,1.82,11.05,0.27,-0.08,-0.15,1721207172414
1.48,-2.38,1.09,-0.37,0.03,-0.51,1721207172424
-6.10,-2.93,18.03,-0.19,-0.29,-0.42,1721207172434
-6.80,-2.77,16.74,0.22,0.01,0.04,1721207172444
-2.29,8.09,11.75,0.20,0.01,0.32,1721207172454
2.42,8.38,8.90,-0.17,-0.01,0.02,1721207172464
3.51,-9.50,5.59,-0.28,-0.15,-0.22,1721207172474
-0.99,-6.43,8.61,-0.09,0.02,-0.45,1721207172484
-2.30,-2.34,11.99,0.18,-0.11,-0.08,1721207172494
-0.98,8.57,11.02,0.30,0.00,0.22,1721207172504
7.12,5.72,17.15,-0.10,0.41,0.02,1721207172514
3.11,-0.50,21.54,-0.16,-0.22,-0.54,1721207172524
-3.99,-13.07,-4.25,-0.25,-0.36,-0.62,1721207172534
-4.86,-0.23,12.79,-0.14,0.55,-0.13,1721207172544
1.79,5.50,13.44,0.22,0.41,0.33,1721207172554
8.14,-6.24,11.11,-0.16,0.12,-0.01,1721207172564
1.37,-4.27,12.97,0.12,-0.24,-0.56,1721207172574
-2.90,3.50,7.21,0.00,0.13,-0.41,1721207172584
-2.95,3.42,4.54,-0.12,0.10,0.21,1721207172594
3.81,-15.42,11.08,-0.54,0.38,0.40,1721207172604
4.72,-8.94,29.35,0.28,0.10,-0.21,1721207172614
1.49,8.90,10.62,0.85,0.04,-0.81,1721207172624
-4.49,18.57,-3.20,0.26,0.12,-0.26,1721207172634
-1.94,-3.64,-2.60,-0.66,0.44,0.43,1721207172644
0.10,-10.21,24.05,-0.11,0.46,0.08,1721207172654
0.64,-4.44,13.01,0.40,0.00,-0.42,1721207172664
-3.72,12.74,21.29,0.24,0.06,-0.18,1721207172674
-4.26,2.92,6.63,0.16,0.10,0.27,1721207172684
0.45,-6.51,-7.37,-0.08,0.23,0.29,1721207172694
1.78,-0.34,8.39,-0.22,0.34,-0.04,1721207172704
-2.14,5.15,26.94,0.40,0.04,-0.24,1721207172714
-2.08,6.50,0.81,0.55,-0.01,-0.15,1721207172724
-1.82,4.92,0.21,-0.07,0.24,0.27,1721207172734
2.04,-2.38,19.51,-0.28,0.25,0.31,1721207172744
0.50,-0.10,19.46,0.40,-0.18,-0.08,1721207172754
-0.30,9.65,-7.26,0.45,-0.03,-0.18,1721207172764
-1.96,12.07,-7.64,-0.47,0.09,0.03,1721207172774
-2.79,-8.42,14.96,-0.88,0.04,0.15,1721207172784
-0.82,-19.53,35.93,-0.11,0.08,0.22,1721207172794
1.05,-0.88,11.48,0.83,-0.19,0.30,1721207172804
5.95,10.07,-12.73,0.13,0.17,0.16,1721207172814
-3.74,-0.44,16.06,-0.56,0.15,-0.12,1721207172824
1.03,-4.88,45.77,0.42,0.01,-0.31,1721207172834
2.36,2.86,-2.10,0.73,-0.28,0.27,1721207172844
4.34,4.06,-20.00,-0.57,0.36,0.35,1721207172854
5.87,-0.78,21.13,-0.50,0.34,-0.20,1721207172864
2.98,0.50,17.13,0.42,-0.47,-0.48,1721207172874
-3.13,-5.06,-4.62,-0.23,0.09,-0.52,1721207172884
-7.83,0.77,22.40,-0.09,0.04,-0.18,1721207172894
-2.60,0.09,9.99,-0.05,-0.03,0.31,1721207172904
0.39,1.41,10.93,-0.21,0.03,0.28,1721207172914
2.55,-6.43,8.87,-0.15,0.04,-0.08,1721207172924
-0.28,-10.47,26.82,-0.07,0.21,-0.36,1721207172934
-0.18,7.59,15.01,0.72,-0.21,-0.14,1721207172944
2.55,15.79,-7.23,0.04,0.32,-0.17,1721207172954
-0.97,-2.59,2.78,-0.66,-0.17,-0.39,1721207172964
-5.35,-17.26,14.88,-0.20,0.01,-0.27,1721207172974
-2.57,-3.60,11.67,0.34,0.13,0.08,1721207172984
-0.63,4.67,12.69,-0.17,0.24,-0.22,1721207172994
-3.56,8.39,20.60,-0.06,-0.35,-0.40,1721207173004
-3.63,-9.19,9.37,-0.15,0.04,-0.12,1721207173014
-2.69,-7.22,7.41,-0.14,-0.08,0.07,1721207173024
0.99,-0.35,13.08,0.00,0.19,-0.09,1721207173034
3.40,6.73,14.25,0.12,0.09,-0.38,1721207173044
-1.47,2.38,12.97,-0.04,-0.17,-0.58,1721207173054
-8.19,-0.46,7.38,-0.00,-0.27,-0.35,1721207173064
-3.26,1.59,11.59,0.01,0.43,0.00,1721207173074
1.12,7.41,8.51,0.00,-0.10,0.21,1721207173084
0.44,3.52,-2.15,-0.40,-0.27,-0.07,1721207173094
3.28,-8.79,20.37,-0.31,0.44,-0.41,1721207173104
1.94,-3.37,19.12,0.41,-0.14,-0.36,1721207173114
-0.67,-0.01,1.72,0.09,0.04,-0.31,1721207173124
-2.76,12.74,17.02,0.24,0.02,-0.16,1721207173134
1.06,8.04,9.43,0.20,0.11,-0.00,1721207173144
2.55,-0.97,8.47,-0.29,0.13,-0.13,1721207173154
-0.22,-5.40,7.46,-0.18,-0.10,-0.47,1721207173164
-5.26,-1.88,17.25,-0.11,0.13,-0.52,1721207173174
-8.53,7.75,10.32,0.56,-0.16,0.05,1721207173184
-1.59,-0.32,-10.70,-0.05,0.09,0.65,1721207173194
4.15,-2.92,11.55,-0.32,0.37,0.35,1721207173204
3.67,-5.04,24.42,-0.06,-0.05,-0.38,1721207173214
-2.62,2.74,21.08,0.26,-0.26,-0.58,1721207173224
-7.23,-0.04,3.73,0.17,-0.14,-0.04,1721207173234
-3.75,-4.62,11.43,-0.06,0.24,0.50,1721207173244
1.46,1.73,13.32,0.27,-0.05,0.41,1721207173254
3.32,3.19,4.80,0.13,-0.04,0.03,1721207173264
0.97,6.34,3.08,0.21,-0.08,-0.14,1721207173274
0.07,-5.67,-0.11,-0.26,-0.01,0.07,1721207173284
-1.13,-3.85,26.60,-0.23,0.09,0.12,1721207173294
0.84,-1.27,20.73,0.37,-0.13,0.10,1721207173304
0.77,5.74,4.96,0.04,0.01,0.01,1721207173314
0.51,-1.66,4.40,-0.19,-0.12,0.14,1721207173324
2.42,-5.23,8.41,-0.06,0.19,0.07,1721207173334
1.99,-3.23,7.49,0.08,-0.07,-0.12,1721207173344
-2.14,1.49,14.00,0.09,-0.00,-0.18,1721207173354
-2.63,2.31,10.15,0.13,-0.03,0.09,1721207173364
0.43,-2.42,6.43,-0.17,0.09,0.25,1721207173374
1.59,-3.98,13.48,-0.04,0.02,0.09,1721207173384
2.92,-2.37,7.13,0.14,-0.06,0.03,1721207173394
2.02,2.46,9.33,0.03,0.13,-0.09,1721207173404
2.10,1.98,11.36,0.01,0.06,-0.08,1721207173414
-0.76,-3.37,3.51,-0.04,-0.19,0.04,1721207173424
0.21,-4.47,11.24,-0.31,0.27,0.08,1721207173434
0.40,-1.57,22.11,0.06,-0.03,0.10,1721207173444
1.36,1.41,16.62,0.25,-0.01,0.17,1721207173454
1.17,5.25,8.08,0.11,0.08,0.06,1721207173464
1.95,0.45,6.17,-0.04,0.05,0.01,1721207173474
-0.29,-2.58,8.25,-0.03,0.05,-0.10,1721207173484
-2.72,-0.53,7.42,0.09,-0.05,-0.05,1721207173494
-2.30,4.65,9.69,0.20,0.03,0.22,1721207173504
1.36,1.09,6.92,-0.00,0.10,0.28,1721207173514
1.47,2.95,13.04,-0.00,-0.03,0.06,1721207173524
1.21,0.36,9.27,-0.06,-0.03,-0.07,1721207173534
-0.03,3.59,13.55,0.05,0.04,0.01,1721207173544
1.69,2.71,2.82,0.07,0.01,0.06,1721207173554
2.87,-3.51,13.06,-0.37,0.21,-0.07,1721207173564
-0.54,4.32,21.96,0.25,-0.22,-0.30,1721207173574
-0.51,0.56,3.31,0.10,0.05,-0.24,1721207173584
-2.87,2.12,10.37,-0.04,-0.05,-0.03,1721207173594
-0.86,-1.13,6.07,0.05,-0.09,0.12,1721207173604
0.57,2.46,8.44,-0.01,0.02,0.04,1721207173614
1.33,3.25,16.09,0.19,0.05,-0.17,1721207173624
1.60,1.57,2.94,0.00,-0.17,-0.04,1721207173634
0.91,-1.30,6.31,-0.28,0.07,0.13,1721207173644
4.43,-3.31,15.97,0.03,0.14,-0.00,1721207173654
4.27,1.92,9.74,0.23,-0.09,-0.26,1721207173664
1.04,1.97,6.60,-0.09,0.02,-0.52,1721207173674
-2.73,-1.17,17.09,-0.06,-0.02,-0.42,1721207173684
-3.52,-1.62,12.99,0.12,-0.11,-0.02,1721207173694
0.15,-3.00,6.90,-0.07,0.11,0.09,1721207173704
1.68,-1.80,14.18,0.09,0.02,-0.15,1721207173714
1.20,-0.79,6.09,0.26,-0.06,-0.36,1721207173724
-1.85,6.04,8.66,0.15,0.10,-0.49,1721207173734
-4.03,-0.02,6.63,-0.12,-0.10,-0.26,1721207173744
-4.77,-4.25,11.70,-0.15,0.08,-0.07,1721207173754
0.40,-5.98,12.23,0.11,0.13,0.10,1721207173764
0.44,-1.22,7.52,-0.03,-0.03,-0.09,1721207173774
-0.28,0.24,13.44,0.06,-0.02,-0.38,1721207173784
-2.53,1.64,11.13,0.25,-0.03,-0.31,1721207173794
-1.30,-1.87,3.32,-0.04,0.09,-0.14,1721207173804
-1.28,-5.26,14.58,-0.24,0.01,-0.08,1721207173814
-0.90,0.30,11.43,0.21,-0.21,-0.18,1721207173824
-0.15,-0.26,12.73,-0.17,0.38,-0.46,1721207173834
-0.88,3.43,18.59,0.37,-0.23,-0.35,1721207173844
-3.56,2.37,-8.06,0.06,-0.20,-0.24,1721207173854
-2.87,-1.66,10.04,-0.32,0.36,-0.23,1721207173864
-1.65,-3.68,14.08,-0.04,0.01,-0.22,1721207173874
-0.42,2.02,30.02,-0.00,0.37,-0.42,1721207173884
-2.62,8.63,12.57,0.59,-0.48,-0.31,1721207173894
-3.92,-2.30,-9.58,-0.18,-0.10,-0.06,1721207173904
1.65,0.84,11.85,-0.02,0.41,0.06,1721207173914
5.15,1.32,8.94,0.18,0.05,-0.07,1721207173924
3.82,8.47,17.82,0.19,0.25,-0.44,1721207173934
1.75,5.95,4.41,0.30,-0.20,-0.59,1721207173944
-2.64,1.34,8.35,-0.42,0.32,-0.63,1721207173954
-5.60,1.61,15.05,0.05,-0.21,-0.18,1721207173964
-4.39,-5.41,-0.75,-0.22,0.04,0.15,1721207173974
-1.06,-0.13,17.20,0.13,0.18,0.19,1721207173984
3.03,-2.78,2.61,0.14,-0.03,0.00,1721207173994
-0.49,6.10,21.48,0.02,0.16,-0.34,1721207174004
-2.14,8.77,16.04,0.35,0.01,-0.30,1721207174014
-5.04,1.14,-2.41,-0.15,-0.21,0.00,1721207174024
-4.27,-10.28,7.39,-0.48,0.09,0.31,1721207174034
-0.66,-5.88,25.52,0.12,0.05,0.37,1721207174044
3.00,9.55,5.91,0.58,-0.21,0.15,1721207174054
3.24,8.50,-8.33,-0.24,-0.00,-0.00,1721207174064
2.20,-9.73,14.76,-0.71,0.18,-0.06,1721207174074
-1.87,-9.11,31.46,0.04,-0.13,-0.20,1721207174084
-4.13,-0.26,15.39,0.30,-0.21,-0.03,1721207174094
-4.40,2.41,1.30,0.04,-0.19,0.40,1721207174104
1.02,0.56,4.92,-0.24,0.14,0.56,1721207174114
4.10,0.60,9.88,-0.14,-0.14,0.32,1721207174124
4.80,-4.89,7.14,-0.20,0.05,-0.18,1721207174134
1.31,-5.53,11.90,-0.14,-0.18,-0.17,1721207174144
-2.85,-2.49,11.96,-0.03,-0.17,0.12,1721207174154
0.68,-5.72,22.09,-0.07,0.17,0.28,1721207174164
3.91,11.84,5.97,0.37,-0.08,-0.09,1721207174179
2.73,9.15,0.64,-0.04,-0.13,-0.11,1721207174183
0.06,-3.66,7.77,-0.50,0.01,-0.15,1721207174193
-2.51,-17.76,6.21,-0.33,-0.21,0.02,1721207174203
-2.48,5.33,25.63,0.42,0.14,0.16,1721207174213
4.54,5.11,-5.94,0.28,-0.04,0.38,1721207174223
5.70,1.50,15.23,-0.53,0.24,0.19,1721207174233
5.53,1.89,25.63,0.34,-0.13,-0.22,1721207174243
1.67,-0.81,-7.78,0.05,-0.13,-0.42,1721207174253
-4.83,-1.21,14.33,-0.47,0.16,-0.09,1721207174263
-1.96,9.90,21.45,0.56,-0.09,0.27,1721207174273
2.93,-3.93,-13.98,-0.04,-0.09,0.38,1721207174283
4.30,-0.34,21.08,-0.40,0.55,-0.04,1721207174293
2.61,7.68,15.13,0.49,-0.24,-0.39,1721207174303
0.01,5.10,-14.98,-0.26,0.03,-0.12,1721207174313
-5.92,-12.50,27.95,-0.67,0.16,0.18,1721207174323
-1.13,-3.98,42.40,0.79,-0.14,0.18,1721207174333
3.71,16.30,-7.68,0.93,-0.13,0.18,1721207174343
8.25,7.66,-15.87,-0.96,0.44,0.05,1721207174353
2.03,0.29,29.09,-0.29,-0.32,-0.70,1721207174363
-0.73,-10.47,-0.12,0.46,-0.17,-0.73,1721207174373
-9.51,-4.38,3.79,-0.30,0.08,-0.13,1721207174383
-3.37,8.38,15.46,0.34,0.07,0.12,1721207174393
1.60,4.35,-3.30,-0.15,-0.06,0.08,1721207174403
1.92,-7.37,15.38,-0.54,0.14,-0.13,1721207174413
2.38,0.03,27.20,0.39,-0.00,-0.30,1721207174423
3.39,6.11,-0.52,0.18,-0.09,-0.28,1721207174433
0.55,4.23,1.88,-0.43,0.01,-0.33,1721207174443
0.91,-13.68,11.30,-0.42,0.15,-0.55,1721207174453
-1.37,-8.59,17.79,0.19,-0.13,-0.26,1721207174463
-0.50,8.12,6.34,0.41,0.18,-0.24,1721207174473
-1.74,7.59,7.07,-0.17,0.09,-0.64,1721207174483
-4.96,-0.32,25.36,-0.21,0.08,-0.44,1721207174493
-4.55,0.29,4.01,0.36,-0.12,0.14,1721207174503
1.69,-6.03,-8.76,-0.54,0.26,0.08,1721207174513
-8.21,2.45,38.03,-0.14,0.47,-0.28,1721207174523
0.93,-3.53,3.59,0.41,-0.25,-0.55,1721207174533
0.82,-2.55,14.19,-0.43,0.49,-0.55,1721207174543
-2.71,6.22,12.71,0.45,-0.49,-0.18,1721207174553
-2.92,-9.89,-5.85,-0.62,0.28,-0.16,1721207174563
-10.59,7.79,44.11,-0.01,-0.16,-0.35,1721207174573
-0.78,-3.23,-0.67,0.67,-0.27,-0.17,1721207174583
2.19,4.42,4.05,-0.31,0.60,-0.12,1721207174593
2.32,3.00,-0.63,0.01,-0.61,-0.16,1721207174603
-3.13,-5.92,2.11,-0.36,0.31,-0.24,1721207174613
-2.55,-0.12,25.03,0.05,0.14,-0.26,1721207174623
-2.51,5.07,7.48,0.47,-0.19,-0.15,1721207174633
-1.75,3.33,12.26,-0.32,0.33,-0.22,1721207174643
-2.70,2.99,22.23,0.10,-0.33,-0.01,1721207174653
-2.91,-5.40,1.33,0.23,-0.13,-0.21,1721207174663
-0.56,2.86,8.08,0.24,0.35,0.02,1721207174673
1.02,4.16,6.52,0.16,-0.19,0.13,1721207174683
1.63,9.96,9.31,0.20,0.01,-0.05,1721207174693
3.78,1.95,10.28,0.01,0.04,-0.30,1721207174703
-1.41,-2.48,14.65,-0.11,-0.16,-0.40,1721207174713
-3.58,-1.20,13.30,0.16,0.03,-0.31,1721207174723
-1.27,4.21,11.45,0.36,-0.12,0.18,1721207174733
0.48,4.53,1.08,0.12,-0.02,0.12,1721207174743
2.65,2.44,10.12,-0.07,0.23,-0.13,1721207174753
2.23,3.77,13.06,0.18,0.02,-0.31,1721207174763
-1.22,-2.67,4.20,-0.13,-0.09,-0.31,1721207174773
-4.12,-1.16,21.51,-0.06,0.06,-0.12,1721207174783
-1.79,4.26,13.10,0.57,-0.08,0.06,1721207174793
1.12,4.49,-4.53,0.04,0.05,0.07,1721207174803
1.37,2.88,7.76,-0.26,0.04,-0.05,1721207174813
1.45,-0.90,13.92,-0.00,0.08,-0.34,1721207174823
-1.19,-2.97,4.27,-0.02,-0.06,-0.37,1721207174833
-3.57,-1.99,13.36,-0.19,0.06,-0.09,1721207174843
-1.91,-1.43,15.59,0.14,-0.03,0.17,1721207174853
1.70,-0.62,3.17,-0.07,0.07,0.07,1721207174863
2.93,-3.00,16.06,-0.28,0.16,-0.11,1721207174873
0.79,2.94,19.15,0.30,-0.00,-0.28,1721207174883
1.11,-3.30,-0.07,-0.00,0.07,-0.18,1721207174893
-2.28,-2.84,14.56,-0.18,0.15,-0.08,1721207174903
0.28,-2.81,8.60,0.15,0.03,0.00,1721207174913
2.34,-0.61,6.39,-0.10,0.17,-0.03,1721207174923
2.17,0.36,11.78,-0.09,0.08,-0.23,1721207174933
-0.11,-1.37,10.89,-0.12,0.04,-0.38,1721207174943
-2.35,-2.71,10.94,-0.15,0.18,-0.26,1721207174953
-3.09,-3.34,11.54,-0.03,0.19,-0.08,1721207174963
-0.90,0.89,13.43,0.05,0.20,0.14,1721207174973
3.22,0.40,11.41,-0.01,0.24,0.06,1721207174983
2.75,-0.94,10.94,-0.04,0.17,-0.21,1721207174993
0.41,-0.94,10.87,-0.00,0.13,-0.34,1721207175003
-2.26,3.51,12.66,0.17,0.14,-0.13,1721207175013
-0.51,-0.33,3.10,-0.14,0.28,0.14,1721207175023
1.37,-0.68,18.29,0.00,0.34,0.01,1721207175033
1.93,2.38,5.99,0.23,0.06,-0.22,1721207175043
-0.94,6.49,10.61,-0.01,0.19,-0.35,1721207175053
-1.13,6.70,11.34,0.21,0.23,-0.16,1721207175063
-1.53,-2.41,4.66,-0.17,0.20,0.00,1721207175073
-1.94,1.96,12.10,-0.02,0.23,0.03,1721207175083
2.30,-0.79,12.37,-0.04,0.37,0.06,1721207175093
1.49,6.19,17.99,0.28,0.13,-0.04,1721207175103
1.79,4.52,1.46,0.20,0.15,-0.10,1721207175113
1.15,3.58,1.64,-0.10,0.32,-0.23,1721207175123
0.17,0.12,7.35,-0.22,0.25,-0.26,1721207175133
-1.89,-6.53,11.02,-0.18,0.15,-0.15,1721207175143
-1.61,-4.61,21.33,0.17,0.32,-0.03,1721207175153
0.30,14.20,12.84,0.70,0.11,0.09,1721207175163
3.15,6.67,-8.02,-0.12,0.12,0.05,1721207175173
2.11,-3.93,15.21,-0.65,0.53,-0.28,1721207175183
1.85,-11.21,18.56,-0.02,0.07,-0.23,1721207175193
-0.13,-5.18,15.57,0.09,0.28,-0.17,1721207175203
0.44,-0.47,7.77,0.42,0.06,-0.19,1721207175213
0.55,2.01,5.66,0.09,0.40,-0.26,1721207175223
-0.30,9.05,15.58,0.26,0.21,-0.30,1721207175233
-1.52,-1.53,-0.59,-0.08,0.02,-0.22,1721207175243
-4.87,-5.15,23.77,-0.19,0.60,-0.35,1721207175253
-1.87,0.15,15.60,0.55,0.06,-0.02,1721207175263
-0.91,7.28,-3.91,0.15,0.16,0.11,1721207175273
-0.83,-0.85,-6.68,-0.24,0.04,-0.05,1721207175283
0.60,-11.91,15.42,-0.52,0.53,-0.25,1721207175293
-3.12,0.39,30.40,0.16,-0.11,-0.14,1721207175303
-3.95,4.68,6.64,0.37,0.11,-0.15,1721207175313
-2.19,-2.38,-2.29,-0.18,0.19,0.10,1721207175323
-1.27,-5.21,28.97,-0.27,0.62,-0.05,1721207175333
-0.70,0.69,10.51,0.60,-0.36,0.23,1721207175343
2.77,0.73,-5.01,-0.24,0.47,-0.01,1721207175353
-6.93,14.42,14.28,0.17,-0.21,-0.20,1721207175363
1.89,-13.02,-3.07,-0.55,0.11,-0.39,1721207175373
-7.94,-6.55,42.17,-0.38,0.50,-0.20,1721207175383
-7.30,4.63,13.81,0.59,-0.12,-0.11,1721207175393
-3.74,-1.67,-2.00,-0.40,0.14,0.27,1721207175403
-1.54,-0.42,14.94,-0.08,0.16,0.43,1721207175413
7.34,2.22,4.76,0.23,0.15,0.27,1721207175423
5.19,9.53,9.61,-0.16,0.07,-0.31,1721207175433
-0.66,-0.80,17.15,-0.11,-0.16,-0.50,1721207175443
-6.64,1.23,12.16,0.39,-0.09,-0.20,1721207175453
-3.41,3.22,-2.20,0.11,0.09,0.39,1721207175463
-0.71,7.08,14.03,-0.26,0.02,0.48,1721207175473
3.35,9.27,3.63,0.45,-0.15,0.25,1721207175483
7.81,-14.03,-0.25,-0.89,0.33,-0.22,1721207175493
-4.75,16.62,52.85,0.45,-0.61,-0.59,1721207175503
-6.82,4.15,-12.77,0.91,-0.60,-0.38,1721207175513
-5.53,-3.92,2.79,-1.12,1.04,0.25,1721207175523
12.26,14.00,29.87,0.44,-0.16,1.12,1721207175533
3.38,-6.23,-16.12,0.41,-0.63,0.73,1721207175543
1.64,7.25,1.41,-0.03,0.17,0.09,1721207175553
8.59,-1.18,7.44,-0.33,0.20,-0.21,1721207175563
-1.04,-4.74,31.66,-0.27,-0.26,-0.14,1721207175573
-5.73,2.90,17.11,0.78,-0.39,-0.00,1721207175583
-3.58,-1.06,-18.91,-0.09,-0.18,0.44,1721207175593
-2.34,-5.47,20.16,-0.72,0.26,0.55,1721207175603
3.67,-3.47,19.76,0.43,-0.13,0.34,1721207175613
7.44,-5.86,2.45,-0.10,0.18,-0.06,1721207175623
-3.39,10.47,27.93,0.24,-0.53,0.08,1721207175633
-1.42,-1.93,-4.21,0.17,-0.27,0.27,1721207175643
0.82,-0.50,16.35,-0.26,0.30,0.28,1721207175653
2.94,2.32,14.58,0.43,-0.41,0.42,1721207175663
6.72,-3.76,-1.67,-0.25,0.21,0.17,1721207175673
-2.40,2.01,24.72,-0.02,-0.32,-0.22,1721207175683
-2.64,-0.48,-5.46,0.13,-0.33,-0.21,1721207175693
-2.09,-6.26,7.74,-0.63,0.21,0.09,1721207175703
0.72,6.50,31.46,0.52,-0.17,0.38,1721207175713
4.02,-10.77,-11.45,-0.16,-0.25,0.12,1721207175723
-2.09,2.36,36.14,-0.09,0.13,-0.23,1721207175733
-0.18,0.56,-1.95,0.39,-0.30,-0.27,1721207175743
-0.77,0.55,5.18,-0.59,0.49,-0.02,1721207175753
1.96,-2.56,15.32,0.13,-0.07,0.27,1721207175763
4.20,-4.85,-0.38,-0.09,0.02,0.07,1721207175773
2.74,7.53,24.68,0.02,0.11,-0.16,1721207175783
0.82,4.25,12.09,0.27,-0.11,-0.27,1721207175793
-1.18,-5.18,6.85,-0.19,0.05,-0.33,1721207175803
-4.95,-2.82,13.81,0.04,-0.01,-0.23,1721207175813
-4.12,-0.04,6.88,0.17,-0.03,0.13,1721207175823
0.48,10.44,10.77,0.25,0.21,0.38,1721207175833
7.17,7.52,7.64,0.08,0.16,0.19,1721207175843
7.09,-4.24,3.56,-0.30,0.03,-0.28,1721207175853
1.67,-3.89,24.38,-0.25,0.23,-0.75,1721207175863
-3.36,5.23,12.35,0.52,-0.08,-0.59,1721207175873
-3.95,4.73,0.67,0.03,0.16,0.02,1721207175883
-0.73,8.23,14.43,0.16,0.23,0.17,1721207175893
3.84,-0.31,-2.56,-0.12,-0.02,0.01,1721207175903
0.73,-2.44,14.58,-0.58,0.42,-0.45,1721207175913
-1.99,-4.42,18.47,0.13,-0.08,-0.56,1721207175923
-3.72,-1.67,4.78,0.11,0.05,-0.16,1721207175933
-1.61,7.12,11.65,0.26,0.06,0.25,1721207175943
3.33,4.69,2.34,-0.03,0.09,0.13,1721207175953
5.37,-2.78,7.09,-0.40,0.22,-0.29,1721207175963
1.61,-8.12,13.13,-0.39,0.10,-0.58,1721207175973
-3.24,-1.92,25.37,0.11,0.19,-0.54,1721207175983
-3.37,2.31,2.47,0.55,-0.05,-0.23,1721207175993
-2.10,2.76,1.83,-0.24,0.37,-0.13,1721207176003
-1.93,4.50,16.40,-0.08,-0.02,0.03,1721207176013
0.96,-6.32,4.61,-0.24,0.29,-0.21,1721207176023
-0.42,-5.08,25.30,-0.12,0.41,-0.41,1721207176033
-3.65,3.63,11.41,0.43,-0.16,-0.25,1721207176043
-2.23,-3.61,3.12,-0.14,0.25,-0.01,1721207176053
-2.54,9.92,8.58,0.31,-0.04,0.09,1721207176063
1.89,-2.93,0.84,-0.30,0.30,-0.01,1721207176073
-1.75,-1.95,24.48,-0.19,-0.00,-0.29,1721207176083
-1.63,-6.40,6.56,0.26,0.02,-0.26,1721207176093
-4.52,1.89,11.06,-0.08,0.42,-0.17,1721207176103
-2.75,1.55,9.69,0.10,-0.10,0.18,1721207176113
1.51,1.32,10.14,-0.03,0.35,0.24,1721207176123
-14.47,-5.13,0.89,-0.45,-0.12,0.16,1721207176663
-14.01,-1.54,17.61,-0.57,0.50,0.73,1721207176668
3.18,1.29,29.70,0.32,0.25,1.81,1721207176677
18.49,3.48,-7.48,0.45,0.10,0.92,1721207176687
20.89,-3.24,-3.95,-0.55,0.31,-0.76,1721207176696
3.80,4.92,26.03,0.01,-0.32,-2.13,1721207176706
-10.79,7.42,2.93,0.71,-0.16,-1.94,1721207176716
-21.78,-4.11,-6.27,-0.37,0.16,-0.27,1721207176726
-19.02,-6.83,22.21,-0.20,0.07,1.09,1721207176736
-2.34,0.74,18.85,0.47,0.19,1.28,1721207176746
7.17,3.02,1.95,0.18,-0.13,0.90,1721207176755
12.07,3.30,10.77,-0.06,0.41,-0.03,1721207176765
8.41,-4.29,14.94,0.02,-0.31,-0.37,1721207176774
-1.66,-5.00,8.30,0.17,-0.24,-0.42,1721207176784
-4.73,-0.51,10.11,0.26,0.01,-0.04,1721207176793
-5.13,3.41,0.74,0.08,-0.21,0.58,1721207176803
4.20,-0.72,16.14,-0.15,0.46,0.57,1721207176813
8.03,0.45,17.95,0.33,-0.20,0.03,1721207176823
2.04,4.41,2.56,0.25,-0.28,-0.54,1721207176833
-5.29,4.76,6.19,-0.19,-0.02,-0.45,1721207176843
-9.16,-0.96,13.30,-0.20,-0.28,0.28,1721207176852
-4.54,-7.26,14.37,-0.08,0.08,0.65,1721207176862
4.35,2.92,14.14,0.42,-0.06,0.52,1721207176872
5.90,7.47,-5.64,-0.16,-0.31,0.03,1721207176882
1.10,-5.61,20.13,-0.50,0.19,-0.55,1721207176892
-2.79,-3.93,20.69,0.35,-0.48,0.04,1721207176902
0.78,5.35,3.77,0.16,0.14,0.43,1721207176912
2.92,6.98,3.94,-0.05,-0.35,0.26,1721207176922
3.87,-2.94,3.76,-0.45,-0.07,-0.08,1721207176932
1.95,-7.32,22.63,-0.23,0.03,-0.40,1721207176942
-4.11,2.44,12.22,0.27,-0.37,-0.32,1721207176952
-5.83,1.49,0.35,-0.17,-0.08,0.05,1721207176962
-3.55,-1.87,10.54,-0.26,-0.16,0.31,1721207176972
2.00,-1.77,17.05,-0.05,0.11,0.20,1721207176982
3.85,2.40,9.41,0.26,-0.24,-0.11,1721207176992
0.58,3.96,-4.84,-0.06,-0.20,-0.28,1721207177002
-2.14,0.90,14.57,-0.35,0.08,-0.21,1721207177012
-2.39,6.18,26.04,0.01,-0.17,-0.02,1721207177022
0.37,-6.64,2.83,-0.14,-0.19,0.04,1721207177032
-0.95,5.58,5.58,-0.19,-0.04,-0.01,1721207177042
1.79,-3.52,10.28,-0.44,-0.12,0.02,1721207177052
0.49,3.27,24.03,0.16,-0.14,-0.00,1721207177062
-0.39,10.29,-4.13,0.60,-0.35,-0.12,1721207177072
0.51,0.68,2.39,-0.67,0.24,-0.34,1721207177082
-1.97,3.07,20.60,-0.14,-0.39,-0.09,1721207177092
-3.66,-6.71,5.09,-0.31,-0.20,0.13,1721207177102
0.14,3.80,22.28,0.06,0.07,0.17,1721207177112
4.99,12.70,6.90,0.57,-0.16,-0.10,1721207177122
4.39,-2.88,-2.02,-0.15,-0.08,-0.46,1721207177132
-2.83,9.36,20.58,-0.08,-0.19,-0.66,1721207177142
-4.67,-5.71,9.72,-0.17,-0.21,-0.44,1721207177152
-4.65,1.56,18.71,-0.01,0.06,-0.09,1721207177162
0.76,5.43,-3.44,0.46,-0.23,0.15,1721207177172
5.88,-11.72,9.78,-0.62,0.37,-0.16,1721207177182
2.63,16.16,28.30,0.82,-0.25,-0.56,1721207177192
0.46,-2.71,-16.80,0.29,-0.18,-0.76,1721207177202
-11.99,-5.70,20.02,-0.40,0.26,-0.53,1721207177212
-7.56,-6.69,23.47,0.25,0.07,0.01,1721207177222
2.27,3.66,8.53,0.12,0.27,0.24,1721207177232
6.00,6.03,5.27,0.33,-0.07,-0.02,1721207177242
4.73,-2.18,-5.41,-0.09,0.03,-0.48,1721207177252
-1.17,-8.39,28.76,-0.39,0.39,-0.90,1721207177262
-5.39,12.55,14.27,1.00,-0.11,-0.53,1721207177272
-3.66,-7.91,-10.29,-0.78,0.21,-0.17,1721207177282
-7.15,4.60,43.44,0.20,-0.04,0.10,1721207177292
1.07,-6.58,-17.60,0.43,-0.20,0.17,1721207177302
3.88,-1.37,26.41,-0.68,1.05,-0.47,1721207177312
-3.90,13.21,17.82,0.65,-0.37,-0.53,1721207177322
-0.12,-1.62,-6.17,-0.50,0.63,-0.40,1721207177332
-7.33,4.28,26.65,0.10,-0.35,-0.00,1721207177342
0.18,1.46,-2.50,0.35,0.02,0.22,1721207177352
0.91,4.39,7.20,-0.12,0.40,0.14,1721207177362
2.24,1.90,9.71,-0.01,0.02,-0.00,1721207177372
0.88,2.23,8.63,-0.12,0.08,0.01,1721207177382
0.45,-2.62,15.57,-0.22,0.17,-0.07,1721207177392
-0.45,6.28,12.03,0.20,0.02,-0.00,1721207177402
1.09,-3.02,1.86,-0.29,0.24,-0.11,1721207177412
-6.81,-1.16,22.25,-0.23,-0.29,-0.10,1721207177422
-5.14,4.79,19.00,0.28,0.16,0.53,1721207177432
3.00,3.23,-0.60,0.16,0.13,0.66,1721207177442
8.24,1.63,5.96,-0.09,0.17,0.35,1721207177452
5.96,-0.70,9.60,0.04,-0.08,-0.24,1721207177462
1.15,-0.05,12.65,-0.01,0.19,-0.62,1721207177472
-6.06,13.42,9.79,0.37,-0.18,-0.32,1721207177482
-6.03,-4.64,-1.96,-0.38,0.13,0.33,1721207177492
-2.72,-11.78,16.07,-0.36,0.09,0.54,1721207177502
2.73,3.95,14.74,0.22,-0.05,0.37,1721207177512
5.11,0.37,7.61,-0.11,0.03,-0.01,1721207177522
-0.19,5.59,16.50,-0.01,-0.23,-0.34,1721207177532
-3.43,-4.38,5.52,-0.13,-0.07,-0.11,1721207177542
-3.36,-0.54,16.40,-0.16,0.09,0.28,1721207177552
1.91,2.88,4.60,0.13,-0.14,0.45,1721207177562
5.94,2.19,6.49,-0.06,0.21,0.20,1721207177572
5.07,-0.12,5.25,0.17,-0.27,-0.13,1721207177582
1.29,-5.01,10.36,-0.30,0.15,-0.43,1721207177592
-3.47,10.05,26.30,0.20,-0.23,-0.21,1721207177602
-3.15,-1.57,-1.13,0.06,-0.17,0.23,1721207177612
0.56,-5.73,15.97,-0.31,0.35,0.31,1721207177622
4.60,8.15,22.08,0.65,-0.16,0.07,1721207177632
4.53,2.67,-4.97,0.22,-0.12,-0.28,1721207177642
-1.48,1.22,11.86,-0.17,0.09,-0.51,1721207177652
-3.55,0.03,7.52,0.40,-0.01,-0.21,1721207177662
0.67,-7.48,9.89,-0.36,0.17,0.09,1721207177672
-1.01,1.65,26.78,0.21,-0.30,0.10,1721207177682
0.43,3.56,-0.39,0.45,-0.12,-0.07,1721207177692
2.17,0.24,6.44,-0.05,0.28,-0.29,1721207177702
-0.05,-1.74,13.49,-0.03,-0.17,-0.24,1721207177712
-2.25,-2.99,14.39,0.06,-0.02,-0.21,1721207177722
-2.21,-1.53,5.82,0.21,-0.07,-0.09,1721207177732
-1.13,-1.75,11.55,-0.10,0.09,-0.01,1721207177742
0.35,4.12,13.84,0.16,-0.21,0.06,1721207177752
1.35,1.39,3.67,0.02,-0.06,-0.15,1721207177762
-0.87,-0.58,7.70,-0.11,0.01,-0.37,1721207177772
-0.31,-8.61,12.11,-0.27,0.15,-0.25,1721207177782
-1.64,-0.86,21.58,0.05,-0.06,-0.06,1721207177792
-0.05,4.36,9.43,0.24,-0.12,-0.03,1721207177802
-0.27,5.42,8.55,0.05,-0.13,-0.12,1721207177812
0.53,-5.02,4.04,-0.05,-0.07,-0.15,1721207177822
0.28,5.38,15.07,0.13,0.18,-0.25,1721207177832
1.04,3.11,4.91,0.07,-0.09,-0.28,1721207177842
-4.13,2.54,13.22,-0.07,-0.15,-0.22,1721207177852
-3.40,0.93,-2.07,0.31,-0.17,0.05,1721207177862
2.43,-2.70,8.15,-0.31,0.43,0.05,1721207177872
0.28,15.09,24.81,0.23,-0.20,-0.12,1721207177882
-0.83,-1.55,4.51,-0.03,-0.23,-0.22,1721207177892
-2.91,-7.81,15.19,-0.28,0.11,-0.14,1721207177902
-2.07,-2.67,14.88,0.24,-0.05,0.02,1721207177912
-0.78,6.08,6.03,0.22,-0.03,0.16,1721207177922
2.22,7.82,6.16,0.30,-0.00,0.16,1721207177932
3.99,1.76,-1.05,0.13,-0.07,-0.09,1721207177942
2.55,-3.68,15.05,-0.27,0.24,-0.45,1721207177952
-0.95,1.15,13.98,0.18,-0.19,-0.48,1721207177962
-3.93,-0.60,4.56,-0.18,0.05,-0.27,1721207177972
-4.43,-0.76,13.88,0.10,-0.08,0.12,1721207177982
2.95,-8.99,3.55,-0.06,0.24,0.26,1721207177992
4.07,8.97,15.29,0.22,0.14,-0.12,1721207178002
3.30,6.50,3.46,0.06,-0.10,-0.45,1721207178012
-3.62,-4.06,16.33,-0.53,-0.01,-0.46,1721207178022
-4.19,-13.19,21.57,0.01,0.08,-0.06,1721207178032
-1.01,1.21,4.56,0.44,0.06,0.19,1721207178042
2.68,10.99,-4.58,0.14,0.23,0.01,1721207178052
4.36,7.38,7.93,-0.08,0.18,-0.19,1721207178062
2.79,-5.46,9.48,-0.12,0.06,-0.35,1721207178072
0.02,-16.09,12.56,-0.27,0.15,-0.49,1721207178082
-3.60,2.91,16.85,0.31,0.03,-0.44,1721207178092
-3.18,3.35,10.37,0.02,0.29,-0.14,1721207178102
-0.77,8.20,19.64,0.35,0.10,0.17,1721207178112
3.28,-1.66,-2.21,0.12,0.18,-0.09,1721207178122
1.98,-2.75,3.79,-0.14,0.31,-0.60,1721207178132
-2.77,-4.08,11.69,-0.09,0.10,-0.58,1721207178142
-6.18,6.92,23.07,0.12,0.15,-0.05,1721207178152
-1.58,-0.15,14.66,0.14,0.36,0.19,1721207178162
4.16,-2.35,-4.63,0.27,0.03,0.06,1721207178172
5.53,-3.03,3.47,-0.45,0.61,-0.52,1721207178182
2.06,14.71,26.91,0.09,0.10,-0.67,1721207178192
-4.35,-1.16,4.53,0.12,0.15,-0.17,1721207178202
-2.65,-8.10,4.92,-0.03,0.43,0.05,1721207178212
2.80,2.46,4.42,-0.08,0.44,-0.12,1721207178222
-1.08,9.75,14.36,-0.04,0.09,-0.35,1721207178232
-2.10,-2.59,0.22,-0.13,0.20,-0.09,1721207178242
-1.11,-6.02,24.22,-0.28,0.53,0.14,1721207178252
1.38,0.47,11.78,0.28,0.08,-0.02,1721207178262
3.33,4.37,8.17,-0.36,0.59,-0.35,1721207178272
-1.22,3.47,18.14,-0.11,0.04,-0.25,1721207178282
-3.04,-6.36,15.74,-0.19,0.36,0.04,1721207178292
-0.05,2.52,10.37,0.51,0.21,0.34,1721207178302
5.47,4.93,-11.86,-0.02,0.40,0.00,1721207178312
1.89,0.73,13.09,-0.66,0.42,-0.43,1721207178322
-3.70,2.26,34.96,-0.08,0.18,-0.45,1721207178332
-6.35,1.53,4.33,0.44,0.07,0.03,1721207178342
-1.76,-0.23,-10.83,-0.24,0.33,0.56,1721207178352
7.34,-6.79,13.69,-0.62,0.59,0.35,1721207178362
5.63,9.02,28.69,0.39,0.09,-0.23,1721207178372
1.91,-5.22,-5.79,0.03,-0.04,-0.62,1721207178382
-8.41,0.14,22.88,-0.40,0.44,-0.54,1721207178392
-7.09,-2.13,9.42,0.15,0.14,0.13,1721207178402
-0.75,2.92,18.00,-0.40,0.60,0.39,1721207178412
3.04,8.19,10.35,0.59,-0.12,0.14,1721207178422
4.11,-16.46,-14.91,-0.61,0.27,-0.10,1721207178432
-4.43,-5.11,31.01,-0.07,0.24,-0.18,1721207178442
-1.01,13.96,6.02,0.56,0.22,0.02,1721207178452
0.97,9.40,4.76,-0.31,0.49,0.23,1721207178462
-1.14,-8.20,17.58,-0.34,-0.12,0.40,1721207178472
0.27,-12.00,9.14,0.08,0.09,0.41,1721207178482
1.96,3.69,1.75,0.35,0.08,0.16,1721207178492
2.91,6.67,6.31,0.07,0.34,-0.06,1721207178502
-1.11,0.19,11.32,-0.06,-0.13,0.02,1721207178512
-3.01,-2.74,23.11,-0.07,0.29,0.13,1721207178522
-1.75,-3.91,8.23,0.31,-0.34,0.46,1721207178532
-0.20,-0.71,8.60,-0.28,0.35,0.40,1721207178542
3.34,11.31,24.09,0.61,-0.00,0.14,1721207178552
0.99,-1.07,-6.12,0.11,-0.29,0.01,1721207178562
-4.76,-4.96,11.82,-0.14,0.14,0.07,1721207178572
-3.67,-1.87,2.67,0.21,-0.23,0.52,1721207178582
1.71,-14.00,23.67,-0.68,0.44,0.63,1721207178592
4.66,10.57,33.65,0.84,-0.63,0.55,1721207178602
4.45,1.39,-20.67,0.38,-0.44,0.10,1721207178612
-1.73,5.87,10.13,-0.61,0.20,-0.29,1721207178622
1.73,8.86,19.47,-0.32,-0.31,-0.05,1721207178632
-0.63,-12.62,-3.45,-0.40,-0.21,0.22,1721207178642
-6.08,-9.83,9.96,-0.07,-0.37,0.57,1721207178652
4.18,7.20,8.72,-0.13,-0.10,0.63,1721207178667
5.37,7.01,11.87,-0.34,0.06,0.52,1721207178671
7.62,1.26,23.26,-0.26,-0.23,0.17,1721207178681
4.81,-7.75,10.12,-0.23,-0.35,-0.19,1721207178691
-0.81,-5.98,19.14,-0.19,-0.07,-0.32,1721207178701
-5.50,4.57,5.67,0.47,-0.62,0.12,1721207178711
-1.31,0.95,5.88,-0.32,0.17,0.48,1721207178721
2.27,17.01,16.68,0.50,-0.48,0.52,1721207178731
6.06,1.05,-7.17,-0.51,-0.24,0.07,1721207178741
-1.75,4.72,27.01,-0.67,-0.38,-0.29,1721207178751
-1.05,-12.58,19.97,-0.04,-0.20,-0.17,1721207178761
-4.81,5.99,13.83,0.41,-0.28,0.03,1721207178771
-1.19,14.13,-10.82,0.38,-0.38,0.54,1721207178781
6.55,0.85,5.15,-0.39,0.19,0.54,1721207178791
9.41,3.00,23.01,0.04,-0.19,-0.25,1721207178801
4.81,1.48,13.63,0.14,-0.32,-0.97,1721207178811
-6.28,9.36,9.59,0.19,-0.43,-0.82,1721207178821
-10.19,0.16,3.14,-0.03,-0.02,-0.16,1721207178831
-6.59,-6.81,6.66,-0.23,-0.11,0.46,1721207178841
0.20,-4.44,12.21,0.08,-0.14,0.51,1721207178851
7.12,1.81,7.21,0.25,-0.06,0.16,1721207178861
6.97,2.25,4.99,-0.03,-0.09,-0.34,1721207178871
2.22,-2.77,13.48,-0.18,-0.04,-0.77,1721207178881
-7.01,-2.82,26.12,0.07,-0.32,-0.86,1721207178891
-11.31,2.08,3.81,0.38,-0.38,0.04,1721207178901
-4.24,-0.36,-4.46,-0.29,0.22,0.73,1721207178911
6.15,1.61,12.18,-0.06,0.04,0.67,1721207178921
9.56,-5.78,-0.46,-0.10,-0.19,-0.13,1721207178931
1.31,-2.51,21.83,-0.25,0.01,-0.81,1721207178941
-4.44,0.77,18.80,0.18,-0.32,-0.39,1721207178951
-6.39,1.96,19.07,-0.19,0.03,0.26,1721207178961
1.10,4.32,5.57,0.38,-0.18,0.56,1721207178971
9.35,-7.20,-3.91,-0.22,0.14,0.09,1721207178981
1.87,0.92,20.35,0.12,-0.23,-0.41,1721207178991
-1.99,1.80,7.19,0.29,-0.18,-0.48,1721207179001
-1.87,4.44,13.04,-0.05,0.14,-0.15,1721207179011
0.62,-0.23,4.75,0.15,-0.09,-0.03,1721207179021
0.96,-10.99,12.59,-0.50,0.06,-0.24,1721207179031
-3.50,5.09,20.73,0.47,-0.14,-0.38,1721207179041
-0.48,-1.73,-4.57,0.08,0.19,-0.11,1721207179051
-1.35,10.97,20.81,0.13,0.14,0.01,1721207179061
1.50,0.35,-0.07,0.13,-0.09,-0.12,1721207179071
-0.49,-6.94,13.71,-0.36,0.37,-0.41,1721207179081
-1.85,-2.64,15.92,0.25,-0.15,-0.23,1721207179091
-2.52,-1.83,9.28,0.04,0.13,0.05,1721207179101
-0.14,9.92,13.12,0.50,0.07,0.15,1721207179111
4.53,5.85,0.62,0.11,0.12,-0.01,1721207179121
1.75,1.84,11.23,-0.25,0.01,-0.18,1721207179131
-0.52,-4.47,14.82,-0.20,0.14,-0.28,1721207179141
-1.37,-3.21,18.92,0.14,0.09,-0.08,1721207179151
1.21,3.43,5.26,0.49,0.06,0.13,1721207179161
4.22,5.22,-2.85,0.14,0.15,-0.12,1721207179171
1.03,3.95,8.77,-0.17,0.10,-0.47,1721207179181
-3.48,5.03,13.50,0.10,0.01,-0.54,1721207179191
-3.82,-2.43,15.86,-0.21,0.20,-0.21,1721207179201
-3.73,0.49,15.74,0.40,-0.11,0.19,1721207179211
1.38,-6.72,-4.92,-0.23,0.12,0.27,1721207179221
-4.60,10.68,27.04,0.06,0.03,-0.13,1721207179231
1.95,8.00,-10.08,0.43,-0.34,-0.18,1721207179241
3.47,-10.57,3.02,-1.15,0.79,-0.38,1721207179251
-10.22,-9.94,40.67,0.26,-0.56,0.07,1721207179261
0.05,-6.16,-0.80,0.63,-0.29,0.18,1721207179271
0.51,14.01,4.43,0.20,0.41,-0.03,1721207179281
4.44,3.78,-2.52,-0.17,-0.13,-0.22,1721207179291
3.52,-9.62,11.20,-0.53,0.30,-0.31,1721207179301
-1.40,1.78,24.80,0.20,-0.08,-0.19,1721207179311
-1.38,3.01,1.74,0.04,0.07,-0.13,1721207179321
-1.96,-0.52,5.50,-0.19,0.15,-0.01,1721207179331
-0.99,-5.05,11.03,-0.17,0.18,-0.06,1721207179341
0.15,3.16,18.53,0.13,-0.04,-0.01,1721207179351
2.80,3.03,6.87,0.08,0.14,-0.05,1721207179361
2.84,2.65,15.89,-0.22,0.25,-0.28,1721207179371
0.79,-1.15,14.94,0.13,-0.02,-0.33,1721207179381
-2.07,0.26,7.33,0.23,0.08,-0.34,1721207179391
-4.35,-2.53,1.52,0.00,-0.07,-0.09,1721207179401
-2.69,3.88,15.22,-0.01,0.23,0.11,1721207179411
1.21,8.03,10.40,0.37,0.02,0.04,1721207179421
3.92,-6.93,2.64,-0.30,0.20,-0.24,1721207179431
-1.80,-4.49,15.95,-0.09,-0.12,-0.33,1721207179441
-3.55,-6.58,15.54,0.11,0.17,-0.26,1721207179451
-4.15,7.94,13.22,0.48,-0.07,0.03,1721207179461
-0.96,-2.95,-5.70,-0.12,0.06,0.15,1721207179471
-0.48,2.92,23.24,-0.04,0.30,-0.13,1721207179481
2.21,-0.73,7.02,0.23,-0.20,-0.27,1721207179491
-1.10,-6.71,8.80,-0.32,0.31,-0.33,1721207179501
-5.71,1.15,18.42,0.25,-0.15,0.08,1721207179511
-2.65,1.58,6.13,0.12,0.09,0.40,1721207179521
1.91,3.25,9.92,0.08,-0.09,0.29,1721207179531
4.79,-1.39,-0.78,-0.22,0.03,-0.08,1721207179541
2.71,-1.85,22.16,-0.16,0.32,-0.46,1721207179551
-1.66,2.37,15.14,0.54,-0.34,-0.35,1721207179561
-3.26,2.84,0.90,0.09,0.13,-0.02,1721207179571
-2.81,6.62,1.65,0.17,-0.16,0.25,1721207179581
2.86,-0.89,16.89,-0.59,0.40,0.12,1721207179591
2.47,7.63,25.71,0.34,-0.33,-0.04,1721207179601
1.91,-3.76,-3.96,0.07,0.01,-0.26,1721207179611
-4.66,-5.21,7.25,-0.21,-0.02,-0.14,1721207179621
-2.93,-1.08,14.76,0.10,0.09,0.02,1721207179631
-1.07,4.86,12.16,0.34,0.02,0.16,1721207179641
1.88,7.53,8.26,0.24,-0.01,0.14,1721207179651
2.79,2.26,6.71,-0.11,-0.05,-0.04,1721207179661
1.35,-1.68,14.36,-0.23,0.05,-0.45,1721207179671
-5.75,0.41,7.70,0.12,-0.25,-0.42,1721207179681
-8.90,-3.50,3.45,-0.13,-0.07,0.19,1721207179691
-2.01,1.04,8.48,0.08,0.06,0.70,1721207179701
8.56,1.50,12.47,-0.10,0.23,0.44,1721207179711
6.25,2.19,18.20,-0.14,-0.27,-0.19,1721207179721
-2.30,-3.20,12.35,-0.13,-0.31,-0.48,1721207179731
-7.84,-2.29,13.13,0.06,-0.14,-0.19,1721207179741
-3.72,-2.96,5.64,0.06,-0.01,0.49,1721207179751
3.65,6.52,8.11,0.09,0.13,0.49,1721207179761
5.92,3.03,-0.70,0.02,-0.32,0.06,1721207179771
3.00,-5.33,3.24,-0.44,-0.04,-0.36,1721207179781
-2.39,-9.09,24.22,-0.34,-0.12,-0.44,1721207179791
-5.59,1.68,21.50,0.47,-0.26,0.14,1721207179801
-1.02,3.59,3.61,0.05,0.04,0.39,1721207179811
2.01,1.79,12.93,-0.11,-0.12,0.22,1721207179821
5.01,-6.03,8.11,-0.09,-0.01,-0.09,1721207179831
1.12,2.48,13.19,0.10,-0.14,-0.26,1721207179841
-0.79,2.64,5.20,0.16,-0.10,-0.12,1721207179851
-0.55,2.17,11.02,0.02,-0.07,-0.02,1721207179861
1.16,-3.94,9.19,-0.23,-0.04,0.00,1721207179871
0.58,1.07,23.65,0.06,-0.11,-0.04,1721207179881
1.47,-0.11,5.85,0.32,-0.12,-0.12,1721207179891
0.69,4.22,2.57,-0.00,0.01,-0.20,1721207179901
0.47,0.56,5.20,-0.08,-0.00,-0.13,1721207179911
0.46,1.32,14.31,-0.01,0.10,-0.10,1721207179921
1.61,0.02,5.98,-0.03,-0.03,-0.10,1721207179931
1.88,-3.93,12.39,-0.22,0.07,-0.21,1721207179941
1.09,-1.41,17.39,0.18,-0.05,-0.29,1721207179951
0.12,-0.76,6.05,0.09,0.06,-0.26,1721207179961
-1.23,5.76,10.65,0.20,0.11,-0.25,1721207179971
0.66,-4.29,6.85,-0.22,0.11,-0.26,1721207179981
-1.20,4.19,21.99,0.30,0.05,-0.27,1721207179991
-0.20,-1.73,-4.10,0.12,-0.03,-0.16,1721207180001
-2.35,1.17,18.22,-0.37,0.35,-0.16,1721207180011
0.78,3.57,15.06,0.49,-0.08,-0.16,1721207180021
4.15,-1.59,-5.66,-0.13,0.27,-0.18,1721207180031
1.40,3.31,16.68,-0.21,0.07,-0.39,1721207180041
-0.26,0.66,17.76,0.21,0.09,-0.48,1721207180051
-2.86,4.73,4.64,0.18,0.15,-0.20,1721207180061
-2.54,-0.24,7.82,-0.31,0.21,-0.06,1721207180071
-1.33,2.11,16.23,0.18,-0.01,0.03,1721207180081
0.97,4.44,0.33,-0.05,0.15,0.00,1721207180091
0.33,1.39,8.63,-0.21,0.17,-0.23,1721207180101
0.83,-3.01,8.54,-0.19,0.12,-0.28,1721207180111
-0.79,-2.81,17.72,-0.07,0.08,-0.10,1721207180121
-0.77,5.78,4.38,0.24,-0.13,0.05,1721207180131
3.82,2.83,6.93,-0.30,0.59,-0.22,1721207180141
2.10,-0.35,19.77,-0.05,0.00,-0.41,1721207180151
-0.94,-1.49,13.65,-0.09,0.13,-0.31,1721207180161
-3.34,-0.28,19.86,0.20,0.08,-0.26,1721207180171
-4.09,4.86,-0.04,0.24,-0.08,-0.13,1721207180181
-1.47,-2.71,-4.06,-0.40,0.29,-0.02,1721207180191
-0.37,-0.14,21.22,-0.10,0.24,-0.09,1721207180201
1.15,4.39,9.02,0.49,-0.11,-0.09,1721207180211
1.53,-4.38,4.68,-0.44,0.32,-0.13,1721207180221
-1.60,4.79,29.42,0.13,-0.07,-0.11,1721207180231
-1.58,3.24,-4.09,0.42,-0.12,-0.06,1721207180241
0.80,-3.94,7.93,-0.46,0.39,-0.18,1721207180251
-0.96,0.17,22.21,0.23,-0.14,-0.08,1721207180261
-0.41,-3.35,3.43,-0.05,0.13,-0.08,1721207180271
-2.26,4.81,18.33,0.15,0.14,-0.15,1721207180281
0.63,-1.97,6.35,0.15,-0.01,0.06,1721207180291
-1.25,0.85,13.80,-0.01,0.13,0.03,1721207180301
1.28,-1.53,5.71,0.12,-0.07,0.04,1721207180311
0.88,-4.60,12.66,-0.23,0.19,-0.01,1721207180321
-0.87,5.74,12.90,0.31,-0.15,-0.12,1721207180331
1.74,-3.64,2.00,-0.27,0.18,-0.06,1721207180341
-2.46,4.49,20.40,0.19,-0.19,-0.12,1721207180351
-1.93,-3.52,-3.94,0.04,-0.04,-0.06,1721207180361
-2.61,-2.64,19.64,-0.33,0.45,-0.03,1721207180371
0.84,0.78,13.11,0.38,-0.09,-0.03,1721207180381
1.44,-1.50,5.39,-0.24,0.15,-0.12,1721207180391
-2.22,6.68,18.13,0.21,-0.24,-0.06,1721207180401
-1.36,1.08,-5.89,0.13,-0.12,-0.01,1721207180411
-2.12,4.52,13.13,-0.26,0.33,-0.02,1721207180421
1.62,-1.11,6.19,0.07,-0.13,0.05,1721207180431
2.24,-6.96,14.54,-0.44,0.27,-0.08,1721207180441
0.25,5.26,27.29,0.32,-0.18,-0.19,1721207180451
-0.56,1.44,1.14,0.33,-0.14,-0.24,1721207180461
-2.08,5.09,0.23,0.10,0.02,0.02,1721207180471
1.82,2.78,5.83,-0.01,0.16,0.08,1721207180481
1.11,4.33,17.85,-0.04,0.03,-0.04,1721207180491
0.89,0.97,11.82,0.14,0.01,-0.25,1721207180501
-0.23,-0.80,5.01,-0.09,0.14,-0.43,1721207180511
-3.20,0.59,5.78,-0.06,-0.17,-0.10,1721207180521
-2.51,-0.84,12.22,-0.12,0.18,0.21,1721207180531
1.68,3.11,11.43,0.29,-0.01,0.20,1721207180541
3.23,-1.45,9.25,-0.16,0.20,-0.25,1721207180551
-1.60,3.84,24.73,0.01,-0.11,-0.43,1721207180561
-5.65,0.47,7.82,-0.01,-0.10,-0.28,1721207180571
-6.27,0.94,11.39,-0.17,0.05,0.21,1721207180581
-0.98,-4.54,0.36,0.19,-0.01,0.48,1721207180591
4.67,-4.21,-2.87,-0.08,0.18,0.19,1721207180601
6.28,5.22,10.79,-0.01,0.18,-0.29,1721207180611
1.01,3.99,9.84,0.07,-0.11,-0.44,1721207180621
-3.86,-3.40,22.31,-0.37,0.15,-0.25,1721207180631
-5.27,-4.02,21.30,0.10,-0.08,0.02,1721207180641
-1.30,-0.94,1.14,-0.02,0.04,0.32,1721207180651
0.38,5.26,5.90,-0.07,0.07,0.22,1721207180661
2.64,-6.71,7.29,-0.18,0.09,-0.12,1721207180676
2.61,-4.96,14.38,-0.20,0.15,-0.33,1721207180680
-0.62,-2.26,11.96,0.09,-0.18,-0.27,1721207180690
-2.85,-1.31,14.48,-0.16,0.22,-0.09,1721207180700
-2.37,4.35,11.47,0.24,-0.09,0.22,1721207180710
3.45,-1.19,5.72,0.04,0.25,0.25,1721207180720
4.34,3.59,12.86,0.25,0.05,-0.25,1721207180730
1.68,3.21,5.76,0.15,0.05,-0.55,1721207180740
-4.11,3.46,8.02,-0.04,0.00,-0.41,1721207180750
-5.68,-4.49,10.56,-0.16,0.10,0.05,1721207180760
-0.55,-0.72,17.38,0.01,0.20,0.34,1721207180770
4.95,-4.24,6.28,0.03,0.10,0.12,1721207180780
4.34,-0.35,18.51,-0.05,0.24,-0.45,1721207180790
-1.60,4.95,13.19,0.38,-0.10,-0.55,1721207180800
-3.73,-2.24,4.30,0.03,0.21,-0.10,1721207180810
-2.01,2.71,17.27,0.17,0.24,0.16,1721207180820
1.69,0.83,0.89,0.33,0.03,0.14,1721207180830
3.53,2.59,4.39,-0.05,0.40,-0.23,1721207180840
0.90,3.14,13.48,0.14,0.09,-0.42,1721207180850
-2.45,1.73,9.45,0.18,0.18,-0.21,1721207180860
-2.57,-3.53,4.63,0.08,0.17,0.09,1721207180870
0.85,-8.00,10.79,-0.28,0.33,0.13,1721207180880
-0.09,6.93,30.70,0.24,0.12,-0.10,1721207180890
1.10,3.89,6.58,0.59,0.01,0.03,1721207180900
3.00,1.67,7.12,-0.05,0.44,-0.01,1721207180910
2.20,3.52,8.73,0.25,0.06,-0.19,1721207180920
-0.04,-1.13,3.75,-0.24,0.32,-0.37,1721207180930
-5.28,8.31,14.49,0.13,-0.06,-0.16,1721207180940
-2.76,-4.09,-8.56,-0.05,0.15,-0.02,1721207180950
-0.93,-3.18,15.01,-0.44,0.42,0.20,1721207180960
1.16,-0.49,21.63,0.11,0.12,0.22,1721207180970
4.53,5.79,11.09,-0.08,0.27,-0.21,1721207180980
0.52,3.35,5.39,-0.06,-0.12,-0.28,1721207180990
-1.77,-8.37,11.77,-0.54,0.39,-0.21,1721207181000
-0.92,1.02,20.44,0.25,0.02,0.07,1721207181010
1.77,0.75,-2.09,-0.04,0.13,0.05,1721207181020
-0.28,4.58,11.82,-0.33,0.30,-0.37,1721207181030
-2.50,-1.80,11.00,-0.09,0.01,-0.34,1721207181040
-3.70,-0.43,10.79,-0.14,0.12,0.07,1721207181050
-0.76,-2.97,11.34,-0.42,0.29,0.13,1721207181060
1.19,4.68,22.07,-0.12,0.09,-0.02,1721207181070
0.98,-0.99,2.73,-0.07,-0.09,-0.15,1721207181080
-2.56,-3.21,7.69,-0.33,0.27,-0.17,1721207181090
-0.11,-0.46,15.15,-0.12,0.27,-0.09,1721207181100
0.64,4.41,14.47,0.07,0.20,0.05,1721207181110
1.42,0.85,16.88,-0.24,0.19,-0.16,1721207181120
-3.88,3.46,19.66,0.04,-0.16,-0.04,1721207181130
-3.54,-1.42,-3.94,0.04,-0.04,0.21,1721207181140
0.74,-4.01,11.25,-0.26,0.47,0.23,1721207181150
3.41,2.52,15.44,0.13,-0.26,0.31,1721207181160
3.88,3.88,8.62,-0.10,0.32,-0.05,1721207181170
-0.57,5.04,19.92,0.08,-0.20,-0.20,1721207181180
-4.17,-6.11,6.45,-0.10,-0.15,-0.14,1721207181190
-5.14,-4.89,12.66,-0.08,0.11,0.13,1721207181200
-0.60,0.05,9.79,0.16,0.14,0.34,1721207181210
1.18,6.72,14.90,0.26,0.09,0.19,1721207181220
3.01,3.71,3.04,0.23,-0.15,0.05,1721207181230
1.09,-5.95,6.82,-0.20,0.09,0.06,1721207181240
-1.28,-1.11,14.91,0.06,-0.03,-0.10,1721207181250
-0.97,4.74,13.00,0.21,0.03,-0.10,1721207181260
-3.81,1.41,1.82,0.26,-0.34,0.10,1721207181270
-1.56,-3.20,7.33,-0.06,0.34,0.20,1721207181280
2.20,9.12,21.07,0.31,-0.01,0.21,1721207181290
1.42,2.60,4.53,0.00,-0.23,-0.09,1721207181300
-2.42,-0.54,8.80,-0.01,-0.08,-0.19,1721207181310
-2.46,-5.34,8.66,0.01,-0.08,0.04,1721207181320
-2.38,8.09,16.90,0.35,-0.17,0.30,1721207181330
1.86,3.04,-1.85,0.17,-0.23,0.31,1721207181340
2.86,4.08,10.80,-0.22,0.14,-0.03,1721207181350
1.52,1.29,12.45,0.09,-0.24,-0.16,1721207181360
-1.80,-4.92,10.90,-0.38,-0.04,-0.17,1721207181370
-4.43,6.48,17.29,0.33,-0.28,0.11,1721207181380
-0.50,-3.09,-4.98,-0.12,-0.14,0.32,1721207181390
0.65,3.96,12.88,-0.09,-0.19,0.22,1721207181400
3.23,1.93,7.70,0.18,-0.21,0.09,1721207181410
2.09,-1.73,8.02,-0.41,-0.01,-0.14,1721207181420
-3.56,-0.98,20.92,-0.17,-0.39,-0.08,1721207181430
-4.54,-1.84,7.67,0.02,-0.37,0.31,1721207181440
-1.50,-1.00,1.26,-0.20,-0.13,0.47,1721207181450
3.63,-2.43,13.96,-0.19,-0.01,0.41,1721207181460
4.47,-3.00,9.33,0.03,-0.32,0.05,1721207181470
0.93,-1.03,12.22,-0.03,-0.21,-0.26,1721207181480
-1.72,7.96,18.42,0.05,-0.24,-0.16,1721207181490
-3.88,14.38,17.92,0.08,-0.33,0.19,1721207181500
-0.88,-4.48,-2.30,-0.32,-0.17,0.41,1721207181510
1.75,-8.86,9.15,-0.39,0.00,0.13,1721207181520
4.95,-4.24,4.05,-0.03,-0.39,0.04,1721207181530
2.01,1.01,15.74,0.05,-0.10,0.01,1721207181540
3.05,8.66,10.13,0.54,-0.38,0.12,1721207181550
5.88,-1.33,4.61,-0.23,0.03,0.01,1721207181560
2.11,2.66,30.89,-0.11,-0.22,-0.30,1721207181570
-0.08,2.86,9.04,0.42,-0.30,-0.26,1721207181580
-0.22,-1.42,-5.86,-0.03,-0.04,-0.12,1721207181590
1.53,-2.20,3.22,-0.05,-0.05,-0.07,1721207181600
2.66,-0.47,-1.50,0.24,-0.15,-0.18,1721207181610
0.16,-6.09,10.11,-0.45,0.12,-0.34,1721207181620
-2.80,1.43,39.32,0.01,-0.11,-0.24,1721207181630
-2.37,-4.39,21.22,0.40,-0.15,-0.14,1721207181640
-0.53,8.20,9.55,0.42,0.01,0.11,1721207181650
3.49,-2.41,-4.61,-0.09,-0.05,0.05,1721207181660
4.46,-3.93,10.21,-0.01,0.24,-0.40,1721207181670
0.59,2.96,3.08,0.22,-0.09,-0.40,1721207181680
-3.17,2.80,16.48,-0.22,0.18,-0.35,1721207181690
-2.36,0.57,10.86,0.31,-0.07,-0.07,1721207181700
0.12,-9.60,-0.12,-0.25,0.12,-0.04,1721207181710
0.14,-0.01,20.93,-0.10,0.09,-0.08,1721207181720
0.40,2.55,15.10,0.40,-0.03,-0.12,1721207181730
1.84,7.10,1.65,0.40,0.11,-0.13,1721207181740
2.84,2.54,6.03,-0.23,0.21,-0.24,1721207181750
0.23,-0.54,14.16,-0.05,0.02,-0.33,1721207181760
-0.15,-7.77,12.59,-0.19,0.27,-0.47,1721207181770
-3.21,2.17,20.07,0.32,-0.07,-0.19,1721207181780
-1.59,1.56,-3.16,0.42,0.02,-0.06,1721207181790
0.57,8.50,7.36,0.07,0.34,-0.26,1721207181800
0.56,5.85,8.68,0.03,0.02,-0.39,1721207181810
-2.76,-5.97,10.48,-0.42,0.19,-0.40,1721207181820
-3.58,-0.57,15.22,0.17,0.03,-0.01,1721207181830
2.11,-4.66,10.13,-0.12,0.31,0.11,1721207181840
1.80,10.68,17.56,0.61,-0.09,-0.13,1721207181850
1.59,2.90,-15.71,0.00,-0.09,-0.31,1721207181860
-1.56,-9.71,15.35,-0.71,0.57,-0.57,1721207181870
-1.56,-7.02,29.69,0.17,0.04,-0.32,1721207181880
-1.39,0.91,4.19,0.33,0.13,-0.02,1721207181890
1.44,8.43,-0.84,0.11,0.13,0.05,1721207181900
2.18,5.89,5.73,-0.09,0.22,-0.11,1721207181910
1.85,-3.62,13.22,-0.20,0.15,-0.27,1721207181920
-0.15,-1.69,8.66,-0.04,0.11,-0.41,1721207181930
-1.35,-6.67,13.27,-0.58,0.31,-0.51,1721207181940
-3.16,9.44,26.35,0.28,-0.00,-0.19,1721207181950
-0.66,-4.63,-8.47,0.04,0.09,-0.00,1721207181960
-0.94,2.98,19.37,-0.29,0.54,-0.20,1721207181970
0.91,8.09,10.04,0.35,0.05,-0.13,1721207181980
2.43,-12.05,-0.72,-0.88,0.38,-0.32,1721207181990
-4.19,9.65,36.37,0.29,-0.20,-0.37,1721207182000
-3.28,-2.07,-7.78,0.44,-0.13,-0.24,1721207182010
-1.78,2.26,13.61,-0.33,0.92,-0.02,1721207182020
2.33,8.88,19.34,0.37,-0.06,0.23,1721207182030
1.78,-8.03,4.44,-0.39,0.35,-0.11,1721207182040
-2.35,-0.73,24.70,0.11,-0.15,-0.42,1721207182050
-3.13,-1.24,-4.39,0.32,0.02,-0.25,1721207182060
-3.23,-0.96,16.03,-0.21,0.64,-0.05,1721207182070
-0.26,15.17,24.43,0.69,0.11,0.17,1721207182080
1.36,-4.15,-9.81,-0.00,-0.01,0.13,1721207182090
-0.22,-5.74,12.75,-0.27,0.35,-0.18,1721207182100
1.82,-0.43,20.91,0.15,0.11,-0.26,1721207182110
-4.19,10.18,11.63,0.27,0.05,-0.34,1721207182120
-6.09,9.77,6.28,0.26,0.04,-0.01,1721207182130
-3.01,-4.35,5.41,-0.14,0.24,0.25,1721207182140
1.91,-6.61,7.00,-0.05,0.11,0.31,1721207182150
3.17,-5.43,9.23,-0.21,0.20,-0.02,1721207182160
-1.97,15.41,21.18,0.46,0.05,-0.29,1721207182170
-1.07,1.17,3.79,0.25,0.13,-0.10,1721207182180
-2.79,1.94,10.63,-0.03,0.03,0.10,1721207182190
1.03,-0.07,-5.57,-0.03,0.03,0.21,1721207182200
2.83,-1.98,25.24,-0.67,0.64,0.02,1721207182210
-1.84,1.60,26.69,0.37,-0.42,0.02,1721207182220
-1.88,-6.20,-6.73,0.10,-0.14,0.07,1721207182230
0.03,-2.66,5.52,-0.09,0.19,0.14,1721207182240
-0.80,5.43,10.40,-0.05,0.00,0.11,1721207182250
-1.57,3.24,15.94,-0.24,-0.04,0.16,1721207182260
-0.95,-7.50,15.88,-0.16,-0.10,0.32,1721207182270
0.43,0.84,8.77,0.18,-0.15,0.30,1721207182280
1.49,4.52,-6.05,-0.11,-0.24,0.15,1721207182290
-0.44,0.33,10.00,-0.44,0.06,0.14,1721207182300
-0.63,0.32,25.40,0.05,0.00,0.22,1721207182310
1.20,-2.15,4.35,0.23,-0.27,0.22,1721207182320
1.51,-0.68,12.08,-0.30,0.22,0.00,1721207182330
-1.29,3.59,16.52,-0.11,-0.29,-0.08,1721207182340
-3.61,1.73,16.17,-0.11,-0.18,0.18,1721207182350
-1.28,2.87,3.96,0.24,-0.19,0.65,1721207182360
6.22,-9.27,-2.40,-0.37,0.08,0.45,1721207182370
2.33,-1.31,14.90,-0.05,-0.27,-0.20,1721207182380
0.48,-3.73,13.02,-0.08,-0.08,-0.39,1721207182390
-3.32,15.05,28.34,0.32,-0.22,0.05,1721207182400
0.15,10.27,1.46,0.42,-0.15,0.40,1721207182410
4.72,-8.28,-3.70,-0.50,0.10,0.12,1721207182420
2.32,-5.31,14.31,-0.17,-0.25,-0.41,1721207182430
-0.48,-3.38,8.60,0.10,-0.16,-0.22,1721207182440
-3.52,5.58,8.78,0.21,-0.09,0.22,1721207182450
2.65,-3.82,6.19,-0.06,-0.01,0.25,1721207182460
5.02,3.43,23.08,0.08,-0.07,-0.20,1721207182470
1.08,6.27,6.33,0.21,-0.29,-0.42,1721207182480
-2.13,-6.19,7.00,-0.49,0.15,-0.25,1721207182490
-2.05,-7.89,25.14,0.12,-0.05,0.10,1721207182500
1.89,-0.43,1.94,0.59,-0.01,0.07,1721207182510
2.95,9.74,-6.79,0.14,0.05,-0.12,1721207182520
2.49,11.94,6.78,-0.19,0.07,-0.16,1721207182530
0.23,-14.52,18.90,-0.81,0.09,-0.24,1721207182540
-3.03,-12.84,33.81,0.27,-0.06,-0.30,1721207182550
-1.61,4.75,-3.21,0.55,-0.08,0.11,1721207182560
2.12,2.74,7.65,-0.24,0.44,0.13,1721207182570
2.60,12.60,19.76,0.49,-0.01,-0.10,1721207182580
3.18,12.28,-2.28,0.29,0.07,-0.15,1721207182590
1.97,-8.56,-0.99,-0.60,0.15,-0.24,1721207182600
-3.16,-10.46,28.91,-0.45,0.29,-0.59,1721207182610
-4.51,8.42,25.63,0.44,-0.03,-0.10,1721207182620
-0.33,7.58,-0.89,0.23,0.12,0.50,1721207182630
6.84,2.07,-11.64,0.12,0.18,0.27,1721207182640
9.62,-7.47,6.44,-0.55,0.53,-0.60,1721207182650
1.46,18.59,33.57,0.04,-0.24,-1.00,1721207182660
-10.36,6.83,24.50,0.27,-0.13,-0.51,1721207182670
-5.34,-5.33,-7.21,-0.18,0.17,0.77,1721207182685
-0.32,-2.11,-5.59,-0.56,0.42,0.78,1721207182689
7.20,-1.61,11.00,-0.17,0.09,0.29,1721207182699
6.94,2.19,-4.37,0.44,-0.46,-0.39,1721207182709
4.75,-2.87,10.53,-0.56,0.72,-1.07,1721207182719
-9.79,6.60,49.20,-0.03,-0.37,-0.58,1721207182729
-10.76,4.85,9.28,0.41,-0.12,0.36,1721207182739
0.52,-0.34,-5.21,-0.36,0.36,0.78,1721207182749
10.22,4.34,8.09,-0.33,0.37,0.24,1721207182759
11.04,-4.50,14.84,-0.02,-0.10,-0.67,1721207182769
-1.68,6.30,-1.87,0.49,-0.33,-1.06,1721207182779
-8.15,-13.98,-8.81,-0.83,0.24,-0.72,1721207182789
-13.01,-5.70,50.16,-0.75,0.09,0.18,1721207182799
-4.76,9.58,22.77,0.94,-0.14,0.40,1721207182809
0.89,-0.49,-21.61,0.20,0.03,0.41,1721207182819
4.75,2.81,8.55,-0.35,0.49,0.31,1721207182829
15.34,-7.00,-0.31,-0.16,-0.18,-0.24,1721207182839
6.40,-1.71,23.82,-0.01,0.56,-0.86,1721207182849
-5.05,9.62,12.54,0.35,-0.54,-0.82,1721207182859
-11.74,-7.09,3.65,-0.38,0.28,-0.22,1721207182869
-4.82,-0.20,29.92,0.19,0.19,0.64,1721207182879
3.90,1.80,3.90,0.34,0.04,0.64,1721207182889
5.50,5.83,15.15,-0.16,0.41,-0.14,1721207182899
1.96,5.07,10.02,0.35,-0.34,-0.56,1721207182909
-3.11,-14.09,1.26,-0.30,0.06,-0.30,1721207182919
-5.58,5.14,15.00,0.29,0.02,0.05,1721207182929
0.28,-3.00,-6.29,0.40,-0.01,0.23,1721207182939
1.55,1.65,14.09,-0.13,0.28,0.13,1721207182949
5.15,3.45,21.88,0.29,-0.08,-0.02,1721207182959
-0.51,4.85,12.57,0.13,-0.07,-0.48,1721207182969
-7.93,11.31,-4.75,0.41,-0.42,-0.41,1721207182979
-7.35,-14.13,-6.94,-0.65,0.32,-0.05,1721207182989
-1.97,-10.26,24.10,0.15,0.18,0.42,1721207182999
2.93,3.31,-6.36,0.78,-0.27,0.44,1721207183009
7.49,-1.84,9.82,-0.74,0.59,0.01,1721207183019
12.02,18.59,30.29,0.43,-0.65,-0.30,1721207183029
-3.33,-8.58,-2.88,0.24,-0.39,-0.40,1721207183039
-5.43,-8.19,18.39,-0.36,0.44,-0.01,1721207183049
-1.39,9.87,12.28,0.69,-0.17,0.54,1721207183059
4.57,0.45,-8.52,-0.15,-0.01,0.42,1721207183069
5.37,-2.10,8.46,0.14,-0.08,0.01,1721207183079
1.46,0.89,7.58,0.11,-0.10,-0.50,1721207183089
-3.84,9.67,14.63,-0.06,-0.11,-0.47,1721207183099
-7.02,-6.83,7.77,-0.29,-0.26,0.21,1721207183109
-5.01,-6.75,17.32,-0.27,0.07,0.46,1721207183119
1.66,3.96,7.42,0.39,-0.36,0.49,1721207183129
7.92,-3.05,2.46,-0.35,0.24,0.24,1721207183139
5.37,11.14,14.98,0.29,-0.40,-0.07,1721207183149
2.83,-2.15,-1.23,-0.10,-0.04,-0.31,1721207183159
-5.32,-1.58,20.61,-0.66,-0.17,-0.45,1721207183169
-8.28,-0.01,19.52,0.03,-0.25,-0.08,1721207183179
-7.28,-6.43,-2.64,-0.09,-0.18,0.48,1721207183189
1.22,-8.22,10.58,-0.48,0.17,0.72,1721207183199
6.83,9.41,16.18,0.54,-0.16,0.44,1721207183209
7.96,-5.13,-15.72,-0.12,-0.30,-0.06,1721207183219
-8.35,-6.05,20.25,-0.56,-0.26,-0.50,1721207183229
-0.42,2.20,32.63,0.19,-0.31,-0.28,1721207183239
-2.21,1.45,-1.80,0.21,-0.10,0.17,1721207183249
0.18,-0.67,-4.65,-0.31,0.14,0.28,1721207183259
7.81,6.99,16.73,0.11,-0.03,0.27,1721207183269
6.33,0.98,-0.18,0.39,-0.29,-0.02,1721207183279
4.81,-12.00,5.71,-0.54,0.26,-0.55,1721207183289
-2.09,12.73,36.18,0.19,-0.39,-0.54,1721207183299
-4.14,-6.25,2.04,0.03,-0.26,-0.12,1721207183309
-2.50,1.89,19.40,0.06,0.26,0.15,1721207183319
3.22,3.75,-9.57,0.55,-0.16,0.05,1721207183329
6.07,-6.63,3.56,-0.51,0.45,-0.28,1721207183339
6.17,7.46,25.15,0.65,-0.09,-0.45,1721207183349
-3.20,-4.03,-6.78,0.14,-0.23,-0.44,1721207183359
-5.56,1.69,26.33,-0.28,0.37,-0.16,1721207183369
-0.45,0.45,10.88,0.46,-0.04,0.02,1721207183379
2.81,-3.77,-1.22,-0.24,0.23,-0.02,1721207183389
2.11,-1.40,15.53,0.01,0.12,-0.08,1721207183399
-0.24,-5.43,14.70,-0.05,0.10,-0.44,1721207183409
-1.96,3.16,18.15,0.46,0.06,-0.29,1721207183419
-0.27,0.20,-4.60,0.11,0.24,-0.03,1721207183429
-2.57,-0.82,25.64,-0.29,0.45,-0.36,1721207183439
-2.41,8.86,13.00,0.99,-0.14,-0.15,1721207183449
1.19,-7.58,-20.56,-0.16,0.19,0.31,1721207183459
-0.79,-1.01,34.89,-0.41,0.60,0.07,1721207183469
-1.68,5.44,9.06,0.80,-0.05,-0.26,1721207183479
5.97,2.79,-6.47,-0.55,0.59,-0.33,1721207183489
-10.87,3.74,34.17,0.05,-0.40,-0.11,1721207183499
-3.67,-8.16,-3.73,0.28,-0.07,-0.08,1721207183509
-0.69,-3.34,17.49,-0.56,0.84,0.00,1721207183519
-1.24,11.54,17.57,0.41,-0.16,-0.05,1721207183529
0.33,-2.02,0.76,-0.34,0.04,-0.09,1721207183539
-3.82,4.81,18.30,0.02,-0.26,-0.05,1721207183549
-0.73,-7.82,-0.31,-0.10,0.16,0.01,1721207183559
0.75,2.87,12.82,-0.14,0.39,0.10,1721207183569
2.99,-1.03,5.24,-0.14,-0.12,0.13,1721207183579
0.57,-1.05,16.18,-0.34,0.18,-0.16,1721207183589
2.51,-3.34,10.02,0.19,-0.08,-0.18,1721207183599
1.65,-8.18,-0.82,-0.26,0.09,-0.29,1721207183609
-7.69,5.50,19.97,-0.15,0.09,-0.22,1721207183619
-0.04,5.59,15.37,0.05,0.14,-0.21,1721207183629
-1.01,-6.18,11.73,-0.34,0.14,-0.23,1721207183639
-2.45,-1.96,11.43,0.01,0.10,-0.08,1721207183649
-0.22,1.91,0.10,-0.00,0.01,0.18,1721207183659
0.79,8.00,18.56,-0.06,0.22,-0.08,1721207183669
-2.18,-0.57,7.17,0.22,-0.19,-0.27,1721207183679
-1.41,-17.56,8.39,-0.59,0.34,-0.15,1721207183689
-1.40,14.54,23.91,0.53,-0.19,0.07,1721207183699
0.35,6.58,-7.32,0.38,-0.18,0.02,1721207183709
1.98,-2.81,20.93,-0.31,0.58,0.00,1721207183719
1.23,5.42,19.89,0.74,-0.20,-0.08,1721207183729
-3.12,-6.05,-15.86,0.20,-0.15,-0.13,1721207183739
-3.61,-5.20,7.75,-0.20,0.25,0.09,1721207183749
4.03,3.34,21.98,0.12,0.15,-0.14,1721207183759
1.04,6.60,13.32,0.72,-0.12,-0.18,1721207183769
-0.05,4.60,1.26,0.34,0.12,0.14,1721207183779
-1.29,4.07,5.36,-0.01,-0.11,0.18,1721207183789
2.31,-12.74,13.42,-0.52,0.23,-0.02,1721207183799
0.91,-1.00,29.17,0.30,0.05,-0.53,1721207183809
-4.22,6.47,-6.24,0.77,-0.51,-0.36,1721207183819
-6.05,0.85,-11.76,-0.15,0.31,0.17,1721207183829
3.06,-7.10,16.09,0.05,0.35,0.48,1721207183839
4.53,6.64,28.22,0.31,0.08,0.02,1721207183849
0.80,6.35,3.37,0.32,-0.32,-0.60,1721207183859
-4.13,-6.43,6.10,-0.41,0.04,-0.42,1721207183869
-4.73,6.81,20.43,0.38,-0.14,0.29,1721207183879
0.48,-0.76,-18.89,0.19,-0.25,0.39,1721207183889
6.00,-1.21,18.23,-0.70,0.68,0.18,1721207183899
7.13,6.27,15.07,0.48,-0.40,-0.08,1721207183909
3.94,-17.77,7.92,-0.86,0.33,-0.68,1721207183919
-5.60,21.93,46.73,0.70,-0.72,-0.37,1721207183929
-10.20,1.88,-27.60,0.77,-0.52,-0.14,1721207183939
2.89,-17.40,12.40,-1.88,1.50,0.81,1721207183949
-16.78,-9.43,20.23,0.85,-1.63,1.31,1721207183959
11.44,-21.52,-29.31,0.47,-0.06,0.50,1721207183969
9.81,9.77,27.81,-0.21,0.86,-0.45,1721207183979
-4.64,8.71,18.94,0.07,-0.24,-0.78,1721207183989
-5.32,-10.27,13.41,-0.71,0.25,-0.59,1721207183999
-10.99,-1.15,31.87,0.20,-0.27,0.19,1721207184009
-6.04,7.51,0.75,0.43,-0.07,0.61,1721207184019
2.82,4.21,-2.70,-0.12,0.14,0.59,1721207184029
7.60,-4.30,7.81,-0.34,0.05,0.17,1721207184039
4.51,-2.28,14.99,-0.08,-0.14,-0.45,1721207184049
-3.45,0.65,16.31,-0.07,-0.18,-0.61,1721207184059
-6.71,2.06,15.96,-0.09,-0.18,-0.04,1721207184069
-4.07,-2.33,8.30,0.05,-0.02,0.59,1721207184079
3.21,-0.05,2.02,0.04,0.10,0.45,1721207184089
7.61,-2.19,16.94,-0.22,0.16,-0.05,1721207184099
2.96,3.02,16.82,0.36,-0.32,-0.41,1721207184109
-2.01,-0.72,-0.78,0.12,-0.06,-0.34,1721207184119
-4.72,8.41,13.01,0.07,-0.07,0.02,1721207184129
-0.09,5.52,0.58,0.16,-0.03,0.18,1721207184139
4.87,-17.90,10.25,-0.65,0.17,0.06,1721207184149
-0.34,-2.32,27.26,0.32,-0.27,-0.42,1721207184159
-1.21,4.55,-0.89,0.57,-0.13,-0.31,1721207184169
-1.61,11.44,7.00,0.12,0.15,0.06,1721207184179
1.95,-2.53,9.31,-0.12,0.09,0.07,1721207184189
0.58,-6.47,22.75,-0.08,0.00,-0.33,1721207184199
-2.12,0.86,11.50,0.44,-0.13,-0.31,1721207184209
-3.08,4.48,0.93,-0.02,0.07,-0.02,1721207184219
-0.57,1.79,9.08,-0.02,0.04,0.18,1721207184229
2.24,-2.89,-5.64,0.02,0.00,0.19,1721207184239
1.70,-2.52,15.83,-0.36,0.30,-0.24,1721207184249
-0.18,-0.16,24.79,0.10,-0.26,-0.20,1721207184259
-0.97,-15.65,7.86,-0.42,0.16,-0.07,1721207184269
-4.49,3.86,30.27,0.33,-0.23,0.12,1721207184279
-0.94,18.45,-21.84,0.94,-0.32,0.33,1721207184289
9.22,-7.64,-1.72,-1.33,0.87,0.06,1721207184299
8.07,9.75,45.45,0.14,-1.16,-0.11,1721207184309
-8.87,-11.32,-9.77,0.66,-0.46,0.14,1721207184319
-0.23,0.47,7.14,-0.81,1.11,0.32,1721207184329
11.63,15.21,37.70,0.14,-0.11,0.28,1721207184339
1.36,0.33,-0.59,0.61,-0.64,0.07,1721207184349
3.07,-3.95,1.91,-0.48,0.65,-0.44,1721207184359
0.10,19.18,29.62,0.11,-0.38,-0.48,1721207184369
-5.04,-7.30,6.88,-0.22,-0.22,-0.24,1721207184379
-7.15,-1.52,28.31,0.10,0.02,0.10,1721207184389
-1.57,13.60,-14.62,0.90,-0.28,0.46,1721207184399
6.21,3.51,-12.08,-0.83,0.41,0.35,1721207184409
9.73,-17.25,20.18,0.01,-0.01,-0.15,1721207184419
0.84,-12.04,22.45,0.31,-0.19,-0.62,1721207184429
-4.62,13.03,3.53,0.29,-0.20,-0.33,1721207184439
1.02,0.62,15.67,-0.59,0.53,-0.11,1721207184449
0.38,6.02,25.07,0.43,-0.43,0.29,1721207184459
3.53,-17.01,-19.34,-0.47,-0.06,0.12,1721207184469
1.02,0.83,33.60,-0.34,0.49,-0.86,1721207184479
0.00,13.26,0.37,0.69,-0.58,-0.64,1721207184489
-1.20,-5.30,-5.97,-1.03,0.73,-0.50,1721207184499
0.48,8.41,36.33,0.25,-0.67,0.27,1721207184509
-5.02,-4.78,-8.12,0.73,-0.38,0.42,1721207184519
6.94,-1.65,-1.82,-0.75,0.83,0.10,1721207184529
10.15,-2.02,21.24,-0.36,-0.12,-0.49,1721207184539
-0.62,-1.01,13.64,0.53,-0.26,-0.73,1721207184549
-2.70,1.97,-10.34,0.12,0.31,-0.63,1721207184559
-5.99,-2.90,14.21,-0.61,0.22,-0.21,1721207184569
-2.28,18.89,35.27,0.29,-0.09,0.19,1721207184579
-0.74,-14.31,-10.95,0.11,-0.30,0.14,1721207184589
3.97,-8.74,20.91,-0.60,1.01,-0.18,1721207184599
7.95,25.05,3.25,0.58,-0.71,-0.24,1721207184609
2.60,1.73,-10.53,0.01,0.10,-0.41,1721207184619
-2.96,-1.67,14.48,0.04,0.01,-0.22,1721207184629
1.91,-12.01,5.89,-0.28,0.36,-0.02,1721207184639
-1.30,3.65,27.27,-0.18,0.13,-0.22,1721207184649
-1.00,5.65,15.43,0.36,-0.17,-0.28,1721207184659
-2.57,-7.00,0.06,-0.10,0.02,-0.17,1721207184669
-2.15,-2.29,4.88,0.19,0.02,0.16,1721207184679
4.04,4.54,10.29,-0.12,0.23,-0.08,1721207184694
1.77,4.11,16.86,-0.13,0.10,-0.23,1721207184698
-0.60,-2.32,24.79,-0.03,0.13,-0.42,1721207184708
-5.73,7.70,9.47,0.65,-0.18,-0.11,1721207184718
-1.04,-2.39,-11.33,-0.17,0.04,0.39,1721207184728
4.78,-3.79,20.92,-0.08,0.38,0.39,1721207184738
6.14,-3.60,12.51,0.29,-0.22,0.05,1721207184748
2.77,6.94,11.61,0.04,0.33,-0.54,1721207184758
-2.26,5.16,8.72,0.19,-0.22,-0.35,1721207184768
-6.41,-5.52,11.87,-0.38,0.10,0.08,1721207184778
-2.78,-0.10,18.22,0.29,-0.06,0.54,1721207184788
4.42,2.43,2.32,0.31,0.12,0.45,1721207184798
5.98,9.15,1.92,0.24,-0.05,0.16,1721207184808
5.54,-2.25,3.68,-0.23,0.07,-0.28,1721207184818
-2.18,-2.10,22.12,-0.06,-0.16,-0.55,1721207184828
-6.24,1.09,8.99,0.25,-0.19,-0.24,1721207184838
-7.40,12.40,9.98,0.09,-0.03,0.33,1721207184848
-1.63,-4.04,0.23,-0.31,-0.13,0.69,1721207184858
5.63,-17.02,13.64,-0.55,0.21,0.22,1721207184868
1.74,3.50,21.69,0.42,-0.35,-0.22,1721207184878
-1.34,4.32,-7.48,0.20,-0.23,-0.27,1721207184888
-5.06,1.91,15.93,-0.21,-0.04,0.28,1721207184898
0.32,3.21,18.14,0.15,-0.01,0.50,1721207184908
3.75,1.19,5.43,-0.10,-0.21,0.05,1721207184918
2.62,-3.40,6.93,-0.38,-0.11,-0.31,1721207184928
-1.93,2.27,11.26,-0.00,-0.16,-0.24,1721207184938
-2.76,-8.59,0.90,-0.23,-0.13,-0.01,1721207184948
-1.77,-1.59,18.81,-0.01,-0.03,0.25,1721207184958
3.37,3.05,5.73,0.19,-0.07,0.17,1721207184968
5.10,-5.45,21.42,-0.67,0.09,-0.34,1721207184978
-0.47,16.07,37.20,0.43,-0.45,-0.41,1721207184988
-2.67,0.17,-13.25,0.54,-0.26,-0.16,1721207184998
3.21,-3.36,-0.21,-0.34,0.73,-0.08,1721207185008
-2.80,-1.31,7.21,0.30,-0.58,-0.15,1721207185018
-4.77,3.22,21.51,-0.07,-0.07,-0.17,1721207185028
0.81,3.77,13.03,0.17,0.13,-0.11,1721207185038
5.37,-9.79,6.98,-0.35,0.02,-0.24,1721207185048
-2.48,-0.58,18.93,0.01,-0.28,-0.56,1721207185058
-4.62,0.08,9.76,0.05,0.12,-0.43,1721207185068
-2.90,10.98,15.35,0.45,0.09,0.16,1721207185078
2.82,-2.97,-7.66,0.11,0.13,0.27,1721207185088
6.22,-1.52,12.91,-0.33,0.41,-0.40,1721207185098
1.03,10.66,7.57,0.22,-0.24,-0.78,1721207185108
-2.47,-7.56,3.99,-0.58,0.21,-0.51,1721207185118
-5.58,-3.28,21.44,0.20,-0.11,0.05,1721207185128
1.00,-5.94,-2.13,0.17,0.30,0.16,1721207185138
1.92,5.64,13.19,0.08,0.24,-0.23,1721207185148
1.89,4.86,24.15,0.06,0.13,-0.61,1721207185158
-2.51,11.87,14.49,0.62,-0.05,-0.30,1721207185168
1.06,-10.57,-10.24,-0.55,0.28,0.05,1721207185178
-2.80,1.82,30.95,-0.06,0.12,-0.30,1721207185188
2.47,-2.82,0.98,0.30,-0.08,-0.40,1721207185198
1.77,0.21,11.33,-0.40,0.78,-0.61,1721207185208
4.27,11.10,9.28,0.42,-0.11,-0.58,1721207185218
-2.98,1.16,1.31,-0.12,0.33,-0.28,1721207185228
-4.09,3.96,25.20,-0.07,0.04,-0.01,1721207185238
-1.29,2.61,11.54,0.16,0.16,-0.06,1721207185248
1.05,2.95,-0.97,0.03,0.13,-0.07,1721207185258
1.41,-4.16,-10.20,-0.16,0.09,-0.16,1721207185268
2.89,-8.62,7.34,-0.38,0.54,-0.44,1721207185278
-0.04,7.37,15.83,0.22,-0.11,-0.59,1721207185288
-0.89,-3.88,8.03,-0.02,0.25,-0.37,1721207185298
-4.21,1.64,34.70,-0.17,0.19,0.02,1721207185308
-1.23,7.62,13.40,0.41,0.01,0.12,1721207185318
4.87,-5.10,-9.73,-0.35,0.32,0.04,1721207185328
5.66,-2.24,14.59,-0.31,0.39,-0.35,1721207185338
2.39,0.89,6.55,0.10,-0.08,-0.63,1721207185348
-3.01,-2.43,5.36,-0.27,0.45,-0.77,1721207185358
-7.97,3.17,25.43,-0.06,0.12,-0.40,1721207185368
-6.78,2.78,3.61,0.02,0.10,0.21,1721207185378
-1.34,0.58,15.88,-0.26,0.57,0.36,1721207185388
2.75,6.51,7.96,0.43,-0.04,0.14,1721207185398
4.56,-9.88,-13.73,-0.22,0.15,-0.08,1721207185408
0.84,-4.32,24.62,-0.36,0.61,-0.47,1721207185418
3.22,20.15,11.06,0.42,-0.16,-0.38,1721207185428
-4.76,-6.57,-9.90,-0.60,0.37,-0.22,1721207185438
-8.31,-8.26,30.49,-0.46,0.28,0.09,1721207185448
-0.65,-4.00,18.76,0.53,0.03,0.23,1721207185458
5.81,2.39,9.29,-0.22,0.57,0.00,1721207185468
0.81,6.92,10.62,0.16,-0.23,-0.29,1721207185478
0.09,-6.75,0.82,-0.16,0.33,-0.33,1721207185488
-9.71,0.59,21.22,0.13,-0.01,-0.20,1721207185498
-0.33,-1.79,4.47,0.22,0.18,0.08,1721207185508
-0.17,3.97,10.92,-0.08,0.40,0.02,1721207185518
-1.56,0.56,10.92,0.09,0.01,-0.18,1721207185528
-2.20,8.87,15.34,0.17,0.27,-0.07,1721207185538
-0.53,8.12,0.79,0.47,0.01,0.18,1721207185548
0.70,-12.00,-1.56,-0.79,0.34,0.17,1721207185558
-8.77,7.03,41.58,-0.05,-0.03,-0.18,1721207185568
-1.67,1.35,-1.29,0.67,-0.35,-0.17,1721207185578
-1.67,-4.47,8.97,-0.55,0.73,0.02,1721207185588
0.51,12.33,14.84,0.57,-0.16,0.45,1721207185598
3.39,-7.22,-6.02,-0.16,0.19,0.42,1721207185608
2.03,19.97,24.49,0.34,-0.17,0.20,1721207185618
2.14,-1.12,-13.69,0.39,-0.25,0.02,1721207185628
1.14,-4.92,11.43,-0.64,0.81,-0.19,1721207185638
-3.72,3.56,13.84,0.39,-0.45,0.07,1721207185648
-3.90,-0.32,-1.27,-0.21,-0.12,0.20,1721207185658
-5.89,3.90,17.88,0.09,0.01,0.54,1721207185668
4.64,-13.73,11.10,-0.49,0.28,0.49,1721207185678
0.72,8.03,38.64,0.13,-0.31,0.16,1721207185688
-1.21,7.81,0.93,0.38,-0.33,-0.10,1721207185698
-2.88,-1.46,-2.77,-0.45,0.22,0.22,1721207185708
-1.77,-9.81,2.82,-0.18,-0.25,0.67,1721207185718
1.68,-6.90,12.55,-0.09,0.13,0.45,1721207185728
4.53,14.61,8.91,0.40,-0.31,0.25,1721207185738
7.13,0.75,0.23,-0.57,0.12,-0.04,1721207185748
-0.04,-1.91,30.23,-0.23,-0.37,-0.21,1721207185758
-1.86,-10.19,4.30,0.13,-0.20,0.01,1721207185768
-3.29,4.17,8.71,-0.08,0.11,0.20,1721207185778
-0.52,14.47,8.42,0.16,-0.18,0.49,1721207185788
4.09,-10.76,8.41,-0.73,0.05,0.36,1721207185798
0.74,-6.27,28.99,-0.05,-0.36,-0.08,1721207185808
0.17,4.33,3.69,0.43,-0.27,-0.14,1721207185818
-1.73,1.73,3.39,-0.39,0.05,0.02,1721207185828
-2.65,7.92,29.05,0.20,-0.25,0.42,1721207185838
2.59,5.15,-7.83,0.37,-0.26,0.41,1721207185848
7.38,-8.63,-5.54,-0.56,0.31,-0.01,1721207185858
0.55,-15.29,20.60,-0.50,-0.20,-0.42,1721207185868
-8.73,5.32,42.63,0.48,-0.25,-0.21,1721207185878
0.26,16.74,-3.95,1.03,-0.11,0.61,1721207185888
8.62,10.26,0.87,-0.35,0.38,0.46,1721207185898
7.04,8.73,19.40,0.02,-0.29,-0.24,1721207185908
3.20,-39.57,0.71,-1.10,-0.10,-0.90,1721207185918
-9.33,16.94,37.93,1.19,-0.65,-0.46,1721207185928
-4.28,3.82,-35.46,0.96,0.01,0.65,1721207185938
13.64,-8.04,28.76,-1.48,1.83,0.58,1721207185948
9.41,32.23,54.79,1.33,-0.50,0.25,1721207185958
2.21,-17.49,-37.36,-0.03,-0.89,-0.48,1721207185968
-13.02,-7.94,37.30,-0.76,0.86,-0.97,1721207185978
-7.20,16.11,42.76,0.86,0.41,-0.65,1721207185988
-1.64,6.98,-31.18,0.78,-1.03,0.41,1721207185998
0.41,10.33,-12.29,-0.52,1.15,0.28,1721207186008
7.74,1.89,5.60,-0.67,0.37,-0.46,1721207186018
-0.65,-20.76,34.30,-0.37,-0.40,-1.02,1721207186028
-7.88,-1.92,39.10,0.91,-0.14,-0.28,1721207186038
-2.83,7.73,-19.45,0.84,-0.24,0.76,1721207186048
8.66,18.38,-1.46,-0.55,0.79,0.49,1721207186058
-2.47,7.03,14.13,-0.39,-0.61,-0.36,1721207186068
6.28,-23.30,19.38,-0.53,0.31,-1.05,1721207186078
-5.12,2.90,37.30,0.65,-0.23,-0.64,1721207186088
-10.01,4.36,-25.16,0.44,-0.49,0.01,1721207186098
-1.27,1.29,18.39,-1.07,1.09,0.26,1721207186108
1.09,17.35,28.79,0.74,-0.59,0.43,1721207186118
5.44,-14.08,-20.56,-0.21,-0.24,0.00,1721207186128
0.36,-6.30,21.22,-0.62,0.41,-0.79,1721207186138
11.69,3.67,21.23,-0.15,-0.10,-1.10,1721207186148
-4.06,12.09,16.73,0.44,0.07,-0.40,1721207186158
-5.31,2.76,-14.15,0.08,-0.36,0.17,1721207186168
-1.86,-9.84,-2.03,-0.70,0.38,0.34,1721207186178
6.87,-14.87,28.01,-0.52,0.40,0.09,1721207186188
6.90,10.93,46.10,0.39,-0.16,-0.58,1721207186198
-6.83,20.07,-16.82,0.66,-0.73,-0.86,1721207186208
-7.13,-13.53,2.20,-1.33,1.02,-0.54,1721207186218
-3.73,-6.70,33.17,0.27,-0.36,0.66,1721207186228
2.48,-11.92,-20.37,0.39,-0.38,0.62,1721207186238
4.76,12.26,17.01,-0.15,0.95,-0.29,1721207186248
5.89,3.73,5.25,0.14,-0.72,-0.27,1721207186258
-2.43,-8.93,-2.93,-0.46,0.35,-0.35,1721207186268
3.88,4.19,28.47,0.14,0.60,0.00,1721207186278
0.29,-2.94,9.35,0.13,-0.28,-0.11,1721207186288
-4.87,1.10,14.50,0.07,0.05,-0.18,1721207186298
0.91,1.12,0.25,0.31,0.14,0.09,1721207186308
2.95,-5.61,4.86,-0.25,0.16,0.12,1721207186318
-2.29,1.27,15.95,0.19,-0.10,-0.22,1721207186328
1.78,-4.54,11.23,0.10,0.13,-0.42,1721207186338
-3.39,10.99,22.75,0.43,-0.04,-0.31,1721207186348
-4.56,1.92,-8.61,0.27,-0.34,0.04,1721207186358
-1.36,-8.19,11.71,-0.54,0.59,0.14,1721207186368
0.85,6.34,23.27,0.31,-0.11,0.12,1721207186378
1.53,7.47,1.64,0.53,-0.13,-0.12,1721207186388
-0.65,5.14,-0.97,0.24,-0.03,-0.26,1721207186398
-0.51,-3.75,-0.32,-0.25,0.10,-0.17,1721207186408
-0.27,-1.34,30.84,-0.22,0.26,-0.20,1721207186418
-2.25,8.94,14.77,0.72,-0.30,-0.17,1721207186428
-1.88,-4.73,-4.64,-0.33,0.19,-0.11,1721207186438
-5.56,8.79,27.79,0.28,-0.08,-0.04,1721207186448
-0.04,-0.97,-13.51,0.34,-0.34,0.15,1721207186458
3.21,0.51,13.57,-0.64,0.87,-0.08,1721207186468
0.20,5.75,15.13,0.36,-0.35,-0.15,1721207186478
0.97,-4.90,-6.98,-0.42,-0.02,-0.11,1721207186488
-6.77,-0.53,27.89,-0.16,-0.17,-0.02,1721207186498
-2.17,-2.00,-11.63,0.34,-0.46,0.05,1721207186508
1.83,-9.93,14.14,-1.06,0.85,-0.05,1721207186518
5.72,18.34,38.91,0.92,-0.10,0.41,1721207186528
-1.92,-13.64,-19.55,-0.27,-0.52,0.22,1721207186538
-5.16,2.97,30.59,-0.47,0.34,-0.21,1721207186548
3.95,-4.60,4.60,0.04,0.00,-0.30,1721207186558
3.80,-2.85,17.35,-0.59,0.47,-0.05,1721207186568
-6.05,12.53,13.11,0.51,-0.41,0.29,1721207186578
2.92,-17.15,-10.32,-0.95,0.36,0.23,1721207186588
2.97,13.29,34.16,0.09,-0.87,0.15,1721207186598
-3.93,-3.87,-10.43,0.66,-0.52,0.12,1721207186608
6.83,-11.88,12.84,-1.33,1.17,-0.14,1721207186618
2.75,1.98,36.66,0.55,-1.41,0.41,1721207186628
-5.88,0.97,-11.45,0.45,-0.11,0.35,1721207186638
-0.18,4.60,0.91,0.25,-0.01,-0.44,1721207187200
0.20,3.67,4.27,-0.02,-0.18,-0.33,1721207187205
-4.21,4.28,25.91,-0.21,0.18,-0.19,1721207187214
-4.61,-3.00,14.90,0.15,-0.38,0.20,1721207187224
-1.18,-6.37,3.19,0.07,0.15,0.35,1721207187233
2.99,5.15,8.08,0.38,-0.08,0.34,1721207187243
5.03,9.84,2.87,0.27,-0.03,0.09,1721207187252
3.45,2.56,8.69,-0.12,-0.03,-0.25,1721207187262
-1.21,-4.93,12.89,-0.17,-0.13,-0.50,1721207187272
-6.68,-4.67,21.98,-0.13,-0.10,-0.35,1721207187282
-7.38,10.01,21.05,0.54,-0.19,0.25,1721207187291
-0.80,5.53,-15.18,0.24,-0.30,0.86,1721207187301
5.95,-5.57,3.76,-0.61,0.37,0.54,1721207187310
2.43,8.95,19.93,0.48,-0.28,-0.09,1721207187320
6.93,-3.77,-12.43,-0.04,-0.36,-0.48,1721207187330
-9.59,-7.49,17.62,-0.43,0.09,-0.41,1721207187340
-4.35,-6.42,29.58,0.21,0.01,0.03,1721207187350
-0.56,2.48,4.54,0.32,-0.18,0.42,1721207187360
1.09,9.71,4.08,-0.20,0.07,0.29,1721207187370
2.20,-7.65,17.03,-0.58,-0.12,-0.05,1721207187380
-1.42,-8.53,17.25,-0.02,-0.25,-0.27,1721207187390
-2.66,-5.34,3.08,0.17,-0.11,-0.06,1721207187400
-2.33,5.39,5.46,-0.05,-0.07,0.29,1721207187410
1.75,3.63,9.27,-0.12,-0.03,0.37,1721207187420
4.98,0.81,16.14,-0.04,-0.03,0.10,1721207187430
3.16,5.30,11.05,0.14,-0.22,-0.30,1721207187440
-0.67,-1.39,-0.88,-0.28,-0.19,-0.38,1721207187450
-4.28,-10.60,16.10,-0.57,-0.01,-0.20,1721207187460
-2.15,0.79,21.52,0.32,-0.08,0.25,1721207187470
2.97,5.60,-1.35,0.27,-0.08,0.28,1721207187480
5.57,5.20,12.80,-0.27,0.23,-0.14,1721207187490
2.40,-3.60,21.57,-0.10,-0.22,-0.57,1721207187500
-4.94,-4.94,13.65,0.16,-0.22,-0.52,1721207187510
-5.17,4.75,2.24,0.24,-0.02,0.14,1721207187520
-0.54,7.59,8.32,0.10,0.09,0.52,1721207187530
4.91,-0.13,7.38,0.14,-0.05,0.19,1721207187540
6.00,-3.26,6.75,-0.09,-0.06,-0.39,1721207187550
0.16,4.21,10.29,0.04,-0.07,-0.60,1721207187560
-4.70,-3.57,11.73,-0.26,-0.05,-0.28,1721207187570
-4.87,-5.14,28.84,-0.02,-0.00,0.15,1721207187580
0.82,4.61,6.58,0.66,-0.08,0.32,1721207187590
6.09,4.91,-12.45,0.03,0.09,0.13,1721207187600
3.16,0.62,13.94,-0.40,0.16,-0.48,1721207187610
-4.05,-2.43,24.14,0.12,-0.19,-0.57,1721207187620
-5.48,-4.02,4.38,0.14,-0.02,0.07,1721207187630
-1.43,3.80,12.70,-0.02,0.20,0.35,1721207187640
3.89,5.56,6.27,0.05,-0.11,0.24,1721207187650
6.60,-3.21,18.36,-0.45,0.39,-0.31,1721207187660
2.71,2.46,20.16,0.57,-0.20,-0.46,1721207187670
1.21,-1.44,-6.72,-0.20,0.18,-0.47,1721207187680
-6.52,4.68,22.85,-0.13,-0.12,-0.45,1721207187690
-4.99,-6.31,1.17,0.12,-0.08,-0.09,1721207187700
-1.79,8.19,14.11,0.03,0.29,0.08,1721207187710
1.62,6.20,-3.28,0.16,-0.22,0.12,1721207187720
3.05,-10.68,8.21,-0.74,0.52,-0.29,1721207187730
2.15,5.20,22.84,0.26,-0.29,-0.34,1721207187740
0.49,-0.98,-1.05,0.07,-0.00,-0.08,1721207187750
-1.98,3.73,25.53,-0.21,0.22,-0.20,1721207187760
0.33,5.96,10.24,0.49,-0.20,-0.07,1721207187770
3.68,-12.62,-4.75,-0.64,0.29,-0.10,1721207187780
-2.12,3.95,30.76,0.16,-0.07,-0.38,1721207187790
-2.17,1.40,4.78,0.36,-0.09,-0.42,1721207187800
-2.25,4.08,11.46,-0.09,0.36,-0.35,1721207187810
-3.55,5.03,13.27,0.17,0.01,-0.20,1721207187820
-0.32,9.20,7.56,0.09,0.26,0.08,1721207187830
1.50,-3.56,-2.00,-0.14,-0.11,-0.01,1721207187840
2.69,-5.32,19.07,-0.42,0.40,-0.37,1721207187850
-0.58,6.08,15.58,0.62,-0.25,-0.26,1721207187860
-0.05,-3.84,-16.92,-0.16,0.26,-0.37,1721207187870
-4.32,-3.58,19.93,-0.30,0.18,-0.26,1721207187880
-1.93,4.06,15.89,0.18,0.13,0.11,1721207187890
3.81,-0.64,17.76,-0.30,0.56,-0.14,1721207187900
-0.64,6.79,17.11,0.37,-0.39,-0.16,1721207187910
-1.97,-1.11,-8.13,-0.02,0.13,-0.07,1721207187920
-0.33,-5.42,12.77,-0.46,0.26,-0.07,1721207187930
0.56,-4.18,16.08,0.03,0.05,-0.11,1721207187940
-1.64,-4.30,2.23,-0.02,0.06,-0.34,1721207187950
-3.34,-0.25,19.37,-0.30,0.22,-0.31,1721207187960
-0.94,4.70,21.93,0.26,0.16,0.01,1721207187970
0.33,0.11,4.98,-0.08,0.04,-0.04,1721207187980
-1.60,3.56,13.71,0.10,0.07,-0.19,1721207187990
0.41,1.02,-2.05,0.30,-0.01,-0.09,1721207188000
2.40,-1.49,7.53,-0.25,0.39,-0.22,1721207188010
-1.13,5.96,19.83,0.28,0.02,-0.27,1721207188020
-3.56,2.72,3.68,0.19,-0.09,-0.18,1721207188030
-4.27,0.71,9.69,-0.07,0.15,0.04,1721207188040
0.15,-1.60,21.11,0.13,0.35,0.23,1721207188050
1.77,5.79,10.84,0.40,-0.09,0.04,1721207188060
1.08,1.55,6.76,0.05,0.06,-0.11,1721207188070
-0.35,7.14,11.96,0.43,-0.01,-0.08,1721207188080
1.51,0.43,-3.49,0.14,0.04,0.01,1721207188090
0.38,-0.73,16.35,-0.22,0.32,-0.07,1721207188100
-0.39,3.01,11.19,0.39,-0.23,-0.06,1721207188110
-1.59,-5.67,0.70,-0.38,0.05,-0.09,1721207188120
-4.68,-0.77,24.46,0.01,-0.09,0.01,1721207188130
-1.75,-2.63,4.15,0.35,-0.08,0.22,1721207188140
-0.16,6.28,9.49,0.10,0.25,0.17,1721207188150
1.68,0.67,5.01,0.07,-0.23,0.12,1721207188160
-1.26,0.62,4.72,-0.09,-0.11,0.06,1721207188170
0.48,-3.25,7.77,-0.15,0.11,0.03,1721207188180
-0.26,1.57,15.19,-0.09,-0.20,0.05,1721207188190
-0.65,-0.98,13.21,-0.12,-0.15,0.07,1721207188200
-2.33,-0.68,16.76,-0.04,-0.16,0.09,1721207188210
-1.75,-1.71,7.03,-0.01,-0.13,0.15,1721207188220
-0.18,-2.66,13.55,-0.20,0.05,0.18,1721207188230
-0.43,8.78,11.93,0.22,-0.32,0.22,1721207188240
2.77,-2.94,0.65,-0.23,-0.09,0.30,1721207188250
2.63,-4.51,17.93,-0.14,-0.05,0.03,1721207188260
2.18,4.00,4.02,0.22,-0.38,0.00,1721207188270
2.22,5.69,8.21,-0.33,0.19,-0.10,1721207188280
0.49,2.13,15.45,0.12,-0.29,0.06,1721207188290
1.95,-6.05,-5.13,-0.14,-0.14,0.02,1721207188300
0.61,-3.67,12.85,-0.29,-0.03,-0.21,1721207188310
-1.85,-2.30,23.91,-0.17,-0.09,-0.28,1721207188320
-3.36,3.45,27.78,0.16,-0.20,-0.04,1721207188330
-0.78,4.30,-2.27,0.42,-0.18,0.15,1721207188340
4.23,-3.85,0.68,-0.20,0.18,0.04,1721207188350
-0.44,4.32,19.77,0.26,-0.23,-0.20,1721207188360
-0.46,0.66,6.37,0.13,-0.07,-0.28,1721207188370
-1.23,2.73,19.69,0.05,-0.06,-0.17,1721207188380
0.61,1.02,4.87,0.33,-0.10,0.01,1721207188390
2.98,-2.91,5.69,-0.20,0.22,-0.16,1721207188400
0.75,9.00,24.03,0.20,-0.12,-0.24,1721207188410
0.66,-1.45,1.23,0.16,-0.03,-0.30,1721207188420
1.62,-3.97,8.75,-0.13,0.22,-0.29,1721207188430
-0.48,3.32,9.73,0.28,-0.12,-0.30,1721207188440
-0.99,-1.75,1.26,-0.13,0.09,-0.25,1721207188450
-0.64,3.20,20.62,0.06,0.21,-0.22,1721207188460
0.57,4.08,2.58,0.48,-0.06,-0.22,1721207188470
2.46,-4.01,1.37,-0.39,0.37,-0.38,1721207188480
-2.54,4.47,26.78,0.11,-0.05,-0.54,1721207188490
-4.18,1.84,1.77,0.24,0.01,-0.24,1721207188500
-1.43,1.07,9.74,-0.20,0.37,0.12,1721207188510
2.79,-1.15,11.97,0.04,0.06,0.05,1721207188520
5.11,1.95,13.17,-0.01,0.33,-0.37,1721207188530
1.39,1.43,9.70,-0.05,-0.01,-0.66,1721207188540
-4.79,3.77,18.96,-0.15,0.19,-0.57,1721207188550
-5.04,4.75,5.47,0.30,0.10,-0.09,1721207188560
0.68,-6.66,1.97,-0.37,0.40,0.09,1721207188570
0.06,5.76,20.71,0.03,0.04,-0.15,1721207188580
2.84,6.35,5.71,0.21,0.10,-0.36,1721207188590
-3.55,7.67,7.23,-0.05,0.08,-0.44,1721207188600
-3.62,-8.39,9.65,-0.41,0.15,-0.18,1721207188610
-1.92,-1.48,14.20,-0.04,0.14,0.28,1721207188620
5.29,-5.40,1.99,-0.29,0.29,0.09,1721207188630
2.51,4.29,27.00,-0.05,0.24,-0.52,1721207188640
0.10,6.23,4.34,0.54,-0.05,-0.58,1721207188650
-3.14,-0.47,-0.50,-0.32,0.41,-0.35,1721207188660
-3.18,-1.44,12.48,-0.19,0.08,0.01,1721207188670
1.72,-3.06,12.12,-0.29,0.33,0.09,1721207188680
1.10,4.04,22.96,0.03,0.15,-0.25,1721207188690
-1.08,1.29,3.05,0.28,0.02,-0.41,1721207188700
-2.01,-2.37,-0.61,-0.26,0.41,-0.16,1721207188710
1.47,-1.10,8.64,-0.21,0.32,-0.03,1721207188720
1.09,2.82,19.70,0.02,0.17,-0.16,1721207188730
-1.94,2.91,17.40,0.04,0.04,-0.30,1721207188740
-4.82,1.88,6.72,0.08,0.15,-0.16,1721207188750
-0.62,-1.82,9.32,-0.12,0.50,0.10,1721207188760
3.21,3.04,14.41,0.07,0.12,0.17,1721207188770
0.91,-1.33,6.13,-0.02,-0.02,-0.09,1721207188780
-3.48,2.72,10.17,0.21,0.12,-0.34,1721207188790
-3.63,-3.63,4.51,0.12,0.09,-0.08,1721207188800
-2.38,-1.14,14.28,-0.12,0.30,0.13,1721207188810
-0.12,6.18,16.62,0.33,0.07,0.10,1721207188820
0.60,-0.19,2.70,0.04,0.10,-0.05,1721207188830
-0.27,0.78,13.99,0.11,0.30,-0.05,1721207188840
0.77,-1.56,4.07,0.20,-0.04,0.05,1721207188850
-0.47,-1.48,8.53,-0.16,0.23,-0.11,1721207188860
-1.20,-0.99,19.75,0.10,0.06,-0.17,1721207188870
-3.91,2.56,12.24,0.36,-0.05,-0.04,1721207188880
-2.24,7.64,11.87,0.16,0.19,0.23,1721207188890
1.03,3.31,14.32,0.19,0.02,0.36,1721207188900
0.95,-4.34,-1.18,0.07,-0.22,0.11,1721207188910
-0.47,2.76,1.31,0.12,0.04,-0.11,1721207188920
0.50,1.50,16.16,-0.07,0.14,0.01,1721207188930
-0.04,6.90,20.97,0.33,-0.11,0.17,1721207188940
1.57,1.05,-5.15,0.16,-0.13,0.08,1721207188950
1.29,-4.37,12.34,-0.58,0.28,-0.14,1721207188960
-1.04,5.14,29.74,0.27,-0.17,-0.12,1721207188970
-2.19,2.90,-0.80,0.36,-0.19,0.09,1721207188980
-1.65,3.81,4.05,0.01,0.24,0.19,1721207188990
1.99,1.34,5.29,-0.05,-0.03,0.22,1721207189000
2.16,1.49,4.90,-0.22,-0.01,-0.03,1721207189010
0.24,-0.94,10.00,-0.19,-0.06,-0.18,1721207189020
-1.20,-8.20,14.86,-0.22,0.09,-0.10,1721207189030
-2.66,3.12,22.91,0.36,-0.12,0.13,1721207189040
-0.81,7.83,-2.20,0.18,-0.11,0.18,1721207189050
0.79,-2.56,8.36,-0.74,0.20,-0.01,1721207189060
0.38,-8.11,23.98,-0.07,-0.16,-0.10,1721207189070
-1.43,-9.79,7.63,0.03,-0.10,-0.08,1721207189080
-4.65,7.39,12.80,0.14,-0.17,0.15,1721207189090
1.16,9.87,2.32,0.20,-0.02,0.40,1721207189100
4.62,0.02,3.88,-0.25,0.12,0.16,1721207189110
4.29,-9.59,12.71,-0.29,0.07,-0.32,1721207189120
-2.18,-3.25,17.77,0.09,-0.26,-0.37,1721207189130
-4.99,4.81,8.99,0.29,-0.02,0.07,1721207189140
-1.95,9.24,8.91,0.14,0.13,0.44,1721207189150
3.65,7.86,12.73,0.01,-0.02,0.41,1721207189160
4.74,-4.08,4.87,-0.20,0.02,-0.23,1721207189170
0.07,-8.21,12.92,-0.28,0.09,-0.60,1721207189180
-5.98,1.22,17.16,0.12,-0.24,-0.18,1721207189190
0.78,2.70,6.35,-0.04,0.06,0.64,1721207189205
2.91,0.98,10.14,-0.00,0.17,0.60,1721207189209
7.46,4.81,5.67,0.27,-0.08,0.04,1721207189219
5.32,-8.27,-0.14,-0.36,-0.01,-0.54,1721207189229
-7.83,-3.69,35.66,-0.19,-0.30,-0.52,1721207189239
-8.17,8.82,9.36,0.63,-0.13,-0.00,1721207189249
-0.54,-0.82,-9.92,-0.27,0.16,0.49,1721207189259
2.80,-7.80,6.46,-0.53,-0.01,0.20,1721207189269
0.72,-5.77,15.44,-0.13,0.19,-0.31,1721207189279
-1.46,-6.72,16.17,-0.31,-0.08,-0.41,1721207189289
-5.32,4.41,35.59,0.20,-0.09,-0.10,1721207189299
-1.60,7.56,3.06,0.54,-0.00,0.27,1721207189309
2.98,1.77,4.71,-0.50,0.31,0.19,1721207189319
1.33,-0.34,23.66,-0.10,-0.15,-0.11,1721207189329
1.41,-5.07,5.23,0.08,0.03,-0.17,1721207189339
-0.08,5.40,9.84,0.17,0.08,0.03,1721207189349
2.11,5.99,6.16,0.22,0.04,-0.03,1721207189359
2.03,3.55,9.62,0.08,0.06,-0.10,1721207189369
0.85,0.13,10.84,-0.06,0.13,-0.29,1721207189379
-1.54,0.19,20.67,0.02,0.06,-0.31,1721207189389
-2.46,4.75,10.02,0.45,-0.00,-0.09,1721207189399
0.48,3.91,-0.16,0.17,0.13,0.07,1721207189409
2.47,9.27,9.19,0.20,0.17,-0.16,1721207189419
1.19,-0.34,-6.18,-0.05,-0.27,-0.29,1721207189429
-1.48,-9.81,20.69,-0.63,0.53,-0.51,1721207189439
-4.02,3.35,25.06,0.51,-0.15,-0.31,1721207189449
-3.78,1.47,1.61,0.03,0.09,0.16,1721207189459
-0.27,7.66,12.78,0.17,0.08,0.30,1721207189469
6.12,1.43,-1.80,0.10,0.12,0.10,1721207189479
6.20,-1.23,7.21,-0.21,0.34,-0.38,1721207189489
1.24,-4.15,15.17,-0.02,-0.02,-0.69,1721207189499
-5.65,0.88,10.89,0.13,-0.01,-0.52,1721207189509
-5.77,2.07,6.10,-0.01,0.11,0.10,1721207189519
-0.34,1.02,14.80,-0.17,0.27,0.36,1721207189529
4.29,1.23,9.40,0.16,0.06,0.22,1721207189539
6.22,-4.76,-0.22,-0.16,0.20,-0.31,1721207189549
0.52,-2.42,10.74,-0.24,0.20,-0.68,1721207189559
-4.59,-1.61,21.00,0.01,0.06,-0.48,1721207189569
-7.09,7.75,9.55,0.37,-0.02,-0.02,1721207189579
-2.03,2.58,-1.74,-0.17,0.19,0.37,1721207189589
3.21,-5.33,9.50,-0.43,0.23,0.21,1721207189599
6.92,-1.94,18.87,-0.10,0.37,-0.27,1721207189609
1.03,2.55,11.99,0.05,-0.11,-0.70,1721207189619
-6.65,-1.94,9.51,-0.06,-0.03,-0.27,1721207189629
-5.19,0.11,11.60,0.02,0.27,0.24,1721207189639
1.35,3.17,9.19,0.03,0.18,0.30,1721207189649
3.36,1.54,14.80,-0.09,0.16,-0.06,1721207189659
1.30,1.44,15.60,0.09,0.07,-0.38,1721207189669
-3.83,1.02,4.07,0.18,-0.09,-0.25,1721207189679
-3.79,-2.49,2.15,-0.03,0.24,0.10,1721207189689
0.73,-0.65,8.76,0.02,0.17,0.26,1721207189699
3.26,-1.20,9.16,-0.00,0.21,-0.10,1721207189709
1.63,-2.54,15.84,-0.02,0.22,-0.47,1721207189719
-2.36,3.95,21.03,0.21,0.10,-0.34,1721207189729
-4.28,9.52,12.61,0.27,0.08,-0.08,1721207189739
-3.38,0.66,3.68,0.04,0.01,0.17,1721207189749
-0.66,-11.01,4.36,-0.17,0.13,0.24,1721207189759
0.00,1.55,12.85,0.28,0.01,0.04,1721207189769
1.51,4.38,1.41,0.15,0.01,-0.09,1721207189779
-1.01,7.27,17.85,0.09,0.11,-0.14,1721207189789
-3.52,-0.17,5.25,0.23,-0.22,0.06,1721207189799
-2.75,-5.59,11.03,-0.31,0.26,0.27,1721207189809
0.07,3.83,20.93,0.31,-0.07,0.26,1721207189819
2.94,3.51,0.28,0.21,-0.04,0.22,1721207189829
2.80,4.42,9.48,0.02,0.11,0.08,1721207189839
2.37,-0.96,0.90,0.12,-0.24,-0.03,1721207189849
-0.07,-0.69,4.19,-0.20,0.13,-0.12,1721207189859
-3.03,2.43,13.41,0.03,-0.03,-0.04,1721207189869
-1.43,-4.12,21.74,-0.30,0.18,0.11,1721207189879
-1.68,2.68,15.31,0.48,-0.33,0.32,1721207189889
1.25,1.50,-1.01,-0.09,0.10,0.30,1721207189899
1.43,5.61,11.17,-0.08,-0.08,0.15,1721207189909
3.15,-1.81,7.45,-0.18,0.06,-0.09,1721207189919
-1.37,-3.30,12.33,-0.03,-0.18,-0.08,1721207189929
-2.27,-1.67,9.03,-0.08,-0.01,0.09,1721207189939
-0.17,-0.79,14.47,-0.14,0.03,0.17,1721207189949
1.15,4.99,18.49,0.10,-0.07,0.08,1721207189959
0.87,3.54,1.14,0.10,-0.23,0.07,1721207189969
0.23,-2.63,6.18,-0.21,0.15,0.02,1721207189979
-0.90,2.19,15.28,-0.02,-0.00,-0.11,1721207189989
-0.95,1.05,5.18,-0.13,-0.12,-0.05,1721207189999
-2.69,0.07,11.34,-0.28,-0.01,0.11,1721207190009
0.20,-4.78,11.27,-0.12,-0.04,0.22,1721207190019
3.06,-0.48,13.53,-0.12,0.12,-0.01,1721207190029
0.60,5.27,10.93,0.14,-0.10,-0.18,1721207190039
-0.51,-2.50,4.08,-0.13,0.00,-0.08,1721207190049
-2.04,-0.74,12.16,0.03,-0.11,0.12,1721207190059
0.50,-1.24,9.92,0.04,0.12,0.17,1721207190069
1.19,8.30,19.01,0.08,-0.02,0.05,1721207190079
2.24,5.42,5.97,0.25,-0.15,-0.06,1721207190089
3.42,-6.12,3.29,-0.24,0.12,-0.16,1721207190099
-1.67,-3.41,19.95,0.03,-0.05,-0.22,1721207190109
-2.89,3.01,4.01,0.36,-0.08,-0.10,1721207190119
-0.15,1.34,6.95,-0.09,0.21,0.06,1721207190129
0.91,2.98,19.89,0.15,-0.06,0.14,1721207190139
1.27,-0.31,12.10,0.05,0.01,-0.02,1721207190149
0.14,3.49,12.82,0.13,-0.01,-0.13,1721207190159
0.19,3.76,6.03,0.17,0.03,-0.12,1721207190169
-0.22,-0.65,4.19,0.05,0.06,-0.08,1721207190179
-0.51,-2.39,11.70,0.04,0.08,0.01,1721207190189
0.21,2.35,5.78,0.16,-0.05,-0.05,1721207190199
1.78,1.65,7.64,-0.10,0.09,-0.03,1721207190209
1.14,2.75,16.21,-0.01,0.04,-0.10,1721207190219
-1.24,-2.02,9.67,-0.01,-0.01,-0.24,1721207190229
-3.02,-1.19,11.65,-0.04,0.13,-0.06,1721207190239
-2.19,1.76,14.69,-0.02,0.09,0.09,1721207190249
0.32,5.39,6.90,0.21,-0.00,0.22,1721207190259
3.16,-5.33,-2.19,-0.41,0.11,0.15,1721207190269
2.31,-6.32,16.50,-0.28,0.06,-0.15,1721207190279
1.06,-2.18,12.54,0.15,-0.03,-0.31,1721207190289
-1.75,4.19,17.62,0.08,0.14,-0.24,1721207190299
-2.55,8.53,12.63,0.29,-0.05,-0.04,1721207190309
-1.25,2.33,7.68,-0.12,0.12,0.09,1721207190319
-0.57,-0.97,10.97,-0.12,-0.02,0.03,1721207190329
-0.15,2.10,6.66,0.01,0.05,-0.03,1721207190339
1.57,-2.24,4.38,-0.16,0.05,0.00,1721207190349
-0.09,-2.01,17.78,-0.08,-0.01,-0.12,1721207190359
-0.56,4.09,15.81,0.31,-0.10,-0.08,1721207190369
0.87,1.82,7.75,-0.16,0.10,-0.03,1721207190379
1.06,-0.31,18.06,-0.21,-0.00,0.02,1721207190389
3.94,8.60,25.62,0.53,0.13,-0.06,1721207190399
-1.02,-5.45,-12.04,0.07,-0.73,-0.13,1721207190409
-6.17,4.98,-7.81,-0.21,0.21,-0.41,1721207190419
3.41,-2.37,13.14,-0.31,0.69,-0.22,1721207190429
0.93,-5.91,17.76,-0.01,-0.41,0.04,1721207190439
-3.98,-0.95,9.84,0.06,0.08,-0.08,1721207190449
-1.01,5.83,9.57,0.36,0.19,-0.11,1721207190459
2.73,3.58,8.90,-0.03,0.02,0.07,1721207190469
1.93,5.49,15.42,-0.01,-0.16,0.04,1721207190479
2.55,-5.62,5.21,-0.07,-0.06,-0.24,1721207190489
-0.63,-0.66,12.41,-0.14,0.17,-0.37,1721207190499
-2.77,-2.83,11.06,-0.02,-0.06,-0.20,1721207190509
-3.86,2.94,7.97,0.15,-0.05,0.03,1721207190519
0.36,0.24,3.19,0.11,0.12,0.09,1721207190529
1.64,0.88,12.44,-0.08,0.19,-0.07,1721207190539
2.10,6.17,22.69,0.00,0.11,-0.28,1721207190549
-2.47,5.02,9.51,0.07,-0.32,-0.32,1721207190559
-4.66,-8.80,3.33,-0.24,0.11,-0.13,1721207190569
-2.44,-4.31,12.42,0.08,0.14,0.15,1721207190579
1.48,7.33,3.28,0.51,0.03,0.13,1721207190589
4.91,3.26,5.19,0.07,0.17,-0.06,1721207190599
0.53,2.88,19.53,-0.00,-0.17,-0.37,1721207190609
-4.30,2.26,7.87,0.22,-0.14,-0.46,1721207190619
-5.73,-6.64,4.97,-0.22,0.11,-0.21,1721207190629
-4.97,2.14,12.50,0.18,-0.04,0.25,1721207190639
1.45,1.17,5.32,0.20,0.21,0.28,1721207190649
4.70,7.83,11.95,0.31,0.04,0.08,1721207190659
4.91,2.83,2.28,0.12,-0.10,-0.35,1721207190669
-0.90,-2.35,11.91,-0.39,0.11,-0.62,1721207190679
-4.48,-1.61,21.86,-0.09,-0.02,-0.45,1721207190689
-5.93,1.19,16.55,0.13,-0.00,0.00,1721207190699
-3.61,7.53,1.09,0.49,-0.13,0.42,1721207190709
4.57,-3.00,-4.50,-0.12,0.25,0.44,1721207190719
8.54,5.70,11.01,-0.17,0.12,-0.02,1721207190729
6.99,0.71,19.34,0.05,0.08,-0.61,1721207190739
-0.38,0.02,11.55,0.10,-0.11,-0.76,1721207190749
-7.66,1.78,4.51,0.10,0.02,-0.36,1721207190759
-5.49,0.75,7.12,-0.15,0.11,0.29,1721207190769
1.61,4.07,15.62,0.02,0.19,0.54,1721207190779
6.24,0.44,5.57,0.09,0.05,0.02,1721207190789
3.44,-3.72,4.98,-0.32,0.10,-0.57,1721207190799
-4.19,-2.25,19.81,-0.24,0.02,-0.65,1721207190809
-8.70,-0.68,16.79,-0.01,-0.03,-0.17,1721207190819
-5.43,0.03,7.23,0.12,0.09,0.48,1721207190829
1.40,-1.89,4.58,-0.09,0.31,0.44,1721207190839
5.57,4.24,13.20,-0.05,0.18,-0.07,1721207190849
3.66,3.40,12.11,-0.13,0.07,-0.45,1721207190859
-3.79,-5.03,9.79,-0.32,-0.12,-0.45,1721207190869
-6.63,-4.99,12.55,-0.25,0.10,-0.02,1721207190879
-2.63,1.12,9.55,-0.05,0.09,0.37,1721207190889
2.61,3.31,5.44,-0.13,0.26,0.13,1721207190899
2.34,4.41,8.54,-0.15,0.12,-0.34,1721207190909
-1.16,-1.15,16.73,-0.19,0.19,-0.36,1721207190919
-5.00,-1.25,13.46,-0.05,0.03,-0.03,1721207190929
-2.59,-2.74,6.88,-0.27,0.16,0.25,1721207190939
-0.23,3.96,14.61,0.04,0.05,0.32,1721207190949
3.69,3.80,7.74,0.06,0.12,0.22,1721207190959
3.98,3.26,11.11,-0.05,0.13,-0.16,1721207190969
1.43,-2.98,5.82,0.05,-0.03,-0.43,1721207190979
-4.41,-2.10,8.24,-0.05,0.07,-0.36,1721207190989
-5.58,7.24,19.54,0.12,0.05,0.13,1721207190999
-1.47,4.81,10.61,0.27,0.13,0.48,1721207191009
3.59,-5.47,3.15,-0.02,0.06,0.33,1721207191019
4.08,-8.68,12.00,-0.15,0.10,-0.16,1721207191029
-0.09,9.94,16.68,0.53,-0.05,-0.43,1721207191039
-1.73,1.07,1.79,0.15,0.10,-0.07,1721207191049
-1.29,3.38,19.29,0.13,0.21,0.27,1721207191059
3.78,-0.01,12.05,0.15,0.22,0.06,1721207191069
2.99,2.08,14.85,0.03,0.06,-0.23,1721207191079
-0.33,-0.00,4.17,0.08,0.02,-0.23,1721207191089
-1.50,-5.68,6.53,-0.09,0.29,-0.05,1721207191099
-1.02,-3.75,13.33,0.24,0.10,0.04,1721207191109
0.18,5.60,7.04,0.50,0.15,-0.04,1721207191119
0.80,5.38,2.16,0.16,0.16,0.00,1721207191129
-1.49,-0.28,14.27,-0.15,0.20,-0.11,1721207191139
-1.91,-4.39,16.84,0.18,0.08,0.01,1721207191149
0.69,1.35,9.60,0.33,0.22,0.25,1721207191159
3.18,3.79,4.11,0.24,0.20,0.07,1721207191169
4.54,-0.18,8.54,-0.09,0.29,-0.17,1721207191179
1.40,7.11,19.17,0.23,0.12,-0.27,1721207191189
-0.90,6.48,1.28,0.38,0.19,-0.16,1721207191199
-2.84,-4.38,18.05,-0.54,0.50,-0.08,1721207191214
-2.11,-4.94,23.27,-0.30,0.10,-0.06,1721207191218
-1.54,-0.10,13.97,0.25,0.11,-0.03,1721207191228
-0.46,7.78,7.09,0.39,0.14,0.16,1721207191238
2.97,9.35,-6.51,0.11,0.15,0.18,1721207191248
3.76,0.83,1.47,-0.62,0.32,-0.16,1721207191258
-1.33,-10.07,24.48,-0.52,0.01,-0.36,1721207191268
-5.63,-2.69,12.22,0.32,-0.06,-0.07,1721207191278
-2.97,1.23,-4.67,-0.06,0.13,0.36,1721207191288
3.48,0.96,11.71,-0.37,0.39,0.35,1721207191298
6.20,-0.85,15.89,-0.13,0.01,0.12,1721207191308
4.75,-0.92,7.04,-0.17,0.17,-0.30,1721207191318
0.17,-9.60,6.23,-0.45,-0.03,-0.51,1721207191328
-5.89,-3.33,24.81,-0.18,0.17,-0.41,1721207191338
-3.99,0.84,13.72,0.27,0.02,0.09,1721207191348
0.09,5.40,7.53,-0.15,0.31,0.25,1721207191358
1.21,4.85,7.95,-0.20,-0.03,0.18,1721207191368
2.43,-3.41,14.48,-0.59,0.38,-0.19,1721207191378
-1.87,1.39,18.58,-0.07,-0.13,-0.33,1721207191388
-5.09,-0.49,1.41,-0.07,0.03,-0.15,1721207191398
-6.93,5.32,15.03,-0.13,0.20,0.23,1721207191408
-0.69,5.95,15.63,0.20,0.05,0.51,1721207191418
1.13,-3.00,0.09,0.09,-0.14,0.38,1721207191428
4.33,-0.98,9.90,-0.05,0.39,0.08,1721207191438
0.59,0.40,17.03,0.07,-0.14,-0.28,1721207191448
-3.63,1.81,11.88,0.30,0.07,-0.37,1721207191458
-1.53,-2.80,9.75,0.22,0.25,0.17,1721207191468
-0.77,5.06,9.63,0.37,-0.20,0.58,1721207191478
1.92,4.21,5.03,0.18,0.03,0.24,1721207191488
3.10,-1.71,16.82,-0.08,0.11,-0.21,1721207191498
-4.39,-2.70,1.66,0.26,-0.45,-0.29,1721207191508
-3.94,-15.13,10.73,-0.55,0.52,-0.06,1721207191518
-3.94,12.86,29.12,0.63,-0.25,0.42,1721207191528
0.71,3.85,-8.63,0.50,-0.26,0.45,1721207191538
6.29,1.02,16.87,-0.47,0.59,0.13,1721207191548
5.01,8.69,28.72,0.45,-0.21,-0.18,1721207191558
-0.95,-10.63,-14.76,-0.12,-0.50,-0.44,1721207191568
-11.28,-1.82,8.84,-0.42,-0.15,-0.21,1721207191578
3.34,7.35,12.59,0.21,0.09,0.41,1721207191588
4.80,5.77,1.22,0.35,0.01,0.67,1721207191598
6.00,-1.82,-3.01,-0.34,-0.14,0.31,1721207191608
6.30,-6.27,28.92,-0.50,0.47,-0.54,1721207191618
-2.25,8.15,28.31,0.60,-0.51,-0.58,1721207191628
-9.05,-2.85,-7.08,0.08,-0.36,0.08,1721207191638
-5.72,1.27,12.86,0.01,0.08,0.81,1721207191648
4.91,2.95,2.28,0.28,-0.05,0.73,1721207191658
9.52,-0.40,4.25,-0.44,0.11,0.02,1721207191668
2.58,3.78,20.54,0.12,-0.42,-0.40,1721207191678
-2.97,-0.96,6.68,0.08,-0.15,-0.28,1721207191688
-3.24,-2.25,20.11,-0.13,0.02,0.20,1721207191698
-1.89,0.48,15.34,0.18,-0.18,0.10,1721207191708
-1.75,2.38,2.24,0.10,-0.16,-0.02,1721207191718
-0.69,-5.15,1.39,-0.24,-0.07,0.24,1721207191728
1.83,-1.55,23.01,-0.08,0.14,0.33,1721207191738
4.12,1.26,7.07,0.40,-0.23,-0.07,1721207191748
2.05,0.63,8.62,-0.37,0.14,-0.47,1721207191758
-3.90,6.73,20.15,0.00,-0.26,-0.32,1721207191768
-4.35,-4.49,-2.08,-0.08,-0.13,0.02,1721207191778
-1.86,-6.49,11.54,-0.28,0.14,0.27,1721207191788
2.70,3.43,10.23,0.28,-0.06,0.23,1721207191798
2.95,0.70,1.49,-0.12,-0.02,-0.08,1721207191808
-0.66,3.30,15.44,-0.07,-0.11,-0.19,1721207191818
0.48,-3.34,10.43,-0.08,-0.04,0.01,1721207191828
0.13,0.76,24.55,-0.15,0.07,-0.01,1721207191838
0.44,12.02,15.35,0.34,-0.12,-0.15,1721207191848
0.40,1.71,-7.52,-0.04,-0.06,-0.11,1721207191858
0.23,-2.24,10.69,-0.37,0.29,-0.20,1721207191868
0.92,-2.20,12.16,0.21,-0.08,-0.08,1721207191878
-0.35,-3.66,6.86,0.04,0.00,-0.05,1721207191888
-1.19,1.72,7.67,0.20,-0.16,-0.02,1721207191898
0.87,-2.54,20.09,-0.22,0.24,-0.14,1721207191908
0.37,8.71,23.62,0.55,-0.15,0.04,1721207191918
2.20,-4.37,-10.58,0.18,0.02,0.10,1721207191928
1.87,2.09,12.03,-0.16,0.45,-0.16,1721207191938
3.48,0.72,9.56,0.14,0.07,-0.31,1721207191948
0.26,1.04,17.28,-0.08,0.24,-0.30,1721207191958
-1.49,2.80,11.40,0.22,-0.04,-0.04,1721207191968
0.09,-1.35,-0.88,-0.13,0.22,0.05,1721207191978
1.35,-8.52,17.25,-0.53,0.29,-0.12,1721207191988
-1.25,-0.34,28.16,0.32,-0.10,-0.13,1721207191998
-0.81,1.19,-0.39,0.37,0.15,0.01,1721207192008
0.06,4.44,9.66,0.02,0.35,0.02,1721207192018
-0.09,6.82,4.77,0.17,0.03,-0.08,1721207192028
-0.34,1.91,7.01,-0.25,0.37,-0.22,1721207192038
-2.83,-5.24,10.84,-0.10,-0.06,0.04,1721207192048
-0.93,-5.09,15.78,-0.13,0.40,0.07,1721207192058
1.25,7.90,16.09,0.36,-0.03,0.12,1721207192068
3.60,6.71,5.38,-0.03,0.29,-0.05,1721207192078
1.33,5.88,15.56,0.03,0.05,-0.18,1721207192088
0.53,-3.72,5.27,-0.11,0.12,-0.18,1721207192098
-2.66,-2.53,10.00,-0.02,0.19,-0.19,1721207192108
-1.20,-1.32,12.76,0.12,0.21,-0.07,1721207192118
-1.24,12.98,15.42,0.46,0.01,0.03,1721207192128
-1.07,5.19,-3.36,0.24,-0.12,-0.00,1721207192138
-0.85,-3.50,4.71,-0.40,0.38,-0.10,1721207192148
-1.60,-4.46,13.58,-0.10,0.00,0.10,1721207192158
1.48,0.34,16.20,-0.01,0.35,0.11,1721207192168
1.28,4.41,17.37,0.29,-0.16,0.05,1721207192178
1.14,-4.43,1.75,-0.06,-0.01,-0.08,1721207192188
1.84,-1.42,10.97,0.00,0.27,0.02,1721207192198
2.42,1.24,1.42,0.08,-0.17,0.00,1721207192208
2.44,-0.78,10.81,-0.23,0.42,-0.41,1721207192218
-2.02,0.51,19.22,0.13,-0.16,-0.44,1721207192228
-4.75,-1.98,5.05,-0.04,0.09,-0.05,1721207192238
-1.87,2.37,10.69,-0.15,0.23,0.33,1721207192248
2.94,5.13,11.99,-0.06,0.08,0.18,1721207192258
2.59,5.71,4.02,-0.18,0.06,-0.28,1721207192268
0.05,-9.94,7.60,-0.54,0.19,-0.46,1721207192278
-4.85,-2.18,17.04,-0.14,0.00,-0.12,1721207192288
-3.38,-0.48,0.06,-0.14,0.01,0.03,1721207192298
-0.23,-0.88,19.43,-0.59,0.42,0.02,1721207192308
0.91,2.18,22.98,0.24,-0.17,0.03,1721207192318
0.40,-3.94,-5.84,-0.03,0.15,-0.11,1721207192328
-0.80,-5.52,10.10,-0.43,0.18,0.14,1721207192338
-3.29,11.40,23.45,0.07,-0.19,-0.15,1721207192348
-5.16,0.76,0.48,0.02,-0.17,-0.25,1721207192358
-6.02,-11.61,12.39,-0.60,0.38,-0.02,1721207192368
-3.08,-3.06,20.31,0.12,-0.18,0.56,1721207192378
1.44,-0.74,1.10,0.06,0.08,0.41,1721207192388
1.61,3.47,19.08,-0.08,0.16,-0.10,1721207192398
-0.09,3.00,20.25,0.27,-0.28,-0.20,1721207192408
-3.56,0.75,13.00,0.01,0.04,-0.09,1721207192418
-4.73,1.74,14.62,0.14,-0.09,0.05,1721207192428
-2.61,0.52,0.16,0.14,-0.03,0.16,1721207192438
0.21,0.26,11.85,-0.05,0.10,0.25,1721207192448
0.23,10.52,16.99,0.71,-0.39,0.24,1721207192458
1.51,3.09,-13.19,0.49,-0.33,0.18,1721207192468
1.51,0.17,15.18,-0.54,0.33,0.01,1721207192478
-2.03,2.07,30.82,0.19,-0.47,0.08,1721207192488
-2.23,-0.11,3.73,0.35,-0.19,-0.05,1721207192498
-4.67,5.73,6.30,0.33,-0.23,0.12,1721207192508
0.14,2.54,-0.87,0.06,0.02,0.35,1721207192518
4.22,1.21,13.07,-0.20,0.18,0.22,1721207192528
2.44,2.45,14.01,0.17,-0.25,-0.15,1721207192538
-1.79,3.97,7.93,0.01,-0.04,-0.31,1721207192548
