AccX,AccY,AccZ,GyrX,GyrY,GyrZ,Time
4.12,3.12,11.19,-0.12,-0.18,0.55,1721206233128
3.38,4.38,14.58,-0.06,-0.05,0.38,1721206233132
2.02,5.15,14.01,0.05,-0.36,0.28,1721206233142
-3.37,4.04,10.58,0.01,-0.36,0.22,1721206233152
-5.39,2.24,10.36,0.12,-0.29,0.43,1721206233162
-3.44,1.38,9.31,0.15,-0.26,0.83,1721206233172
1.37,2.31,10.28,0.17,-0.28,1.00,1721206233182
4.67,2.91,10.06,0.22,-0.27,0.75,1721206233192
5.48,1.20,8.55,0.15,-0.34,0.46,1721206233202
2.24,1.24,9.62,0.12,-0.35,0.23,1721206233212
0.15,0.87,10.24,0.11,-0.28,0.30,1721206233222
-0.46,-0.26,9.89,0.12,-0.30,0.49,1721206233232
1.12,0.32,9.67,0.08,-0.21,0.56,1721206233242
1.71,-0.45,9.98,0.05,-0.28,0.42,1721206233252
-0.12,0.58,9.97,0.07,-0.32,0.30,1721206233262
-1.13,-0.36,9.58,0.04,-0.22,0.37,1721206233272
-1.83,-0.48,8.96,0.04,-0.29,0.54,1721206233282
0.43,-1.10,10.30,-0.02,-0.18,0.63,1721206233292
2.76,0.22,9.98,0.05,-0.29,0.63,1721206233302
3.67,1.27,9.42,-0.02,-0.19,0.40,1721206233312
2.76,1.23,9.38,-0.01,-0.27,0.24,1721206233322
1.13,-0.88,9.49,-0.10,-0.20,0.21,1721206233332
0.13,0.88,11.53,-0.01,-0.20,0.29,1721206233342
0.93,0.88,9.67,-0.04,-0.16,0.29,1721206233352
1.07,1.31,10.67,-0.04,-0.21,0.24,1721206233362
0.85,0.64,9.68,-0.05,-0.15,0.13,1721206233372
0.90,1.63,11.28,-0.04,-0.17,0.14,1721206233382
1.64,0.34,10.68,-0.06,-0.10,0.12,1721206233392
0.67,1.45,9.79,-0.02,-0.20,0.05,1721206233402
-0.01,1.98,11.23,-0.07,-0.07,-0.08,1721206233412
0.44,0.52,9.83,-0.03,-0.15,-0.07,1721206233422
0.84,1.31,11.76,-0.04,-0.08,-0.04,1721206233432
1.54,1.28,10.60,0.01,-0.11,-0.05,1721206233442
1.98,1.19,9.95,-0.01,-0.10,-0.17,1721206233452
2.01,1.08,10.49,-0.02,-0.03,-0.30,1721206233462
0.40,1.13,10.27,0.01,-0.11,-0.39,1721206233472
-1.00,0.40,10.05,-0.02,-0.05,-0.36,1721206233482
-1.06,0.51,10.73,0.03,-0.06,-0.23,1721206233492
-0.04,0.77,10.32,-0.02,-0.02,-0.20,1721206233502
0.72,1.17,9.50,0.02,-0.07,-0.26,1721206233512
0.51,-0.84,9.20,-0.09,-0.05,-0.34,1721206233522
-0.36,1.07,14.21,0.03,-0.04,-0.37,1721206233532
-0.20,-0.73,7.83,0.03,-0.10,-0.28,1721206233542
-0.77,1.63,10.19,-0.01,-0.04,-0.27,1721206233552
0.28,0.27,9.49,-0.06,-0.03,-0.31,1721206233562
-0.85,0.02,11.36,-0.06,-0.13,-0.32,1721206233572
-1.50,0.38,11.34,-0.03,-0.06,-0.28,1721206233582
0.68,-2.12,9.25,-0.07,-0.15,0.04,1721206233592
3.80,0.51,9.42,-0.15,0.03,-0.02,1721206233602
6.60,0.46,12.03,-0.25,0.06,-0.42,1721206233612
1.13,1.26,12.46,-0.10,-0.13,-0.97,1721206233622
-6.97,-2.00,5.69,-0.11,-0.10,-1.00,1721206233632
-10.82,-0.64,10.65,-0.18,-0.03,-0.27,1721206233642
-6.86,-1.08,9.61,-0.05,0.00,0.44,1721206233652
2.68,-1.04,11.08,-0.13,0.15,0.49,1721206233662
8.38,2.07,11.93,-0.06,0.03,0.07,1721206233672
9.03,1.68,9.52,-0.08,-0.05,-0.58,1721206233682
3.16,-0.72,11.19,-0.12,-0.20,-0.90,1721206233692
-1.78,-3.01,10.19,-0.07,-0.08,-0.84,1721206233702
-5.16,-1.66,10.69,-0.03,-0.04,-0.69,1721206233712
-5.89,-0.73,9.46,0.00,-0.07,-0.40,1721206233722
-2.55,-2.49,9.25,-0.08,0.07,-0.20,1721206233732
0.21,0.54,12.72,0.03,-0.01,-0.27,1721206233742
1.07,1.12,9.68,-0.00,-0.01,-0.57,1721206233752
-0.21,1.06,11.30,0.01,-0.04,-0.72,1721206233762
-2.29,-2.18,9.79,0.02,-0.10,-0.57,1721206233772
-2.50,-1.81,10.52,0.02,-0.04,-0.34,1721206233782
-1.21,0.68,10.75,0.10,-0.09,-0.34,1721206233792
1.62,1.23,10.64,0.12,0.04,-0.54,1721206233802
0.78,1.10,10.05,0.21,-0.08,-0.74,1721206233812
-2.52,-1.02,8.76,0.10,-0.10,-0.63,1721206233822
-3.96,-1.99,12.13,0.18,-0.08,-0.29,1721206233832
0.17,-1.00,11.77,0.26,0.15,-0.06,1721206233842
3.91,1.33,11.35,0.22,0.09,-0.10,1721206233852
3.60,1.29,8.26,0.21,-0.15,-0.45,1721206233862
2.62,-2.11,8.90,0.11,-0.06,-0.66,1721206233872
0.70,-2.47,11.72,0.17,-0.04,-0.61,1721206233882
-1.20,-0.66,12.20,0.19,0.08,-0.44,1721206233892
-0.04,-3.52,8.69,0.13,-0.02,-0.20,1721206233902
-0.36,-0.57,7.17,0.17,-0.10,-0.29,1721206233912
2.80,-0.46,9.30,0.15,0.19,-0.50,1721206233922
2.22,-1.25,14.35,0.17,0.05,-0.54,1721206233932
-2.67,0.52,7.43,0.15,-0.12,-0.44,1721206233942
-2.35,0.63,10.24,0.02,0.20,-0.41,1721206233952
0.48,-2.99,8.78,0.09,-0.01,-0.33,1721206233962
0.53,-1.86,12.60,0.05,0.08,-0.37,1721206233972
0.43,-1.96,10.78,0.10,0.12,-0.36,1721206233982
-1.74,-2.15,8.48,-0.08,-0.01,-0.49,1721206233992
-1.33,-2.39,11.62,0.04,0.03,-0.50,1721206234002
-1.19,-2.89,9.49,-0.04,0.17,-0.47,1721206234012
-3.78,-1.88,10.76,-0.04,-0.08,-0.48,1721206234022
-2.26,-3.74,10.50,-0.07,0.10,-0.37,1721206234032
-1.48,1.11,12.87,0.03,0.12,-0.46,1721206234042
-1.31,-3.53,6.56,-0.07,-0.13,-0.49,1721206234052
-4.18,-0.74,10.43,-0.10,-0.05,-0.44,1721206234062
-2.84,-1.93,11.00,-0.02,0.08,-0.30,1721206234072
-0.14,0.00,11.74,-0.05,-0.00,-0.23,1721206234082
1.92,-0.60,9.32,0.03,-0.06,-0.22,1721206234092
1.75,1.62,9.20,-0.05,0.01,-0.41,1721206234102
0.60,-0.57,9.50,-0.06,-0.10,-0.45,1721206234112
-0.54,-1.35,10.95,-0.06,0.01,-0.39,1721206234122
0.46,-0.19,9.46,-0.02,0.08,-0.34,1721206234132
0.85,-0.81,11.51,-0.17,-0.00,-0.35,1721206234142
-0.42,0.83,12.42,0.18,-0.17,-0.26,1721206234152
2.05,-1.75,1.92,-0.12,0.23,-0.35,1721206234162
0.33,-0.41,16.78,-0.21,0.15,-0.49,1721206234172
0.03,-1.30,13.05,0.12,-0.04,-0.38,1721206234182
-1.24,-2.01,3.61,-0.03,-0.04,-0.18,1721206234192
0.80,0.27,14.00,-0.12,0.33,-0.15,1721206234202
4.01,1.24,13.45,0.10,0.06,-0.24,1721206234212
3.56,-1.61,8.54,-0.12,0.09,-0.38,1721206234222
0.51,1.99,12.91,0.05,0.07,-0.44,1721206234232
0.08,-0.63,6.08,-0.05,0.19,-0.40,1721206234242
-1.04,0.66,14.32,-0.08,0.21,-0.27,1721206234252
0.60,0.94,12.27,0.07,0.19,-0.13,1721206234262
1.68,0.35,8.01,-0.05,0.17,-0.20,1721206234272
1.36,1.85,9.40,-0.08,0.22,-0.37,1721206234282
-0.10,0.95,9.40,-0.08,0.20,-0.40,1721206234292
-1.45,0.89,11.33,-0.05,0.18,-0.25,1721206234302
-0.82,2.57,7.78,0.02,0.17,-0.14,1721206234312
0.45,0.17,7.33,-0.26,0.23,-0.21,1721206234322
-1.73,3.25,13.71,-0.16,0.12,-0.37,1721206234332
-2.18,0.45,8.39,-0.13,0.12,-0.32,1721206234342
-2.75,-1.89,9.77,-0.28,0.15,-0.11,1721206234352
-1.95,-0.54,12.65,-0.18,0.13,-0.05,1721206234362
0.52,-0.07,10.52,-0.13,0.15,-0.11,1721206234372
0.51,-0.56,9.21,-0.13,0.08,-0.23,1721206234382
-1.13,0.10,8.64,-0.11,0.04,-0.25,1721206234392
-1.55,-2.15,10.25,-0.19,0.12,-0.14,1721206234402
-0.69,-1.24,12.67,-0.09,0.15,-0.00,1721206234412
1.22,0.31,9.53,-0.03,0.08,-0.01,1721206234422
1.00,-0.50,9.32,-0.14,0.06,-0.14,1721206234432
0.22,1.01,11.51,-0.02,0.05,-0.16,1721206234442
0.41,0.29,9.06,0.00,0.06,-0.09,1721206234452
-0.75,0.95,10.54,-0.06,0.13,-0.11,1721206234462
-1.02,2.36,12.45,-0.05,0.08,-0.08,1721206234472
-0.09,-1.06,9.62,-0.02,0.10,0.02,1721206234482
1.45,1.37,11.34,0.02,0.13,0.04,1721206234492
1.60,1.22,10.65,0.04,0.04,-0.11,1721206234502
-0.48,0.94,10.46,0.10,0.04,-0.22,1721206234512
-1.80,1.61,10.72,0.12,0.09,-0.21,1721206234522
-2.43,-0.62,11.36,0.11,0.09,-0.08,1721206234532
-2.13,-0.25,11.32,0.16,0.03,0.02,1721206234542
-1.06,-1.44,7.01,0.17,0.03,0.03,1721206234552
0.03,0.87,10.02,0.16,0.11,-0.01,1721206234562
0.49,2.06,12.15,0.19,0.03,-0.03,1721206234572
-0.09,-0.05,11.19,0.16,0.03,-0.05,1721206234582
-0.34,-2.14,8.15,0.11,0.02,-0.01,1721206234592
0.76,-0.82,10.55,0.08,0.20,-0.03,1721206234602
1.94,-0.58,10.75,0.21,0.05,-0.13,1721206234612
1.36,0.22,7.80,0.19,-0.07,-0.16,1721206234622
-0.66,-3.80,9.64,0.08,0.05,-0.13,1721206234632
-2.14,-2.89,11.34,0.14,0.06,-0.11,1721206234642
-0.52,-0.90,10.99,0.07,0.20,-0.11,1721206234652
1.18,1.02,11.23,0.15,0.07,-0.08,1721206234662
1.40,-1.27,7.46,0.08,-0.01,-0.11,1721206234672
-1.08,-2.10,6.46,0.06,-0.06,-0.13,1721206234682
-1.34,-2.83,8.11,-0.01,0.24,-0.18,1721206234692
-0.80,-1.45,14.43,0.02,0.09,-0.13,1721206234702
0.87,-0.72,8.18,0.06,0.08,-0.05,1721206234712
2.38,-0.62,10.17,-0.02,0.18,-0.10,1721206234722
1.20,-0.19,11.37,-0.00,0.07,-0.21,1721206234732
-1.71,-1.54,10.22,0.04,-0.05,-0.31,1721206234742
-1.17,-1.39,9.74,0.03,0.06,-0.17,1721206234752
-1.20,0.46,7.89,0.10,-0.01,0.01,1721206234762
-0.97,-3.78,6.79,-0.18,0.20,-0.12,1721206234772
-1.60,-0.67,15.51,-0.05,0.09,-0.19,1721206234782
-0.28,0.97,8.53,0.06,0.00,-0.09,1721206234792
0.61,-1.11,13.83,-0.17,0.18,0.01,1721206234802
-1.26,2.10,12.70,0.09,-0.14,0.04,1721206234812
0.74,-1.13,5.59,-0.13,0.10,-0.05,1721206234822
0.57,0.04,13.11,-0.07,-0.05,-0.10,1721206234832
-0.87,-0.85,7.10,0.00,-0.04,-0.22,1721206234842
-2.11,0.37,12.05,-0.08,0.13,-0.22,1721206234852
-1.64,0.34,10.46,0.06,-0.05,-0.00,1721206234862
0.63,1.13,10.95,-0.03,0.18,0.08,1721206234872
2.13,1.67,11.73,0.04,0.02,-0.03,1721206234882
1.55,2.11,9.47,0.03,0.01,-0.26,1721206234892
-0.63,1.74,9.71,0.04,0.00,-0.26,1721206234902
-2.14,1.13,9.10,-0.03,0.05,-0.12,1721206234912
-1.48,0.85,10.20,-0.03,0.09,0.04,1721206234922
0.59,-0.64,11.20,-0.07,0.14,0.05,1721206234932
1.01,1.44,13.57,0.00,0.06,-0.05,1721206234942
0.32,2.25,11.07,0.07,-0.01,-0.11,1721206234952
-1.26,1.43,10.68,0.02,0.04,-0.16,1721206234962
-3.72,0.25,9.38,0.01,-0.09,-0.07,1721206234972
-3.39,-0.77,8.95,-0.01,-0.03,0.09,1721206234982
0.33,-1.07,9.46,0.06,0.05,0.21,1721206234992
2.46,2.56,7.89,0.13,0.05,0.00,1721206235002
0.75,-0.83,2.05,-0.14,-0.09,-0.27,1721206235012
-2.38,2.95,15.37,-0.04,0.03,-0.35,1721206235022
-1.40,-2.56,8.50,0.01,0.00,-0.13,1721206235032
-2.92,-2.84,12.99,-0.12,-0.03,-0.00,1721206235042
-0.02,0.55,13.27,0.20,0.01,0.14,1721206235052
2.10,-2.06,5.13,0.04,0.07,0.00,1721206235062
-1.64,1.40,11.44,0.07,-0.20,-0.10,1721206235072
-0.97,-0.92,7.95,-0.00,-0.03,0.04,1721206235082
-2.15,-1.08,10.42,-0.06,-0.06,0.11,1721206235092
1.44,-1.41,9.26,-0.04,-0.02,0.16,1721206235102
2.90,-2.39,9.97,-0.12,-0.04,0.17,1721206235112
2.65,-0.25,11.06,-0.00,0.02,-0.02,1721206235122
0.21,-0.17,10.45,-0.04,-0.01,-0.18,1721206235137
-1.67,0.59,11.69,-0.02,0.02,-0.24,1721206235142
-2.33,1.27,11.78,-0.01,-0.00,-0.02,1721206235152
-1.27,-2.25,11.37,-0.17,0.08,0.03,1721206235162
0.80,-0.90,14.43,0.02,0.03,0.07,1721206235172
1.41,1.22,5.75,0.04,0.06,-0.04,1721206235182
1.27,-0.04,11.76,-0.03,0.01,-0.28,1721206235192
1.96,2.91,13.40,0.12,0.09,-0.21,1721206235202
-0.98,-0.01,8.03,0.03,-0.07,-0.31,1721206235212
-0.06,-3.20,10.64,-0.07,0.11,-0.11,1721206235222
-0.27,1.98,11.06,0.10,0.09,-0.15,1721206235232
0.68,-3.48,5.09,0.00,-0.10,-0.23,1721206235242
1.08,1.05,17.37,-0.02,0.26,-0.32,1721206235252
0.19,0.27,10.64,0.27,-0.05,-0.22,1721206235262
-0.75,-0.17,2.98,-0.03,0.13,-0.32,1721206235272
-0.54,-3.30,13.75,0.03,0.06,-0.26,1721206235282
1.03,-1.35,12.40,0.27,0.14,-0.12,1721206235292
1.67,-0.36,9.10,0.19,0.11,-0.06,1721206235302
0.79,1.02,12.35,0.03,0.21,-0.26,1721206235312
0.08,1.09,6.39,0.14,-0.01,-0.40,1721206235322
-1.04,-2.71,3.81,-0.09,0.26,-0.43,1721206235332
-1.80,-1.16,12.10,-0.03,0.15,-0.19,1721206235342
0.76,-3.51,8.01,0.08,0.23,-0.02,1721206235352
2.48,-1.81,10.82,-0.03,0.26,-0.15,1721206235362
1.75,-0.54,9.12,-0.02,0.18,-0.39,1721206235372
-0.32,0.48,10.61,-0.07,0.23,-0.52,1721206235382
-1.83,-2.55,5.96,-0.11,0.20,-0.35,1721206235392
-3.23,-1.13,10.94,-0.11,0.21,-0.14,1721206235402
-0.91,-3.40,6.87,-0.12,0.29,-0.13,1721206235412
-0.89,-1.88,15.38,-0.10,0.24,-0.28,1721206235422
-1.42,0.28,11.18,0.12,0.19,-0.30,1721206235432
-2.79,2.30,8.36,0.00,0.21,-0.22,1721206235442
-2.73,0.89,6.82,-0.04,0.19,-0.10,1721206235452
-1.28,-2.97,12.86,-0.25,0.31,-0.08,1721206235462
-1.06,-1.58,19.47,0.05,0.09,-0.03,1721206235472
1.44,1.41,14.59,0.13,0.26,0.01,1721206235482
2.97,5.32,7.43,0.10,0.19,-0.04,1721206235492
3.16,1.97,6.57,-0.21,0.30,-0.26,1721206235502
0.73,-0.72,13.97,-0.16,0.24,-0.41,1721206235512
-1.99,-0.17,13.94,-0.03,0.18,-0.23,1721206235522
-2.67,2.65,10.72,0.06,0.20,0.01,1721206235532
-1.07,1.97,6.43,-0.04,0.19,-0.04,1721206235542
-2.10,2.31,8.03,-0.06,0.07,-0.11,1721206235552
-2.22,-3.77,7.79,-0.12,0.20,-0.05,1721206235562
-2.42,-1.06,14.45,0.03,0.13,0.05,1721206235572
-1.07,6.06,9.63,0.17,0.11,0.09,1721206235582
0.31,0.93,1.93,-0.07,0.05,0.14,1721206235592
1.21,-3.54,12.82,-0.33,0.32,0.05,1721206235602
1.50,-0.56,15.36,0.03,0.05,0.03,1721206235612
1.71,-1.67,11.20,-0.10,0.19,-0.03,1721206235622
-1.30,4.72,11.53,0.07,-0.05,-0.02,1721206235632
-1.22,-0.68,5.15,-0.16,0.18,-0.00,1721206235642
-2.29,-0.41,13.07,-0.12,0.08,0.17,1721206235652
-0.54,-3.01,9.17,-0.03,0.10,0.21,1721206235662
0.00,1.19,11.16,-0.04,0.13,0.17,1721206235672
0.02,0.47,7.55,0.00,0.02,0.08,1721206235682
-0.98,0.34,10.30,-0.05,0.17,0.02,1721206235692
-1.32,1.24,12.29,0.05,0.03,0.16,1721206235702
-2.68,-1.26,9.34,-0.02,-0.05,0.35,1721206235712
-0.86,1.34,12.08,-0.01,0.20,0.29,1721206235722
1.28,1.02,7.91,0.14,-0.03,0.31,1721206235732
0.08,0.65,10.33,-0.00,0.09,0.25,1721206235742
-1.00,0.18,10.73,0.13,-0.10,0.12,1721206235752
-2.07,-2.15,8.45,0.06,-0.03,0.17,1721206235762
-0.50,-1.54,12.14,0.09,0.16,0.34,1721206235772
0.57,1.19,11.06,0.21,-0.08,0.44,1721206235782
0.27,0.74,6.12,0.17,0.03,0.26,1721206235792
0.90,-4.44,9.54,-0.04,0.08,0.08,1721206235802
-1.01,-0.48,14.54,0.15,-0.06,0.07,1721206235812
-0.38,-3.22,7.28,0.10,-0.06,0.23,1721206235822
0.47,-0.03,11.97,-0.02,0.10,0.21,1721206235832
1.64,2.41,11.35,0.19,-0.10,0.11,1721206235842
1.13,0.47,8.54,-0.01,-0.00,-0.04,1721206235852
-2.34,3.50,5.33,0.18,-0.14,0.01,1721206235862
-1.44,-9.27,4.45,-0.39,0.16,0.08,1721206235872
-4.00,3.48,19.66,0.00,-0.10,0.11,1721206235882
0.67,-4.74,5.32,0.06,-0.07,0.10,1721206235892
-1.85,1.97,14.14,-0.07,-0.04,0.19,1721206235902
0.30,2.40,9.25,0.13,-0.15,0.18,1721206235912
1.39,-0.35,10.46,-0.17,-0.05,0.14,1721206235922
0.09,-0.65,13.27,-0.03,-0.19,0.14,1721206235932
0.06,-0.97,9.09,-0.03,-0.03,-0.07,1721206235942
-1.16,1.93,13.75,0.03,-0.03,-0.15,1721206235952
-2.73,1.60,8.30,0.07,-0.16,0.14,1721206235962
-2.43,3.15,7.92,-0.03,-0.08,0.37,1721206235972
1.27,0.96,9.16,-0.08,-0.07,0.33,1721206235982
2.75,1.26,8.72,-0.05,-0.15,0.15,1721206235992
2.39,-0.79,12.86,-0.20,-0.04,-0.04,1721206236002
-1.01,1.86,14.96,0.02,-0.26,-0.03,1721206236012
-1.64,-0.68,8.91,-0.10,-0.04,0.13,1721206236022
-1.39,3.56,11.91,0.06,-0.18,0.18,1721206236032
1.19,-0.78,5.67,-0.04,-0.13,0.19,1721206236042
-0.34,-0.11,11.40,-0.09,-0.13,0.15,1721206236052
-0.63,0.50,8.47,0.06,-0.16,0.11,1721206236062
0.07,-2.71,7.40,-0.08,-0.07,0.19,1721206236072
-1.27,1.25,13.41,-0.07,-0.07,0.20,1721206236082
-0.21,-2.00,7.06,-0.10,-0.18,0.21,1721206236092
0.01,-1.10,12.05,-0.15,-0.11,0.08,1721206236102
1.52,-0.90,10.29,-0.05,-0.14,0.05,1721206236112
0.06,0.34,7.63,-0.03,-0.23,0.12,1721206236122
0.12,-2.26,9.18,-0.17,-0.01,0.08,1721206236132
-0.19,-0.85,14.86,-0.08,-0.13,0.06,1721206236142
-1.64,-2.25,9.91,-0.06,-0.12,0.08,1721206236152
-1.81,2.84,12.41,-0.05,-0.16,0.23,1721206236162
0.01,7.70,10.16,0.04,-0.12,0.28,1721206236172
1.80,-1.28,6.80,-0.28,-0.06,0.19,1721206236182
0.44,-4.24,16.07,-0.28,-0.16,-0.05,1721206236192
0.17,-1.18,13.62,0.02,-0.24,-0.05,1721206236202
1.53,3.41,10.79,-0.02,-0.09,0.21,1721206236212
1.43,5.41,10.94,0.02,-0.05,0.17,1721206236222
2.01,-2.65,7.13,-0.13,-0.10,0.06,1721206236232
-0.87,-2.59,11.51,-0.07,-0.18,-0.16,1721206236242
-0.29,-1.02,10.98,0.10,-0.15,-0.12,1721206236252
0.35,1.06,10.38,0.12,-0.11,0.08,1721206236262
2.47,0.90,11.02,0.11,0.03,0.10,1721206236272
2.65,-10.16,6.23,0.08,-0.12,0.03,1721206236282
-0.15,-7.74,9.66,0.19,-0.06,-0.23,1721206236292
-0.65,1.10,11.83,0.45,-0.10,-0.16,1721206236302
-1.79,15.59,12.20,0.58,-0.05,0.01,1721206236312
2.59,5.30,3.37,0.18,0.05,0.12,1721206236322
3.18,-8.99,10.89,-0.22,-0.03,-0.03,1721206236332
2.26,-6.69,17.26,0.01,-0.01,-0.24,1721206236342
-0.52,1.44,10.66,0.31,-0.10,-0.32,1721206236352
-0.53,6.51,4.10,0.33,0.05,-0.16,1721206236362
1.56,-4.54,2.85,-0.02,0.09,-0.07,1721206236372
0.74,-5.59,16.15,-0.04,0.10,-0.16,1721206236382
-0.72,2.01,16.16,0.21,0.04,-0.26,1721206236392
-1.48,5.08,8.98,0.28,0.01,-0.12,1721206236402
0.93,2.06,4.80,0.12,0.12,0.05,1721206236412
2.65,-2.41,8.56,-0.13,0.13,-0.12,1721206236422
2.02,-1.43,13.58,-0.06,0.07,-0.28,1721206236432
0.62,-1.35,14.34,-0.19,0.17,-0.37,1721206236442
-1.36,1.98,15.96,0.16,-0.02,-0.28,1721206236452
2.10,-1.36,10.46,0.05,0.33,-0.25,1721206236462
0.39,3.05,11.55,0.19,0.03,-0.40,1721206236472
-0.24,1.16,6.06,-0.08,0.20,-0.57,1721206236482
-2.43,4.78,19.82,-0.07,0.17,-0.55,1721206236492
-2.72,1.01,9.67,0.19,0.01,-0.30,1721206236502
-1.82,2.03,10.20,-0.00,0.26,-0.27,1721206236512
-1.29,3.29,7.51,0.08,-0.01,-0.19,1721206236522
-0.83,3.38,10.07,-0.17,0.27,-0.24,1721206236532
-0.68,2.40,11.49,0.09,0.00,-0.39,1721206236542
-0.27,1.04,0.20,0.26,-0.01,-0.34,1721206236552
-0.26,-3.27,-9.97,-0.05,0.08,-0.23,1721206236562
0.25,-2.73,13.05,-0.34,0.45,-0.38,1721206236572
-2.42,-2.93,15.87,-0.01,-0.22,-0.26,1721206236582
-1.44,-3.64,15.61,-0.20,0.47,-0.29,1721206236592
-1.19,-0.38,14.28,0.14,-0.16,-0.15,1721206236602
0.40,-2.02,2.09,-0.22,0.13,0.03,1721206236612
4.30,-0.20,14.96,-0.19,0.32,-0.12,1721206236622
3.05,-1.00,7.23,0.02,-0.21,-0.38,1721206236632
0.04,-1.20,7.67,-0.27,0.38,-0.57,1721206236642
-3.65,-1.63,11.01,-0.15,-0.02,-0.36,1721206236652
-3.77,-1.65,7.06,-0.28,0.11,-0.00,1721206236662
1.26,-0.80,13.96,-0.24,0.28,0.11,1721206236672
1.74,-3.23,14.96,-0.26,0.04,-0.05,1721206236682
-1.12,1.42,14.12,-0.16,0.15,-0.26,1721206236692
-0.52,3.20,11.97,-0.06,0.18,-0.24,1721206236702
-1.83,0.99,7.65,-0.03,-0.12,-0.09,1721206236712
-1.82,3.24,11.24,-0.04,0.24,-0.07,1721206236722
-1.92,0.57,13.30,0.10,0.01,0.04,1721206236732
-2.42,-1.31,9.95,0.03,0.13,0.04,1721206236742
-0.85,0.46,12.25,0.08,0.13,-0.03,1721206236752
0.12,4.46,10.57,0.25,-0.02,-0.10,1721206236762
-0.23,0.68,8.64,0.21,-0.00,-0.07,1721206236772
-2.47,-3.67,9.10,0.16,0.02,0.03,1721206236782
-1.77,-0.11,11.70,0.23,0.14,0.03,1721206236792
-0.31,4.99,14.01,0.27,0.00,-0.06,1721206236802
-0.67,3.89,8.83,0.31,-0.07,-0.12,1721206236812
-1.82,-1.13,8.84,0.25,0.03,-0.09,1721206236822
-3.39,-2.54,6.39,0.24,-0.11,0.04,1721206236832
-1.58,4.74,11.94,0.27,0.09,0.10,1721206236842
0.57,8.55,11.07,0.44,-0.14,0.14,1721206236852
-0.43,-1.35,5.26,0.08,-0.12,0.08,1721206236862
-1.13,-3.08,9.28,0.07,-0.07,0.12,1721206236872
0.45,-0.46,9.05,0.14,-0.08,0.15,1721206236882
1.38,2.60,10.24,0.13,-0.08,0.07,1721206236892
0.61,1.41,9.62,0.16,-0.14,-0.05,1721206236902
-0.75,-2.42,7.65,0.08,-0.09,-0.02,1721206236912
-3.57,-0.16,9.66,0.02,-0.16,0.05,1721206236922
-2.79,3.16,10.28,0.07,-0.09,0.17,1721206236932
-0.28,-0.58,7.83,-0.03,-0.15,0.33,1721206236942
0.84,0.22,10.53,0.01,-0.11,0.27,1721206236952
2.11,-0.75,10.66,-0.04,-0.07,0.10,1721206236962
-0.07,1.36,11.26,-0.09,-0.22,0.05,1721206236972
-1.13,-0.06,8.70,-0.17,-0.17,0.03,1721206236982
-0.70,-3.51,10.37,-0.23,-0.12,0.19,1721206236992
0.45,-1.76,11.71,-0.15,-0.20,0.25,1721206237002
2.79,-3.15,11.55,-0.08,-0.08,0.20,1721206237012
1.05,-0.48,7.57,-0.15,-0.17,0.01,1721206237022
1.25,0.18,9.07,-0.17,-0.16,0.01,1721206237032
1.69,0.74,11.40,-0.08,-0.12,0.06,1721206237042
0.57,-2.96,8.21,-0.21,-0.10,0.05,1721206237052
0.00,-0.70,9.56,-0.19,-0.09,-0.07,1721206237062
0.67,-4.13,5.22,-0.30,-0.18,-0.11,1721206237072
-0.94,2.89,12.17,-0.17,-0.12,-0.08,1721206237082
-0.78,-1.13,8.90,-0.12,-0.05,0.04,1721206237092
-0.61,-3.34,13.30,-0.38,-0.06,-0.06,1721206237102
0.62,1.82,16.18,-0.15,-0.21,-0.15,1721206237112
2.01,0.57,10.52,-0.06,-0.09,-0.02,1721206237122
-1.96,2.50,9.54,-0.01,-0.05,-0.08,1721206237132
1.05,1.42,9.48,-0.01,0.10,0.12,1721206237147
2.04,-1.58,9.84,-0.08,-0.15,-0.21,1721206237152
2.59,-3.12,12.05,-0.03,-0.04,0.04,1721206237162
-0.39,-0.38,12.63,-0.06,0.07,-0.10,1721206237172
-1.19,6.85,13.12,0.12,-0.26,-0.26,1721206237182
2.35,-1.50,9.08,0.05,-0.05,-0.21,1721206237192
1.72,-7.25,13.56,-0.04,0.00,-0.14,1721206237202
-1.22,3.80,13.98,0.23,0.04,-0.29,1721206237212
-1.46,3.88,9.02,0.16,-0.05,-0.34,1721206237222
-0.37,1.51,13.48,0.20,0.03,-0.10,1721206237232
2.02,-1.09,7.74,0.21,0.08,-0.05,1721206237242
1.26,-0.02,10.49,0.14,0.03,-0.18,1721206237252
1.34,2.17,11.81,0.27,0.06,-0.27,1721206237262
1.16,0.84,7.17,0.19,0.05,-0.30,1721206237272
0.32,1.92,7.71,0.19,0.07,-0.26,1721206237282
1.11,-1.93,8.17,0.18,0.12,-0.31,1721206237292
-0.05,-1.73,10.32,0.17,0.09,-0.38,1721206237302
-2.12,2.58,10.98,0.15,0.07,-0.37,1721206237312
-2.02,2.09,8.28,0.16,0.04,-0.23,1721206237322
0.34,-1.58,9.41,0.02,0.24,-0.17,1721206237332
0.32,-2.17,8.15,0.00,-0.02,-0.22,1721206237342
1.18,2.12,9.94,-0.06,0.24,-0.37,1721206237352
1.52,2.14,10.47,-0.05,0.13,-0.43,1721206237362
0.18,-2.77,8.12,-0.18,0.10,-0.34,1721206237372
-1.11,0.23,8.28,-0.09,0.19,-0.38,1721206237382
0.11,-2.78,9.97,-0.37,0.26,-0.47,1721206237392
-2.14,-0.09,16.49,-0.20,-0.05,-0.34,1721206237402
-0.26,-2.53,11.49,-0.22,0.23,-0.17,1721206237412
0.25,2.94,10.67,-0.13,0.12,-0.20,1721206237422
0.95,0.34,8.55,-0.36,0.16,-0.37,1721206237432
-0.04,0.50,14.05,-0.19,0.10,-0.36,1721206237442
-1.78,-2.00,7.13,-0.23,0.14,-0.29,1721206237452
-3.01,2.09,9.23,-0.24,0.09,-0.28,1721206237462
0.02,1.30,11.60,-0.19,0.18,-0.16,1721206237472
0.32,2.58,12.83,-0.19,0.21,-0.14,1721206237482
-0.82,3.19,10.34,-0.15,0.12,-0.27,1721206237492
0.07,-1.09,9.89,-0.20,0.05,-0.22,1721206237502
0.88,0.37,12.53,-0.11,0.25,-0.11,1721206237512
-0.56,1.08,8.06,-0.01,0.07,-0.25,1721206237522
-1.28,1.91,9.02,-0.06,0.10,-0.34,1721206237532
0.29,1.62,12.01,0.05,0.16,-0.23,1721206237542
-1.72,-1.37,10.17,-0.09,0.13,-0.11,1721206237552
-3.30,3.52,10.90,-0.01,0.05,-0.19,1721206237562
0.08,5.33,11.20,0.01,0.18,-0.18,1721206237572
-0.49,-4.93,8.73,-0.19,-0.01,-0.04,1721206237582
-2.14,-10.45,6.68,-0.23,0.13,-0.02,1721206237592
0.33,-6.20,14.37,-0.11,0.29,-0.11,1721206237602
0.34,3.14,15.25,0.18,-0.03,-0.11,1721206237612
-2.11,4.29,6.76,0.11,0.04,-0.21,1721206237622
-2.47,0.93,10.21,0.07,0.15,-0.13,1721206237632
-2.22,-5.97,8.03,-0.05,0.02,0.09,1721206237642
-0.11,-1.60,12.10,-0.05,0.15,0.10,1721206237652
0.76,4.19,5.39,0.22,-0.02,-0.06,1721206237662
-0.42,-1.70,8.50,-0.15,0.12,-0.25,1721206237672
-3.23,-3.10,11.85,0.05,-0.23,-0.08,1721206237682
0.17,-8.44,9.96,0.07,0.16,0.23,1721206237692
2.62,1.13,13.60,0.32,0.24,0.15,1721206237702
2.95,11.43,12.24,0.51,-0.00,-0.20,1721206237712
-1.16,9.34,7.39,0.49,-0.08,-0.22,1721206237722
-3.52,-6.51,5.93,0.02,0.05,-0.02,1721206237732
-2.75,-8.50,18.21,-0.16,0.16,0.15,1721206237742
-0.64,8.57,18.97,0.39,-0.09,0.23,1721206237752
-0.12,8.66,6.09,0.39,-0.05,0.12,1721206237762
-1.06,1.13,6.73,0.22,-0.13,0.15,1721206237772
0.52,-6.63,6.51,0.05,0.07,0.17,1721206237782
0.60,1.24,19.29,-0.08,0.13,-0.05,1721206237792
-2.15,12.34,16.63,0.36,-0.21,-0.10,1721206237802
-2.36,-2.11,0.97,0.14,-0.06,0.13,1721206237812
-0.11,-9.38,16.58,-0.09,0.11,0.42,1721206237822
3.68,4.29,15.08,0.49,-0.02,0.26,1721206237832
4.07,1.75,8.06,-0.09,0.00,-0.31,1721206237842
-3.90,15.01,10.95,0.50,-0.41,-0.34,1721206237852
-2.12,-12.44,-9.66,-0.02,0.06,-0.01,1721206237862
-1.95,-8.05,9.71,-0.19,-0.13,0.25,1721206237872
4.74,1.81,5.17,0.44,0.14,0.18,1721206237882
4.86,1.57,8.76,-0.10,0.02,-0.09,1721206237892
-0.38,3.35,14.12,0.10,-0.32,-0.09,1721206237902
0.73,-4.29,5.49,0.06,0.05,-0.05,1721206237912
0.87,-8.25,9.36,-0.06,-0.07,-0.07,1721206237922
1.34,2.32,11.54,0.06,0.12,-0.14,1721206237932
-1.65,8.15,8.56,0.29,-0.03,-0.13,1721206237942
-1.87,5.38,-15.45,0.38,-0.28,0.07,1721206237952
4.21,-15.27,-14.87,-0.84,0.56,0.08,1721206237962
9.34,-11.97,22.54,-0.96,-0.21,-0.11,1721206237972
-0.64,6.43,28.07,0.42,-0.04,-0.40,1721206237982
-2.12,0.70,0.45,0.32,-0.32,-0.31,1721206237992
-0.97,1.46,-1.76,-0.36,0.16,0.17,1721206238002
-1.81,-6.92,16.81,-0.50,0.48,0.07,1721206238012
-2.66,-10.10,22.36,-0.02,-0.24,-0.31,1721206238022
0.49,1.24,11.40,0.23,-0.06,-0.23,1721206238032
1.36,4.65,6.13,-0.05,0.04,0.09,1721206238042
-0.27,0.03,15.44,-0.48,0.09,0.04,1721206238052
1.95,1.07,14.80,-0.09,-0.02,-0.12,1721206238062
3.61,-3.14,4.03,-0.11,0.15,-0.29,1721206238072
-0.88,3.61,14.01,-0.10,0.16,-0.43,1721206238082
-1.58,2.26,12.79,0.04,0.04,-0.21,1721206238092
-0.07,0.78,8.46,0.06,0.20,0.06,1721206238102
1.60,-3.64,5.27,0.11,0.17,0.02,1721206238112
3.56,3.70,9.96,0.19,0.23,-0.19,1721206238122
2.09,3.10,11.21,0.25,0.12,-0.48,1721206238132
-1.73,3.50,13.28,0.32,0.12,-0.46,1721206238142
-3.30,1.80,9.06,0.27,0.20,-0.24,1721206238152
-2.46,1.63,7.02,0.05,0.12,-0.08,1721206238162
0.27,0.88,12.29,-0.00,0.28,-0.18,1721206238172
-0.58,-0.70,12.69,0.05,0.05,-0.29,1721206238182
-2.32,5.51,11.19,0.14,0.12,-0.17,1721206238192
1.57,-0.08,6.33,-0.15,0.21,0.01,1721206238202
2.91,-0.60,14.17,-0.15,0.32,-0.22,1721206238212
2.23,1.29,8.31,0.02,0.03,-0.47,1721206238222
-0.92,0.70,6.79,-0.17,0.28,-0.46,1721206238232
-3.94,-0.32,7.96,-0.10,0.08,-0.23,1721206238242
-2.55,-1.38,8.01,-0.21,0.24,-0.05,1721206238252
-0.07,-1.80,12.51,-0.16,0.19,-0.03,1721206238262
1.71,-2.68,11.93,-0.22,0.09,-0.06,1721206238272
1.26,2.89,13.75,-0.06,0.18,-0.19,1721206238282
1.56,-2.36,9.57,-0.09,0.17,-0.33,1721206238292
-0.75,-4.86,9.43,-0.17,0.02,-0.21,1721206238302
-0.87,0.49,11.16,-0.07,0.31,-0.18,1721206238312
0.25,5.03,14.46,-0.06,0.18,-0.26,1721206238322
-1.45,0.15,8.74,-0.07,-0.03,-0.28,1721206238332
-1.81,4.85,9.67,0.12,0.37,-0.10,1721206238342
-0.61,-10.23,-3.88,-0.13,-0.05,0.16,1721206238352
0.22,1.23,20.27,-0.12,0.69,0.00,1721206238362
3.00,5.53,12.70,0.46,-0.26,-0.17,1721206238372
-3.76,-1.26,2.56,-0.21,0.19,-0.35,1721206238382
-6.10,2.22,15.90,0.03,0.06,-0.23,1721206238392
0.13,-8.63,10.70,-0.14,0.26,0.08,1721206238402
0.51,3.16,18.95,0.16,0.28,0.18,1721206238412
1.32,0.32,4.42,0.17,0.08,-0.22,1721206238422
-0.33,-0.62,18.96,-0.05,0.37,-0.35,1721206238432
-1.05,-3.28,14.39,0.34,-0.14,0.00,1721206238442
-2.54,3.01,9.55,0.15,0.27,0.04,1721206238452
0.53,6.93,10.08,0.32,0.01,-0.02,1721206238462
-0.68,0.30,7.33,0.17,0.10,-0.11,1721206238472
-3.15,-0.69,8.49,0.37,0.04,-0.11,1721206238482
0.79,-1.55,4.53,0.16,0.23,-0.06,1721206238492
-1.46,5.10,12.55,0.16,0.02,-0.09,1721206238502
-3.01,1.90,5.16,0.28,-0.01,-0.14,1721206238512
-2.25,-4.33,7.99,0.08,0.17,-0.10,1721206238522
-2.42,2.38,12.55,0.34,0.02,0.05,1721206238532
-0.88,6.99,-0.95,0.39,0.08,0.06,1721206238542
1.47,1.49,4.92,-0.11,0.26,-0.06,1721206238552
-0.28,-4.51,15.03,-0.06,-0.16,-0.00,1721206238562
1.27,-2.42,17.01,0.18,0.24,0.08,1721206238572
2.62,3.04,9.25,0.33,-0.01,-0.21,1721206238582
-1.99,6.72,3.64,0.24,-0.10,-0.44,1721206238592
-5.80,0.15,0.06,-0.12,0.01,-0.20,1721206238602
-6.56,-6.02,9.34,-0.20,0.06,0.22,1721206238612
-2.16,-0.59,18.94,0.02,0.22,0.37,1721206238622
0.27,2.29,11.55,0.12,-0.15,0.28,1721206238632
0.73,-0.73,4.96,-0.24,-0.08,0.17,1721206238642
2.20,-3.68,15.43,-0.19,0.11,0.18,1721206238652
0.27,-1.72,10.85,-0.03,-0.13,0.09,1721206238662
1.47,0.65,10.68,0.02,0.04,0.13,1721206238672
2.64,-2.97,10.17,-0.19,0.06,0.12,1721206238682
-1.80,5.01,15.25,-0.14,-0.15,-0.07,1721206238692
0.18,2.02,12.86,-0.11,0.08,-0.04,1721206238702
-3.68,-6.30,8.29,-0.25,-0.19,0.13,1721206238712
-3.21,-4.42,11.89,-0.26,0.09,0.25,1721206238722
0.75,1.99,9.12,-0.15,-0.03,0.33,1721206238732
-1.53,2.56,12.17,-0.25,-0.12,0.13,1721206238742
0.85,-0.16,7.69,-0.05,-0.12,0.31,1721206238752
2.42,-1.71,5.64,-0.31,0.15,0.16,1721206238762
-2.11,0.38,13.47,-0.14,-0.28,0.11,1721206238772
-0.12,-2.16,9.25,-0.10,-0.00,0.18,1721206238782
-0.54,1.63,13.32,0.03,-0.06,0.22,1721206238792
0.78,0.85,8.61,0.01,-0.13,0.39,1721206238802
2.32,0.38,11.95,-0.13,0.02,0.33,1721206238812
1.49,1.18,12.37,0.05,-0.14,0.01,1721206238822
1.12,-4.82,6.97,-0.04,-0.26,0.12,1721206238832
0.93,3.78,10.69,0.17,0.04,0.29,1721206238842
1.15,-3.21,5.16,-0.03,-0.05,0.11,1721206238852
0.52,-2.66,15.25,-0.08,-0.14,0.13,1721206238862
0.20,1.89,13.09,0.18,-0.06,0.22,1721206238872
1.55,-1.91,9.09,-0.06,-0.02,0.23,1721206238882
2.67,0.45,12.18,0.20,-0.08,0.24,1721206238892
2.65,1.83,7.65,0.19,-0.01,0.14,1721206238902
2.67,-1.23,10.02,0.02,-0.01,-0.04,1721206238912
0.57,3.55,10.33,0.30,-0.08,-0.04,1721206238922
1.11,-2.45,9.21,0.02,0.15,-0.06,1721206238932
-1.65,5.22,11.14,0.33,-0.21,0.16,1721206238942
2.25,-1.37,6.46,-0.03,0.24,0.14,1721206238952
3.24,0.47,19.30,0.16,0.04,0.05,1721206238962
3.28,1.54,4.43,0.23,-0.03,-0.12,1721206238972
0.64,3.19,11.04,-0.06,0.13,-0.25,1721206238982
-1.04,-0.34,10.64,0.08,-0.02,-0.18,1721206238992
-1.45,2.95,10.11,0.05,0.12,-0.11,1721206239002
-0.92,2.56,9.76,0.03,0.10,-0.11,1721206239012
-1.82,-0.11,8.52,-0.12,-0.01,-0.09,1721206239022
-2.09,2.45,12.38,-0.07,0.13,-0.06,1721206239032
0.74,-1.01,7.98,-0.15,0.05,0.01,1721206239042
-0.17,-0.39,12.50,-0.11,-0.02,-0.03,1721206239052
-0.88,-0.03,3.11,0.03,-0.08,-0.10,1721206239062
1.12,1.08,10.97,-0.27,0.25,-0.09,1721206239072
-0.20,0.55,11.58,-0.07,-0.14,-0.06,1721206239082
-0.61,-1.41,12.15,-0.18,0.09,-0.13,1721206239092
0.94,0.84,10.41,-0.01,-0.01,-0.10,1721206239102
0.16,1.05,8.77,-0.18,0.02,-0.05,1721206239112
0.90,-1.51,11.00,-0.19,0.06,-0.10,1721206239122
-0.25,-1.85,10.20,-0.16,-0.01,-0.18,1721206239132
-0.88,1.19,10.88,-0.09,-0.07,-0.18,1721206239142
-0.66,-4.23,10.01,-0.22,0.06,-0.08,1721206239157
-1.32,-2.90,10.28,-0.12,0.06,-0.02,1721206239162
1.76,-2.99,9.37,-0.11,0.12,-0.04,1721206239172
0.44,1.54,12.06,-0.02,0.02,-0.15,1721206239182
-0.13,-2.66,10.54,-0.02,0.04,-0.19,1721206239192
-0.46,-0.27,13.12,0.03,0.06,-0.11,1721206239202
-1.59,-0.25,12.27,-0.08,0.06,-0.08,1721206239212
-1.01,1.63,12.53,0.06,-0.05,-0.08,1721206239222
-0.99,-1.95,8.89,0.04,0.04,-0.09,1721206239232
-1.72,-0.40,8.62,0.10,-0.12,-0.01,1721206239242
-0.41,-1.40,8.57,0.04,0.14,0.01,1721206239252
-0.24,3.19,13.42,0.17,-0.05,-0.08,1721206239262
1.37,1.49,7.88,0.07,0.02,-0.17,1721206239272
-2.60,1.72,10.30,0.07,-0.04,-0.19,1721206239282
-2.31,-3.10,9.39,0.04,0.06,-0.14,1721206239292
-0.52,4.84,13.09,0.16,0.09,-0.03,1721206239302
0.08,7.40,11.43,0.19,0.03,-0.14,1721206239312
-2.72,2.71,11.33,0.11,-0.07,-0.29,1721206239322
-3.40,-0.95,10.92,0.12,-0.05,-0.06,1721206239332
-1.81,0.46,11.59,0.15,-0.01,0.20,1721206239342
1.48,5.94,11.10,0.25,-0.00,0.10,1721206239352
3.87,0.69,8.58,0.23,-0.08,-0.02,1721206239362
2.08,1.21,6.48,0.22,-0.06,-0.23,1721206239372
0.38,2.55,7.25,0.13,-0.01,-0.39,1721206239382
-2.90,0.49,9.96,0.07,-0.02,-0.30,1721206239392
-4.50,1.35,10.81,0.11,-0.03,-0.04,1721206239402
-3.40,1.27,9.14,0.09,-0.06,0.20,1721206239412
0.17,1.67,5.82,0.03,-0.05,0.23,1721206239422
3.10,0.06,7.13,-0.19,0.11,0.03,1721206239432
0.59,-1.92,14.15,-0.22,-0.14,-0.21,1721206239442
-2.14,-1.13,12.74,-0.06,-0.06,-0.18,1721206239452
-3.26,-3.92,7.34,-0.05,-0.05,0.08,1721206239462
-0.68,-4.08,9.91,-0.26,0.03,0.25,1721206239472
1.36,-0.39,11.27,-0.04,-0.22,0.26,1721206239482
3.43,0.92,12.86,-0.14,0.22,-0.12,1721206239492
2.72,-3.44,9.71,-0.09,-0.24,-0.34,1721206239502
-4.00,-2.86,8.11,-0.15,-0.17,-0.36,1721206239512
-2.69,0.74,7.84,-0.01,0.03,0.02,1721206239522
-2.30,0.18,8.23,-0.25,0.16,0.10,1721206239532
-1.62,-3.94,14.64,-0.18,-0.14,0.07,1721206239542
1.32,-1.31,12.19,-0.09,-0.03,0.13,1721206239552
1.20,2.62,9.26,-0.18,-0.00,0.02,1721206239562
2.66,0.06,16.00,-0.19,-0.07,-0.10,1721206239572
1.23,-3.07,9.21,0.03,-0.18,-0.09,1721206239582
2.15,2.47,9.36,-0.00,0.25,-0.20,1721206239592
-2.33,2.29,9.87,0.09,-0.03,-0.32,1721206239602
-3.28,1.41,13.67,0.01,-0.07,-0.24,1721206239612
-1.17,3.12,8.72,0.23,0.03,0.15,1721206239622
0.39,-0.44,9.72,-0.01,0.25,0.06,1721206239632
2.81,-2.52,11.78,0.16,-0.11,0.01,1721206239642
2.18,1.14,11.80,0.17,0.14,-0.22,1721206239652
1.63,4.54,12.30,0.33,0.01,-0.22,1721206239662
1.32,5.45,15.53,0.28,0.15,-0.21,1721206239672
-0.75,-0.20,7.10,0.46,-0.07,-0.17,1721206239682
-0.58,2.36,5.66,0.25,0.27,-0.28,1721206239692
-0.50,2.31,8.60,0.24,0.07,-0.20,1721206239702
-2.25,0.42,10.58,0.17,0.10,-0.18,1721206239712
-0.91,3.03,6.80,0.49,0.11,-0.02,1721206239722
2.25,-2.72,-0.02,0.07,0.18,0.05,1721206239732
4.18,2.55,11.77,-0.16,0.11,-0.14,1721206239742
3.73,2.19,14.96,0.12,0.20,-0.39,1721206239752
1.40,0.33,8.63,0.14,0.06,-0.32,1721206239762
-0.51,0.93,7.70,0.00,0.26,-0.24,1721206239772
-0.55,-0.73,10.47,-0.15,0.23,-0.27,1721206239782
0.14,-0.79,15.01,-0.12,0.23,-0.22,1721206239792
0.58,0.15,8.96,0.00,0.15,-0.21,1721206239802
1.22,-0.81,5.35,-0.13,0.19,-0.27,1721206239812
-1.07,2.08,9.74,-0.01,0.18,-0.38,1721206239822
-1.81,-3.20,4.88,-0.27,0.14,-0.30,1721206239832
-3.03,1.22,16.66,-0.13,0.22,-0.20,1721206239842
-0.17,-0.22,14.29,-0.02,0.28,-0.17,1721206239852
0.76,4.47,10.04,0.02,0.16,-0.21,1721206239862
-1.37,2.14,6.91,-0.07,0.15,-0.36,1721206239872
-1.21,-6.51,5.88,-0.27,0.10,-0.24,1721206239882
-5.33,-0.68,15.80,-0.06,0.12,-0.24,1721206239892
-1.60,-1.05,12.24,0.00,0.32,-0.15,1721206239902
-2.11,2.16,12.38,0.02,0.12,0.03,1721206239912
-0.56,1.45,10.16,-0.06,0.10,0.11,1721206239922
0.99,0.71,13.21,-0.03,0.18,0.03,1721206239932
1.24,-2.32,11.89,-0.06,0.07,-0.20,1721206239942
0.00,-4.85,10.39,0.01,0.03,-0.24,1721206239952
-5.19,0.79,8.07,0.10,-0.10,-0.19,1721206239962
-2.48,2.66,7.59,0.03,0.26,0.11,1721206239972
-2.43,-5.03,8.61,-0.25,0.11,0.21,1721206239982
0.14,-6.47,14.65,-0.06,0.16,0.17,1721206239992
1.10,-7.31,9.75,-0.04,0.04,0.00,1721206240002
0.92,0.95,14.60,0.07,0.10,-0.12,1721206240012
-1.47,5.16,6.90,0.23,-0.10,-0.17,1721206240022
-3.34,2.20,4.80,-0.06,0.01,-0.08,1721206240032
-2.51,-1.66,11.48,-0.17,0.17,0.09,1721206240042
-0.75,-2.88,13.68,-0.07,0.04,0.11,1721206240052
-1.41,4.23,11.59,0.08,-0.07,0.04,1721206240062
-0.92,2.57,7.57,0.05,-0.03,0.04,1721206240072
-1.62,0.47,8.59,0.01,-0.08,0.23,1721206240082
1.16,0.00,10.58,0.00,0.03,0.34,1721206240092
4.26,1.95,11.67,0.01,0.02,0.17,1721206240102
2.77,7.86,12.10,0.18,-0.11,-0.10,1721206240112
-0.06,3.62,0.83,0.05,-0.22,-0.14,1721206240122
-3.23,0.71,12.63,-0.30,0.23,-0.00,1721206240132
-2.41,-0.90,21.38,-0.16,0.03,0.15,1721206240142
-3.59,3.27,13.74,0.13,-0.24,0.28,1721206240152
-1.22,3.44,2.85,0.01,0.03,0.31,1721206240162
1.24,2.26,6.23,-0.01,0.02,0.34,1721206240172
2.82,-2.56,8.13,-0.21,0.02,0.12,1721206240182
0.04,7.73,18.42,0.28,-0.11,-0.10,1721206240192
1.50,-8.35,-3.43,-0.02,-0.25,0.19,1721206240202
0.41,-0.06,17.02,-0.36,0.12,0.23,1721206240212
1.55,5.22,13.30,0.34,-0.11,0.04,1721206240222
-0.36,-3.05,8.79,-0.18,0.07,-0.33,1721206240232
-4.27,-2.62,12.84,0.16,-0.37,0.04,1721206240242
-2.83,-4.41,5.19,-0.21,0.13,0.49,1721206240252
2.36,-0.43,15.59,0.13,-0.03,0.63,1721206240262
6.36,0.57,5.10,0.24,0.07,0.23,1721206240272
2.32,-3.43,8.83,-0.03,-0.24,-0.25,1721206240282
-1.80,-0.53,14.16,-0.00,-0.14,-0.21,1721206240292
-2.84,-0.25,12.03,0.06,0.00,0.13,1721206240302
0.17,-1.94,6.89,0.01,-0.06,0.46,1721206240312
0.87,-2.18,9.86,-0.02,-0.04,0.37,1721206240322
4.44,-1.15,10.81,0.01,0.01,0.06,1721206240332
2.34,2.17,14.01,0.17,-0.08,-0.04,1721206240342
1.06,-2.60,4.84,0.06,-0.12,0.05,1721206240352
-2.92,-1.41,13.85,-0.06,-0.06,0.17,1721206240362
1.18,2.30,15.08,0.14,0.05,0.27,1721206240372
2.67,2.93,11.64,0.03,0.04,0.17,1721206240382
2.86,0.47,7.93,0.05,-0.11,0.04,1721206240392
1.55,1.42,10.36,0.02,0.13,-0.09,1721206240402
0.24,2.03,5.27,0.20,-0.12,-0.13,1721206240412
0.23,1.86,6.55,0.07,0.18,-0.02,1721206240422
-0.19,-1.99,11.11,0.08,-0.02,0.09,1721206240432
0.04,1.80,12.28,0.15,0.09,0.03,1721206240442
1.91,3.67,11.14,0.18,0.08,-0.04,1721206240452
2.03,2.66,8.55,0.08,0.02,-0.06,1721206240462
0.90,0.52,10.44,0.01,0.08,-0.21,1721206240472
0.00,1.47,8.84,0.07,0.05,-0.22,1721206240482
-0.51,1.20,8.09,-0.06,0.10,-0.11,1721206240492
-0.23,-0.99,8.38,-0.11,0.07,-0.04,1721206240502
0.07,-0.67,11.49,-0.11,0.11,-0.16,1721206240512
0.48,-0.51,12.01,-0.01,0.10,-0.11,1721206240522
0.70,1.77,10.13,-0.02,0.10,-0.06,1721206240532
-0.67,3.01,11.34,-0.04,0.05,-0.21,1721206240542
-2.54,0.96,6.90,-0.05,-0.11,-0.11,1721206240552
-0.26,-3.33,13.40,-0.38,0.27,0.00,1721206240562
1.57,-1.63,9.55,0.05,-0.28,0.22,1721206240572
5.80,4.20,9.69,-0.16,0.51,-0.24,1721206240582
1.90,-2.66,12.98,-0.09,-0.21,-0.67,1721206240592
-8.12,-0.49,7.71,-0.25,-0.32,-0.45,1721206240602
-7.21,-1.03,13.11,-0.11,0.18,0.03,1721206240612
2.00,-0.18,10.94,0.02,0.23,0.27,1721206240622
4.23,0.85,9.17,-0.09,-0.05,-0.02,1721206240632
0.51,5.28,13.29,0.01,-0.04,-0.51,1721206240642
-2.65,-3.66,7.46,-0.15,-0.01,-0.50,1721206240652
-5.40,-0.87,12.76,-0.06,0.09,-0.15,1721206240662
-3.39,-0.35,9.55,0.02,0.08,0.11,1721206240672
-0.85,3.74,12.89,-0.03,0.02,0.12,1721206240682
1.15,0.54,11.03,0.11,-0.00,0.02,1721206240692
1.16,-2.49,7.78,0.06,-0.04,-0.03,1721206240702
1.65,-0.89,9.60,0.04,0.11,-0.10,1721206240712
-0.23,1.21,12.73,0.18,-0.01,-0.14,1721206240722
-2.68,3.00,10.58,0.26,-0.10,-0.09,1721206240732
-1.75,-1.42,6.34,0.10,0.04,0.12,1721206240742
0.93,-1.13,12.85,0.08,0.13,0.15,1721206240752
2.63,-0.02,11.64,0.20,0.01,-0.07,1721206240762
-0.07,4.42,6.35,0.19,-0.11,-0.30,1721206240772
-2.32,1.61,8.52,-0.02,0.08,-0.30,1721206240782
-3.86,-1.75,13.94,-0.01,-0.06,0.03,1721206240792
-0.92,-2.75,10.94,-0.05,0.10,0.18,1721206240802
1.78,-2.09,9.38,0.00,0.04,0.04,1721206240812
2.18,-0.61,9.32,0.01,-0.01,-0.24,1721206240822
-1.99,4.08,9.16,0.19,-0.07,-0.30,1721206240832
-3.05,0.20,2.72,0.04,-0.07,-0.07,1721206240842
-1.48,-0.60,12.50,-0.19,0.22,0.08,1721206240852
-0.26,1.81,20.03,-0.06,-0.00,0.03,1721206240862
0.25,4.27,9.71,0.19,-0.14,-0.11,1721206240872
1.53,-3.78,1.38,-0.10,-0.08,0.01,1721206240882
-0.43,-1.13,9.37,-0.12,0.04,-0.11,1721206240892
1.25,1.43,14.59,0.09,0.06,-0.13,1721206240902
0.85,1.60,10.76,0.11,-0.07,-0.06,1721206240912
-0.76,0.98,10.70,-0.08,-0.01,-0.14,1721206240922
-1.46,4.92,9.50,0.20,-0.04,-0.23,1721206240932
-1.55,-0.23,6.79,-0.17,0.02,-0.31,1721206240942
-6.04,-9.11,9.83,-0.26,-0.43,0.14,1721206240952
-3.71,13.24,15.41,0.44,0.39,0.40,1721206240962
5.95,-3.30,-0.62,-0.17,-0.19,0.20,1721206240972
-0.26,3.67,7.66,-0.36,-0.20,-0.23,1721206240982
2.86,-1.52,19.20,-0.05,0.42,-0.35,1721206240992
-1.53,3.01,18.88,0.10,-0.26,-0.11,1721206241002
-6.86,5.93,2.37,0.04,-0.32,0.09,1721206241012
-0.92,-0.34,7.16,-0.21,0.19,0.39,1721206241022
3.28,-1.87,9.97,-0.11,-0.09,0.35,1721206241032
3.29,0.42,10.83,-0.08,-0.08,-0.05,1721206241042
2.35,-2.26,9.90,-0.17,-0.13,-0.14,1721206241052
-1.34,-4.69,11.68,-0.11,-0.11,-0.09,1721206241062
-1.71,-1.66,16.46,-0.07,0.11,-0.03,1721206241072
-1.19,3.92,10.99,0.22,-0.27,0.04,1721206241082
0.18,5.58,3.31,0.06,0.03,0.01,1721206241092
2.13,-5.57,11.93,-0.12,-0.02,-0.05,1721206241102
-1.28,-3.17,9.45,0.11,-0.22,-0.07,1721206241112
-1.02,5.74,7.52,0.26,0.06,0.03,1721206241122
1.48,-0.93,2.68,0.08,-0.03,0.19,1721206241132
-0.75,-2.49,11.10,-0.15,-0.13,0.04,1721206241142
0.46,1.63,14.94,0.08,-0.03,-0.17,1721206241152
-1.30,2.05,5.27,0.04,0.03,-0.11,1721206241167
-0.33,-5.35,1.61,-0.20,-0.27,-0.03,1721206241172
-2.21,-2.07,16.26,-0.24,0.21,-0.13,1721206241182
1.74,-1.56,14.57,0.10,-0.02,-0.17,1721206241192
1.20,1.53,9.36,-0.00,-0.11,-0.17,1721206241202
0.54,-0.01,15.14,-0.23,0.06,-0.18,1721206241212
-1.46,4.84,21.37,0.02,-0.05,-0.16,1721206241222
-0.01,1.27,8.86,0.17,-0.01,-0.05,1721206241232
0.11,-0.41,6.02,-0.00,0.00,-0.17,1721206241242
0.29,2.57,13.28,0.10,0.08,-0.11,1721206241252
0.72,4.28,9.33,0.43,0.01,-0.08,1721206241262
2.36,-3.04,-0.21,0.21,0.08,-0.14,1721206241272
0.55,3.89,7.18,0.13,0.01,-0.24,1721206241282
0.59,1.84,11.28,0.09,0.15,-0.40,1721206241292
-0.69,2.22,13.73,0.27,-0.00,-0.24,1721206241302
-0.67,-1.22,-1.67,0.17,0.01,-0.10,1721206241312
2.40,0.61,7.36,-0.14,0.42,-0.21,1721206241322
1.16,-2.09,18.81,-0.04,0.20,-0.35,1721206241332
-0.43,-0.57,11.60,0.17,-0.01,-0.33,1721206241342
-0.94,-3.17,6.28,0.02,0.15,-0.21,1721206241352
0.19,0.31,15.50,-0.09,0.27,-0.21,1721206241362
-0.26,-1.94,13.82,0.16,0.06,-0.24,1721206241372
-0.23,-0.29,7.62,0.10,0.24,-0.30,1721206241382
-0.70,0.88,5.48,0.03,0.17,-0.33,1721206241392
-1.53,-3.05,8.15,-0.09,0.10,-0.12,1721206241402
0.34,3.07,15.67,0.00,0.37,-0.15,1721206241412
0.36,3.11,10.16,0.04,0.04,-0.33,1721206241422
-2.35,1.19,7.62,-0.18,0.13,-0.37,1721206241432
-2.79,-0.96,10.32,-0.09,0.19,-0.15,1721206241442
-1.88,1.60,9.90,-0.21,0.23,0.00,1721206241452
-0.44,1.22,15.54,-0.04,0.15,0.05,1721206241462
1.56,0.45,8.15,0.11,0.06,-0.02,1721206241472
1.17,-10.44,5.93,-0.22,0.22,-0.16,1721206241482
-9.53,19.95,17.69,0.19,-0.03,-1.05,1721206241492
-10.69,-5.57,11.41,-0.17,-0.27,0.08,1721206241502
-1.31,-3.30,17.07,-0.17,0.41,1.35,1721206241512
15.11,2.02,6.06,0.38,0.69,1.20,1721206241522
16.31,3.68,4.59,-0.15,0.20,-0.10,1721206241532
5.80,3.80,12.43,0.09,-0.21,-1.42,1721206241542
-3.24,-1.75,10.06,0.18,-0.24,-1.67,1721206241552
-16.35,-2.04,10.13,-0.04,-0.17,-0.45,1721206241562
-15.16,-1.16,12.96,0.13,0.28,0.61,1721206241572
-2.70,2.69,12.76,0.13,0.32,1.14,1721206241582
6.72,3.25,6.28,0.21,0.14,0.95,1721206241592
11.11,1.23,1.76,0.11,0.10,-0.02,1721206241602
5.69,-3.11,8.38,-0.10,-0.00,-0.64,1721206241612
-2.86,-3.02,10.20,-0.10,-0.11,-0.55,1721206241622
-7.05,-2.79,12.36,-0.06,0.16,-0.13,1721206241632
-2.45,-1.44,12.94,0.02,0.11,0.39,1721206241642
2.33,2.32,6.11,0.03,0.06,0.46,1721206241652
5.01,-2.02,6.10,-0.09,0.18,0.03,1721206241662
1.36,-2.03,9.53,-0.12,-0.01,-0.45,1721206241672
-3.65,1.95,9.17,0.11,-0.06,-0.35,1721206241682
-5.40,-3.71,4.17,-0.14,0.00,0.15,1721206241692
-3.39,-2.46,15.81,-0.23,0.15,0.38,1721206241702
2.87,3.02,18.69,0.04,0.12,0.36,1721206241712
4.51,2.01,7.35,-0.00,-0.09,-0.03,1721206241722
1.44,-2.77,9.31,-0.27,0.09,-0.33,1721206241732
-3.20,-0.68,14.45,-0.08,-0.09,-0.23,1721206241742
-4.08,3.74,10.65,0.11,0.09,-0.05,1721206241752
-1.02,1.66,9.95,-0.01,0.01,0.22,1721206241762
0.45,-1.39,12.66,-0.12,0.02,0.14,1721206241772
0.82,2.11,13.06,0.11,-0.02,-0.00,1721206241782
1.02,2.71,6.68,0.06,-0.02,-0.19,1721206241792
-2.50,0.70,9.46,0.06,-0.17,-0.10,1721206241802
-2.80,-2.24,8.91,0.08,0.06,0.06,1721206241812
-1.08,0.82,12.25,0.15,-0.06,0.16,1721206241822
0.81,3.85,9.03,0.16,-0.05,0.15,1721206241832
0.34,1.50,11.04,0.08,-0.04,-0.02,1721206241842
-0.35,0.23,10.00,0.23,-0.12,-0.07,1721206241852
-0.34,0.62,8.98,0.18,0.00,0.02,1721206241862
-1.52,3.34,7.06,0.23,-0.20,0.06,1721206241872
0.15,0.34,8.66,0.05,0.11,0.06,1721206241882
1.62,-0.01,13.83,0.11,-0.07,0.04,1721206241892
1.06,0.90,7.21,0.09,-0.11,-0.01,1721206241902
1.03,-1.35,10.60,-0.08,0.07,-0.11,1721206241912
0.77,-0.25,15.22,0.05,-0.11,-0.10,1721206241922
-0.36,1.13,10.04,0.06,-0.06,-0.03,1721206241932
-0.15,-0.29,10.41,-0.02,-0.02,-0.09,1721206241942
-0.44,0.79,10.11,0.02,-0.02,-0.10,1721206241952
-0.64,-0.19,10.39,-0.10,-0.00,-0.05,1721206241962
-1.34,0.97,13.20,0.00,-0.05,-0.01,1721206241972
0.70,0.06,9.70,0.06,0.09,-0.01,1721206241982
0.43,3.06,5.72,-0.04,-0.11,-0.12,1721206241992
-0.40,-0.08,9.56,-0.18,-0.03,-0.13,1721206242002
-0.42,-0.37,12.86,0.01,0.04,-0.15,1721206242012
-2.09,0.23,5.29,-0.03,-0.07,-0.08,1721206242022
-1.07,-3.32,5.03,-0.24,0.04,0.03,1721206242032
0.69,-2.72,13.85,-0.13,0.10,0.02,1721206242042
1.71,0.85,13.73,0.01,-0.02,-0.09,1721206242052
-0.01,3.31,8.21,-0.03,-0.05,-0.21,1721206242062
-1.84,-2.78,6.42,-0.29,-0.02,-0.19,1721206242072
-3.06,-3.72,12.01,-0.30,0.05,-0.10,1721206242082
-2.36,-1.47,12.33,-0.12,-0.03,0.04,1721206242092
-0.69,1.32,7.01,-0.17,-0.05,0.11,1721206242102
1.33,-0.83,10.32,-0.26,0.08,0.05,1721206242112
1.44,-2.81,11.63,-0.25,-0.08,-0.08,1721206242122
-0.44,2.03,13.37,-0.24,-0.04,-0.18,1721206242132
-0.83,4.06,12.33,-0.07,-0.04,-0.12,1721206242142
-0.05,-0.15,5.47,-0.13,-0.04,0.02,1721206242152
-1.56,-1.15,10.79,-0.30,0.08,-0.08,1721206242162
-0.58,0.57,15.22,-0.14,-0.06,-0.07,1721206242172
0.16,2.21,10.90,-0.03,-0.07,0.01,1721206242182
0.27,2.12,9.55,-0.05,0.01,0.04,1721206242192
1.22,1.86,10.58,0.07,-0.00,0.02,1721206242202
1.98,-0.05,8.23,0.05,-0.02,-0.07,1721206242212
0.62,0.62,12.91,0.11,0.00,-0.17,1721206242222
-0.24,4.30,12.08,0.21,-0.02,-0.15,1721206242232
-1.31,-0.34,7.79,0.12,-0.05,-0.03,1721206242242
0.04,0.45,9.88,0.14,0.11,-0.01,1721206242252
-0.29,1.40,11.49,0.25,-0.03,-0.08,1721206242262
0.75,-0.96,9.61,0.18,0.06,-0.03,1721206242272
1.57,5.85,9.94,0.37,0.04,-0.04,1721206242282
2.18,-4.11,5.62,0.12,0.04,-0.04,1721206242292
-1.20,-0.63,14.38,-0.02,0.04,-0.24,1721206242302
0.58,0.47,13.92,0.24,0.04,-0.17,1721206242312
1.01,-3.00,7.64,0.14,-0.00,-0.07,1721206242322
0.21,1.75,12.79,0.17,0.14,-0.11,1721206242332
0.50,1.41,11.09,0.25,0.09,-0.11,1721206242342
0.46,1.07,9.30,0.21,0.16,-0.17,1721206242352
-0.30,-1.45,10.05,0.13,0.03,-0.14,1721206242362
-0.79,2.72,11.18,0.18,0.14,-0.11,1721206242372
-0.10,0.52,6.50,0.12,0.06,-0.05,1721206242382
0.09,-3.20,8.58,0.07,0.16,-0.10,1721206242392
-0.18,1.07,10.18,0.19,0.08,-0.13,1721206242402
-0.37,1.17,10.30,0.09,0.11,-0.17,1721206242412
-1.46,-0.88,11.70,0.05,0.06,-0.15,1721206242422
-1.90,1.94,12.68,0.18,0.11,-0.03,1721206242432
0.48,0.94,5.54,0.11,0.07,0.07,1721206242442
0.71,-4.23,5.23,-0.06,0.08,-0.03,1721206242452
0.64,-0.65,14.21,0.00,0.21,-0.23,1721206242462
-1.38,7.51,13.42,0.32,-0.08,-0.17,1721206242472
-1.84,4.63,2.51,0.05,0.05,-0.07,1721206242482
-0.84,-3.28,9.76,-0.29,0.15,-0.06,1721206242492
-0.83,0.11,14.73,-0.10,-0.00,0.03,1721206242502
1.00,0.23,8.20,-0.10,0.05,0.00,1721206242512
1.79,-2.41,6.14,-0.11,0.05,-0.15,1721206242522
0.62,-1.11,6.39,-0.06,0.05,-0.28,1721206242532
-1.37,-0.41,10.37,-0.14,0.06,-0.15,1721206242542
-1.59,0.96,15.49,-0.03,0.08,-0.06,1721206242552
-0.19,3.92,9.07,0.03,0.01,-0.02,1721206242562
1.25,-2.93,9.74,-0.28,0.16,-0.01,1721206242572
0.76,-2.53,15.82,-0.18,-0.05,-0.04,1721206242582
1.43,4.81,12.30,0.03,0.08,-0.09,1721206242592
1.75,-1.31,6.88,-0.22,0.04,-0.24,1721206242602
-1.87,-0.98,15.59,-0.20,0.04,-0.27,1721206242612
-1.80,-0.81,8.25,-0.01,0.02,-0.11,1721206242622
-2.09,1.27,5.35,-0.10,0.07,-0.01,1721206242632
0.37,0.19,11.48,-0.08,0.27,-0.09,1721206242642
1.37,6.52,11.96,0.23,0.04,-0.05,1721206242652
-0.27,-1.07,-1.31,-0.02,-0.08,-0.04,1721206242662
0.25,-0.98,14.18,-0.21,0.48,-0.18,1721206242672
1.77,2.12,18.78,0.06,0.07,-0.15,1721206242682
-0.33,1.82,7.74,-0.00,-0.06,-0.13,1721206242692
-0.67,-1.55,11.51,-0.16,0.16,-0.17,1721206242702
-0.82,1.84,15.31,0.12,0.09,-0.11,1721206242712
-0.59,2.44,6.75,0.07,0.12,-0.11,1721206242722
-0.47,-0.21,7.47,0.03,0.15,-0.16,1721206242732
-1.63,-0.46,11.41,0.11,0.02,-0.09,1721206242742
-1.45,2.30,6.48,0.15,0.08,-0.02,1721206242752
-0.31,0.80,11.14,0.01,0.22,-0.05,1721206242762
-0.47,-0.96,14.36,0.04,-0.03,0.05,1721206242772
-0.71,-1.87,7.89,0.07,0.03,-0.01,1721206242782
0.06,-4.38,11.47,-0.08,0.13,-0.04,1721206242792
-0.86,1.02,13.59,0.24,-0.02,-0.04,1721206242802
-0.65,3.26,7.12,0.21,0.12,-0.01,1721206242812
-1.25,1.99,8.66,0.08,0.02,0.01,1721206242822
-0.51,-2.27,11.57,0.00,0.01,0.04,1721206242832
-0.48,-1.57,6.55,0.08,-0.02,0.06,1721206242842
0.88,-0.37,9.56,-0.04,0.19,-0.04,1721206242852
-0.20,-0.93,15.27,-0.02,-0.07,-0.06,1721206242862
-2.37,-0.20,12.50,0.10,-0.05,-0.08,1721206242872
-2.57,-0.28,7.81,0.01,-0.04,0.03,1721206242882
-1.72,3.24,14.05,-0.04,0.10,0.10,1721206242892
-0.33,-1.49,8.26,0.05,-0.17,0.12,1721206242902
-0.76,-0.58,7.99,-0.06,0.06,0.03,1721206242912
-1.46,0.02,8.60,0.06,-0.17,0.08,1721206242922
-1.17,1.31,7.33,0.05,-0.01,0.10,1721206242932
0.67,1.16,11.58,0.02,-0.01,0.10,1721206242942
1.22,2.80,14.49,0.03,-0.09,0.15,1721206242952
0.84,0.98,10.29,0.11,-0.15,0.03,1721206242962
0.22,-2.22,7.12,0.04,-0.11,-0.03,1721206242972
-0.21,2.62,11.22,0.16,-0.02,0.03,1721206242982
1.06,3.11,7.45,0.23,-0.10,0.12,1721206242992
0.64,1.62,6.33,0.05,-0.04,0.09,1721206243002
1.35,0.52,11.90,0.05,-0.01,-0.03,1721206243012
0.63,1.73,10.88,0.06,-0.11,-0.08,1721206243022
-1.09,-0.34,10.63,-0.04,-0.09,-0.05,1721206243032
-1.57,1.73,9.55,0.07,-0.14,0.05,1721206243042
0.09,1.67,9.11,-0.01,0.03,0.09,1721206243052
0.18,-2.49,10.79,-0.04,-0.11,0.09,1721206243062
-0.54,0.27,14.05,-0.03,-0.02,-0.01,1721206243072
0.42,2.20,13.65,0.06,-0.07,-0.02,1721206243082
-0.90,0.68,7.50,-0.00,-0.18,-0.01,1721206243092
-0.27,-1.50,9.36,0.02,-0.06,0.07,1721206243102
1.22,1.49,2.23,0.14,-0.08,0.01,1721206243112
1.09,-2.30,17.84,-0.22,0.18,-0.58,1721206243631
-2.56,0.34,20.08,-0.08,-0.07,-0.57,1721206243635
-3.69,4.37,13.96,0.17,-0.07,-0.32,1721206243644
-1.90,-3.44,1.87,-0.18,-0.00,0.08,1721206243654
1.26,-3.56,7.92,-0.47,0.19,0.18,1721206243663
4.73,-2.10,15.21,-0.24,0.11,-0.13,1721206243673
4.19,-2.61,8.34,-0.17,-0.06,-0.48,1721206243682
-1.18,-3.99,9.22,-0.32,0.05,-0.65,1721206243692
-4.49,-2.87,13.32,-0.34,-0.00,-0.38,1721206243701
-3.66,-2.15,12.45,-0.29,0.06,0.11,1721206243711
0.64,-0.68,7.86,-0.26,0.13,0.22,1721206243720
4.84,0.59,10.07,-0.34,0.24,-0.11,1721206243730
3.04,0.22,13.43,-0.40,0.00,-0.44,1721206243739
-1.31,-0.39,13.74,-0.37,-0.05,-0.46,1721206243749
-1.90,-0.28,10.26,-0.28,0.12,-0.31,1721206243758
-1.61,-0.97,6.84,-0.30,0.08,-0.13,1721206243768
-0.54,-1.32,10.03,-0.26,0.18,-0.17,1721206243777
-0.12,4.85,13.94,-0.09,0.08,-0.24,1721206243787
-0.20,3.70,14.31,-0.03,0.10,-0.25,1721206243796
-1.07,1.83,12.78,-0.05,0.08,-0.19,1721206243806
-0.73,4.97,14.63,0.03,0.14,-0.10,1721206243815
-0.01,1.99,10.54,0.14,0.03,-0.17,1721206243825
-0.81,-3.23,9.45,0.05,0.06,-0.27,1721206243834
-0.83,2.19,13.62,0.22,0.14,-0.22,1721206243844
-0.79,5.16,10.69,0.31,0.06,-0.15,1721206243853
-1.19,-2.46,10.63,0.12,0.11,-0.18,1721206243863
-2.38,0.66,11.13,0.33,-0.03,-0.13,1721206243872
-0.14,-0.40,9.01,0.30,0.22,-0.03,1721206243882
-0.59,-0.89,9.90,0.28,0.04,-0.11,1721206243892
0.11,0.88,10.90,0.31,0.16,-0.14,1721206243902
0.06,2.11,12.26,0.31,0.12,-0.18,1721206243912
-1.65,2.16,7.44,0.28,-0.02,-0.25,1721206243922
-2.12,-1.76,5.71,0.16,0.13,-0.20,1721206243932
-1.04,-6.52,8.87,0.09,0.19,-0.04,1721206243942
-0.44,-1.86,12.70,0.10,0.16,-0.03,1721206243952
-0.32,5.20,6.51,0.39,-0.04,-0.12,1721206243962
1.03,0.51,0.62,0.09,0.20,-0.18,1721206243972
-0.67,-4.49,9.86,-0.16,0.10,-0.18,1721206243982
-1.75,-1.24,15.63,0.05,0.08,-0.15,1721206243992
-0.34,0.97,7.90,0.17,0.10,-0.02,1721206244002
0.57,-2.76,6.22,-0.20,0.19,-0.05,1721206244012
-0.57,-0.89,20.74,-0.04,0.12,-0.18,1721206244022
-0.67,3.12,7.90,0.35,-0.07,-0.09,1721206244032
2.12,-2.26,8.90,-0.31,0.34,-0.03,1721206244042
-0.49,1.82,20.51,-0.03,-0.20,0.05,1721206244052
-0.14,6.17,3.46,0.22,0.03,-0.13,1721206244062
1.31,-0.20,7.14,-0.18,0.30,-0.22,1721206244072
-2.85,2.47,12.54,0.08,-0.16,-0.10,1721206244082
-4.00,2.36,3.97,0.02,0.17,0.02,1721206244092
-1.36,-0.09,11.91,-0.09,0.15,0.12,1721206244102
0.94,-1.47,12.08,-0.01,0.06,0.20,1721206244112
1.96,2.92,14.27,0.07,0.16,0.11,1721206244122
2.07,4.32,9.83,0.22,-0.05,-0.04,1721206244132
0.57,2.15,5.53,0.09,0.06,-0.14,1721206244142
-2.21,1.34,7.26,0.10,0.06,-0.19,1721206244152
-2.20,-0.57,10.38,-0.03,0.19,-0.07,1721206244162
-2.89,1.57,9.23,0.13,0.03,0.10,1721206244172
-0.33,-5.32,3.10,-0.14,0.08,0.15,1721206244182
-1.45,-4.47,15.77,-0.26,-0.04,0.12,1721206244192
0.33,2.79,15.43,0.11,0.04,0.05,1721206244202
2.17,1.03,7.87,-0.05,0.05,-0.00,1721206244212
-3.16,1.19,12.93,-0.22,-0.05,-0.13,1721206244222
-1.99,-1.17,10.48,-0.15,0.01,-0.05,1721206244232
-1.87,0.30,7.22,-0.12,-0.07,0.17,1721206244242
-0.57,-2.15,6.71,-0.20,0.04,0.31,1721206244252
1.88,-8.40,6.94,-0.26,0.05,0.19,1721206244262
1.66,1.03,13.24,-0.11,-0.07,0.00,1721206244272
1.72,5.45,14.58,-0.04,-0.04,-0.01,1721206244282
-0.11,1.63,10.32,-0.09,-0.11,-0.04,1721206244292
-0.55,1.12,8.41,-0.02,0.01,-0.09,1721206244302
-0.68,-1.51,5.50,-0.08,-0.04,-0.04,1721206244312
-2.55,-0.32,12.00,-0.18,-0.05,0.03,1721206244322
-0.48,0.55,12.66,-0.01,-0.01,0.18,1721206244332
0.68,-0.39,8.65,-0.05,-0.05,0.18,1721206244342
0.80,-0.22,13.24,-0.22,-0.02,-0.01,1721206244352
0.60,1.49,14.68,-0.01,-0.14,-0.05,1721206244362
0.82,3.99,10.85,-0.00,0.01,-0.09,1721206244372
0.43,-0.72,10.22,-0.00,-0.04,-0.03,1721206244382
-1.12,-4.30,5.72,0.02,-0.10,-0.02,1721206244392
-0.69,-0.03,13.68,-0.02,0.04,-0.04,1721206244402
0.56,4.03,16.73,0.13,-0.05,0.06,1721206244412
1.62,4.99,9.71,0.25,-0.04,0.08,1721206244422
2.21,-6.23,7.09,-0.10,-0.01,-0.13,1721206244432
-0.07,2.25,16.00,0.11,-0.03,-0.17,1721206244442
-0.02,1.81,7.38,0.15,0.03,-0.15,1721206244452
-1.28,-3.05,7.09,0.02,-0.04,-0.04,1721206244462
-0.11,0.17,12.28,0.10,0.07,0.06,1721206244472
1.94,4.66,8.27,0.25,0.01,0.03,1721206244482
2.09,0.41,7.29,0.02,0.06,-0.10,1721206244492
0.28,-3.78,11.15,-0.09,0.02,-0.18,1721206244502
-1.59,4.20,13.54,0.06,0.02,-0.21,1721206244512
-1.39,5.77,7.91,0.08,-0.03,-0.01,1721206244522
0.42,-14.60,6.25,-0.31,0.06,0.08,1721206244532
1.18,-7.47,17.08,0.03,0.19,-0.12,1721206244542
0.45,3.09,7.76,0.51,-0.15,-0.15,1721206244552
0.17,4.50,10.67,0.09,0.24,-0.35,1721206244562
-2.63,21.00,19.92,0.55,-0.22,-0.22,1721206244572
-4.09,1.37,-5.32,-0.20,-0.14,0.01,1721206244582
2.74,-17.66,19.41,-0.84,0.65,0.00,1721206244592
1.32,11.14,24.20,0.34,-0.17,0.27,1721206244602
5.96,0.54,-6.47,0.05,0.21,-0.06,1721206244612
2.01,-4.15,8.22,-0.11,0.07,-0.64,1721206244622
-1.72,-0.44,10.58,0.13,-0.02,-0.53,1721206244632
-6.49,6.51,17.53,-0.10,-0.02,-0.01,1721206244642
-2.68,6.88,12.85,0.15,-0.04,0.48,1721206244652
3.50,-2.34,3.26,-0.03,0.15,0.30,1721206244662
5.66,1.35,9.38,0.06,0.15,-0.29,1721206244672
3.90,-0.04,10.84,-0.01,0.04,-0.52,1721206244682
-2.26,2.82,13.70,0.06,-0.07,-0.37,1721206244692
-4.81,0.59,6.76,0.06,-0.05,-0.13,1721206244702
-3.74,-18.60,17.79,-0.83,0.10,0.10,1721206244712
-0.16,25.20,29.02,1.04,-0.13,0.51,1721206244722
8.15,-6.27,-30.90,0.71,-0.24,0.27,1721206244732
0.08,3.25,-12.42,-0.46,1.29,-0.87,1721206244742
4.13,-23.27,31.69,-1.07,0.09,-0.96,1721206244752
-12.97,0.78,53.60,0.34,-1.00,0.13,1721206244762
-5.17,0.44,-11.37,0.69,-0.10,0.62,1721206244772
6.65,-3.39,2.76,-1.01,0.71,0.39,1721206244782
-13.23,2.63,33.73,-0.15,-0.16,0.06,1721206244792
8.18,-1.98,-0.29,0.31,0.16,-0.50,1721206244802
-1.21,-3.35,5.77,-0.11,-0.25,-0.83,1721206244812
-8.95,0.40,9.23,-0.08,0.03,-0.56,1721206244822
-6.71,1.11,19.42,-0.29,0.21,0.33,1721206244832
-0.60,6.85,15.39,0.10,0.03,0.54,1721206244842
4.87,-3.56,-0.95,-0.04,-0.03,0.15,1721206244852
4.05,-5.58,7.71,-0.24,0.18,-0.27,1721206244862
1.25,4.97,20.03,-0.02,-0.04,-0.49,1721206244872
-3.47,4.10,11.73,0.10,-0.14,-0.38,1721206244882
-5.75,-0.32,7.25,0.02,0.01,-0.02,1721206244892
-1.11,-6.49,8.80,0.00,0.12,0.25,1721206244902
2.25,2.13,11.26,0.16,0.01,0.31,1721206244912
5.70,6.52,13.53,0.16,0.25,-0.13,1721206244922
0.86,1.06,10.17,0.17,-0.24,-0.47,1721206244932
-4.98,-0.34,9.14,0.16,0.11,-0.40,1721206244942
-3.68,-5.12,9.41,0.11,0.04,0.07,1721206244952
-0.42,1.43,13.44,0.14,0.07,0.32,1721206244962
3.21,4.12,12.20,0.22,0.03,0.06,1721206244972
2.16,3.38,8.64,0.31,-0.11,-0.25,1721206244982
-0.36,3.40,9.29,0.17,0.10,-0.43,1721206244992
-3.25,-2.30,10.39,0.10,-0.08,-0.20,1721206245002
-4.43,0.11,7.29,0.12,0.01,0.03,1721206245012
-0.43,-0.75,8.09,0.06,0.08,0.13,1721206245022
0.76,0.79,10.24,0.10,0.00,-0.00,1721206245032
1.16,1.57,6.97,0.21,0.02,-0.10,1721206245042
1.30,0.55,8.14,-0.04,0.08,-0.17,1721206245052
0.26,0.25,17.65,-0.05,0.01,-0.14,1721206245062
-0.45,-1.41,9.50,0.17,-0.11,-0.12,1721206245072
0.84,2.17,6.62,0.16,0.13,-0.12,1721206245082
2.48,1.20,5.05,-0.00,0.07,-0.12,1721206245092
0.23,1.05,9.85,-0.06,0.02,-0.28,1721206245102
-0.05,-2.14,11.94,-0.09,0.19,-0.34,1721206245112
-2.51,0.44,13.30,-0.07,0.01,-0.27,1721206245122
-3.00,3.34,13.39,0.01,0.13,-0.11,1721206245132
-1.32,-0.30,4.91,-0.10,-0.02,0.05,1721206245142
-1.03,2.06,9.03,-0.23,0.12,-0.02,1721206245152
0.84,-2.08,10.89,-0.10,0.09,-0.13,1721206245162
0.54,-1.80,8.87,-0.14,0.03,-0.15,1721206245172
0.67,-1.91,13.57,-0.20,0.18,-0.17,1721206245182
-0.15,2.76,15.78,0.09,0.01,-0.24,1721206245192
-0.01,2.21,7.06,0.09,0.13,-0.26,1721206245202
-2.04,0.12,8.78,-0.18,0.10,-0.21,1721206245212
-2.38,2.01,13.84,0.00,0.11,-0.11,1721206245222
-0.53,-1.85,9.49,-0.11,0.13,-0.04,1721206245232
-1.58,-0.40,8.78,-0.06,-0.01,-0.07,1721206245242
0.34,-1.74,7.79,-0.09,0.26,-0.13,1721206245252
0.17,0.44,11.38,0.04,0.10,-0.08,1721206245262
-0.50,2.77,6.29,0.04,0.12,-0.12,1721206245272
-0.27,1.26,10.37,-0.07,0.19,-0.16,1721206245282
-0.95,-0.64,12.38,-0.12,0.12,-0.16,1721206245292
-2.48,-3.48,10.26,-0.24,0.05,-0.11,1721206245302
-0.94,-0.45,13.83,-0.05,0.12,-0.00,1721206245312
1.78,0.18,11.14,0.02,0.17,0.05,1721206245322
0.66,4.86,9.10,0.00,0.11,-0.17,1721206245332
-0.03,2.40,12.17,-0.05,0.16,-0.25,1721206245342
-1.54,-0.85,12.37,-0.06,0.08,-0.22,1721206245352
-2.17,1.50,10.91,0.07,0.09,-0.09,1721206245362
-0.45,2.48,6.58,0.11,0.15,0.17,1721206245372
0.72,0.94,9.39,0.02,0.14,0.02,1721206245382
0.60,-0.31,10.04,0.09,0.11,-0.12,1721206245392
-0.86,-2.21,7.98,0.06,0.09,-0.18,1721206245402
-2.46,0.10,12.03,0.02,0.14,-0.14,1721206245412
-1.41,1.41,12.12,0.14,0.14,0.12,1721206245422
0.15,2.65,8.21,0.23,0.04,0.17,1721206245432
1.94,-0.50,3.73,0.10,0.18,0.09,1721206245442
1.49,-2.46,9.25,-0.09,0.15,-0.14,1721206245452
-1.05,-0.97,12.56,0.01,-0.03,-0.23,1721206245462
-2.67,-3.57,9.05,-0.03,0.06,-0.01,1721206245472
-2.01,0.56,16.54,-0.01,0.21,0.11,1721206245482
1.03,0.01,10.17,0.17,0.01,0.19,1721206245492
1.09,-0.52,6.79,-0.00,0.10,0.16,1721206245502
0.49,1.17,13.47,-0.03,0.20,-0.02,1721206245512
-0.94,1.78,13.12,0.11,0.01,-0.01,1721206245522
-0.17,-0.46,9.14,0.05,0.08,0.16,1721206245532
0.51,-1.18,10.07,-0.00,0.07,0.19,1721206245542
0.85,2.40,12.20,0.08,0.10,0.09,1721206245552
0.81,3.63,9.12,0.12,0.03,0.10,1721206245562
-0.41,-1.11,9.95,0.01,0.08,0.05,1721206245572
-0.74,0.43,13.28,0.15,0.05,0.15,1721206245582
-0.09,5.25,9.25,0.12,0.02,0.22,1721206245592
1.06,6.28,12.22,0.07,0.07,0.15,1721206245602
1.38,-5.27,8.65,-0.10,-0.02,0.01,1721206245612
-1.37,-0.31,13.21,0.01,-0.04,0.03,1721206245622
-0.55,-0.78,6.46,-0.02,0.04,0.14,1721206245637
-0.55,0.15,10.06,0.02,0.09,0.13,1721206245642
-0.15,5.34,10.38,0.22,-0.01,0.14,1721206245652
0.62,3.17,3.96,0.10,-0.00,0.21,1721206245662
1.96,-2.57,9.92,-0.12,0.11,0.13,1721206245672
3.31,-0.18,13.69,-0.06,0.04,-0.03,1721206245682
2.38,1.35,9.63,0.03,-0.00,-0.05,1721206245692
0.99,-1.53,5.91,-0.01,0.04,-0.21,1721206245702
-1.60,-0.92,8.35,0.03,0.01,-0.20,1721206245712
-1.84,3.46,12.41,0.07,0.10,-0.06,1721206245722
-0.16,3.04,10.21,-0.03,0.09,0.07,1721206245732
0.29,-3.06,11.74,-0.23,0.06,0.02,1721206245742
0.18,-1.47,10.45,-0.04,-0.02,-0.06,1721206245752
0.83,1.36,6.93,-0.00,0.10,-0.09,1721206245762
0.68,-0.58,9.79,-0.18,0.16,-0.21,1721206245772
-1.80,-3.67,16.16,-0.15,-0.02,-0.17,1721206245782
-2.85,1.23,18.11,-0.04,0.05,-0.01,1721206245792
-0.21,3.59,11.21,0.07,0.06,0.16,1721206245802
2.57,2.36,6.08,0.06,0.13,0.05,1721206245812
2.59,0.94,8.77,0.00,0.10,-0.24,1721206245822
-0.60,0.94,7.27,0.15,-0.04,-0.39,1721206245832
-3.67,-0.00,6.50,0.01,0.11,-0.25,1721206245842
-3.15,-1.80,12.18,-0.02,0.17,0.01,1721206245852
-1.11,1.42,10.38,0.14,0.03,0.18,1721206245862
1.21,2.00,2.93,0.06,0.08,0.05,1721206245872
2.27,-1.53,10.57,-0.11,0.24,-0.16,1721206245882
1.28,-0.16,15.46,0.01,0.10,-0.27,1721206245892
-2.35,-0.21,8.56,0.04,-0.07,-0.22,1721206245902
-2.23,-3.80,8.70,-0.18,0.16,-0.10,1721206245912
-0.53,-1.52,18.04,-0.01,0.21,0.01,1721206245922
-0.27,1.53,12.23,0.14,0.02,0.01,1721206245932
-0.06,1.55,7.75,0.05,0.14,-0.12,1721206245942
-0.16,0.00,9.92,-0.10,0.07,-0.14,1721206245952
-0.22,0.93,14.06,0.00,0.14,-0.10,1721206245962
0.50,1.49,9.95,0.10,0.17,-0.06,1721206245972
-0.61,-4.12,5.00,-0.14,-0.01,-0.08,1721206245982
-0.23,-3.29,12.57,-0.10,0.25,0.05,1721206245992
0.60,6.58,14.06,0.15,0.24,-0.12,1721206246002
0.67,4.55,9.05,0.08,0.03,-0.31,1721206246012
-2.65,-1.34,8.20,0.04,0.03,-0.20,1721206246022
-3.14,-0.83,9.31,0.02,0.18,-0.04,1721206246032
-2.08,4.57,12.56,0.09,0.12,0.06,1721206246042
-0.89,0.24,5.94,0.04,0.01,0.08,1721206246052
-1.41,-2.55,9.24,-0.06,0.13,-0.01,1721206246062
-0.13,-1.00,12.72,0.06,0.16,0.05,1721206246072
0.68,0.07,12.33,-0.05,0.08,0.11,1721206246082
0.37,4.28,11.08,0.20,0.02,0.07,1721206246092
3.41,0.57,5.71,0.16,0.24,0.02,1721206246102
1.42,-0.98,8.26,-0.03,-0.01,-0.05,1721206246112
-0.96,1.80,11.21,0.06,0.11,-0.09,1721206246122
-1.62,0.89,6.63,0.03,0.07,-0.04,1721206246132
-1.41,-1.34,14.47,-0.17,0.29,0.08,1721206246142
0.51,2.04,17.06,0.05,0.10,0.10,1721206246152
-1.13,3.04,6.52,0.03,-0.10,0.07,1721206246162
-0.81,-0.85,10.13,-0.23,0.25,0.03,1721206246172
-0.76,0.44,11.23,0.01,-0.03,0.14,1721206246182
-0.89,-0.10,2.45,-0.02,-0.02,0.23,1721206246192
2.27,-3.71,9.78,-0.10,0.26,0.22,1721206246202
2.01,5.15,13.21,0.20,-0.02,0.11,1721206246212
0.25,3.78,7.05,0.02,0.07,-0.15,1721206246222
-3.17,-1.84,12.79,-0.21,0.02,-0.23,1721206246232
-3.80,-0.04,15.54,-0.06,0.06,-0.03,1721206246242
-2.92,-2.27,8.64,-0.03,0.04,0.26,1721206246252
-2.04,2.41,10.91,-0.05,0.11,0.30,1721206246262
1.52,0.65,4.92,0.09,-0.00,0.28,1721206246272
1.83,-0.98,5.82,-0.12,0.05,0.09,1721206246282
0.50,0.16,13.25,-0.15,0.09,-0.00,1721206246292
-1.14,2.01,11.47,0.00,-0.04,0.01,1721206246302
-2.52,0.79,7.08,-0.19,-0.01,0.05,1721206246312
-2.15,-3.57,14.41,-0.29,-0.03,0.14,1721206246322
-1.16,1.58,12.80,-0.06,-0.02,0.22,1721206246332
-0.51,-3.33,7.90,-0.29,-0.07,0.24,1721206246342
-2.19,-0.63,16.51,-0.22,-0.09,0.30,1721206246352
0.85,5.20,10.20,0.11,-0.03,0.30,1721206246362
1.97,5.25,8.03,-0.18,-0.05,0.28,1721206246372
0.28,3.31,11.42,-0.11,-0.18,0.15,1721206246382
1.33,-8.35,4.08,-0.25,-0.11,0.01,1721206246392
-0.65,0.42,12.22,-0.10,-0.02,0.12,1721206246402
0.16,-1.14,7.69,-0.04,-0.09,0.21,1721206246412
-0.83,-1.25,9.35,-0.08,-0.18,0.20,1721206246422
2.16,-0.15,11.63,0.07,0.05,0.18,1721206246432
3.20,2.25,10.43,-0.05,-0.05,0.09,1721206246442
0.78,-0.92,11.62,-0.08,-0.15,0.02,1721206246452
-0.55,-2.82,10.33,-0.08,-0.07,-0.00,1721206246462
0.10,0.73,10.82,0.05,-0.01,0.11,1721206246472
2.39,-1.61,8.07,-0.04,0.02,0.21,1721206246482
1.63,-1.49,13.61,-0.12,0.01,0.00,1721206246492
0.05,2.17,13.82,0.07,-0.13,-0.07,1721206246502
0.25,-5.23,7.97,-0.20,-0.01,-0.02,1721206246512
-1.05,1.86,18.13,0.08,-0.01,0.05,1721206246522
1.52,2.28,9.03,0.29,0.03,0.12,1721206246532
0.75,-0.30,5.89,0.10,-0.00,0.05,1721206246542
-1.15,-3.77,16.18,-0.12,0.03,-0.07,1721206246552
-2.20,11.25,26.01,0.42,-0.13,0.06,1721206246562
0.57,1.64,4.62,0.46,-0.11,0.20,1721206246572
0.46,-0.50,3.33,0.15,0.04,0.15,1721206246582
1.25,-0.71,13.85,0.27,0.15,0.05,1721206246592
-1.38,8.04,13.80,0.68,-0.17,-0.09,1721206246602
-2.63,1.21,-0.25,0.53,-0.21,0.14,1721206246612
-1.71,-0.47,9.28,0.28,0.17,0.34,1721206246622
1.66,-0.37,11.92,0.36,-0.08,0.36,1721206246632
1.64,6.14,14.49,0.35,-0.11,0.18,1721206246642
1.25,5.44,5.20,0.44,-0.19,0.19,1721206246652
2.35,-6.67,4.72,-0.07,0.05,0.11,1721206246662
-1.21,-2.99,21.83,0.04,-0.13,-0.02,1721206246672
-2.35,5.27,8.39,0.37,-0.18,0.10,1721206246682
-1.21,8.02,0.14,0.27,-0.05,0.29,1721206246692
1.33,-2.55,-7.37,-0.07,-0.19,0.33,1721206246702
1.87,-7.37,10.97,-0.55,0.13,0.18,1721206246712
3.76,-0.60,24.36,-0.08,-0.11,0.08,1721206246722
2.94,0.39,6.57,0.01,-0.23,-0.14,1721206246732
-0.80,2.63,1.74,-0.21,-0.17,-0.24,1721206246742
-1.29,-0.82,3.54,-0.37,0.03,-0.04,1721206246752
1.10,-4.91,14.60,-0.40,0.09,-0.01,1721206246762
1.81,-8.52,11.30,-0.27,-0.16,-0.16,1721206246772
-0.86,3.74,8.32,0.07,-0.08,-0.33,1721206246782
0.00,0.34,1.99,-0.28,-0.01,-0.33,1721206246792
-2.34,-3.77,16.94,-0.41,-0.24,-0.09,1721206246802
-3.67,-5.64,8.70,-0.04,-0.19,0.18,1721206246812
1.17,3.63,5.76,-0.15,0.15,0.06,1721206246822
5.15,0.75,13.64,-0.54,-0.01,-0.19,1721206246832
1.09,-1.12,22.25,-0.55,-0.33,-0.39,1721206246842
-2.20,8.46,11.16,0.01,-0.11,-0.45,1721206246852
-0.74,-3.35,4.47,-0.49,0.04,-0.26,1721206246862
-3.55,0.60,17.02,-0.37,-0.27,0.07,1721206246872
1.30,3.51,14.56,0.00,0.17,0.02,1721206246882
1.45,1.01,7.46,0.04,-0.24,-0.14,1721206246892
-0.31,-0.77,10.89,-0.00,0.12,-0.35,1721206246902
-0.08,1.72,19.13,0.17,-0.08,-0.24,1721206246912
-1.49,14.11,15.69,0.51,-0.05,-0.27,1721206246922
-2.02,-6.21,2.57,0.49,-0.29,-0.19,1721206246932
-2.28,1.82,9.71,0.36,0.34,-0.08,1721206246942
1.83,9.26,21.01,0.74,0.06,-0.03,1721206246952
-3.07,-0.05,2.60,0.58,-0.42,-0.13,1721206246962
-3.39,0.87,1.46,0.39,0.21,-0.19,1721206246972
-1.15,-1.67,10.54,0.39,-0.07,0.02,1721206246982
-2.23,4.16,9.34,0.47,-0.32,0.19,1721206246992
0.03,1.30,0.87,0.37,0.00,0.18,1721206247002
2.65,-9.05,6.66,-0.14,0.00,0.11,1721206247012
1.60,0.25,18.44,0.04,-0.12,-0.04,1721206247022
3.11,1.37,10.41,0.14,-0.10,-0.36,1721206247032
-1.60,-3.13,5.17,-0.13,-0.25,-0.41,1721206247042
-2.74,-6.73,16.41,-0.13,0.24,-0.22,1721206247052
-2.17,-1.62,14.95,0.08,-0.23,-0.04,1721206247062
-0.48,1.97,9.42,0.07,-0.04,-0.13,1721206247072
0.65,-0.04,3.08,0.06,-0.15,-0.14,1721206247082
-0.98,3.95,7.98,-0.02,0.05,-0.24,1721206247092
-1.26,0.86,3.07,0.02,-0.25,-0.07,1721206247102
0.41,-2.07,7.50,-0.28,0.14,0.00,1721206247112
3.50,3.19,13.58,0.00,-0.07,-0.04,1721206247122
4.31,-1.95,-0.27,-0.24,-0.17,-0.15,1721206247132
2.56,-3.00,14.14,-0.47,0.29,-0.55,1721206247142
0.72,2.66,24.31,0.01,-0.02,-0.61,1721206247152
-4.12,4.44,6.92,0.01,-0.17,-0.37,1721206247162
-3.02,-1.19,10.53,-0.44,0.20,-0.06,1721206247172
-1.05,2.95,19.19,-0.16,0.05,-0.03,1721206247182
1.30,1.15,9.20,-0.13,0.01,-0.15,1721206247192
-0.16,2.43,6.70,-0.13,-0.03,-0.25,1721206247202
0.16,-0.52,13.08,-0.27,0.20,-0.27,1721206247212
-0.80,4.38,17.69,-0.06,-0.07,-0.17,1721206247222
-0.83,2.99,9.22,-0.03,-0.03,-0.16,1721206247232
0.16,2.00,11.21,-0.03,0.12,-0.23,1721206247242
-1.35,3.15,10.65,0.11,0.02,-0.30,1721206247252
-2.56,0.61,5.86,0.12,-0.02,-0.25,1721206247262
-2.41,-1.81,7.08,0.09,0.07,-0.05,1721206247272
-1.78,0.70,10.10,0.05,0.10,-0.01,1721206247282
0.18,-0.25,12.15,0.02,-0.03,-0.05,1721206247292
1.01,-1.32,11.18,-0.03,0.02,-0.10,1721206247302
0.06,-0.72,11.77,-0.09,0.03,-0.20,1721206247312
-2.21,4.12,12.17,-0.02,0.00,-0.16,1721206247322
-0.97,-7.44,4.24,-0.29,-0.02,-0.08,1721206247332
-2.20,-4.95,16.06,-0.33,0.09,-0.04,1721206247342
0.30,1.94,11.71,0.11,-0.07,0.04,1721206247352
1.33,-7.02,0.15,-0.13,-0.08,0.08,1721206247362
-0.25,-1.47,13.04,-0.08,0.20,-0.09,1721206247372
1.11,9.53,15.62,0.23,-0.01,-0.09,1721206247382
-0.87,3.66,7.40,-0.08,-0.15,-0.14,1721206247392
-2.38,-3.78,12.70,-0.40,0.04,-0.15,1721206247402
-1.24,-3.49,11.55,-0.19,-0.04,-0.06,1721206247412
0.00,1.70,5.90,0.04,0.00,0.06,1721206247422
2.53,-0.76,6.93,-0.12,0.15,0.06,1721206247432
0.26,-1.68,14.91,-0.06,-0.02,-0.16,1721206247442
0.03,-0.18,10.22,0.18,-0.05,-0.28,1721206247452
-1.58,3.33,11.56,-0.02,-0.04,-0.14,1721206247462
-1.28,12.32,15.87,0.17,0.01,0.08,1721206247472
1.63,-2.89,5.45,0.09,-0.03,0.15,1721206247482
1.81,-6.43,11.04,-0.22,0.12,-0.18,1721206247492
0.15,1.56,17.51,0.02,-0.09,-0.26,1721206247502
-0.41,4.63,12.60,0.17,-0.03,-0.14,1721206247512
0.36,0.74,8.98,0.24,0.02,-0.03,1721206247522
1.01,-2.44,5.82,0.30,0.06,0.04,1721206247532
0.15,7.26,15.24,0.24,0.16,-0.20,1721206247542
-0.69,15.27,3.95,0.59,-0.15,-0.07,1721206247552
1.49,-4.20,-0.01,-0.23,0.28,-0.11,1721206247562
-0.38,-14.73,19.14,-0.41,-0.11,-0.13,1721206247572
-0.54,-7.91,6.19,0.31,-0.04,0.02,1721206247582
2.14,-1.33,11.54,-0.04,0.28,-0.06,1721206247592
1.20,8.60,22.81,0.43,-0.07,-0.06,1721206247602
-0.13,12.23,-0.14,0.69,-0.03,-0.04,1721206247612
1.42,-9.83,-0.73,-0.32,0.26,-0.17,1721206247622
-3.79,-0.40,25.79,0.20,-0.08,-0.34,1721206247632
1.56,-5.10,-5.26,-0.29,0.32,-0.05,1721206247647
-0.37,-5.62,12.89,-0.53,0.56,-0.11,1721206247652
-2.48,-7.91,20.65,0.40,-0.13,-0.24,1721206247662
-2.29,1.46,5.23,0.27,-0.03,-0.03,1721206247672
-0.36,14.82,13.28,0.02,0.10,0.13,1721206247682
2.33,3.21,10.00,-0.20,0.04,0.03,1721206247692
2.23,-6.66,12.95,-0.27,0.08,-0.24,1721206247702
1.24,-2.14,9.88,-0.11,-0.00,-0.17,1721206247712
0.92,-1.91,12.85,-0.33,0.18,-0.17,1721206247722
-1.58,3.08,11.97,0.01,-0.12,-0.34,1721206247732
-3.39,4.19,3.85,-0.03,-0.06,-0.15,1721206247742
-1.46,-8.81,21.32,-0.46,0.23,-0.02,1721206247752
-0.59,7.35,13.12,0.18,-0.28,0.32,1721206247762
8.26,14.38,2.59,0.13,0.52,0.37,1721206247772
3.69,-8.29,1.90,-0.30,-0.43,-0.32,1721206247782
-0.97,-7.85,17.11,-0.07,0.30,-0.76,1721206247792
-1.36,9.53,14.83,0.59,0.21,-0.45,1721206247802
-5.44,-3.46,0.68,-0.28,-0.17,-0.02,1721206247812
-4.35,4.53,18.67,-0.01,0.03,0.25,1721206247822
5.50,-6.97,4.86,0.22,0.15,0.22,1721206247832
4.10,2.60,6.73,0.18,0.15,-0.19,1721206247842
1.80,11.32,-6.04,0.71,-0.09,-0.35,1721206247852
1.86,-10.96,1.58,-0.60,0.40,-0.46,1721206247862
0.23,-0.06,42.72,-0.18,-0.49,-0.12,1721206247872
-3.30,6.09,9.84,0.64,0.05,0.04,1721206247882
2.40,-8.45,-6.90,-0.54,0.42,0.10,1721206247892
-0.74,4.24,7.81,-0.20,-0.04,-0.04,1721206247902
6.72,6.19,3.81,0.54,0.39,-0.41,1721206247912
1.08,0.09,11.77,-0.03,0.13,-0.61,1721206247922
-6.06,6.64,15.16,0.20,-0.28,-0.34,1721206247932
-6.82,1.99,2.08,0.12,0.17,0.12,1721206247942
-0.22,-0.68,10.85,-0.16,0.31,0.42,1721206247952
4.30,2.10,11.00,0.06,0.04,0.14,1721206247962
5.05,-5.81,7.98,-0.09,-0.01,-0.21,1721206247972
-0.78,-1.34,8.97,0.01,-0.12,-0.42,1721206247982
-2.25,2.06,11.15,-0.06,0.22,-0.37,1721206247992
-4.49,-0.74,13.13,0.02,-0.03,-0.16,1721206248002
-2.67,-0.63,5.65,0.12,0.10,0.05,1721206248012
0.66,-1.98,0.16,0.12,0.03,0.18,1721206248022
4.19,-1.97,11.53,-0.10,0.42,0.01,1721206248032
3.45,-0.46,20.18,-0.07,0.00,-0.29,1721206248042
-2.32,4.96,10.49,0.14,-0.19,-0.45,1721206248052
-3.57,-0.29,6.33,-0.15,0.20,-0.35,1721206248062
-3.53,-3.90,11.54,-0.19,-0.08,0.10,1721206248072
-0.76,5.89,10.67,0.01,0.15,0.20,1721206248082
2.28,-0.11,7.53,-0.17,0.00,-0.07,1721206248092
-1.51,-2.01,9.24,-0.13,0.01,-0.32,1721206248102
-0.90,-3.65,13.89,-0.30,0.20,-0.19,1721206248112
-1.01,-0.61,21.48,-0.18,-0.14,0.11,1721206248122
-0.43,1.43,9.03,0.01,-0.04,0.17,1721206248132
3.57,-0.23,19.40,-0.16,0.25,-0.02,1721206248142
0.17,8.90,13.37,0.21,-0.37,-0.10,1721206248152
-1.40,4.08,0.43,0.10,0.05,-0.31,1721206248162
-1.90,-3.73,12.29,-0.14,0.14,-0.19,1721206248172
-3.26,4.40,14.73,0.22,-0.08,0.14,1721206248182
-1.59,5.27,0.96,0.21,0.00,0.21,1721206248192
0.97,4.11,8.99,0.02,0.15,0.11,1721206248202
0.68,-0.86,9.62,-0.07,-0.16,0.04,1721206248212
-0.60,-0.40,13.29,-0.14,0.04,-0.01,1721206248222
-0.14,-0.66,6.96,-0.09,-0.23,0.13,1721206248232
-1.23,0.14,7.53,-0.20,0.04,0.08,1721206248242
2.72,-0.96,19.43,-0.02,0.29,-0.07,1721206248252
0.46,-4.93,7.31,0.04,-0.31,0.03,1721206248262
-2.06,3.43,16.35,-0.04,0.14,-0.11,1721206248272
0.42,-0.47,8.53,0.13,-0.27,0.05,1721206248282
-0.10,-1.37,9.23,-0.11,0.20,0.05,1721206248292
1.33,-1.10,11.64,0.10,-0.05,-0.05,1721206248302
-1.86,7.34,5.60,0.20,-0.27,-0.11,1721206248312
-0.86,1.87,0.29,-0.06,0.07,-0.02,1721206248322
0.52,-8.37,11.41,-0.32,0.11,0.08,1721206248332
-0.17,-2.21,16.20,-0.00,-0.09,0.00,1721206248342
0.99,2.44,9.74,0.12,-0.13,-0.06,1721206248352
1.32,1.71,7.30,-0.06,-0.02,-0.01,1721206248362
-0.55,0.33,10.90,-0.15,-0.03,-0.16,1721206248372
-0.13,-2.98,12.76,-0.16,-0.06,-0.17,1721206248382
-1.00,-4.30,19.37,-0.39,0.03,-0.14,1721206248392
-1.87,4.87,19.69,-0.16,-0.11,0.08,1721206248402
0.48,8.11,3.22,0.20,0.02,-0.01,1721206248412
1.65,-8.76,2.92,-0.21,-0.02,-0.14,1721206248422
0.33,2.11,19.85,0.08,0.09,-0.16,1721206248432
0.98,7.06,8.28,0.54,-0.08,-0.09,1721206248442
1.73,1.30,2.51,0.10,0.11,-0.16,1721206248452
-0.80,2.06,15.36,0.25,-0.01,-0.15,1721206248462
-0.41,1.07,9.64,0.35,-0.07,-0.14,1721206248472
-1.04,2.38,-0.92,0.33,-0.02,-0.12,1721206248482
1.76,-4.16,3.96,0.02,0.29,-0.15,1721206248492
-2.33,-4.51,24.71,0.00,0.05,-0.14,1721206248502
-1.21,4.99,12.22,0.42,-0.05,0.00,1721206248512
1.30,1.44,0.73,0.04,0.15,-0.13,1721206248522
2.75,-0.51,12.26,-0.04,0.13,-0.18,1721206248532
0.85,-6.04,12.37,-0.06,0.07,-0.34,1721206248542
-2.40,-0.67,12.67,0.13,-0.02,-0.29,1721206248552
-0.11,-0.65,6.12,-0.00,0.18,-0.04,1721206248562
0.30,3.05,14.58,-0.06,0.19,-0.13,1721206248572
0.69,0.84,15.22,0.00,0.10,-0.34,1721206248582
-0.54,-4.59,8.39,0.02,-0.01,-0.21,1721206248592
-1.95,0.30,9.71,0.08,0.25,-0.18,1721206248602
-0.05,3.20,2.98,0.07,0.15,-0.11,1721206248612
-0.82,1.27,12.12,-0.14,0.09,-0.21,1721206248622
-1.59,-1.17,12.09,0.13,0.03,-0.13,1721206248632
0.04,-1.52,5.74,-0.05,0.23,0.06,1721206248642
0.93,4.49,15.64,-0.14,0.24,0.00,1721206248652
2.02,0.23,14.85,0.03,0.07,-0.20,1721206248662
0.85,-0.41,8.12,0.07,0.10,-0.15,1721206248672
0.37,3.55,10.18,0.03,0.22,-0.23,1721206248682
-0.61,6.42,11.38,0.17,0.09,-0.23,1721206248692
-1.62,0.91,9.22,-0.03,0.16,-0.25,1721206248702
-2.90,-1.39,10.78,-0.01,0.08,-0.10,1721206248712
-1.00,0.21,10.67,0.07,0.23,0.05,1721206248722
1.68,2.77,7.75,0.12,0.14,0.05,1721206248732
1.69,3.79,11.99,0.01,0.17,-0.20,1721206248742
-0.39,3.78,13.10,0.16,0.05,-0.26,1721206248752
-1.60,-2.36,7.02,0.05,0.05,-0.08,1721206248762
-0.57,-1.51,13.84,0.00,0.33,-0.00,1721206248772
1.60,1.19,7.44,0.21,0.03,-0.07,1721206248782
0.17,2.56,7.05,0.06,0.14,-0.22,1721206248792
-0.22,-3.21,9.33,0.12,0.16,-0.26,1721206248802
-1.24,1.34,11.56,0.20,0.16,-0.13,1721206248812
-0.84,-1.14,5.29,-0.02,0.10,-0.03,1721206248822
-0.63,-3.76,10.74,-0.06,0.14,-0.04,1721206248832
1.52,-3.70,13.39,0.17,0.23,-0.03,1721206248842
2.49,2.17,9.68,0.21,0.18,-0.08,1721206248852
0.07,7.00,0.78,0.12,-0.05,-0.09,1721206248862
0.74,-3.43,8.68,-0.47,0.51,-0.30,1721206248872
-0.42,-6.53,25.09,-0.07,0.10,-0.09,1721206248882
0.59,-3.57,10.89,0.21,0.10,0.15,1721206248892
4.05,9.58,11.82,0.15,0.54,-0.13,1721206248902
2.40,7.12,5.75,-0.06,-0.05,-0.41,1721206248912
-6.47,-6.45,7.69,-0.45,0.00,-0.60,1721206248922
-7.07,-5.95,20.96,-0.03,0.20,-0.09,1721206248932
-2.21,0.87,12.09,0.14,0.22,0.38,1721206248942
0.94,7.04,4.74,0.11,0.11,0.21,1721206248952
2.40,-1.92,3.06,-0.21,0.14,-0.31,1721206248962
-2.75,-10.65,18.96,-0.31,0.05,-0.51,1721206248972
-6.27,-2.86,-2.89,0.38,-0.35,0.14,1721206248982
1.16,4.03,13.72,-0.16,1.06,0.18,1721206248992
-3.20,4.53,5.79,0.11,-0.67,0.25,1721206249002
2.13,-5.67,4.80,-0.14,0.62,0.03,1721206249012
4.61,0.10,15.34,0.24,-0.03,0.02,1721206249022
1.71,-7.48,-0.82,-0.20,-0.04,-0.07,1721206249032
-1.59,-0.80,23.38,-0.08,0.32,-0.20,1721206249042
0.44,6.70,18.15,0.54,0.10,-0.22,1721206249052
-0.07,8.13,-1.12,0.04,0.11,-0.21,1721206249062
-4.31,0.45,6.41,-0.40,-0.03,-0.09,1721206249072
-4.83,-3.38,21.01,-0.39,0.23,-0.05,1721206249082
-1.86,7.94,20.38,0.20,0.10,0.05,1721206249092
-1.46,1.19,0.39,-0.02,-0.14,-0.03,1721206249102
-4.16,1.30,11.29,-0.21,0.15,-0.06,1721206249112
-2.09,13.67,21.05,0.14,0.13,0.16,1721206249122
-0.83,11.40,8.39,0.10,-0.11,0.21,1721206249132
-0.70,-2.61,4.58,0.07,-0.07,0.18,1721206249142
-0.30,-5.11,4.22,0.16,-0.05,0.25,1721206249152
0.01,5.68,5.68,0.25,-0.03,0.24,1721206249162
1.24,0.16,3.28,0.14,-0.08,0.31,1721206249172
-0.11,-7.07,6.08,0.14,-0.09,0.36,1721206249182
1.52,1.91,7.41,0.66,0.02,0.63,1721206249192
7.16,2.99,1.38,0.18,0.24,0.58,1721206249202
8.06,2.73,21.57,-0.21,0.18,0.20,1721206249212
4.53,3.18,15.95,0.25,-0.20,-0.18,1721206249222
0.99,-0.51,4.93,-0.21,0.09,-0.50,1721206249232
-5.86,-6.71,16.75,-0.55,-0.17,-0.45,1721206249242
-9.80,-4.53,17.65,-0.23,-0.07,-0.27,1721206249252
-10.21,1.04,7.80,0.04,-0.09,-0.01,1721206249262
-8.15,-3.28,4.74,-0.38,-0.14,0.37,1721206249272
-4.67,-2.27,20.73,-0.39,-0.00,0.66,1721206249282
1.31,0.12,14.91,-0.13,-0.24,0.67,1721206249292
4.88,0.47,9.95,-0.36,-0.11,0.52,1721206249302
5.73,2.17,20.94,-0.34,-0.03,0.28,1721206249312
3.74,2.87,9.99,0.02,-0.40,0.31,1721206249322
6.73,10.90,2.14,0.12,0.21,0.05,1721206249332
5.97,-0.88,11.28,-0.05,-0.27,-0.22,1721206249342
-0.64,9.43,13.98,0.54,-0.50,-0.18,1721206249352
1.02,2.16,-12.00,0.70,-0.27,-0.15,1721206249362
0.33,1.62,-4.51,-0.08,0.22,-0.23,1721206249372
-0.72,3.30,14.83,-0.15,-0.34,0.11,1721206249382
-1.05,-6.56,0.74,0.14,-0.42,0.29,1721206249392
-2.54,-7.04,7.25,-0.22,0.13,0.37,1721206249402
2.05,-2.83,24.20,-0.17,-0.03,0.42,1721206249412
3.25,-1.15,15.68,0.16,-0.39,0.34,1721206249422
3.96,-0.75,3.86,0.07,-0.17,0.01,1721206249432
2.97,-1.50,12.63,-0.19,-0.11,-0.18,1721206249442
-1.37,6.02,15.93,0.10,-0.32,-0.10,1721206249452
-0.40,-0.09,4.05,0.01,-0.17,-0.10,1721206249462
-0.61,-6.78,10.56,-0.24,-0.20,-0.13,1721206249472
0.07,2.93,13.30,0.23,-0.18,-0.04,1721206249482
0.91,6.78,7.29,0.15,0.04,-0.27,1721206249492
-2.80,-1.35,6.02,0.05,-0.41,-0.23,1721206249502
-4.10,-4.61,12.72,-0.09,-0.01,-0.04,1721206249512
-1.02,-0.81,17.20,0.15,-0.10,0.17,1721206249522
2.64,1.50,9.45,0.15,-0.19,0.31,1721206249532
5.30,4.69,11.11,0.11,0.05,-0.01,1721206249542
5.58,2.06,10.17,0.10,-0.10,-0.40,1721206249552
1.32,1.15,13.69,0.07,-0.11,-0.58,1721206249562
-0.98,2.10,10.89,0.27,-0.11,-0.39,1721206249572
-0.03,2.48,8.25,0.12,0.11,-0.22,1721206249582
-0.05,8.10,13.69,0.22,0.00,-0.38,1721206249592
-0.85,0.79,4.50,0.18,-0.12,-0.45,1721206249602
-2.33,-2.65,2.04,0.02,0.17,-0.44,1721206249612
-3.75,-0.45,9.82,-0.02,0.07,-0.51,1721206249622
-4.46,1.13,11.23,0.14,-0.09,-0.30,1721206249632
-1.70,3.69,9.76,0.15,0.14,-0.07,1721206249642
0.89,2.00,10.94,-0.11,0.07,-0.07,1721206249657
1.18,1.22,11.28,-0.13,-0.05,-0.12,1721206249662
2.63,-4.40,9.78,-0.16,0.05,-0.20,1721206249672
2.75,-3.23,12.69,-0.04,0.10,-0.35,1721206249682
2.27,6.89,4.31,0.38,0.05,-0.43,1721206249692
1.23,4.01,-1.73,-0.27,0.19,-0.65,1721206249702
-12.43,-2.38,27.94,-0.43,0.17,-0.76,1721206249712
-7.72,-6.84,19.64,0.17,-0.24,-0.22,1721206249722
-1.18,-2.98,4.71,-0.05,0.31,0.24,1721206249732
4.17,5.63,10.61,-0.02,0.14,0.06,1721206249742
4.28,9.80,9.05,0.01,-0.03,-0.50,1721206249752
-1.24,-0.91,8.25,-0.22,-0.02,-0.88,1721206249762
-6.71,-13.30,17.01,-0.45,0.10,-0.52,1721206249772
-5.88,-3.94,21.79,0.17,0.04,0.25,1721206249782
2.68,5.97,-0.78,0.33,0.18,0.41,1721206249792
5.70,8.25,3.27,-0.02,0.24,-0.24,1721206249802
-0.68,6.10,15.71,0.06,-0.17,-0.67,1721206249812
-4.22,-1.74,8.33,-0.02,0.06,-0.42,1721206249822
-4.15,-4.45,13.19,-0.21,0.16,0.02,1721206249832
2.32,1.16,13.80,0.20,0.19,0.14,1721206249842
6.18,1.85,4.85,0.15,0.11,-0.15,1721206249852
1.69,2.79,7.96,-0.00,0.07,-0.78,1721206249862
-5.25,-1.09,9.50,-0.03,0.08,-0.78,1721206249872
-8.83,-5.07,11.69,-0.16,0.10,-0.24,1721206249882
-5.25,-0.99,14.21,0.14,0.18,0.42,1721206249892
3.51,2.24,6.43,0.20,0.26,0.46,1721206249902
7.31,2.41,5.73,-0.01,0.11,-0.06,1721206249912
6.90,-0.21,10.90,-0.10,0.21,-0.59,1721206249922
-0.75,-1.65,14.12,-0.11,-0.00,-0.75,1721206249932
-7.76,0.66,20.45,0.13,0.24,-0.50,1721206249942
-4.65,-2.35,1.11,0.25,-0.03,0.05,1721206249952
-2.88,-1.89,1.41,-0.13,0.32,0.24,1721206249962
4.26,1.54,15.93,-0.09,0.47,-0.07,1721206249972
1.57,2.46,7.07,0.12,-0.22,-0.30,1721206249982
-2.79,-6.64,6.37,-0.37,0.28,-0.47,1721206249992
-3.34,-5.15,24.16,-0.11,0.10,-0.05,1721206250002
0.16,-2.23,9.78,0.17,0.06,0.24,1721206250012
5.15,1.13,16.49,-0.20,0.54,-0.06,1721206250022
1.09,4.80,12.08,0.17,-0.28,-0.43,1721206250032
-3.43,0.68,0.56,-0.08,0.21,-0.58,1721206250042
-4.89,-4.09,13.31,-0.19,0.24,-0.27,1721206250052
-4.55,4.04,10.84,0.18,0.08,0.18,1721206250062
0.63,4.53,5.88,-0.02,0.34,0.16,1721206250072
1.74,0.47,15.30,-0.09,0.06,-0.07,1721206250082
-0.51,2.97,11.56,0.16,-0.00,-0.18,1721206250092
-1.25,2.18,9.05,-0.09,0.16,-0.21,1721206250102
-3.63,3.52,16.52,0.03,-0.09,-0.06,1721206250112
-3.34,1.28,4.57,0.19,-0.01,0.13,1721206250122
-0.45,0.26,9.05,-0.01,0.23,0.14,1721206250132
0.06,4.13,10.73,0.19,-0.06,0.16,1721206250142
0.55,1.85,8.12,-0.03,0.15,0.03,1721206250152
-1.14,2.06,11.86,0.05,-0.10,0.09,1721206250162
-0.86,1.94,7.80,0.06,0.04,0.24,1721206250172
0.38,1.97,9.29,-0.03,0.02,0.24,1721206250182
1.95,3.45,9.11,0.02,0.03,0.10,1721206250192
2.42,-0.64,6.14,-0.10,0.01,-0.02,1721206250202
0.35,-5.80,10.45,-0.17,0.02,-0.07,1721206250212
-0.22,-1.94,13.66,0.08,0.07,0.04,1721206250222
0.38,5.13,9.72,0.21,0.04,0.07,1721206250232
0.28,3.77,5.20,-0.11,-0.00,0.05,1721206250242
-2.15,0.80,11.99,-0.19,0.01,-0.07,1721206250252
-1.31,-4.16,11.75,-0.23,0.07,-0.08,1721206250262
-1.47,-4.70,15.54,-0.15,-0.06,0.14,1721206250272
-1.25,-0.09,11.12,-0.07,0.05,0.10,1721206250282
-0.63,2.21,9.86,-0.02,0.04,-0.14,1721206250292
-1.11,-2.91,7.67,-0.16,-0.09,-0.07,1721206250302
-1.76,-2.74,9.93,-0.07,-0.00,0.22,1721206250312
0.05,2.28,11.19,-0.02,0.14,0.16,1721206250322
2.52,-0.36,12.50,-0.10,-0.02,0.03,1721206250332
1.46,3.53,11.13,0.02,-0.08,-0.00,1721206250342
2.28,-0.73,12.79,-0.21,0.18,-0.11,1721206250352
-0.69,-2.93,14.07,-0.11,-0.18,-0.06,1721206250362
-1.85,2.25,9.24,0.03,0.12,-0.05,1721206250372
0.19,0.74,9.60,0.06,0.05,0.05,1721206250382
0.32,1.66,6.92,0.16,-0.02,0.14,1721206250392
2.26,-1.23,4.34,0.05,0.18,0.01,1721206250402
0.76,-2.12,11.94,0.00,-0.04,-0.09,1721206250412
-0.12,-0.90,15.65,0.12,0.07,-0.13,1721206250422
-0.62,2.38,11.27,0.17,0.08,-0.08,1721206250432
-2.07,1.70,9.65,0.07,0.00,-0.02,1721206250442
0.45,-0.56,12.73,-0.03,0.17,-0.03,1721206250452
-0.31,1.02,9.83,0.13,-0.02,-0.01,1721206250462
0.43,-2.53,6.15,0.00,0.14,0.00,1721206250472
1.01,-1.00,9.97,0.03,0.04,-0.11,1721206250482
-0.03,4.56,4.13,0.23,-0.12,-0.02,1721206250492
-0.19,-1.18,7.92,-0.13,0.28,-0.19,1721206250502
-2.30,-4.91,18.20,-0.11,-0.05,-0.05,1721206250512
-2.05,3.32,15.73,0.11,0.01,0.20,1721206250522
0.52,1.46,6.30,0.07,0.10,0.21,1721206250532
-0.99,2.93,6.22,0.09,0.00,0.01,1721206250542
1.49,-1.78,11.45,-0.11,0.13,0.12,1721206250552
1.38,4.50,10.42,0.24,-0.19,0.13,1721206250562
2.92,-0.19,2.91,-0.05,0.15,0.01,1721206250572
0.44,-0.86,14.30,-0.15,-0.01,-0.19,1721206250582
-1.07,-0.40,11.41,0.08,-0.05,-0.04,1721206250592
-1.78,4.52,12.06,0.06,0.13,0.08,1721206250602
-0.72,2.10,7.43,0.06,-0.07,0.10,1721206250612
-0.07,0.46,10.62,-0.10,0.08,0.11,1721206250622
0.56,0.36,12.95,-0.04,0.01,0.08,1721206250632
0.25,0.04,12.50,-0.06,-0.02,-0.01,1721206250642
0.06,1.43,7.61,0.01,-0.10,0.09,1721206250652
0.91,0.83,6.88,-0.07,0.08,0.02,1721206250662
1.62,-4.02,13.45,-0.15,0.08,-0.10,1721206250672
-0.91,4.18,10.82,0.19,-0.07,-0.11,1721206250682
0.15,2.26,4.43,-0.05,0.11,-0.04,1721206250692
-0.51,0.23,16.66,-0.16,-0.02,0.03,1721206250702
-0.17,2.11,10.95,0.04,-0.07,0.08,1721206250712
2.53,-2.90,6.77,-0.26,0.15,0.01,1721206250722
0.90,-0.72,11.64,-0.16,-0.11,-0.13,1721206250732
0.06,-1.49,5.03,-0.13,-0.00,-0.15,1721206250742
-0.39,-4.19,10.70,-0.15,0.13,-0.13,1721206250752
-0.53,6.22,14.13,0.20,0.08,-0.08,1721206250762
0.15,3.25,5.54,-0.02,-0.03,0.05,1721206250772
0.00,-2.15,14.51,-0.33,0.12,-0.02,1721206250782
2.19,0.69,16.65,-0.06,0.05,-0.10,1721206250792
2.78,-3.75,6.28,-0.18,0.04,-0.12,1721206250802
0.04,2.07,15.28,-0.09,0.14,-0.28,1721206250812
0.25,4.39,15.78,0.21,0.15,-0.35,1721206250822
-2.64,0.53,3.80,0.05,-0.01,-0.26,1721206250832
-3.17,1.09,14.27,0.02,0.25,-0.08,1721206250842
0.84,2.84,9.84,0.25,0.09,0.09,1721206250852
1.84,3.64,4.02,0.18,0.18,0.00,1721206250862
1.10,-2.18,7.78,-0.02,0.13,-0.36,1721206250872
-1.86,-2.73,13.40,0.08,0.04,-0.36,1721206250882
-2.09,-2.09,15.33,0.06,0.26,-0.16,1721206250892
-2.32,2.60,10.08,0.24,-0.00,0.08,1721206250902
-0.21,2.92,3.48,0.25,0.12,0.08,1721206250912
2.75,-2.10,9.04,0.15,0.20,-0.09,1721206250922
0.47,10.07,10.21,0.58,-0.02,-0.25,1721206250932
-1.05,-0.91,-5.00,0.06,0.00,-0.26,1721206250942
-3.53,-8.24,9.66,-0.58,0.21,-0.18,1721206250952
-3.09,-0.20,22.74,0.16,0.17,0.23,1721206250962
1.09,-3.68,3.79,-0.05,0.09,0.27,1721206250972
0.65,1.99,12.13,-0.07,0.09,-0.02,1721206250982
2.67,5.24,11.56,0.20,0.09,-0.15,1721206250992
-0.85,-1.12,8.36,-0.18,-0.09,-0.14,1721206251002
-4.05,-2.80,14.03,-0.08,-0.04,-0.01,1721206251012
-1.86,-4.98,5.04,-0.17,-0.03,0.22,1721206251022
-1.42,2.48,13.27,-0.13,0.09,0.17,1721206251032
2.36,2.98,13.20,0.03,0.09,-0.08,1721206251042
-0.44,0.68,10.14,-0.06,-0.14,-0.11,1721206251052
-2.83,2.36,10.38,-0.00,0.02,0.01,1721206251062
-0.82,1.97,10.39,0.00,0.05,0.18,1721206251072
-0.21,5.70,9.44,0.11,-0.17,0.18,1721206251082
0.82,-2.68,7.79,-0.01,-0.02,0.11,1721206251092
-1.13,0.80,5.87,0.19,-0.22,0.05,1721206251102
0.39,0.83,8.70,-0.09,0.19,-0.02,1721206251112
-0.67,-3.75,21.43,-0.09,-0.21,0.11,1721206251122
-1.83,3.09,9.31,0.26,-0.17,0.20,1721206251132
2.71,7.69,14.21,0.13,0.24,0.05,1721206251142
1.61,3.92,10.24,0.17,-0.46,0.09,1721206251152
-0.38,0.31,4.12,0.01,0.02,-0.04,1721206251162
0.92,-1.73,12.72,-0.02,0.03,-0.14,1721206251172
-1.47,-0.52,10.10,0.09,-0.22,-0.04,1721206251182
-2.59,1.33,8.06,0.10,-0.02,0.10,1721206251192
-0.57,4.66,12.20,0.13,0.07,0.07,1721206251202
0.51,4.60,10.31,0.03,-0.19,0.14,1721206251212
0.65,-3.53,10.85,-0.13,-0.08,0.12,1721206251222
1.92,-0.32,10.69,0.02,-0.08,0.04,1721206251232
1.02,2.94,5.49,-0.03,-0.16,-0.08,1721206251242
-0.67,-2.17,10.82,-0.19,-0.02,-0.12,1721206251252
-0.54,-3.05,14.81,-0.08,-0.06,-0.04,1721206251262
-0.16,5.10,15.24,0.06,-0.03,-0.04,1721206251272
1.37,-0.16,2.73,-0.05,-0.18,0.00,1721206251282
-1.29,-3.57,3.71,-0.22,-0.03,-0.08,1721206251292
-2.07,-3.85,9.58,-0.16,0.06,-0.19,1721206251302
-0.57,3.72,17.41,0.14,-0.08,0.09,1721206251312
1.20,-1.96,3.66,-0.11,-0.16,0.22,1721206251322
0.88,0.66,13.42,-0.22,0.10,-0.09,1721206251332
3.52,-6.03,12.01,-0.22,-0.02,-0.26,1721206251342
-2.72,4.70,13.26,0.04,-0.27,-0.26,1721206251352
-1.44,0.71,3.76,0.05,-0.00,-0.01,1721206251362
-0.07,-2.69,10.11,-0.21,0.09,0.02,1721206251372
0.33,-3.12,11.88,-0.09,-0.09,-0.04,1721206251382
0.53,-3.23,18.09,-0.31,0.05,-0.17,1721206251392
-0.84,10.22,18.53,0.11,-0.15,-0.05,1721206251402
2.47,4.30,3.97,0.23,0.11,0.00,1721206251412
0.83,-5.68,7.55,-0.08,-0.04,-0.27,1721206251422
-2.58,2.41,18.92,0.07,-0.09,-0.35,1721206251432
-1.32,4.86,8.88,0.31,0.00,-0.03,1721206251442
-0.68,1.86,6.41,0.07,0.16,-0.10,1721206251452
-1.88,-1.60,13.01,0.20,-0.16,0.05,1721206251462
0.56,0.93,9.56,0.20,0.09,0.13,1721206251472
2.13,5.30,5.12,0.37,-0.02,0.05,1721206251482
2.76,-2.17,5.54,0.11,0.14,-0.09,1721206251492
-0.66,-2.74,12.53,0.11,-0.16,-0.18,1721206251502
-0.50,0.16,11.83,0.14,0.09,-0.16,1721206251512
-0.46,9.99,6.78,0.45,-0.01,0.00,1721206251522
1.67,-3.31,-0.22,-0.09,0.13,0.02,1721206251532
-0.68,-5.56,18.50,-0.31,0.06,-0.12,1721206251542
0.22,-0.44,13.84,0.25,-0.02,-0.10,1721206251552
1.38,-0.80,1.25,0.01,0.18,-0.08,1721206251562
-1.04,1.79,7.36,0.03,-0.04,-0.10,1721206251572
-0.55,0.95,7.33,-0.04,0.06,-0.24,1721206251582
-1.00,-4.71,12.53,-0.11,0.10,-0.22,1721206251592
-1.99,-0.32,14.28,-0.04,0.09,-0.13,1721206251602
-1.62,2.60,14.23,-0.05,0.09,-0.07,1721206251612
-0.48,3.17,11.36,-0.07,0.05,-0.03,1721206251622
0.57,0.46,9.79,-0.16,0.12,-0.03,1721206251632
0.99,-4.33,11.53,-0.15,0.09,-0.11,1721206251642
1.23,0.46,12.06,-0.04,0.10,-0.11,1721206251652
0.88,2.69,7.72,0.01,0.06,-0.26,1721206251667
0.65,-0.47,8.47,-0.04,0.13,-0.29,1721206251672
-0.84,4.80,14.29,0.13,0.14,-0.22,1721206251682
-0.80,9.16,9.37,0.17,0.07,-0.11,1721206251692
0.13,-2.78,10.87,-0.22,0.25,-0.20,1721206251702
-0.84,-2.65,18.56,-0.06,0.07,-0.24,1721206251712
-1.06,0.35,8.79,0.04,0.09,-0.10,1721206251722
-0.78,2.75,9.89,0.13,0.20,-0.12,1721206251732
-0.56,4.57,5.84,0.25,0.08,-0.21,1721206251742
-2.53,2.72,6.78,0.09,0.02,-0.09,1721206251752
-0.50,-2.35,12.73,-0.04,0.23,-0.02,1721206251762
1.59,0.82,13.91,0.09,0.11,0.04,1721206251772
2.65,0.67,4.52,0.06,0.09,-0.04,1721206251782
1.56,2.24,11.57,-0.10,0.25,-0.36,1721206251792
-2.16,2.88,12.80,0.04,-0.05,-0.45,1721206251802
-4.00,-6.63,6.77,-0.27,0.08,-0.17,1721206251812
-3.11,-2.48,13.67,-0.18,0.19,0.20,1721206251822
2.34,0.68,6.98,-0.02,0.22,0.20,1721206251832
2.99,-2.75,5.49,-0.24,0.10,-0.14,1721206251842
-0.31,0.45,13.44,-0.09,0.09,-0.42,1721206251852
-2.43,2.38,2.09,0.05,0.03,-0.23,1721206251862
-1.53,-5.61,13.52,-0.54,0.41,-0.01,1721206251872
0.41,-8.50,23.70,-0.19,0.08,0.18,1721206251882
1.79,-0.70,6.52,0.17,0.04,0.02,1721206251892
1.33,9.22,5.26,0.09,0.21,-0.29,1721206251902
-1.20,7.18,8.63,0.06,-0.01,-0.32,1721206251912
-4.66,-3.96,8.13,-0.15,-0.08,-0.02,1721206251922
-2.53,-8.68,14.31,-0.23,0.25,0.25,1721206251932
1.78,7.23,14.85,0.15,0.15,0.32,1721206251942
3.21,7.48,6.70,0.04,0.06,0.04,1721206251952
1.01,-4.36,9.34,-0.19,0.06,-0.36,1721206251962
-2.78,-4.93,13.24,-0.10,-0.06,-0.24,1721206251972
-3.04,-2.33,15.75,-0.19,0.17,0.08,1721206251982
-0.63,7.71,18.52,-0.00,0.10,0.22,1721206251992
2.31,7.54,11.73,0.22,0.06,0.10,1721206252002
1.13,-3.47,8.13,0.06,-0.04,-0.07,1721206252012
-1.56,-0.23,12.82,0.17,0.06,-0.19,1721206252022
-0.66,4.49,8.37,0.38,0.06,-0.10,1721206252032
-2.94,4.07,6.93,0.32,0.02,-0.02,1721206252042
-3.50,-1.75,7.63,0.35,-0.02,0.10,1721206252052
-1.40,-4.07,8.83,0.35,0.09,0.23,1721206252062
1.66,11.56,6.65,0.82,0.03,0.28,1721206252072
2.58,2.16,-7.37,0.32,-0.11,0.06,1721206252082
-0.77,-4.73,11.47,-0.35,0.18,-0.11,1721206252092
1.02,-0.79,26.90,0.33,-0.17,0.03,1721206252102
0.36,-1.58,-3.41,0.26,-0.20,0.08,1721206252112
-1.07,2.06,5.31,-0.26,0.26,-0.01,1721206252122
-0.38,-0.21,22.17,-0.19,-0.11,-0.05,1721206252132
-0.87,0.89,16.01,0.24,-0.10,-0.02,1721206252142
-0.28,-2.75,1.42,0.02,-0.04,0.06,1721206252152
-0.94,1.04,9.96,-0.23,0.09,0.06,1721206252162
-0.24,2.51,13.70,-0.11,-0.08,0.06,1721206252172
-0.95,1.14,10.75,-0.05,-0.07,0.07,1721206252182
-0.98,0.25,8.35,0.02,-0.09,0.13,1721206252192
0.74,7.56,14.35,-0.02,0.12,0.20,1721206252202
1.81,1.94,8.89,-0.04,-0.24,0.12,1721206252212
0.05,-1.71,7.38,-0.24,0.01,-0.14,1721206252222
0.63,3.25,16.63,0.07,0.06,-0.15,1721206252232
-1.52,3.36,7.83,0.16,-0.22,0.06,1721206252242
-2.39,0.00,5.06,-0.07,-0.00,0.14,1721206252252
-1.60,-1.14,8.98,-0.16,-0.04,0.13,1721206252262
0.20,-3.51,16.18,-0.28,0.05,0.13,1721206252272
1.82,0.99,19.21,0.12,-0.07,0.12,1721206252282
2.08,-2.88,0.21,0.03,-0.20,0.00,1721206252292
-1.39,3.26,9.86,-0.23,0.14,-0.12,1721206252302
0.98,-6.80,10.81,-0.18,0.06,-0.15,1721206252312
-1.29,-3.87,15.13,0.02,-0.24,0.04,1721206252322
-0.70,6.34,6.67,0.18,-0.05,0.09,1721206252332
0.74,2.90,7.34,-0.16,0.09,-0.05,1721206252342
-0.03,-4.43,11.17,-0.25,-0.14,-0.11,1721206252352
-1.43,-7.46,11.99,-0.31,-0.10,-0.11,1721206252362
-2.38,3.85,9.86,0.05,-0.11,0.07,1721206252372
0.01,-0.14,2.81,-0.18,0.05,0.17,1721206252382
0.37,-8.22,15.76,-0.49,-0.05,0.12,1721206252392
-0.74,10.96,19.18,0.27,-0.07,-0.12,1721206252402
3.63,-8.65,1.76,-0.24,-0.26,-0.05,1721206252412
-3.55,10.66,14.30,-0.23,-0.03,0.04,1721206252422
2.27,-4.04,10.32,-0.04,0.30,-0.47,1721206252432
-3.23,-4.32,17.93,-0.03,-0.51,-0.21,1721206252442
-4.26,0.37,7.78,-0.00,-0.02,0.22,1721206252452
-0.09,10.87,16.18,0.17,0.11,0.29,1721206252462
2.82,2.82,7.90,0.28,-0.20,0.27,1721206252472
2.65,-7.51,5.98,-0.00,-0.06,0.05,1721206252482
0.57,3.52,14.90,0.26,-0.04,-0.19,1721206252492
-0.33,10.95,-1.06,0.58,-0.23,-0.09,1721206252502
0.60,1.10,4.02,-0.06,0.12,-0.09,1721206252512
-2.51,-5.82,25.22,-0.11,-0.06,0.22,1721206252522
0.01,-2.55,12.58,0.26,-0.08,0.29,1721206252532
3.40,0.96,6.95,-0.07,0.09,0.09,1721206252542
2.82,0.64,13.75,-0.03,-0.17,-0.17,1721206252552
0.73,-1.08,8.34,0.19,-0.07,-0.24,1721206252562
0.20,-6.82,3.89,0.09,0.08,-0.18,1721206252572
-0.73,3.36,12.55,0.24,0.05,-0.11,1721206252582
0.00,6.94,3.17,0.18,-0.08,-0.14,1721206252592
-1.72,-1.82,5.27,-0.23,0.04,-0.19,1721206252602
-2.35,-3.64,18.91,0.00,0.11,-0.25,1721206252612
0.20,-2.80,12.35,0.06,-0.00,0.00,1721206252622
0.19,3.46,9.45,0.05,-0.01,0.03,1721206252632
2.22,0.49,10.46,-0.08,0.18,-0.27,1721206252642
0.25,-5.50,12.07,-0.05,-0.18,-0.27,1721206252652
-1.64,1.59,10.50,0.17,0.04,-0.16,1721206252662
0.93,7.65,5.66,0.20,0.11,-0.06,1721206252672
0.72,4.13,6.96,-0.20,0.04,-0.31,1721206252682
-0.45,-8.22,20.63,-0.34,0.04,-0.29,1721206252692
-0.66,2.02,15.77,0.18,-0.00,-0.09,1721206252702
2.34,5.99,11.88,-0.19,0.29,-0.16,1721206252712
-0.90,3.97,14.04,0.04,-0.21,-0.30,1721206252722
-1.29,2.34,6.35,0.18,0.17,-0.30,1721206252732
-0.64,-5.32,7.69,-0.06,0.07,-0.10,1721206252742
-1.89,7.29,13.23,0.30,-0.01,-0.03,1721206252752
2.98,7.96,-6.68,0.46,0.04,-0.10,1721206252762
3.59,0.79,6.39,-0.18,0.33,-0.35,1721206252772
-1.40,-6.56,20.32,0.01,-0.19,-0.34,1721206252782
-2.77,0.91,9.60,0.21,0.06,-0.12,1721206252792
0.08,4.77,5.55,-0.05,0.25,-0.07,1721206252802
1.91,-0.57,12.99,-0.14,0.10,-0.25,1721206252812
-0.70,-1.84,9.57,0.15,-0.02,-0.35,1721206252822
-0.68,-2.00,5.37,-0.01,0.25,-0.39,1721206252832
-2.09,1.50,11.50,0.04,0.08,-0.23,1721206252842
-1.91,2.88,2.88,0.04,0.07,-0.08,1721206252852
-0.11,-1.46,11.87,-0.33,0.36,-0.12,1721206252862
0.79,0.20,20.50,-0.08,0.15,-0.17,1721206252872
1.33,-2.76,4.68,-0.09,-0.02,-0.11,1721206252882
1.10,1.92,5.13,-0.23,0.32,-0.27,1721206252892
2.39,-2.49,15.78,-0.29,0.35,-0.49,1721206252902
-4.01,-2.43,17.46,-0.02,-0.19,-0.40,1721206252912
-5.70,5.68,8.46,0.10,0.18,-0.13,1721206252922
-1.71,5.35,6.29,0.05,0.23,0.25,1721206252932
1.10,-3.84,3.22,-0.31,0.12,0.13,1721206252942
2.77,-5.94,12.30,-0.35,0.24,-0.28,1721206252952
1.70,3.77,14.30,-0.03,0.06,-0.44,1721206252962
-1.04,-4.80,10.84,-0.45,0.25,-0.42,1721206252972
-5.54,2.50,19.49,-0.09,-0.04,-0.10,1721206252982
-1.28,-0.52,6.93,-0.14,0.29,0.12,1721206252992
0.14,-6.10,6.92,-0.20,0.02,0.05,1721206253002
0.45,-0.50,10.46,-0.02,0.22,-0.09,1721206253012
0.10,3.78,5.59,0.01,0.02,-0.18,1721206253022
-2.49,-3.35,13.80,-0.33,0.24,-0.19,1721206253032
-2.58,-1.75,21.95,-0.06,0.21,-0.09,1721206253042
-1.96,2.15,6.91,0.10,-0.07,0.19,1721206253052
1.33,2.81,7.44,-0.00,0.31,0.15,1721206253062
2.93,2.81,15.87,0.16,0.07,-0.11,1721206253072
-1.03,0.28,7.32,0.25,-0.18,-0.15,1721206253082
-2.95,0.87,6.74,0.15,0.17,-0.03,1721206253092
-2.30,5.75,10.16,0.32,0.00,0.11,1721206253102
-0.47,0.21,10.10,0.08,0.10,0.22,1721206253112
-2.06,-0.68,13.82,0.10,-0.10,0.02,1721206253122
-1.87,4.59,11.47,0.27,0.12,0.02,1721206253132
-0.22,0.77,9.26,0.08,-0.00,0.24,1721206253142
-1.49,3.14,13.05,0.13,-0.05,0.21,1721206253152
3.20,0.67,15.86,0.17,0.06,0.25,1721206253162
3.44,1.89,11.92,0.32,-0.13,0.15,1721206253172
2.54,2.68,8.66,0.29,0.09,-0.17,1721206253182
-1.50,7.83,9.10,0.46,-0.11,-0.28,1721206253192
-3.41,4.12,-0.36,0.51,-0.09,-0.02,1721206253202
-3.65,-6.02,1.41,0.23,0.03,0.21,1721206253212
-0.96,-2.55,8.99,0.26,0.08,0.40,1721206253222
3.22,3.90,11.96,0.21,0.11,0.22,1721206253232
2.11,9.03,3.17,0.27,-0.21,-0.06,1721206253242
1.43,-2.39,6.35,-0.27,0.17,-0.25,1721206253252
-2.65,-3.85,19.23,-0.16,-0.28,0.02,1721206253262
-3.74,-1.61,2.01,0.07,-0.13,0.19,1721206253272
0.03,-6.99,4.94,-0.44,0.20,0.10,1721206253282
-3.27,3.00,18.12,-0.18,-0.34,0.16,1721206253292
-1.16,0.77,4.60,0.02,-0.14,0.14,1721206253302
1.56,-7.02,7.74,-0.25,0.13,0.10,1721206253312
1.53,-6.39,14.69,-0.16,-0.13,0.06,1721206253322
-0.75,3.68,18.95,-0.05,-0.15,-0.04,1721206253332
-0.52,5.52,13.99,-0.02,-0.15,-0.01,1721206253342
-1.62,2.17,5.85,-0.09,-0.13,0.13,1721206253352
0.12,-2.71,5.41,-0.27,0.00,0.18,1721206253362
0.95,-3.09,10.49,-0.23,-0.07,0.09,1721206253372
1.24,1.40,9.54,-0.15,-0.09,-0.00,1721206253382
1.66,1.57,12.00,-0.11,-0.14,0.03,1721206253392
1.36,2.54,12.65,-0.05,-0.08,0.03,1721206253402
1.77,-2.74,10.78,-0.30,-0.01,-0.13,1721206253412
-1.72,-0.23,17.59,-0.24,-0.14,-0.26,1721206253422
-2.82,4.46,13.86,0.02,-0.06,-0.21,1721206253432
-2.28,0.33,5.55,-0.03,-0.11,0.05,1721206253442
-1.81,-3.78,10.80,-0.21,0.02,0.15,1721206253452
0.48,5.34,19.26,0.23,0.05,0.07,1721206253462
2.58,3.23,4.74,0.27,-0.23,-0.02,1721206253472
0.60,3.62,2.65,0.10,-0.09,-0.02,1721206253482
3.54,-4.10,10.91,0.12,0.29,-0.22,1721206253492
0.02,4.66,15.19,0.43,-0.23,-0.30,1721206253502
-0.41,0.40,-2.67,0.29,-0.11,-0.22,1721206253512
0.52,-1.26,8.00,-0.14,0.25,-0.26,1721206253522
-0.52,3.38,15.55,0.26,-0.06,-0.08,1721206253532
0.84,1.13,3.89,0.15,-0.03,0.09,1721206253542
2.49,-5.54,8.96,-0.26,0.13,-0.06,1721206253552
1.01,-3.95,25.04,-0.19,-0.01,-0.37,1721206253562
-1.97,7.69,21.81,0.26,-0.12,-0.35,1721206253572
-0.62,-1.27,0.67,0.08,0.05,-0.00,1721206253582
1.74,-5.10,6.04,-0.20,0.25,0.06,1721206253592
4.68,3.73,8.78,0.13,0.08,-0.17,1721206253602
-0.45,-1.62,9.57,0.15,-0.07,-0.17,1721206254139
-2.15,-0.97,9.79,0.15,0.13,-0.09,1721206254143
-1.49,2.17,12.26,0.19,0.01,0.19,1721206254153
0.18,4.28,4.36,0.22,-0.11,0.25,1721206254163
1.95,2.34,5.33,0.14,0.09,0.01,1721206254173
0.75,-1.86,7.73,0.04,-0.16,-0.06,1721206254183
-1.51,-1.09,8.64,0.13,-0.10,-0.00,1721206254193
1.18,0.97,11.11,0.01,0.16,-0.03,1721206254203
0.17,4.72,12.91,0.11,-0.19,0.01,1721206254213
-0.07,-2.33,6.60,0.02,-0.01,-0.02,1721206254223
0.95,-2.18,9.96,-0.02,0.04,0.06,1721206254233
2.41,2.98,9.79,0.14,-0.07,0.13,1721206254243
3.10,3.23,5.06,-0.03,0.08,-0.18,1721206254253
1.34,-2.53,15.89,-0.28,0.05,-0.40,1721206254263
-3.58,-2.36,20.70,-0.02,-0.15,-0.18,1721206254273
-4.50,0.28,7.84,0.03,-0.12,0.04,1721206254283
-0.45,3.19,11.62,-0.13,0.19,0.18,1721206254293
2.05,2.77,11.57,-0.07,-0.06,0.13,1721206254303
1.11,2.58,8.50,-0.02,-0.07,-0.20,1721206254313
0.91,-2.14,4.81,-0.11,-0.01,-0.34,1721206254323
-2.36,-0.51,13.39,-0.18,-0.06,-0.17,1721206254333
-2.51,1.92,10.32,-0.05,-0.05,0.02,1721206254343
-0.02,1.06,12.47,-0.19,0.14,0.03,1721206254353
0.31,0.37,9.33,-0.05,-0.08,-0.02,1721206254363
-0.38,-2.89,6.39,-0.21,0.03,-0.23,1721206254373
-1.37,-0.52,15.91,-0.22,-0.08,-0.21,1721206254383
-2.21,1.91,8.85,0.07,-0.08,0.05,1721206254393
-1.03,-0.40,4.02,-0.07,0.05,0.11,1721206254403
1.37,-4.49,8.94,-0.16,0.00,-0.11,1721206254413
0.57,4.24,14.64,-0.04,-0.11,-0.13,1721206254423
-1.58,3.68,9.92,-0.08,-0.08,-0.09,1721206254433
-2.97,-1.90,9.90,-0.24,0.01,-0.08,1721206254443
-1.84,-0.21,14.06,-0.21,-0.03,0.03,1721206254453
0.67,-0.58,12.37,-0.20,-0.10,0.14,1721206254463
0.62,1.86,9.58,-0.07,-0.07,0.11,1721206254473
2.11,0.98,9.68,-0.12,0.04,0.01,1721206254483
0.42,1.73,11.78,-0.04,-0.21,-0.02,1721206254493
1.55,-3.48,9.69,-0.12,-0.01,0.01,1721206254503
1.26,-1.60,11.72,-0.06,-0.02,-0.08,1721206254513
0.89,3.11,9.94,0.06,-0.07,-0.12,1721206254523
1.14,-1.26,9.92,0.05,0.01,-0.11,1721206254533
0.40,-6.85,8.30,0.08,0.02,-0.22,1721206254543
-1.26,2.74,13.41,0.24,0.02,-0.24,1721206254553
-0.69,13.56,10.79,0.41,0.00,-0.08,1721206254563
0.57,0.03,4.58,0.07,0.03,-0.06,1721206254573
0.32,-10.15,11.53,-0.10,0.01,-0.09,1721206254583
-0.17,5.31,13.30,0.21,0.03,-0.10,1721206254593
2.22,4.78,6.22,0.12,0.11,-0.10,1721206254603
1.19,-5.26,8.10,-0.13,0.04,-0.25,1721206254613
-1.43,-3.10,14.41,-0.05,-0.03,-0.30,1721206254623
-0.70,-1.43,13.02,0.00,0.09,-0.15,1721206254633
0.61,-3.36,11.91,-0.08,0.10,-0.03,1721206254643
0.10,4.02,15.87,0.09,0.09,-0.16,1721206254653
0.79,3.80,12.69,0.21,0.08,-0.21,1721206254663
0.69,-2.93,5.64,0.19,0.09,-0.22,1721206254673
-0.49,-2.15,9.03,0.07,0.21,-0.22,1721206254683
-1.48,10.99,19.97,0.32,0.14,-0.20,1721206254693
-0.60,2.90,6.47,0.30,-0.01,-0.07,1721206254703
-0.73,4.14,4.46,0.22,0.20,-0.09,1721206254713
1.88,-6.31,10.08,-0.09,0.22,-0.12,1721206254723
0.13,8.08,15.73,0.37,0.10,-0.24,1721206254733
-0.11,2.78,-12.01,0.25,0.00,-0.40,1721206254743
-1.66,-7.06,5.99,-0.53,0.37,-0.20,1721206254753
-6.76,-0.33,39.13,0.05,0.09,-0.04,1721206254763
-0.45,3.03,1.48,0.46,0.03,0.07,1721206254773
1.79,1.60,4.39,-0.38,0.34,-0.04,1721206254783
1.81,2.21,24.75,-0.14,-0.08,-0.17,1721206254793
1.36,-1.36,8.32,0.19,0.10,-0.32,1721206254803
-1.09,-2.05,5.89,-0.02,0.21,-0.33,1721206254813
-1.97,0.40,15.12,-0.21,0.15,-0.21,1721206254823
-1.85,11.04,15.18,0.20,0.05,-0.09,1721206254833
0.91,0.53,-3.24,-0.01,0.15,-0.07,1721206254843
0.22,-9.03,4.25,-0.37,0.18,-0.10,1721206254853
0.75,-2.12,23.58,0.00,0.28,-0.19,1721206254863
0.04,12.05,-0.95,0.52,-0.17,-0.26,1721206254873
-0.84,0.13,-6.07,-0.42,0.27,-0.45,1721206254883
1.04,-7.25,20.59,-0.66,0.27,-0.41,1721206254893
-4.23,-6.86,24.07,0.09,0.15,0.06,1721206254903
0.69,-1.21,7.44,-0.25,0.24,0.10,1721206254913
0.50,11.02,21.77,-0.16,0.22,-0.23,1721206254923
-0.45,6.72,13.29,0.28,-0.02,-0.33,1721206254933
-3.56,-12.33,-3.90,-0.10,-0.01,-0.11,1721206254943
-1.64,-7.75,11.37,-0.15,0.48,0.22,1721206254953
4.90,18.87,18.45,0.42,0.19,0.33,1721206254963
2.37,6.18,0.32,0.24,-0.22,-0.18,1721206254973
-0.58,-7.49,6.38,-0.13,0.28,-0.55,1721206254983
-2.47,-2.40,16.88,-0.01,0.06,-0.27,1721206254993
-1.99,10.12,13.28,0.16,0.21,0.10,1721206255003
-0.21,-0.49,4.61,-0.03,0.07,0.06,1721206255013
-0.53,-5.91,12.39,-0.14,0.28,-0.09,1721206255023
-0.12,-2.22,17.57,0.06,0.13,-0.00,1721206255033
-0.60,3.95,9.03,0.10,-0.04,0.04,1721206255043
-0.10,5.95,8.21,0.04,0.15,-0.04,1721206255053
0.60,-1.67,9.19,0.00,0.09,-0.03,1721206255063
-0.65,-2.02,12.22,0.02,0.13,0.01,1721206255073
0.76,-4.61,10.42,0.02,0.12,0.12,1721206255083
0.80,1.57,10.86,-0.02,0.16,-0.03,1721206255093
-0.83,5.42,5.77,0.21,-0.06,-0.18,1721206255103
-2.07,2.30,-3.12,0.07,0.06,-0.10,1721206255113
-1.72,-8.49,0.59,-0.31,0.16,0.16,1721206255123
0.12,-8.00,15.41,-0.41,0.23,0.28,1721206255133
3.77,-1.14,24.55,-0.24,0.28,-0.04,1721206255143
-0.33,3.22,16.85,-0.09,-0.13,-0.39,1721206255153
-5.39,2.35,-2.11,0.01,-0.13,-0.32,1721206255163
-4.10,-13.79,-0.05,-0.40,0.25,0.12,1721206255173
-2.82,-2.35,15.28,-0.16,0.15,0.39,1721206255183
2.34,7.86,20.83,0.25,0.18,0.23,1721206255193
3.40,4.30,10.01,0.05,-0.02,-0.22,1721206255203
-3.55,0.89,4.39,-0.14,-0.20,-0.29,1721206255213
-3.78,-1.69,14.93,-0.27,0.23,0.15,1721206255223
-0.24,7.50,20.48,0.06,0.02,0.42,1721206255233
2.86,1.13,7.08,0.06,-0.08,0.31,1721206255243
2.41,2.51,11.35,-0.06,0.03,-0.05,1721206255253
0.92,2.48,15.38,0.05,-0.02,-0.18,1721206255263
-1.94,2.83,14.80,0.17,-0.07,-0.09,1721206255273
-2.07,4.66,9.54,0.30,-0.11,0.30,1721206255283
2.24,2.75,13.28,0.26,0.15,0.43,1721206255293
3.00,1.57,9.65,0.34,-0.03,0.02,1721206255303
0.95,0.87,9.24,0.26,0.03,-0.24,1721206255313
-4.07,2.75,8.62,0.41,-0.08,-0.08,1721206255323
-2.99,3.68,7.08,0.41,0.13,0.31,1721206255333
1.79,-1.83,7.63,0.49,0.00,0.55,1721206255343
5.23,-2.38,5.20,0.29,0.14,0.22,1721206255353
2.73,7.47,14.64,0.39,0.01,-0.28,1721206255363
-3.24,6.28,-5.12,0.44,-0.45,-0.26,1721206255373
-4.06,-7.83,1.20,-0.23,0.36,0.09,1721206255383
1.24,1.80,21.39,-0.04,-0.21,0.24,1721206255393
-0.80,-0.40,8.76,0.07,-0.12,0.14,1721206255403
-1.08,4.47,10.15,0.11,0.07,0.05,1721206255413
-0.14,-4.99,-7.84,-0.21,-0.22,0.19,1721206255423
-2.46,-9.29,14.57,-0.70,0.24,0.34,1721206255433
1.51,-2.36,34.96,0.15,-0.23,0.27,1721206255443
3.31,-2.45,3.04,0.25,-0.26,-0.11,1721206255453
-2.38,1.87,8.91,-0.44,0.16,-0.28,1721206255463
-2.40,7.30,17.70,-0.09,-0.06,-0.07,1721206255473
-1.64,-5.17,3.34,-0.24,-0.11,0.17,1721206255483
-0.91,-4.07,9.02,-0.23,0.02,0.28,1721206255493
2.96,-0.80,11.98,-0.25,0.07,0.11,1721206255503
1.85,9.72,11.11,-0.10,-0.21,0.06,1721206255513
2.85,0.83,3.17,-0.20,0.01,-0.13,1721206255523
-0.44,-5.08,10.65,-0.28,-0.04,-0.27,1721206255533
-1.84,-0.56,13.86,-0.09,-0.04,-0.18,1721206255543
-3.50,5.35,3.95,0.02,-0.14,-0.05,1721206255553
-1.55,1.10,8.42,-0.37,0.21,0.06,1721206255563
-0.77,-5.10,18.02,-0.24,-0.14,0.28,1721206255573
-0.05,-2.71,10.07,-0.11,-0.10,0.25,1721206255583
2.03,-1.92,9.89,-0.29,0.08,-0.02,1721206255593
0.90,3.39,17.54,-0.11,-0.16,-0.05,1721206255603
0.83,4.94,8.89,0.19,-0.01,0.01,1721206255613
1.06,-7.41,2.02,-0.03,-0.06,-0.03,1721206255623
-0.91,6.03,15.58,-0.01,0.01,-0.23,1721206255633
1.01,8.56,8.23,0.40,-0.14,-0.06,1721206255643
1.15,-2.49,5.19,-0.10,0.09,-0.02,1721206255653
-1.52,-6.87,18.14,-0.10,-0.06,0.03,1721206255663
-1.40,-0.45,9.76,0.18,-0.10,0.06,1721206255673
1.18,6.68,11.39,0.16,0.16,0.10,1721206255683
3.25,2.41,11.02,0.18,-0.05,0.13,1721206255693
1.19,1.16,8.71,0.14,-0.08,-0.02,1721206255703
2.43,-3.60,11.78,0.01,0.16,-0.21,1721206255713
-0.04,0.85,13.50,0.13,-0.11,-0.19,1721206255723
-1.08,-0.82,8.62,0.01,-0.02,-0.01,1721206255733
-1.24,0.34,14.67,0.11,0.15,0.04,1721206255743
0.39,-1.66,9.84,0.34,0.07,-0.09,1721206255753
0.23,-5.93,6.42,0.22,-0.02,-0.04,1721206255763
-0.98,11.96,17.72,0.40,0.11,-0.07,1721206255773
0.51,12.41,8.11,0.62,-0.02,-0.03,1721206255783
0.46,-9.68,1.21,0.09,0.08,-0.05,1721206255793
-1.56,-5.06,15.88,0.06,0.12,-0.03,1721206255803
0.23,6.65,12.88,0.27,0.05,-0.02,1721206255813
0.74,3.82,10.36,0.20,0.07,-0.10,1721206255823
0.23,-1.51,1.97,0.32,-0.03,-0.13,1721206255833
-1.24,0.93,3.10,0.14,0.11,-0.11,1721206255843
-0.60,2.21,13.85,-0.02,0.17,-0.05,1721206255853
-0.65,1.76,11.77,0.11,-0.07,-0.05,1721206255863
-0.01,-1.16,6.38,-0.12,0.08,-0.04,1721206255873
0.58,-2.34,13.62,-0.17,0.10,0.02,1721206255883
1.42,-0.40,10.12,0.04,-0.03,-0.05,1721206255893
1.84,-2.41,7.59,-0.18,0.08,-0.30,1721206255903
-1.29,1.15,19.01,-0.02,-0.03,-0.30,1721206255913
-2.49,8.54,2.84,0.36,-0.11,0.00,1721206255923
0.40,0.63,-2.79,-0.19,0.25,0.06,1721206255933
2.60,-12.12,8.21,-0.46,0.13,0.05,1721206255943
1.91,-1.04,14.77,-0.16,-0.05,-0.22,1721206255953
1.36,2.28,10.02,-0.04,0.15,-0.41,1721206255963
-2.16,-0.14,8.29,-0.25,-0.04,-0.35,1721206255973
-6.01,-1.44,10.35,-0.30,-0.11,-0.02,1721206255983
-1.48,-5.24,12.86,-0.31,0.22,0.20,1721206255993
2.89,-1.39,11.65,-0.11,0.03,0.14,1721206256003
2.80,5.09,7.71,-0.10,0.10,-0.25,1721206256013
-0.83,-2.99,10.00,-0.27,-0.01,-0.45,1721206256023
-4.84,-1.28,13.46,-0.13,-0.05,-0.17,1721206256033
-1.98,1.52,12.66,-0.13,0.19,0.15,1721206256043
0.11,7.35,16.14,-0.17,0.03,0.21,1721206256053
2.53,1.79,13.38,-0.15,0.02,-0.02,1721206256063
1.37,-0.20,9.53,-0.10,-0.10,-0.12,1721206256073
-0.05,-1.05,8.87,-0.06,0.11,-0.23,1721206256083
-0.52,-1.55,10.55,0.11,0.09,-0.13,1721206256093
-0.89,2.13,10.00,0.10,0.08,0.02,1721206256103
-1.13,6.52,15.11,0.18,0.10,-0.04,1721206256113
-0.09,1.80,13.27,0.17,0.01,-0.05,1721206256123
-0.16,-1.26,9.62,0.21,0.06,0.01,1721206256133
1.88,1.58,6.82,0.31,0.13,-0.07,1721206256148
1.88,5.11,8.60,0.33,0.10,-0.23,1721206256153
-1.64,-1.40,5.28,0.36,-0.13,-0.33,1721206256163
-2.97,-10.59,5.57,0.19,0.20,-0.14,1721206256173
-2.31,3.96,17.70,0.41,0.18,0.08,1721206256183
-0.40,14.43,6.34,0.55,-0.05,0.13,1721206256193
1.65,-1.98,-0.07,0.02,0.15,-0.10,1721206256203
-0.62,-12.51,10.24,-0.19,0.07,-0.08,1721206256213
-1.05,3.62,17.50,0.21,0.09,-0.07,1721206256223
0.24,5.70,8.75,0.12,0.04,-0.15,1721206256233
-2.55,-4.77,7.86,-0.27,-0.05,-0.22,1721206256243
-4.83,-6.89,12.58,-0.18,-0.09,0.01,1721206256253
-1.79,-0.20,13.20,0.07,0.16,0.19,1721206256263
1.97,0.16,10.87,-0.10,0.07,0.12,1721206256273
0.19,6.63,17.07,0.06,0.02,-0.15,1721206256283
0.23,1.46,4.80,0.11,-0.15,-0.20,1721206256293
-3.36,-5.15,0.62,-0.15,-0.14,0.03,1721206256303
-1.01,-4.79,14.27,-0.21,0.33,0.16,1721206256313
1.69,6.92,18.89,0.13,-0.14,0.21,1721206256323
1.38,3.49,-0.83,0.12,-0.27,0.07,1721206256333
1.35,0.91,8.81,-0.07,0.28,-0.09,1721206256343
-0.43,-0.80,15.83,-0.12,-0.17,0.01,1721206256353
-1.91,2.57,15.34,-0.07,-0.12,0.16,1721206256363
1.36,7.22,-5.25,0.31,-0.13,0.30,1721206256373
3.57,-4.14,2.76,-0.55,0.23,0.05,1721206256383
-4.55,-7.98,30.22,-0.37,-0.32,-0.10,1721206256393
-2.11,2.23,7.28,0.35,-0.20,-0.03,1721206256403
0.52,-1.32,1.05,-0.31,0.13,0.09,1721206256413
-3.46,-1.53,18.77,-0.39,-0.31,0.28,1721206256423
0.40,0.14,17.93,0.01,0.02,0.37,1721206256433
3.72,-0.33,7.90,-0.00,-0.10,0.10,1721206256443
0.87,1.09,7.35,-0.13,-0.12,-0.20,1721206256453
-1.67,3.39,12.55,-0.15,-0.05,-0.18,1721206256463
-3.78,1.46,12.97,-0.10,-0.19,0.12,1721206256473
-2.06,-3.89,6.95,-0.09,-0.13,0.33,1721206256483
1.78,-6.25,11.19,-0.10,-0.02,0.33,1721206256493
2.85,8.70,13.10,0.17,-0.10,0.13,1721206256503
2.25,7.46,6.91,0.21,-0.19,-0.13,1721206256513
-1.51,3.59,9.67,0.02,-0.13,-0.24,1721206256523
-2.97,-5.49,9.85,-0.11,-0.16,-0.01,1721206256533
-4.33,-4.18,9.82,-0.25,-0.19,0.21,1721206256543
0.27,-0.38,17.10,-0.27,0.05,0.26,1721206256553
1.96,3.03,13.71,-0.07,-0.24,0.23,1721206256563
2.60,1.06,4.43,0.04,-0.12,0.03,1721206256573
3.07,-2.91,8.27,-0.08,-0.02,-0.20,1721206256583
-0.76,5.59,14.50,0.11,-0.21,-0.25,1721206256593
-2.35,3.46,7.22,0.14,-0.22,-0.11,1721206256603
-1.85,-1.08,7.17,-0.14,-0.01,0.01,1721206256613
-0.39,2.09,14.72,-0.06,-0.08,0.12,1721206256623
1.43,-0.32,9.56,-0.07,-0.20,0.10,1721206256633
1.27,-1.95,7.60,-0.11,-0.06,-0.07,1721206256643
1.36,0.41,7.96,0.04,-0.12,-0.16,1721206256653
-0.73,0.41,7.52,0.06,-0.19,-0.07,1721206256663
0.65,-3.82,10.97,-0.04,0.03,-0.08,1721206256673
0.79,3.82,11.93,0.19,-0.13,-0.15,1721206256683
0.50,6.92,0.94,0.20,-0.13,-0.20,1721206256693
-0.13,-3.74,0.11,-0.23,-0.01,-0.27,1721206256703
0.96,-12.43,18.56,-0.46,-0.02,-0.12,1721206256713
-1.19,-1.69,20.80,0.20,-0.18,0.01,1721206256723
0.93,-0.80,6.38,0.01,0.03,-0.17,1721206256733
-0.96,5.36,19.73,-0.00,-0.15,-0.20,1721206256743
0.36,6.82,10.39,0.30,-0.04,-0.02,1721206256753
1.80,-10.38,3.35,-0.21,0.08,-0.14,1721206256763
-1.17,-2.87,15.33,0.08,-0.16,-0.26,1721206256773
0.79,5.85,5.70,0.39,-0.04,-0.14,1721206256783
1.75,3.08,8.25,-0.02,0.14,-0.09,1721206256793
0.02,-0.99,17.37,0.23,-0.05,-0.19,1721206256803
0.34,-4.38,6.17,0.26,-0.11,-0.21,1721206256813
-0.94,3.20,15.28,0.02,0.09,-0.18,1721206256823
0.00,7.56,19.75,0.25,0.03,-0.08,1721206256833
1.00,1.51,8.76,0.35,-0.00,0.01,1721206256843
2.08,-1.10,5.32,0.31,0.12,-0.02,1721206256853
1.62,1.85,12.38,0.23,0.11,-0.27,1721206256863
-0.13,5.74,11.66,0.41,-0.03,-0.35,1721206256873
-1.11,1.57,7.05,0.29,0.08,-0.20,1721206256883
-0.78,-0.14,13.39,0.16,0.14,-0.02,1721206256893
0.32,12.37,17.92,0.32,0.06,0.04,1721206256903
1.90,6.40,7.02,0.05,0.07,-0.08,1721206256913
0.70,-1.27,4.89,-0.07,0.04,-0.33,1721206256923
-0.90,-3.82,0.06,-0.08,-0.00,-0.35,1721206256933
-1.30,-10.81,1.03,-0.33,0.11,-0.21,1721206256943
-3.43,-3.31,15.65,-0.08,0.12,-0.18,1721206256953
-2.96,1.30,8.02,0.27,-0.08,-0.04,1721206256963
-2.25,10.64,7.07,0.16,0.04,0.06,1721206256973
1.72,2.26,-0.23,-0.26,-0.02,0.10,1721206256983
3.25,-13.76,6.21,-0.75,0.12,-0.08,1721206256993
3.69,-10.31,21.14,-0.29,0.16,-0.33,1721206257003
3.50,2.51,7.30,0.55,-0.07,-0.48,1721206257013
0.28,-0.40,-6.26,-0.04,0.10,-0.79,1721206257023
-3.12,-0.77,14.50,-0.56,-0.03,-0.66,1721206257033
-8.75,6.50,26.48,0.13,0.15,-0.07,1721206257043
-0.64,-2.10,13.35,-0.31,0.11,0.55,1721206257053
5.73,-2.42,14.33,-0.49,0.22,0.28,1721206257063
8.54,-0.07,10.03,-0.35,0.08,-0.29,1721206257073
3.45,1.02,6.38,-0.27,-0.02,-0.83,1721206257083
-4.04,-1.77,9.55,-0.32,-0.02,-0.92,1721206257093
-9.38,-12.24,22.65,-0.81,-0.08,-0.45,1721206257103
-6.07,12.11,36.42,-0.47,0.01,0.26,1721206257113
-1.55,12.24,15.79,0.03,0.13,0.52,1721206257123
3.72,3.42,5.16,0.14,0.20,0.37,1721206257133
5.06,8.26,5.46,0.64,0.18,-0.06,1721206257143
4.97,0.85,2.91,0.67,-0.08,-0.41,1721206257153
0.82,2.21,3.16,0.51,0.05,-0.59,1721206257163
-2.38,-1.03,11.70,0.29,0.13,-0.62,1721206257173
-4.99,2.12,14.80,0.37,-0.03,-0.18,1721206257183
-2.63,1.20,7.08,0.40,0.09,0.10,1721206257193
-0.24,4.62,-1.02,0.55,0.04,0.11,1721206257203
2.15,4.38,-5.41,0.42,0.20,-0.03,1721206257213
1.36,-5.70,-1.53,-0.21,0.05,-0.18,1721206257223
-5.60,-5.40,13.67,-0.29,0.33,-0.39,1721206257233
-1.39,-2.26,15.86,-0.00,0.01,-0.29,1721206257243
-0.61,-9.76,13.73,-0.49,0.14,-0.09,1721206257253
-1.00,-1.64,28.86,-0.05,0.03,0.01,1721206257263
1.39,-4.17,2.39,0.33,-0.08,-0.09,1721206257273
2.07,-2.64,3.90,-0.33,0.34,-0.33,1721206257283
-1.62,7.40,19.15,-0.06,-0.09,-0.40,1721206257293
-3.02,0.30,6.39,0.00,-0.08,-0.34,1721206257303
-4.28,-7.80,3.99,-0.32,0.06,-0.18,1721206257313
-3.08,-3.68,8.41,-0.19,0.09,0.04,1721206257323
0.76,5.60,9.28,-0.08,0.15,0.12,1721206257333
1.99,1.37,15.89,-0.29,0.12,-0.15,1721206257343
-1.44,2.17,17.22,-0.22,-0.20,-0.39,1721206257353
-1.75,1.62,12.74,-0.15,0.11,-0.26,1721206257363
-2.20,4.17,12.31,-0.06,-0.00,0.00,1721206257373
-1.58,5.48,9.31,0.08,-0.09,0.03,1721206257383
0.41,0.84,8.53,0.16,0.02,0.03,1721206257393
0.09,0.12,9.66,0.22,0.01,-0.10,1721206257403
-1.78,1.70,10.44,0.14,-0.07,-0.14,1721206257413
-1.41,6.69,16.82,0.21,0.01,-0.00,1721206257423
0.29,3.55,9.90,0.34,-0.01,0.08,1721206257433
-0.18,1.64,9.29,0.27,-0.05,-0.02,1721206257443
0.52,2.08,9.04,0.36,-0.10,0.06,1721206257453
3.88,-0.96,11.58,0.15,0.11,0.15,1721206257463
4.42,2.62,9.80,0.23,-0.13,-0.03,1721206257473
3.44,3.07,6.97,0.32,0.13,-0.44,1721206257483
-2.93,-1.26,-1.02,0.12,-0.22,-0.55,1721206257493
-5.51,-5.64,8.57,-0.11,0.28,-0.15,1721206257503
-3.11,0.19,19.53,0.20,0.14,0.37,1721206257513
1.77,7.39,4.05,0.27,-0.08,0.31,1721206257523
4.83,0.32,1.02,-0.09,0.06,0.06,1721206257533
3.65,-7.48,10.87,-0.38,0.09,-0.26,1721206257543
-0.86,-2.95,18.86,-0.05,0.01,-0.43,1721206257553
-2.78,1.81,10.29,0.08,-0.01,-0.31,1721206257563
-3.73,-0.38,9.18,-0.15,0.03,-0.02,1721206257573
-2.09,-4.53,11.05,-0.33,0.05,0.18,1721206257583
0.96,-4.87,14.74,-0.19,0.09,0.07,1721206257593
2.61,-1.06,11.66,-0.00,0.04,-0.12,1721206257603
0.83,4.11,8.29,-0.13,0.07,-0.25,1721206257613
-1.59,1.04,7.36,-0.19,-0.02,-0.19,1721206257623
-2.51,-3.22,8.34,-0.30,0.08,-0.04,1721206257633
0.40,-7.94,12.14,-0.38,0.13,-0.04,1721206257643
0.01,1.98,14.52,-0.23,0.01,-0.12,1721206257653
0.95,5.97,13.80,-0.15,0.10,-0.12,1721206257663
0.68,2.38,9.00,-0.14,0.01,-0.20,1721206257673
-0.19,-0.79,4.98,-0.19,0.05,-0.30,1721206257683
-1.27,-1.92,11.40,-0.21,0.25,-0.31,1721206257693
-2.95,3.53,12.17,0.08,-0.03,-0.15,1721206257703
-2.25,1.95,3.84,0.02,0.04,0.05,1721206257713
-0.48,0.31,12.05,-0.11,0.20,0.05,1721206257723
1.60,1.08,15.13,0.02,0.09,-0.03,1721206257733
1.54,1.91,11.25,0.06,0.02,-0.14,1721206257743
-0.34,0.86,10.94,-0.03,0.08,-0.25,1721206257753
-1.94,2.42,14.50,0.11,0.03,-0.21,1721206257763
-0.39,2.38,11.52,0.08,0.05,-0.02,1721206257773
-0.11,2.52,10.32,0.10,0.09,0.00,1721206257783
1.19,-2.13,8.41,0.06,0.10,-0.11,1721206257793
-0.04,-0.64,8.16,0.14,-0.00,-0.12,1721206257803
0.22,1.59,9.58,0.19,0.13,-0.07,1721206257813
1.19,-5.23,7.40,0.16,0.09,-0.09,1721206257823
-0.12,-2.96,12.75,0.16,0.10,-0.18,1721206257833
-0.57,11.93,12.91,0.51,0.04,-0.10,1721206257843
0.61,3.64,1.86,0.14,0.15,-0.07,1721206257853
-0.57,-6.79,10.86,-0.23,0.15,-0.14,1721206257863
-0.21,-0.51,18.08,0.14,0.14,-0.16,1721206257873
1.05,0.91,8.34,0.13,0.07,0.02,1721206257883
0.93,-0.36,8.05,-0.05,0.19,-0.07,1721206257893
1.08,0.93,8.95,0.17,0.15,-0.19,1721206257903
0.34,-0.23,5.52,0.01,0.09,-0.23,1721206257913
-1.23,-1.59,13.93,-0.03,0.18,-0.20,1721206257923
-1.75,-0.15,10.80,0.11,0.10,-0.07,1721206257933
-1.33,0.95,10.60,-0.07,0.19,0.08,1721206257943
0.93,0.03,14.08,0.00,0.20,-0.01,1721206257953
1.22,-0.06,5.76,0.14,0.05,-0.10,1721206257963
1.07,-1.93,8.06,-0.03,0.28,-0.21,1721206257973
-0.29,-0.84,18.33,0.01,0.14,-0.21,1721206257983
-3.03,5.18,15.51,0.24,-0.02,-0.05,1721206257993
-1.16,2.44,8.09,0.11,0.26,-0.02,1721206258003
-0.29,-0.12,8.32,0.02,0.08,0.04,1721206258013
-0.02,0.50,12.12,0.05,0.17,-0.01,1721206258023
0.41,7.19,-0.12,0.37,0.04,-0.06,1721206258033
2.28,4.77,8.57,0.10,0.47,-0.12,1721206258043
-1.26,-9.87,9.54,-0.27,-0.18,-0.02,1721206258053
-5.37,7.68,23.80,0.21,0.03,-0.03,1721206258063
2.89,-2.62,0.70,-0.01,0.20,0.16,1721206258073
0.28,1.38,19.18,-0.27,0.07,0.02,1721206258083
3.49,4.83,8.95,0.38,0.10,-0.18,1721206258093
2.20,-2.56,-2.29,-0.05,0.12,-0.28,1721206258103
-0.67,-0.11,14.77,-0.03,0.11,-0.30,1721206258113
-3.08,3.55,15.41,0.07,0.18,-0.16,1721206258123
-3.24,1.75,9.21,0.02,0.04,0.19,1721206258133
1.25,-0.66,9.53,-0.09,0.27,0.29,1721206258143
6.25,-2.47,6.23,-0.11,0.22,-0.07,1721206258158
4.94,-0.96,10.19,-0.15,0.29,-0.32,1721206258163
0.93,3.81,10.25,0.20,0.02,-0.59,1721206258173
-4.93,-0.76,3.26,-0.05,0.05,-0.43,1721206258183
-7.51,-2.95,12.83,-0.20,0.13,0.09,1721206258193
-1.34,-1.54,12.62,-0.01,0.27,0.43,1721206258203
4.03,0.82,9.28,-0.02,0.23,0.26,1721206258213
3.96,-0.93,8.28,-0.13,0.07,-0.19,1721206258223
-0.55,1.73,10.95,0.02,0.09,-0.41,1721206258233
-3.98,0.23,6.52,0.01,0.09,-0.27,1721206258243
-5.05,-3.82,10.02,-0.15,0.14,0.13,1721206258253
-2.41,0.91,15.60,-0.09,0.17,0.35,1721206258263
1.94,3.52,12.43,0.02,0.11,0.28,1721206258273
3.48,1.95,7.11,-0.05,0.07,-0.03,1721206258283
0.62,-1.91,6.99,-0.08,-0.03,-0.15,1721206258293
-1.93,-0.56,11.47,-0.08,0.17,-0.11,1721206258303
-1.85,5.26,11.88,0.15,0.07,0.03,1721206258313
-1.81,-4.75,4.33,-0.21,-0.03,0.19,1721206258323
-2.45,-1.48,19.90,-0.18,0.21,0.22,1721206258333
2.19,2.84,15.40,0.13,0.13,0.12,1721206258343
1.88,6.11,11.42,0.07,-0.03,-0.02,1721206258353
-0.60,1.18,8.76,0.10,0.03,-0.05,1721206258363
-0.00,-2.20,12.11,0.07,0.09,0.05,1721206258373
1.20,2.07,14.03,0.15,0.01,0.24,1721206258383
1.10,4.78,5.54,0.13,-0.06,-0.01,1721206258393
-0.04,-5.41,10.08,-0.04,0.17,-0.26,1721206258403
-3.11,-0.45,11.96,0.11,-0.10,0.02,1721206258413
-3.13,3.12,6.43,0.08,0.08,0.15,1721206258423
-0.47,-4.17,7.79,-0.02,0.05,0.26,1721206258433
1.53,-1.29,11.20,0.05,0.12,0.19,1721206258443
2.36,4.50,9.13,0.17,-0.05,-0.02,1721206258453
-0.14,3.16,4.29,0.03,-0.07,-0.12,1721206258463
-2.08,-1.67,10.92,-0.09,0.13,-0.07,1721206258473
-1.86,-2.51,13.16,-0.04,0.03,0.15,1721206258483
-0.63,1.57,10.24,-0.02,-0.05,0.20,1721206258493
0.93,-1.38,9.89,-0.15,-0.01,0.12,1721206258503
0.42,0.74,13.25,0.06,0.00,0.01,1721206258513
0.66,1.73,6.43,0.13,-0.03,0.02,1721206258523
-0.58,0.11,6.98,-0.07,0.01,0.10,1721206258533
0.26,-0.10,12.41,-0.02,0.03,0.15,1721206258543
1.92,3.78,8.20,0.09,-0.03,0.12,1721206258553
3.05,-0.62,12.71,-0.24,0.18,-0.11,1721206258563
0.30,0.51,18.82,-0.03,-0.21,-0.11,1721206258573
-2.17,3.80,9.88,0.08,-0.03,-0.04,1721206258583
-1.70,-1.27,10.36,-0.15,0.06,0.04,1721206258593
-2.49,2.29,16.01,0.07,-0.04,0.11,1721206258603
0.45,3.56,8.46,0.14,0.03,0.14,1721206258613
0.36,0.54,6.85,0.07,-0.08,0.03,1721206258623
-0.45,-0.64,12.74,0.08,0.10,-0.03,1721206258633
-1.79,5.26,10.12,0.32,-0.12,0.09,1721206258643
-0.85,1.93,2.64,0.10,-0.04,0.21,1721206258653
-0.06,0.57,9.41,0.05,0.05,0.20,1721206258663
1.56,-0.95,7.86,0.06,-0.01,0.13,1721206258673
0.55,-1.44,11.32,-0.06,-0.00,0.03,1721206258683
-0.78,0.41,10.11,0.10,-0.13,-0.01,1721206258693
-0.80,-2.57,9.83,-0.05,0.06,0.08,1721206258703
-1.18,1.25,11.91,0.06,-0.09,0.14,1721206258713
0.67,1.18,8.60,0.01,-0.01,0.09,1721206258723
0.01,-1.59,8.81,-0.12,-0.10,0.01,1721206258733
-2.19,-3.16,13.30,-0.18,-0.07,-0.04,1721206258743
-2.93,1.49,9.86,0.08,-0.15,0.08,1721206258753
-0.62,-0.81,3.50,-0.11,0.03,0.25,1721206258763
0.40,-1.99,8.61,-0.19,-0.08,0.24,1721206258773
2.63,-2.57,11.00,-0.08,-0.07,0.09,1721206258783
1.74,0.58,14.21,-0.12,-0.05,-0.07,1721206258793
-0.46,2.59,13.20,-0.11,-0.18,-0.08,1721206258803
-1.99,4.24,7.43,0.03,-0.13,0.02,1721206258813
0.77,-5.93,4.26,-0.20,-0.01,0.19,1721206258823
-0.22,1.29,15.59,-0.04,-0.03,0.15,1721206258833
1.43,4.08,8.79,0.13,-0.11,0.11,1721206258843
2.03,1.49,11.05,-0.14,0.06,-0.02,1721206258853
1.02,1.70,14.92,0.00,-0.14,-0.03,1721206258863
-0.82,-0.27,10.41,-0.02,-0.10,-0.04,1721206258873
-1.47,0.48,8.22,0.09,-0.12,0.03,1721206258883
0.64,2.45,9.54,0.14,0.09,0.05,1721206258893
1.53,1.22,7.73,0.19,-0.09,0.03,1721206258903
0.47,-2.82,9.14,0.04,-0.03,-0.07,1721206258913
0.19,-1.03,12.02,0.18,-0.04,-0.10,1721206258923
-0.36,2.88,12.58,0.21,-0.03,0.02,1721206258933
0.24,4.28,11.19,0.24,-0.00,0.06,1721206258943
1.62,-1.13,7.10,0.23,-0.01,0.01,1721206258953
0.91,-1.21,8.69,0.11,0.05,-0.18,1721206258963
-0.83,2.18,12.23,0.18,-0.04,-0.22,1721206258973
-1.59,3.64,10.90,0.16,-0.00,-0.05,1721206258983
-0.17,-1.53,6.77,0.11,-0.00,0.06,1721206258993
1.13,-0.82,8.49,0.02,0.05,0.04,1721206259003
1.15,-0.79,10.24,0.00,0.04,-0.17,1721206259013
-0.04,-1.60,12.73,0.03,-0.02,-0.22,1721206259023
-1.49,1.57,9.93,0.15,0.02,-0.09,1721206259033
-1.17,0.32,8.55,0.01,0.06,-0.01,1721206259043
-0.35,-1.51,12.14,0.00,0.02,0.02,1721206259053
0.74,-3.34,10.47,-0.00,0.08,-0.01,1721206259063
0.71,4.21,11.37,0.15,0.04,-0.03,1721206259073
1.79,-0.59,8.49,0.02,0.08,-0.09,1721206259083
-0.14,0.88,9.57,0.08,-0.06,-0.16,1721206259093
-0.51,-1.46,8.78,-0.02,0.08,-0.18,1721206259103
-1.96,5.07,11.98,0.06,0.01,-0.10,1721206259113
-1.45,1.96,10.24,-0.05,0.07,-0.06,1721206259123
-1.62,-1.30,3.24,-0.06,-0.10,0.00,1721206259133
-0.31,-1.48,7.69,-0.30,0.20,-0.00,1721206259143
1.21,-1.17,18.05,-0.18,0.12,0.04,1721206259153
0.51,1.84,11.01,-0.05,-0.17,-0.02,1721206259163
0.31,1.55,9.33,-0.26,0.10,-0.10,1721206259173
-0.19,-1.36,12.49,-0.23,-0.02,-0.10,1721206259183
-0.50,-1.26,11.88,-0.24,0.03,-0.09,1721206259193
-0.08,-0.29,9.56,-0.18,-0.03,-0.11,1721206259203
-0.24,1.59,9.89,-0.18,0.03,-0.08,1721206259213
-0.53,3.79,14.50,-0.12,0.09,-0.14,1721206259223
-0.82,-0.80,8.22,-0.11,-0.15,-0.06,1721206259233
-0.09,3.69,6.16,-0.14,0.10,-0.00,1721206259243
3.12,-5.02,7.18,-0.33,0.13,-0.09,1721206259253
0.91,1.20,14.45,-0.06,-0.02,-0.23,1721206259263
-0.31,0.39,4.88,0.03,-0.08,-0.32,1721206259273
-3.36,2.47,10.02,-0.13,0.04,-0.28,1721206259283
-2.54,-1.93,12.81,-0.16,0.09,-0.03,1721206259293
-0.88,-0.39,11.59,-0.11,-0.02,0.17,1721206259303
2.48,1.70,9.27,-0.08,0.11,0.09,1721206259313
3.38,-2.11,12.34,-0.29,0.04,-0.19,1721206259323
-0.28,0.58,18.12,-0.18,-0.11,-0.35,1721206259333
-2.06,1.17,12.04,-0.05,-0.05,-0.26,1721206259343
-2.48,-0.16,7.77,-0.13,0.04,0.00,1721206259353
-0.46,1.13,13.85,-0.00,0.09,0.11,1721206259363
1.00,3.15,9.80,0.16,-0.00,-0.00,1721206259373
1.56,-0.76,8.23,0.12,0.12,-0.19,1721206259383
-0.01,-0.48,11.50,0.14,0.04,-0.23,1721206259393
-0.94,6.13,15.45,0.22,0.06,-0.15,1721206259403
-1.25,8.22,8.33,0.45,-0.08,-0.10,1721206259413
-0.94,-3.57,4.35,0.21,0.06,-0.08,1721206259423
-0.59,-1.55,12.48,0.16,0.08,0.03,1721206259433
0.83,2.36,10.65,0.25,0.09,-0.08,1721206259443
0.37,0.23,13.01,0.08,0.03,-0.25,1721206259453
-3.15,1.19,8.90,0.28,-0.11,-0.18,1721206259463
-2.07,0.47,4.06,0.28,0.11,-0.01,1721206259473
-0.20,-3.16,6.79,0.18,-0.01,0.17,1721206259483
1.89,-3.85,8.80,0.06,0.20,0.08,1721206259493
2.91,3.68,18.36,0.33,0.17,-0.13,1721206259503
-1.15,-4.20,-1.57,0.09,-0.39,-0.28,1721206259513
-1.63,4.48,14.32,0.14,0.55,-0.35,1721206259523
-0.16,-7.59,8.55,0.21,-0.34,0.20,1721206259533
-4.26,-3.58,6.04,-0.18,0.10,0.18,1721206259543
3.72,1.66,14.13,0.19,0.24,-0.04,1721206259553
3.64,0.18,9.86,-0.00,-0.11,-0.26,1721206259563
-3.58,2.27,6.68,0.08,-0.14,-0.55,1721206259573
