AccX,AccY,AccZ,GyrX,GyrY,GyrZ,Time
2.36,-2.51,9.23,-0.04,-0.17,0.17,1721206607156
2.75,-2.11,10.78,-0.05,-0.19,0.08,1721206607161
2.79,-0.72,9.79,0.01,-0.24,0.06,1721206607171
3.23,0.34,10.15,0.02,-0.09,-0.03,1721206607181
3.71,-0.98,9.72,-0.02,-0.10,-0.23,1721206607191
1.34,-2.96,8.93,-0.01,-0.21,-0.34,1721206607201
-0.16,-7.03,11.94,0.13,-0.00,-0.31,1721206607211
-1.66,4.62,11.03,0.18,-0.07,-0.19,1721206607221
-0.26,3.16,12.45,-0.00,0.10,-0.28,1721206607231
-2.54,-3.34,12.62,-0.01,-0.25,-0.42,1721206607241
-6.12,0.76,9.63,-0.06,-0.27,-0.28,1721206607251
-7.27,-0.89,5.85,-0.19,-0.37,0.02,1721206607261
-3.01,5.23,12.52,0.24,0.11,0.32,1721206607271
3.10,-3.32,-4.31,-0.12,-0.22,0.01,1721206607281
-4.69,7.36,5.24,-0.23,-0.28,-0.47,1721206607291
2.39,-3.09,22.86,0.06,0.43,-0.37,1721206607301
3.63,-1.44,18.82,0.23,-0.09,-0.18,1721206607311
0.58,1.04,3.00,0.03,-0.47,-0.23,1721206607321
-2.01,1.46,4.44,-0.16,-0.14,-0.35,1721206607331
1.36,-2.40,16.83,0.04,0.22,-0.42,1721206607341
1.90,1.29,10.57,0.16,-0.10,-0.44,1721206607351
-0.39,1.99,8.16,-0.04,-0.07,-0.54,1721206607361
-1.98,-1.83,9.74,-0.04,-0.10,-0.47,1721206607371
-3.19,-3.47,13.91,-0.07,-0.08,-0.34,1721206607381
-2.60,-0.15,11.30,0.15,-0.13,-0.30,1721206607391
-0.98,2.28,5.60,0.09,-0.07,-0.33,1721206607401
-0.05,-0.28,10.19,-0.04,0.00,-0.36,1721206607411
0.04,-0.84,14.27,0.05,-0.06,-0.39,1721206607421
-0.51,1.24,10.30,0.05,-0.10,-0.47,1721206607431
-3.17,0.41,7.63,-0.03,-0.17,-0.52,1721206607441
-5.34,1.93,9.65,0.07,-0.16,-0.49,1721206607451
-3.91,-1.99,5.69,-0.11,-0.17,-0.27,1721206607461
-4.30,2.76,15.84,0.07,-0.22,-0.25,1721206607471
-2.81,-0.42,7.32,0.06,-0.26,-0.38,1721206607481
-1.07,0.47,14.69,0.08,-0.25,-0.08,1721206607491
6.36,-2.86,10.42,-0.25,0.05,0.06,1721206607501
5.95,2.64,17.06,0.03,-0.27,-0.61,1721206607511
0.45,-0.29,3.76,0.09,-0.27,-1.44,1721206607521
-11.74,-1.13,5.19,-0.09,-0.34,-1.25,1721206607531
-16.41,-0.03,8.76,0.11,-0.32,-0.18,1721206607541
-8.97,0.94,7.86,0.01,-0.04,0.63,1721206607551
2.54,3.15,13.38,0.04,-0.11,0.73,1721206607561
11.15,3.20,10.54,-0.01,-0.11,0.29,1721206607571
14.17,1.91,12.97,-0.05,-0.08,-0.35,1721206607581
9.50,2.04,7.02,0.09,-0.33,-0.94,1721206607591
2.89,0.07,7.24,-0.05,-0.07,-1.11,1721206607601
-2.83,0.46,10.49,0.01,-0.22,-0.63,1721206607611
-1.33,2.55,12.55,0.05,0.20,-0.29,1721206607621
1.74,3.15,9.62,0.01,-0.08,-0.39,1721206607631
0.85,3.45,9.72,-0.07,-0.03,-0.69,1721206607641
-1.72,1.94,10.97,-0.03,0.04,-0.77,1721206607651
-5.68,2.90,8.71,-0.06,-0.08,-0.63,1721206607661
-8.06,1.52,3.21,-0.14,-0.19,-0.34,1721206607671
-5.16,-0.12,17.38,-0.14,0.12,-0.08,1721206607681
1.25,0.46,12.44,0.14,-0.07,0.08,1721206607691
3.50,4.31,7.39,-0.05,-0.03,-0.20,1721206607701
4.62,0.86,12.13,-0.07,-0.10,-0.47,1721206607711
2.00,-0.87,11.27,0.03,-0.14,-0.54,1721206607721
-0.16,-0.14,8.47,-0.03,-0.00,-0.50,1721206607731
-0.71,-1.25,7.35,-0.10,-0.03,-0.43,1721206607741
0.32,-0.34,11.84,-0.03,0.02,-0.40,1721206607751
0.80,-0.53,10.07,-0.06,0.07,-0.51,1721206607761
-1.13,-1.10,8.95,-0.08,-0.03,-0.61,1721206607771
-3.09,-0.94,12.43,-0.10,0.05,-0.53,1721206607781
-3.76,-4.17,8.48,-0.09,-0.05,-0.35,1721206607791
-3.01,-1.39,9.27,-0.13,0.03,-0.28,1721206607801
-0.08,-4.31,9.28,-0.21,0.07,-0.27,1721206607811
0.13,0.01,12.20,-0.17,0.04,-0.40,1721206607821
-0.24,-2.12,9.47,-0.19,-0.04,-0.47,1721206607831
-1.79,-1.88,11.34,-0.22,-0.05,-0.49,1721206607841
-1.94,-0.40,11.27,-0.12,-0.05,-0.32,1721206607851
0.24,-1.45,9.57,-0.15,0.08,-0.26,1721206607861
-0.14,0.52,11.42,-0.10,-0.03,-0.38,1721206607871
-1.04,0.48,11.53,-0.04,0.02,-0.47,1721206607881
-2.73,1.97,11.64,0.11,-0.10,-0.42,1721206607891
-2.09,0.27,8.95,0.04,0.01,-0.16,1721206607901
-0.04,-0.11,11.42,0.10,-0.05,0.02,1721206607911
2.09,2.98,11.32,0.13,0.01,-0.05,1721206607921
3.14,1.51,9.63,0.12,-0.04,-0.24,1721206607931
0.81,1.61,11.21,0.13,-0.06,-0.35,1721206607941
-0.03,-0.00,11.30,0.12,0.04,-0.30,1721206607951
-1.81,1.98,11.18,0.22,-0.10,-0.14,1721206607961
-0.51,1.44,8.29,0.20,0.04,-0.01,1721206607971
1.06,-0.38,9.99,0.15,0.01,-0.04,1721206607981
0.14,2.61,10.78,0.22,-0.06,-0.15,1721206607991
-1.26,-1.54,7.11,0.14,-0.05,-0.17,1721206608001
-2.07,0.76,11.62,0.07,0.00,-0.01,1721206608011
0.29,0.33,10.34,0.07,0.01,0.22,1721206608021
3.56,-0.89,8.47,0.01,0.04,0.19,1721206608031
5.90,0.47,9.43,0.04,0.09,-0.09,1721206608041
5.28,-0.32,8.00,-0.03,-0.00,-0.34,1721206608051
0.92,-0.93,10.00,-0.07,-0.00,-0.48,1721206608061
-1.83,-0.78,10.90,-0.06,0.06,-0.46,1721206608071
-2.98,-1.62,10.50,-0.07,-0.02,-0.19,1721206608081
-1.77,0.27,9.84,-0.11,0.06,0.00,1721206608091
0.51,-1.39,10.39,-0.17,0.07,-0.11,1721206608101
0.56,1.47,10.46,-0.07,0.02,-0.27,1721206608111
0.42,-1.60,7.51,-0.20,0.06,-0.27,1721206608121
-0.71,0.00,11.27,-0.16,-0.03,-0.24,1721206608131
-0.06,-2.60,9.07,-0.13,0.01,-0.10,1721206608141
0.36,-2.46,9.70,-0.24,0.06,-0.15,1721206608151
0.27,1.39,12.27,-0.10,-0.04,-0.18,1721206608161
0.18,-0.52,7.91,-0.15,-0.00,-0.22,1721206608171
-0.36,-0.47,10.58,-0.22,0.06,-0.17,1721206608181
-0.08,-0.24,10.39,-0.17,-0.01,-0.09,1721206608191
1.46,-0.55,9.62,-0.23,0.11,-0.10,1721206608201
1.91,-1.03,12.11,-0.21,0.06,-0.13,1721206608211
1.79,0.44,11.54,-0.13,0.06,-0.19,1721206608221
1.72,-0.70,9.77,-0.13,0.10,-0.30,1721206608231
0.81,0.70,11.20,-0.09,0.05,-0.33,1721206608241
0.18,2.12,11.99,-0.05,0.09,-0.37,1721206608251
0.04,2.78,11.20,0.03,0.11,-0.40,1721206608261
-0.01,-0.99,9.45,0.02,0.12,-0.37,1721206608271
-0.02,0.69,11.49,0.07,0.18,-0.39,1721206608281
0.21,1.49,11.26,0.15,0.17,-0.45,1721206608291
-0.13,2.05,9.31,0.18,0.12,-0.50,1721206608301
0.52,1.31,10.10,0.18,0.21,-0.49,1721206608311
-0.17,-1.76,10.09,0.15,0.12,-0.51,1721206608321
0.29,-1.13,11.61,0.13,0.25,-0.56,1721206608331
0.20,1.93,12.17,0.27,0.17,-0.61,1721206608341
-0.74,-0.02,9.30,0.20,0.17,-0.63,1721206608351
-0.91,-0.60,10.60,0.15,0.26,-0.60,1721206608361
-0.40,1.15,12.51,0.22,0.23,-0.53,1721206608371
-1.04,-1.44,7.97,0.17,0.13,-0.58,1721206608381
-0.41,-2.00,9.60,0.15,0.33,-0.63,1721206608391
-0.71,-1.63,9.86,0.15,0.18,-0.60,1721206608401
-1.14,-1.57,9.35,0.18,0.26,-0.60,1721206608411
-0.02,-0.43,10.59,0.17,0.33,-0.56,1721206608421
-0.39,-1.33,10.27,0.06,0.22,-0.53,1721206608431
0.00,1.09,10.20,0.18,0.27,-0.58,1721206608441
1.19,-4.11,8.11,0.04,0.33,-0.63,1721206608451
-1.29,-1.19,9.55,0.02,0.24,-0.74,1721206608461
-1.85,0.23,10.86,0.12,0.36,-0.76,1721206608471
-1.98,-1.54,10.60,0.04,0.31,-0.60,1721206608481
-3.64,-0.34,9.39,0.10,0.24,-0.53,1721206608491
-1.47,0.44,9.70,0.07,0.42,-0.58,1721206608501
-0.86,1.57,13.23,0.05,0.25,-0.60,1721206608511
-3.39,2.15,8.76,0.15,0.18,-0.67,1721206608521
-3.05,-1.87,7.20,-0.01,0.33,-0.60,1721206608531
-2.68,-1.77,11.19,-0.01,0.27,-0.53,1721206608541
-1.56,4.17,9.48,0.19,0.33,-0.50,1721206608551
-0.33,0.92,7.49,0.03,0.30,-0.58,1721206608561
-2.64,0.77,11.94,0.04,0.20,-0.62,1721206608571
-2.87,-0.81,8.77,0.11,0.24,-0.49,1721206608581
-1.91,0.07,10.80,0.00,0.31,-0.40,1721206608591
-0.97,1.43,11.04,0.03,0.24,-0.40,1721206608601
-1.23,1.94,9.00,0.03,0.24,-0.40,1721206608611
-2.02,2.23,8.36,0.04,0.27,-0.38,1721206608621
-1.59,-0.40,9.93,-0.09,0.25,-0.28,1721206608631
-2.50,-0.68,11.81,-0.11,0.15,-0.16,1721206608641
-1.09,2.79,11.57,-0.01,0.29,-0.09,1721206608651
0.28,-0.48,9.29,-0.13,0.17,-0.09,1721206608661
-1.95,-1.65,7.83,-0.14,0.04,-0.09,1721206608671
-1.68,0.11,11.68,-0.18,0.32,-0.14,1721206608681
-2.53,0.32,10.16,-0.11,0.09,-0.10,1721206608691
-4.74,-1.79,8.72,-0.26,0.13,0.08,1721206608701
-3.37,-0.55,10.95,-0.18,0.21,0.23,1721206608711
-0.78,-0.48,10.69,-0.17,0.10,0.37,1721206608721
0.27,-1.18,7.62,-0.20,0.04,0.38,1721206608731
0.83,-1.04,11.38,-0.26,0.16,0.21,1721206608741
0.55,-1.58,11.89,-0.18,-0.04,0.23,1721206608751
-0.82,-1.67,10.90,-0.27,0.09,0.19,1721206608761
-2.00,2.79,12.08,-0.11,-0.05,0.25,1721206608771
-2.56,-3.46,6.61,-0.20,-0.03,0.37,1721206608781
-2.16,2.26,12.25,-0.12,0.12,0.48,1721206608791
-0.30,-4.26,6.73,-0.10,-0.08,0.57,1721206608801
-1.27,-0.84,10.67,-0.17,0.02,0.44,1721206608811
-0.63,2.46,12.71,-0.06,-0.11,0.41,1721206608821
-0.21,0.41,13.24,-0.17,-0.07,0.54,1721206608831
-0.17,0.39,10.61,-0.05,-0.17,0.60,1721206608841
0.28,-1.95,7.27,-0.11,-0.04,0.49,1721206608851
-0.89,0.39,9.48,0.01,-0.16,0.41,1721206608861
0.47,1.36,10.80,0.01,-0.02,0.41,1721206608871
-0.00,0.23,13.00,0.08,-0.22,0.57,1721206608881
-0.06,-0.26,7.75,0.11,-0.21,0.63,1721206608891
2.96,-3.21,9.28,-0.09,0.06,0.56,1721206608901
1.81,-1.15,11.80,0.05,-0.20,0.45,1721206608911
1.97,-3.52,8.44,0.02,-0.08,0.32,1721206608921
0.99,-1.08,12.31,0.12,-0.15,0.30,1721206608931
1.37,-0.48,11.13,0.11,-0.06,0.33,1721206608941
0.13,3.73,13.18,0.04,-0.10,0.28,1721206608951
0.98,0.78,11.30,0.06,-0.18,0.48,1721206608961
2.37,-5.99,8.92,-0.07,0.02,0.42,1721206608971
2.07,-3.64,14.28,-0.10,-0.01,0.25,1721206608981
-0.26,1.36,12.01,0.13,-0.22,0.19,1721206608991
0.31,1.66,8.54,0.05,-0.07,0.32,1721206609001
1.00,2.46,12.97,0.08,-0.02,0.46,1721206609011
3.20,-2.13,6.73,0.13,0.00,0.44,1721206609021
3.69,-0.19,11.35,0.02,0.05,0.25,1721206609031
2.30,4.98,13.19,0.21,-0.07,0.11,1721206609041
1.59,-2.61,7.98,0.03,-0.03,0.07,1721206609051
-0.60,-2.24,13.14,0.08,-0.02,0.07,1721206609061
-0.96,1.70,7.33,0.32,-0.08,0.25,1721206609071
0.22,2.07,9.25,0.07,0.13,0.20,1721206609081
0.06,3.31,15.09,0.21,-0.08,0.17,1721206609091
0.33,0.17,8.64,0.16,0.05,0.06,1721206609101
-0.40,-2.16,8.49,0.10,-0.04,0.09,1721206609111
-2.71,2.02,10.60,0.13,-0.04,0.03,1721206609121
-2.02,2.99,10.81,0.13,-0.04,0.10,1721206609131
-0.87,0.15,8.41,0.11,-0.15,0.31,1721206609141
1.65,-0.61,8.88,-0.00,0.09,0.31,1721206609151
2.59,1.75,12.12,0.01,-0.04,-0.01,1721206609166
1.68,1.89,10.55,0.05,-0.14,-0.06,1721206609170
1.49,-1.03,6.70,-0.05,-0.01,-0.03,1721206609180
0.76,0.43,9.87,-0.04,-0.08,0.08,1721206609190
1.75,-2.98,6.56,-0.11,0.01,0.10,1721206609200
2.26,-1.67,12.67,-0.20,0.06,-0.02,1721206609210
3.01,1.15,12.55,-0.04,0.02,-0.08,1721206609220
2.17,1.41,8.32,-0.07,-0.00,-0.11,1721206609230
1.11,-0.76,8.10,-0.13,0.08,-0.17,1721206609240
1.20,-3.79,8.24,-0.18,0.09,-0.16,1721206609250
0.93,-1.27,11.27,-0.17,0.11,-0.18,1721206609260
0.58,1.23,11.98,-0.11,0.11,-0.28,1721206609270
-1.56,-2.21,8.04,-0.12,-0.02,-0.22,1721206609280
-1.81,-1.33,10.13,-0.22,0.26,-0.18,1721206609290
0.80,0.34,13.38,-0.12,0.18,-0.07,1721206609300
1.93,2.73,10.68,-0.03,0.12,-0.16,1721206609310
1.53,-0.19,7.65,-0.01,0.12,-0.35,1721206609320
0.40,-1.75,10.09,-0.05,0.27,-0.43,1721206609330
-0.56,-2.50,12.22,0.01,0.13,-0.37,1721206609340
-2.52,2.11,12.09,0.07,0.13,-0.39,1721206609350
-0.76,4.98,12.45,0.19,0.26,-0.36,1721206609360
-1.35,0.57,7.98,0.14,0.04,-0.25,1721206609370
-2.57,-3.73,4.96,0.10,0.19,-0.28,1721206609380
-0.52,-4.35,12.17,0.04,0.34,-0.33,1721206609390
-2.49,1.83,13.48,0.26,0.03,-0.29,1721206609400
-1.88,0.63,11.24,0.20,0.23,-0.27,1721206609410
-1.98,1.51,11.01,0.28,0.05,-0.18,1721206609420
-1.17,-1.76,7.38,0.16,0.17,-0.12,1721206609430
-0.70,-1.91,6.81,0.15,0.16,-0.18,1721206609440
0.28,-3.51,9.06,0.06,0.26,-0.29,1721206609450
-1.97,-1.45,13.70,0.16,0.07,-0.31,1721206609460
-2.49,1.47,11.94,0.19,0.25,-0.27,1721206609470
-2.73,0.89,10.27,0.07,0.06,-0.16,1721206609480
-2.56,2.11,9.25,0.02,0.08,-0.14,1721206609490
-1.29,-2.50,5.98,0.05,0.02,-0.08,1721206609500
-0.11,-4.62,9.92,-0.06,0.23,-0.09,1721206609510
-0.28,3.19,11.85,0.26,0.08,-0.20,1721206609520
-1.04,0.73,5.95,-0.02,0.06,-0.23,1721206609530
-3.48,2.32,12.61,0.02,0.06,-0.19,1721206609540
-1.05,-3.46,6.64,0.10,0.14,-0.06,1721206609550
0.93,-1.06,13.20,0.04,0.24,0.04,1721206609560
2.03,4.48,10.12,0.27,0.04,-0.05,1721206609570
0.67,2.89,9.85,-0.03,0.14,-0.30,1721206609580
-3.24,2.70,11.08,0.11,-0.11,-0.28,1721206609590
-4.09,-3.37,7.23,-0.15,0.13,-0.08,1721206609600
-4.85,-1.23,11.18,-0.06,-0.05,0.14,1721206609610
-1.69,-0.34,9.31,-0.06,0.15,0.22,1721206609620
-0.25,3.63,12.38,0.04,0.08,0.19,1721206609630
0.24,-0.50,6.40,-0.02,-0.01,0.16,1721206609640
-0.58,-1.96,10.32,-0.18,0.10,0.09,1721206609650
-0.88,-1.83,11.94,-0.11,-0.03,0.13,1721206609660
-0.75,0.62,12.54,-0.13,0.05,0.23,1721206609670
-0.35,0.49,11.05,-0.06,-0.03,0.25,1721206609680
-0.27,0.76,8.55,-0.12,0.00,0.23,1721206609690
-0.28,-1.26,8.78,-0.22,0.00,0.19,1721206609700
-0.91,-0.08,12.16,-0.19,-0.04,0.26,1721206609710
-0.21,-3.71,9.85,-0.25,-0.05,0.32,1721206609720
-0.41,-3.07,12.11,-0.24,-0.03,0.28,1721206609730
-0.66,1.42,10.74,-0.15,-0.03,0.20,1721206609740
-1.62,0.74,9.84,-0.23,-0.13,0.17,1721206609750
-1.17,-0.59,10.74,-0.19,-0.12,0.30,1721206609760
1.47,-2.78,10.87,-0.15,-0.00,0.44,1721206609770
0.72,-0.66,11.95,-0.10,-0.07,0.41,1721206609780
-0.99,1.99,12.58,-0.06,-0.10,0.31,1721206609790
0.81,0.11,12.03,-0.03,-0.07,0.40,1721206609800
-0.20,-0.81,8.18,0.04,-0.15,0.27,1721206609810
0.77,0.71,10.33,0.04,-0.04,0.22,1721206609820
1.21,3.66,9.53,0.20,-0.16,0.29,1721206609830
2.23,-4.83,8.15,-0.06,-0.02,0.36,1721206609840
1.68,-2.48,14.32,0.09,-0.07,0.24,1721206609850
0.97,-1.98,8.90,0.20,-0.16,0.13,1721206609860
-0.07,2.56,12.07,0.13,-0.04,0.13,1721206609870
-0.25,2.17,8.87,0.22,-0.13,0.18,1721206609880
1.83,-2.71,8.32,0.05,0.01,0.21,1721206609890
0.80,-0.16,12.54,0.11,-0.06,0.07,1721206609900
1.22,-1.99,10.99,0.07,-0.05,0.08,1721206609910
-0.47,2.64,12.39,0.13,-0.07,0.18,1721206609920
1.12,1.64,7.04,0.11,0.02,0.31,1721206609930
2.86,0.18,9.17,-0.01,0.07,0.23,1721206609940
3.19,-3.38,9.00,0.02,-0.05,0.00,1721206609950
2.22,-2.90,12.63,-0.01,0.08,-0.14,1721206609960
-1.07,2.79,13.06,0.31,-0.10,-0.14,1721206609970
-0.67,-1.07,6.19,0.23,0.10,-0.05,1721206609980
-1.65,1.72,12.25,0.19,-0.01,-0.02,1721206609990
-1.17,3.74,10.97,0.15,0.05,0.02,1721206610000
-0.94,4.50,11.85,0.10,0.01,0.05,1721206610010
1.13,-0.33,8.94,0.06,0.07,0.17,1721206610020
2.93,-2.10,7.76,0.04,0.14,0.03,1721206610030
2.27,-0.34,11.09,-0.00,0.09,-0.26,1721206610040
0.00,6.58,12.22,0.17,0.02,-0.35,1721206610050
-1.13,4.77,5.80,0.08,0.00,-0.14,1721206610060
-0.05,-1.29,6.94,-0.17,0.17,-0.10,1721206610070
0.87,-2.95,10.75,-0.16,0.04,-0.09,1721206610080
1.21,-3.65,8.00,-0.18,0.07,-0.23,1721206610090
-0.14,1.56,15.47,-0.14,0.12,-0.36,1721206610100
-2.27,1.24,7.51,0.02,-0.08,-0.22,1721206610110
-0.14,-1.00,11.19,-0.38,0.35,-0.02,1721206610120
1.91,-2.56,13.64,-0.13,0.03,0.08,1721206610130
2.56,-4.39,4.96,-0.22,0.12,-0.06,1721206610140
0.57,0.36,10.86,-0.10,0.16,-0.32,1721206610150
-0.71,0.45,9.13,-0.04,0.03,-0.40,1721206610160
-2.74,1.03,9.57,-0.16,0.08,-0.18,1721206610170
-1.15,-0.91,12.90,-0.18,0.17,0.09,1721206610180
0.46,-3.00,12.72,-0.14,0.14,0.08,1721206610190
0.67,-0.88,10.68,-0.05,0.13,-0.12,1721206610200
0.13,2.70,12.72,0.03,0.13,-0.25,1721206610210
-2.66,0.06,9.18,0.07,-0.10,-0.21,1721206610220
-3.78,-3.01,9.87,-0.00,0.14,0.04,1721206610230
-2.15,-2.54,8.58,0.18,0.06,0.27,1721206610240
-0.05,-0.98,8.55,0.13,0.16,0.18,1721206610250
-0.51,3.36,9.20,0.29,-0.00,-0.03,1721206610260
0.21,-3.14,6.51,-0.04,0.12,-0.07,1721206610270
-2.97,-5.73,15.07,-0.10,-0.09,0.01,1721206610280
-1.97,-6.15,15.71,0.10,0.11,0.11,1721206610290
-2.08,0.63,11.37,0.20,0.01,0.16,1721206610300
-1.88,4.73,4.60,0.21,-0.16,0.18,1721206610310
-1.16,-5.12,6.92,-0.21,0.01,0.11,1721206610320
-1.11,-6.43,18.50,-0.24,-0.05,0.14,1721206610330
-0.92,1.42,13.56,0.19,-0.02,0.05,1721206610340
-1.96,5.80,7.09,0.15,-0.16,0.08,1721206610350
-3.14,3.58,2.36,0.15,-0.37,0.36,1721206610360
2.10,-3.69,9.60,-0.08,0.20,0.43,1721206610370
3.02,-1.22,13.92,0.01,-0.24,0.18,1721206610380
1.68,3.92,10.35,0.10,-0.10,-0.15,1721206610390
-1.17,7.35,9.72,0.23,-0.17,-0.18,1721206610400
-3.45,1.57,4.92,0.05,-0.23,0.13,1721206610410
-0.49,-0.26,11.33,-0.07,-0.00,0.37,1721206610420
-0.18,-2.21,10.88,-0.04,-0.19,0.12,1721206610430
-1.40,5.43,14.26,0.00,-0.12,0.02,1721206610440
-1.47,5.80,8.34,0.26,-0.27,0.23,1721206610450
0.60,-0.85,6.88,-0.06,-0.08,0.46,1721206610460
9.25,-3.42,13.13,0.02,0.09,0.78,1721206610470
11.15,0.20,9.34,-0.23,0.04,0.08,1721206610480
3.44,5.88,14.73,-0.17,-0.32,-0.82,1721206610490
-4.03,-0.26,7.13,0.05,-0.37,-0.99,1721206610500
-12.18,-9.84,1.26,-0.15,-0.32,-0.22,1721206610510
-11.36,-4.50,6.51,-0.17,0.13,0.49,1721206610520
-2.49,-1.24,18.77,-0.41,0.20,0.59,1721206610530
2.04,5.27,20.37,-0.01,-0.32,0.53,1721206610540
5.19,3.43,3.12,0.05,-0.22,0.41,1721206610550
7.88,-4.13,4.44,-0.39,0.10,0.01,1721206610560
2.26,-5.48,15.52,-0.44,-0.24,-0.40,1721206610570
-2.43,1.16,15.20,-0.08,-0.24,-0.49,1721206610580
-2.47,2.60,5.77,0.14,-0.29,-0.07,1721206610590
-0.55,0.82,1.58,-0.02,-0.04,0.38,1721206610600
2.81,-0.95,11.90,-0.16,0.18,0.14,1721206610610
2.00,-3.17,17.92,-0.17,-0.15,-0.32,1721206610620
-2.26,1.64,15.14,0.11,-0.26,-0.45,1721206610630
-3.35,5.22,7.76,0.23,-0.20,-0.12,1721206610640
-1.69,0.26,5.75,0.01,0.04,0.35,1721206610650
2.26,-1.83,13.04,-0.04,0.13,0.33,1721206610660
3.91,-4.50,12.69,0.05,-0.10,-0.04,1721206610670
2.84,3.89,13.21,0.21,-0.08,-0.33,1721206610680
0.97,6.39,5.32,0.38,-0.18,-0.24,1721206610690
0.75,-1.43,2.90,0.03,0.10,-0.23,1721206610700
0.52,-5.28,14.80,-0.06,-0.01,-0.27,1721206610710
-1.18,-0.07,16.71,0.10,-0.02,-0.38,1721206610720
-2.30,2.22,10.79,0.24,-0.18,-0.18,1721206610730
0.10,0.24,4.15,0.20,0.04,0.02,1721206610740
2.84,-1.33,7.90,0.11,0.18,0.01,1721206610750
2.35,-0.99,15.17,0.09,0.04,-0.34,1721206610760
0.15,1.82,13.02,0.28,-0.10,-0.39,1721206610770
-0.61,8.05,9.98,0.29,0.14,-0.21,1721206610780
1.47,-0.67,3.89,0.04,0.09,0.04,1721206610790
1.83,-2.61,12.55,-0.18,0.20,-0.17,1721206610800
2.02,-6.90,15.26,0.07,0.02,-0.48,1721206610810
-1.87,1.35,10.14,0.25,-0.02,-0.40,1721206610820
-2.31,4.18,0.62,0.24,0.10,-0.15,1721206610830
0.81,-3.51,6.38,-0.07,0.33,-0.12,1721206610840
-0.19,-1.27,14.14,0.08,0.01,-0.26,1721206610850
-1.41,1.42,12.99,0.09,0.22,-0.48,1721206610860
-3.78,3.43,11.42,0.13,-0.01,-0.26,1721206610870
-3.24,-0.45,3.09,-0.08,0.04,0.11,1721206610880
0.62,-5.25,11.45,-0.24,0.31,0.07,1721206610890
2.38,-5.23,12.02,-0.05,0.03,-0.14,1721206610900
0.95,1.14,12.01,-0.03,0.10,-0.37,1721206610910
0.04,4.87,11.01,0.05,0.09,-0.29,1721206610920
-1.08,0.63,9.99,-0.23,0.14,-0.17,1721206610930
-1.64,-2.55,12.17,-0.10,0.03,-0.10,1721206610940
0.11,-0.85,8.49,-0.10,0.20,-0.14,1721206610950
-1.03,6.36,11.66,-0.04,0.02,-0.14,1721206610960
-0.46,6.47,9.59,-0.04,0.07,-0.06,1721206610970
0.42,-2.33,7.86,-0.22,0.08,-0.02,1721206610980
-0.04,-3.31,9.34,-0.18,0.11,-0.10,1721206610990
0.40,1.06,11.10,-0.15,0.11,-0.17,1721206611000
0.27,7.09,13.52,-0.01,0.03,-0.09,1721206611010
0.07,0.51,6.50,-0.08,0.07,-0.13,1721206611020
-1.02,-6.10,11.51,-0.43,0.13,-0.18,1721206611030
0.06,-0.95,18.92,-0.16,0.08,-0.10,1721206611040
0.59,0.67,10.10,-0.02,0.03,-0.05,1721206611050
-0.14,3.13,5.10,0.05,0.10,-0.16,1721206611060
0.13,0.30,8.09,0.01,0.14,-0.26,1721206611070
-1.59,-1.25,8.48,0.06,-0.00,-0.15,1721206611080
-0.52,-0.92,10.88,-0.07,0.24,0.05,1721206611090
0.29,3.26,12.68,-0.05,0.05,0.03,1721206611100
1.88,1.12,11.63,-0.07,0.11,-0.10,1721206611110
1.41,-1.55,12.80,-0.05,0.11,-0.14,1721206611120
1.07,-2.34,11.85,-0.08,0.14,-0.23,1721206611130
1.01,3.26,12.17,0.05,0.10,-0.26,1721206611140
-1.16,5.40,6.79,0.17,0.04,-0.32,1721206611150
-2.46,-1.42,4.78,0.07,0.15,-0.32,1721206611160
-2.61,-3.88,9.52,0.13,0.20,-0.07,1721206611175
-1.72,-1.84,10.80,0.17,0.24,-0.02,1721206611179
0.52,7.64,11.90,0.31,0.15,0.05,1721206611189
0.03,1.65,3.94,0.16,-0.04,-0.09,1721206611199
1.02,1.67,14.61,-0.07,0.43,-0.29,1721206611209
0.40,-7.51,14.90,-0.03,-0.22,-0.26,1721206611219
-5.29,-0.09,12.01,0.04,0.09,-0.10,1721206611229
-0.77,4.35,7.26,0.33,0.26,0.03,1721206611239
0.46,-1.98,6.01,-0.10,0.01,0.05,1721206611249
-1.09,-2.85,13.73,-0.02,0.10,-0.08,1721206611259
1.46,-1.33,15.59,0.08,0.32,-0.24,1721206611269
-1.92,1.45,11.13,0.09,-0.19,-0.14,1721206611279
-3.45,3.23,5.68,0.06,0.08,-0.04,1721206611289
-1.19,0.35,8.23,0.12,0.06,0.06,1721206611299
0.45,-7.02,5.81,0.10,-0.01,0.17,1721206611309
1.02,-6.19,10.90,-0.04,0.22,0.00,1721206611319
0.56,8.14,17.13,0.23,0.10,-0.24,1721206611329
-0.72,3.44,10.15,0.03,-0.05,-0.24,1721206611339
-4.73,-0.25,9.31,-0.03,-0.06,-0.09,1721206611349
-1.01,-6.46,10.86,-0.10,0.23,0.16,1721206611359
-0.83,-0.16,12.74,0.05,-0.14,0.24,1721206611369
1.33,3.23,5.05,0.14,0.05,0.06,1721206611379
1.29,0.92,9.71,-0.02,0.06,-0.14,1721206611389
-0.74,-2.44,10.97,0.09,-0.10,-0.13,1721206611399
-3.11,0.96,7.28,0.18,-0.07,0.03,1721206611409
-0.28,6.29,9.43,0.20,0.14,0.20,1721206611419
2.18,-2.17,9.88,-0.18,0.00,0.21,1721206611429
1.13,-1.84,15.20,-0.06,-0.06,0.02,1721206611439
3.34,-2.12,11.23,0.08,0.11,-0.13,1721206611449
0.19,2.90,11.68,0.00,-0.06,-0.20,1721206611459
-1.88,2.97,8.06,0.08,-0.07,-0.10,1721206611469
-0.60,-0.36,8.61,0.01,0.09,0.06,1721206611479
-0.57,1.12,7.69,0.10,-0.07,0.01,1721206611489
-0.58,1.67,11.37,-0.08,0.12,-0.12,1721206611499
-1.41,1.17,12.82,0.01,-0.06,-0.07,1721206611509
-2.54,0.36,9.38,-0.05,0.04,0.08,1721206611519
-0.59,-1.48,9.90,-0.01,0.04,0.20,1721206611529
2.10,-1.51,10.06,0.06,0.08,0.12,1721206611539
2.93,3.84,11.65,0.23,0.07,-0.02,1721206611549
0.69,2.04,5.92,0.08,-0.10,-0.10,1721206611559
-1.06,4.34,13.56,0.03,0.07,-0.10,1721206611569
-0.09,-4.30,5.82,0.01,-0.03,-0.02,1721206611579
-1.83,-0.96,10.39,-0.11,0.08,-0.11,1721206611589
-0.70,-2.53,11.43,-0.02,-0.05,-0.09,1721206611599
-0.71,-1.99,11.96,0.00,0.07,0.04,1721206611609
-0.13,0.33,13.48,-0.05,0.12,-0.05,1721206611619
-1.22,2.99,12.40,-0.02,-0.10,-0.09,1721206611629
-0.10,4.73,8.27,-0.11,0.21,-0.08,1721206611639
-1.91,-2.56,3.02,-0.19,-0.15,0.03,1721206611649
-2.72,-6.21,8.71,-0.33,0.04,0.09,1721206611659
0.23,-2.36,17.47,-0.19,0.20,0.08,1721206611669
0.65,-0.08,11.00,-0.04,-0.21,0.09,1721206611679
1.68,-1.15,6.76,-0.20,0.07,0.02,1721206611689
0.66,3.21,11.86,-0.11,0.00,-0.10,1721206611699
-1.42,3.53,9.47,0.01,-0.09,-0.10,1721206611709
-0.51,1.72,7.66,-0.11,0.16,-0.01,1721206611719
-2.70,-0.99,8.86,-0.18,-0.24,0.09,1721206611729
-0.98,-3.62,13.72,-0.36,0.14,0.17,1721206611739
-0.15,-3.78,15.68,-0.21,-0.11,0.18,1721206611749
0.79,3.06,10.39,0.05,-0.08,0.12,1721206611759
1.86,8.88,6.45,0.25,0.01,0.12,1721206611769
1.41,-1.22,3.98,-0.11,-0.06,0.05,1721206611779
-1.11,-4.38,15.65,-0.24,0.03,-0.13,1721206611789
-0.36,-4.98,17.13,-0.07,-0.02,-0.09,1721206611799
-2.23,7.33,11.60,0.25,-0.24,0.07,1721206611809
0.54,1.64,2.27,0.14,-0.02,0.30,1721206611819
2.78,-0.34,8.26,0.02,0.11,0.18,1721206611829
3.44,-5.69,9.23,0.07,-0.05,-0.07,1721206611839
0.26,-0.68,13.35,0.07,-0.01,-0.30,1721206611849
-1.37,4.87,11.54,0.27,-0.12,-0.17,1721206611859
-0.56,1.22,9.86,-0.02,0.03,0.13,1721206611869
1.39,-7.57,16.63,-0.20,0.10,0.15,1721206611879
0.30,-1.88,16.00,0.17,-0.12,-0.06,1721206611889
1.38,7.43,7.85,0.27,0.08,-0.09,1721206611899
1.54,3.22,4.95,0.06,0.07,-0.04,1721206611909
0.35,-7.19,10.59,-0.07,-0.02,0.01,1721206611919
0.45,-1.11,12.60,0.16,0.10,-0.16,1721206611929
0.66,1.33,9.31,0.13,-0.02,-0.15,1721206611939
-1.94,3.85,11.27,0.08,0.00,0.02,1721206611949
0.56,-1.69,10.03,0.04,0.11,0.11,1721206611959
1.75,-1.92,13.63,0.14,0.12,-0.04,1721206611969
0.43,2.04,9.07,0.22,0.02,-0.24,1721206611979
-2.05,1.76,9.51,0.06,0.02,-0.26,1721206611989
-2.60,0.92,12.68,0.07,0.08,-0.07,1721206611999
-1.11,-0.54,10.45,0.13,0.10,0.08,1721206612009
0.83,1.04,8.33,0.13,0.05,0.03,1721206612019
1.53,3.82,6.56,0.05,0.09,-0.16,1721206612029
0.59,-0.09,10.74,-0.11,0.09,-0.28,1721206612039
-1.56,-1.13,11.60,0.05,0.00,-0.26,1721206612049
-2.23,-1.02,7.94,0.02,0.02,-0.14,1721206612059
-2.14,2.44,12.35,-0.00,0.07,-0.06,1721206612069
-0.09,2.04,8.78,-0.02,-0.02,-0.02,1721206612079
0.58,-0.26,11.14,-0.11,0.05,-0.08,1721206612089
0.69,-2.90,9.47,-0.09,0.02,-0.17,1721206612099
-1.51,1.75,9.96,-0.03,-0.06,-0.24,1721206612109
-1.28,-1.61,8.78,-0.13,0.08,-0.11,1721206612119
-0.77,-1.19,9.47,-0.09,-0.03,0.05,1721206612129
2.48,-2.87,10.47,-0.15,0.18,0.06,1721206612139
3.43,-1.07,11.34,-0.03,0.01,-0.08,1721206612149
1.70,5.26,9.05,-0.03,0.04,-0.32,1721206612159
0.58,2.45,10.74,-0.20,0.04,-0.30,1721206612169
-1.16,-4.80,9.91,-0.35,0.05,-0.13,1721206612179
-0.43,-0.88,14.27,-0.25,0.12,-0.02,1721206612189
0.68,-2.81,7.97,-0.17,0.07,-0.07,1721206612199
1.44,2.23,10.45,-0.19,0.22,-0.19,1721206612209
-0.04,-2.71,8.99,-0.14,-0.03,-0.29,1721206612219
-1.59,-0.21,10.34,-0.12,0.19,-0.22,1721206612229
-0.16,2.03,13.88,-0.08,0.15,-0.08,1721206612239
-0.26,4.17,13.98,-0.08,0.10,-0.04,1721206612249
0.79,-0.46,9.12,0.03,0.13,-0.10,1721206612259
1.38,-0.62,8.72,-0.01,0.18,-0.13,1721206612269
-0.24,3.47,11.19,0.11,0.17,-0.24,1721206612279
-0.31,2.49,11.79,0.11,0.13,-0.23,1721206612289
-1.75,0.01,11.00,0.09,0.13,-0.20,1721206612299
-1.15,-3.03,11.25,0.11,0.20,-0.14,1721206612309
-2.16,4.00,10.18,0.29,0.10,-0.12,1721206612319
-0.91,3.03,7.86,0.28,0.12,-0.08,1721206612329
-0.42,0.82,9.89,0.26,0.18,-0.10,1721206612339
-0.70,-2.77,9.89,0.22,0.09,-0.11,1721206612349
-1.53,1.89,10.28,0.24,0.18,-0.13,1721206612359
-1.19,2.48,6.11,0.28,0.05,-0.10,1721206612369
-1.11,-1.71,9.05,0.09,0.22,-0.15,1721206612379
-1.70,-5.25,12.23,0.05,-0.03,-0.09,1721206612389
-2.76,1.21,14.20,0.19,0.17,-0.08,1721206612399
-0.38,2.41,11.94,0.09,0.19,-0.03,1721206612409
-1.11,-0.59,9.48,-0.02,-0.02,-0.05,1721206612419
-0.98,-3.92,8.26,0.05,0.11,-0.06,1721206612429
-0.52,0.38,10.19,0.10,0.10,-0.05,1721206612439
-1.48,2.07,7.84,0.19,-0.04,-0.02,1721206612449
-0.61,-1.54,9.48,-0.01,0.15,-0.00,1721206612459
-1.48,3.24,12.76,0.15,-0.05,-0.01,1721206612469
0.05,0.39,6.77,0.10,0.06,0.01,1721206612479
-0.69,0.41,8.61,-0.02,-0.00,0.03,1721206612489
-0.09,-1.30,11.35,-0.01,0.06,-0.04,1721206612499
-0.37,-0.75,11.67,0.02,-0.01,-0.01,1721206612509
-0.58,2.18,12.62,0.02,0.04,0.03,1721206612519
-0.48,-0.16,9.68,0.08,-0.05,0.10,1721206612529
0.08,0.30,6.13,0.05,-0.01,0.12,1721206612539
2.62,3.06,11.72,0.02,0.22,0.08,1721206612549
1.56,0.93,10.04,-0.02,-0.11,-0.01,1721206612559
-1.12,-1.79,7.84,-0.10,-0.02,-0.09,1721206612569
-1.50,-1.90,10.84,-0.08,0.09,-0.02,1721206612579
-1.82,1.09,8.78,-0.06,-0.06,0.17,1721206612589
-0.43,2.02,10.57,-0.05,0.09,0.26,1721206612599
1.47,-1.43,7.19,-0.10,-0.02,0.19,1721206612609
0.97,-4.85,11.19,-0.25,-0.01,0.06,1721206612619
-0.30,-0.01,18.96,-0.16,0.05,-0.07,1721206612629
-1.74,4.17,14.53,0.07,-0.13,0.03,1721206612639
-2.77,2.89,4.93,-0.06,-0.08,0.19,1721206612649
-0.75,0.13,8.39,-0.20,0.02,0.28,1721206612659
1.00,-0.89,10.07,-0.14,-0.03,0.23,1721206612669
1.20,1.04,8.88,-0.15,-0.01,0.08,1721206612679
-0.33,-1.76,9.06,-0.20,-0.16,0.05,1721206612689
-1.68,-3.36,9.33,-0.20,-0.12,0.17,1721206612699
1.48,-1.37,13.90,-0.14,0.12,0.18,1721206612709
1.35,4.86,14.17,-0.04,-0.10,0.06,1721206612719
0.05,2.53,7.71,-0.18,-0.13,-0.09,1721206612729
-2.36,-4.01,9.88,-0.20,-0.13,0.01,1721206612739
-2.55,-2.36,8.59,-0.12,-0.07,0.13,1721206612749
-1.21,-2.69,11.56,-0.13,-0.09,0.22,1721206612759
-0.85,0.72,13.60,-0.08,-0.11,0.19,1721206612769
1.46,4.63,13.89,0.02,-0.10,0.16,1721206612779
1.07,5.67,10.00,0.03,-0.16,0.08,1721206612789
1.20,4.14,9.43,0.03,-0.06,-0.03,1721206612799
-0.21,-4.68,5.71,-0.02,-0.16,-0.06,1721206612809
-3.11,0.31,9.06,0.03,-0.17,0.01,1721206612819
0.20,0.23,12.16,0.08,0.05,0.15,1721206612829
1.12,1.63,12.34,0.09,-0.23,0.28,1721206612839
1.62,0.41,7.72,0.11,-0.12,0.09,1721206612849
2.24,-0.89,9.14,0.06,-0.09,-0.09,1721206612859
0.97,0.90,8.42,0.17,-0.13,-0.13,1721206612869
-0.00,-2.72,9.62,0.04,-0.09,-0.14,1721206612879
-2.46,-0.92,16.36,0.05,-0.16,-0.03,1721206612889
-1.51,1.00,11.22,0.17,-0.18,0.15,1721206612899
1.77,-0.47,10.82,-0.03,0.08,0.19,1721206612909
1.70,0.42,9.64,0.16,-0.17,0.06,1721206612919
1.57,0.99,5.13,0.19,-0.08,-0.08,1721206612929
2.12,-1.13,7.96,0.10,-0.01,-0.13,1721206612939
0.99,-0.55,13.19,0.13,-0.09,-0.07,1721206612949
-0.82,0.05,9.50,0.22,-0.15,-0.02,1721206612959
1.06,2.37,6.80,0.18,0.06,0.03,1721206612969
1.58,1.71,8.87,0.11,-0.09,0.03,1721206612979
1.86,2.05,9.47,0.24,0.00,-0.02,1721206612989
1.74,-2.83,4.78,0.09,-0.04,-0.16,1721206612999
-0.58,-3.51,14.48,-0.19,0.03,-0.20,1721206613009
-1.07,1.40,19.67,0.13,-0.02,-0.13,1721206613019
-0.04,3.34,9.00,0.29,-0.02,0.02,1721206613029
0.59,-0.09,6.08,0.11,0.03,0.09,1721206613039
1.95,-0.86,11.88,0.12,0.14,-0.13,1721206613049
1.04,-0.41,9.94,0.20,-0.06,-0.36,1721206613059
-2.42,5.81,9.63,0.29,-0.04,-0.32,1721206613069
-1.90,1.04,6.83,0.13,0.04,-0.06,1721206613079
-0.43,2.06,13.39,0.04,0.11,0.06,1721206613089
2.53,0.02,12.94,0.00,0.10,-0.08,1721206613099
1.68,1.30,8.81,0.03,-0.01,-0.25,1721206613109
0.62,0.68,9.28,-0.09,0.11,-0.34,1721206613119
-0.26,1.58,13.62,0.05,0.08,-0.35,1721206613129
-1.22,2.38,6.86,0.20,-0.01,-0.26,1721206613139
-1.81,0.40,8.60,-0.03,0.09,-0.24,1721206613149
-1.04,-0.64,10.28,0.05,0.01,-0.19,1721206613159
-0.46,-0.73,9.48,0.01,0.02,-0.09,1721206613169
1.40,0.23,6.45,0.08,0.05,-0.21,1721206613184
1.74,1.89,7.63,0.08,0.11,-0.28,1721206613188
0.02,0.97,9.09,-0.02,0.00,-0.38,1721206613198
-2.67,-1.30,11.14,-0.15,0.01,-0.30,1721206613208
-0.35,-2.25,12.55,-0.09,0.23,-0.13,1721206613218
1.44,-1.50,9.02,-0.08,0.05,-0.06,1721206613228
2.08,-1.96,6.32,-0.17,0.15,-0.28,1721206613238
0.17,-1.42,8.33,-0.13,0.06,-0.49,1721206613248
-2.08,-0.66,10.47,-0.15,0.08,-0.38,1721206613258
-2.57,0.31,9.36,-0.11,0.09,-0.11,1721206613268
-2.39,0.82,8.22,-0.18,0.09,-0.07,1721206613278
0.62,-3.25,9.53,-0.31,0.15,-0.06,1721206613288
1.27,-2.80,14.26,-0.28,0.12,-0.19,1721206613298
0.57,2.23,13.62,-0.12,0.09,-0.30,1721206613308
0.02,-3.18,12.71,-0.37,0.16,-0.35,1721206613318
-2.47,4.12,16.53,-0.01,-0.03,-0.26,1721206613328
-1.34,4.23,7.39,0.05,0.22,-0.12,1721206613338
-0.86,0.94,7.07,-0.02,0.06,-0.14,1721206613348
-0.45,-2.11,13.26,-0.13,0.12,-0.16,1721206613358
-0.17,0.56,14.17,0.13,0.07,-0.21,1721206613368
0.02,1.92,7.03,0.19,0.07,-0.14,1721206613378
-0.37,-0.97,5.94,0.08,0.08,-0.09,1721206613388
0.80,2.16,8.27,0.38,0.17,-0.20,1721206613398
1.13,-2.46,8.85,0.07,0.12,-0.29,1721206613408
-3.93,1.71,15.01,0.06,-0.04,-0.31,1721206613418
-1.73,4.25,17.18,0.16,0.41,-0.27,1721206613428
-1.99,-4.51,9.29,-0.05,-0.16,-0.05,1721206613438
-2.23,-2.95,11.25,0.04,0.22,-0.01,1721206613448
3.06,5.85,12.62,0.35,0.26,-0.06,1721206613458
-0.90,3.35,4.44,0.14,-0.22,-0.24,1721206613468
-2.99,-0.07,8.65,0.14,0.23,-0.37,1721206613478
-0.79,-2.50,13.83,0.05,0.22,-0.14,1721206613488
-3.40,1.77,9.45,0.14,-0.15,0.00,1721206613498
-0.90,0.44,7.82,0.09,0.21,-0.04,1721206613508
-0.02,-1.07,9.45,0.15,-0.06,-0.04,1721206613518
-0.02,2.19,9.82,0.24,0.12,-0.13,1721206613528
1.18,4.65,9.39,0.17,0.11,-0.22,1721206613538
-2.44,5.97,10.25,0.03,-0.09,-0.23,1721206613548
-3.24,-1.22,8.61,-0.04,0.02,-0.08,1721206613558
-2.49,-3.98,6.82,-0.08,-0.02,0.16,1721206613568
0.21,-4.35,10.01,-0.17,0.13,0.21,1721206613578
3.06,1.76,14.53,0.07,0.12,0.03,1721206613588
2.54,2.84,4.60,0.10,-0.16,-0.15,1721206613598
-0.16,3.79,2.95,-0.02,0.05,-0.23,1721206613608
-1.14,-1.02,9.88,-0.14,0.16,-0.13,1721206613618
-3.37,-5.12,12.06,-0.26,-0.04,0.02,1721206613628
-3.28,-3.02,16.71,-0.24,0.00,0.19,1721206613638
-0.35,3.44,16.87,0.02,0.02,0.23,1721206613648
2.26,5.93,7.30,0.05,-0.03,0.15,1721206613658
1.51,-0.08,1.13,-0.13,-0.11,0.03,1721206613668
0.26,-4.10,9.42,-0.33,0.20,-0.07,1721206613678
-0.71,0.57,18.87,-0.10,0.01,-0.12,1721206613688
-3.14,1.33,6.08,0.04,-0.31,-0.02,1721206613698
-3.02,-1.67,3.75,-0.22,0.03,0.19,1721206613708
0.95,-1.08,15.01,-0.27,0.16,0.26,1721206613718
2.40,3.98,14.52,-0.06,-0.03,0.11,1721206613728
0.73,-0.59,6.51,-0.16,-0.14,-0.22,1721206613738
-3.00,-4.30,10.27,-0.27,-0.09,-0.20,1721206613748
-2.37,-1.34,15.86,-0.24,0.04,0.06,1721206613758
-0.23,6.27,18.39,-0.08,-0.04,0.23,1721206613768
2.05,5.22,7.66,0.12,-0.13,0.17,1721206613778
1.07,-1.89,2.59,-0.16,-0.04,-0.07,1721206613788
-0.06,-2.83,18.29,-0.34,0.04,-0.25,1721206613798
-1.14,10.16,15.86,0.20,-0.11,-0.13,1721206613808
0.00,-1.43,0.14,0.20,-0.17,0.00,1721206613818
-2.79,-7.61,5.08,-0.12,-0.07,0.07,1721206613828
-0.72,0.84,16.64,0.07,0.10,0.19,1721206613838
3.63,8.88,12.77,0.37,-0.04,0.24,1721206613848
3.55,2.23,2.99,0.23,-0.07,-0.08,1721206613858
-0.18,-4.97,5.51,-0.07,-0.16,-0.36,1721206613868
-2.60,-1.70,17.74,-0.07,0.07,-0.22,1721206613878
-1.79,5.27,15.60,0.20,-0.09,0.07,1721206613888
1.27,-1.62,3.85,0.09,-0.03,0.14,1721206613898
0.99,-4.33,5.75,-0.03,-0.02,0.03,1721206613908
1.55,0.26,8.57,0.08,0.07,-0.16,1721206613918
1.09,0.38,10.27,0.10,-0.02,-0.20,1721206613928
-0.25,-2.67,12.67,-0.08,-0.08,-0.05,1721206613938
-1.11,1.80,10.98,0.12,-0.05,0.04,1721206613948
1.73,-2.42,5.88,-0.11,0.12,-0.02,1721206613958
0.90,-0.79,9.89,-0.10,-0.04,-0.09,1721206613968
0.27,-1.33,13.99,-0.09,0.06,-0.10,1721206613978
-0.00,2.66,11.19,0.12,-0.00,-0.07,1721206613988
0.23,-0.67,6.55,-0.09,0.11,-0.17,1721206613998
-0.39,3.58,15.10,-0.18,0.04,-0.07,1721206614008
0.48,1.16,15.39,-0.19,0.03,0.08,1721206614018
1.89,1.01,12.19,-0.06,0.15,-0.09,1721206614028
1.85,-8.05,1.57,-0.08,-0.05,-0.23,1721206614038
-1.62,3.13,11.15,-0.09,0.11,-0.36,1721206614048
-1.54,1.54,13.23,0.14,0.04,-0.24,1721206614058
-2.84,4.64,10.31,0.17,0.05,-0.12,1721206614068
-1.85,0.55,6.91,0.07,0.06,0.02,1721206614078
0.53,2.79,14.72,-0.14,0.18,0.02,1721206614088
1.89,4.04,18.66,-0.07,0.05,-0.06,1721206614098
0.58,2.21,7.55,0.03,-0.12,-0.23,1721206614108
-0.15,-3.03,2.50,-0.11,0.18,-0.33,1721206614118
-1.04,-0.86,10.12,-0.03,0.01,-0.22,1721206614128
-0.80,-1.33,6.39,-0.00,0.03,-0.13,1721206614138
-1.74,4.87,13.19,0.07,0.12,-0.18,1721206614148
-0.74,-0.81,10.47,0.04,0.02,-0.06,1721206614158
-0.56,-0.60,11.42,-0.08,0.03,0.07,1721206614168
2.57,4.50,11.24,0.01,0.08,0.09,1721206614178
5.42,2.14,9.68,-0.10,0.16,-0.17,1721206614188
2.68,-2.60,6.85,-0.10,-0.07,-0.45,1721206614198
0.11,-3.08,8.35,-0.10,0.20,-0.55,1721206614208
-2.64,-6.02,11.88,-0.11,0.10,-0.33,1721206614218
-4.75,-2.06,17.09,-0.16,0.13,-0.18,1721206614228
-2.93,7.95,17.85,0.21,0.12,-0.05,1721206614238
-0.67,2.22,3.96,0.17,-0.03,0.22,1721206614248
1.20,-1.20,0.49,0.09,0.16,0.13,1721206614258
7.80,-5.16,11.90,-0.04,0.39,-0.16,1721206614268
2.25,4.04,14.43,0.12,-0.25,-0.45,1721206614278
-5.54,3.46,2.65,0.21,0.14,-0.64,1721206614288
-4.43,-7.14,7.68,-0.21,0.25,-0.30,1721206614298
-2.68,-2.82,24.83,-0.29,0.19,0.18,1721206614308
1.00,4.95,20.61,0.08,0.20,0.22,1721206614318
2.25,0.63,2.41,0.17,-0.00,-0.08,1721206614328
1.08,1.23,3.22,0.14,0.25,-0.40,1721206614338
-0.48,1.45,11.43,0.26,0.10,-0.36,1721206614348
-2.70,-2.37,8.07,0.21,0.07,-0.16,1721206614358
-2.38,-1.14,8.98,0.17,0.22,-0.05,1721206614368
-0.55,0.69,6.94,0.20,0.10,0.07,1721206614378
1.08,2.29,8.75,0.14,0.20,-0.03,1721206614388
2.47,-5.11,15.37,0.01,0.14,-0.10,1721206614398
-0.92,-1.23,13.73,0.17,-0.04,-0.23,1721206614408
-3.14,5.93,7.91,0.31,0.15,-0.27,1721206614418
-2.50,1.63,8.03,0.10,0.09,-0.10,1721206614428
-4.27,3.15,6.46,0.23,-0.06,0.10,1721206614438
-0.70,-2.85,4.83,0.07,0.23,0.10,1721206614448
0.66,-5.20,12.87,-0.22,0.09,0.00,1721206614458
-0.83,0.68,13.80,0.03,-0.06,-0.04,1721206614468
-1.60,1.56,2.93,-0.03,-0.02,0.01,1721206614478
0.17,-0.33,12.73,-0.09,0.26,-0.02,1721206614488
0.51,-2.71,10.81,0.12,-0.12,0.07,1721206614498
0.22,2.01,10.58,0.04,0.15,-0.01,1721206614508
0.62,2.01,14.48,-0.08,0.05,-0.09,1721206614518
-0.95,3.65,16.00,0.07,-0.05,-0.15,1721206614528
-2.34,0.48,2.85,0.16,-0.15,0.05,1721206614538
-0.64,-1.67,4.01,0.05,0.13,0.24,1721206614548
2.59,-2.52,13.08,-0.02,0.15,0.21,1721206614558
2.38,7.35,14.36,0.20,-0.04,-0.05,1721206614568
0.55,2.88,3.19,0.09,-0.10,-0.21,1721206614578
-2.61,-0.53,8.51,-0.11,0.10,-0.17,1721206614588
-2.16,-3.18,13.43,-0.14,0.06,0.11,1721206614598
-1.95,3.95,13.83,0.01,-0.09,0.27,1721206614608
0.72,1.17,6.65,-0.04,0.04,0.17,1721206614618
0.95,-0.52,9.33,-0.10,-0.05,0.06,1721206614628
0.65,-2.27,8.23,-0.14,-0.02,0.03,1721206614638
-1.03,-1.05,11.23,-0.14,-0.01,-0.07,1721206614648
-1.43,-2.70,17.19,-0.21,0.08,-0.02,1721206614658
-1.24,3.89,17.55,0.02,-0.14,0.14,1721206614668
-0.58,6.38,5.62,0.01,-0.13,0.22,1721206614678
1.67,-0.13,7.44,-0.26,0.13,0.09,1721206614688
-0.08,-2.15,11.84,-0.22,-0.12,-0.12,1721206614698
-1.50,2.28,6.43,0.16,-0.14,-0.03,1721206614708
-0.52,-5.29,-0.67,-0.13,-0.06,0.16,1721206614718
-0.48,-3.54,14.31,-0.28,0.03,0.27,1721206614728
2.49,1.55,16.52,-0.09,0.09,0.04,1721206614738
1.98,4.26,12.57,-0.09,-0.15,-0.16,1721206614748
-1.72,1.00,7.09,-0.21,-0.10,-0.22,1721206614758
-3.01,-3.25,9.02,-0.14,-0.04,-0.04,1721206614768
-2.76,-3.52,9.27,-0.19,-0.00,0.14,1721206614778
-1.51,1.61,14.34,-0.12,-0.05,0.19,1721206614788
0.89,2.24,11.27,-0.14,-0.14,0.21,1721206614798
1.51,-2.58,9.42,-0.25,-0.05,0.15,1721206614808
2.11,-1.41,10.87,-0.21,-0.01,-0.04,1721206614818
-0.16,-0.89,10.10,-0.06,-0.18,-0.11,1721206614828
-0.30,0.58,11.35,-0.02,0.02,-0.06,1721206614838
-0.53,1.87,11.22,0.06,-0.12,0.04,1721206614848
0.56,3.44,10.61,0.03,-0.03,0.11,1721206614858
0.66,1.39,6.77,0.06,-0.11,0.04,1721206614868
1.50,-1.53,9.29,-0.11,-0.01,-0.10,1721206614878
1.47,-3.89,14.32,-0.01,-0.05,-0.09,1721206614888
-0.99,1.36,13.01,0.12,-0.15,-0.05,1721206614898
0.40,0.18,10.02,0.03,0.03,0.04,1721206614908
0.76,1.89,13.05,0.08,-0.04,0.05,1721206614918
1.66,-0.05,9.28,0.09,-0.00,-0.04,1721206614928
1.37,1.46,9.64,0.18,-0.01,-0.07,1721206614938
0.88,1.89,8.33,0.17,-0.01,-0.07,1721206614948
0.09,-1.12,10.44,0.10,0.04,-0.08,1721206614958
0.58,0.60,11.33,0.10,0.02,-0.07,1721206614968
1.31,0.45,9.77,0.12,0.01,-0.08,1721206614978
1.24,2.04,10.27,0.15,0.04,-0.08,1721206614988
1.57,2.17,10.45,0.19,0.10,-0.16,1721206614998
0.98,-4.23,9.33,0.11,0.03,-0.25,1721206615008
-1.12,0.05,12.01,0.16,0.08,-0.26,1721206615018
-1.85,2.60,11.21,0.19,0.08,-0.25,1721206615028
-1.79,1.62,7.92,0.23,-0.01,-0.05,1721206615038
-0.18,-1.61,6.65,0.14,0.15,-0.03,1721206615048
0.29,-0.84,10.91,0.02,0.05,-0.14,1721206615058
0.34,3.26,14.04,0.11,0.11,-0.25,1721206615068
0.10,2.05,8.30,0.11,0.06,-0.24,1721206615078
-0.83,-1.84,7.84,-0.00,0.08,-0.16,1721206615088
0.08,1.93,13.15,0.04,0.16,-0.21,1721206615098
0.12,0.89,9.38,0.11,-0.06,-0.24,1721206615108
-0.80,0.29,10.07,-0.04,0.15,-0.26,1721206615118
-1.17,-0.37,10.75,0.00,0.07,-0.24,1721206615128
-1.27,4.29,6.62,0.17,-0.01,-0.09,1721206615138
1.63,-3.85,4.80,-0.12,0.20,-0.05,1721206615148
0.47,-1.35,13.16,-0.08,-0.03,-0.20,1721206615158
0.98,1.02,15.18,-0.11,0.21,-0.32,1721206615168
-0.35,4.24,10.88,0.01,-0.04,-0.23,1721206615178
0.13,-0.87,10.21,-0.21,0.19,-0.10,1721206615193
-0.40,-1.75,8.80,-0.15,0.09,-0.18,1721206615197
1.06,-5.43,11.63,-0.20,0.22,-0.22,1721206615207
-0.96,2.84,11.94,0.04,-0.02,-0.25,1721206615217
-1.50,1.93,6.82,-0.03,0.09,-0.14,1721206615227
-2.03,0.78,10.74,-0.18,0.08,-0.03,1721206615237
1.49,-3.93,10.98,-0.10,0.24,-0.04,1721206615247
2.72,1.18,7.81,0.04,0.11,-0.08,1721206615257
2.38,-0.07,8.29,-0.15,0.18,-0.27,1721206615267
-0.94,2.36,12.50,-0.04,-0.00,-0.42,1721206615277
-1.93,-1.89,10.99,-0.04,0.15,-0.28,1721206615287
-1.86,0.57,7.77,0.11,0.14,-0.06,1721206615297
0.46,-0.97,7.95,-0.07,0.28,0.02,1721206615307
-1.12,-0.71,13.81,-0.06,-0.08,-0.09,1721206615317
-1.47,0.83,10.83,0.18,0.17,-0.25,1721206615327
-1.45,0.56,7.60,0.09,0.16,-0.12,1721206615337
-2.38,-0.97,9.92,-0.09,0.17,-0.02,1721206615347
-2.60,2.28,15.82,0.06,-0.02,0.09,1721206615357
-1.47,-1.42,7.15,0.07,0.08,0.00,1721206615367
0.06,-2.58,7.96,0.03,0.17,-0.01,1721206615377
0.50,0.11,13.36,-0.05,0.19,-0.11,1721206615387
-0.41,-0.53,13.83,0.06,-0.09,-0.06,1721206615397
-1.47,3.70,9.93,0.17,0.06,-0.05,1721206615407
-1.55,2.14,2.77,0.20,-0.08,0.03,1721206615417
0.82,-0.47,8.85,-0.00,0.29,0.11,1721206615427
1.33,-7.24,13.40,-0.10,-0.05,0.04,1721206615437
-1.36,4.59,13.87,0.20,0.04,-0.21,1721206615447
-0.90,3.67,6.98,0.17,0.02,-0.16,1721206615457
-3.99,0.52,10.22,0.02,-0.02,0.08,1721206615467
-0.55,1.09,15.25,0.14,0.15,0.19,1721206615477
0.94,0.92,9.90,0.13,-0.12,0.12,1721206615487
-0.06,1.95,6.30,0.14,0.01,-0.09,1721206615497
-1.45,0.76,7.12,0.13,-0.07,-0.09,1721206615507
-2.44,-2.99,10.70,0.03,-0.00,0.13,1721206615517
-0.54,1.81,11.07,0.31,-0.05,0.35,1721206615527
2.66,1.02,5.57,0.16,0.06,0.29,1721206615537
3.95,1.52,12.77,-0.01,0.09,0.04,1721206615547
3.05,0.14,13.57,0.08,-0.11,-0.13,1721206615557
-0.40,2.78,7.15,0.15,-0.11,-0.19,1721206615567
-1.96,-1.74,6.56,-0.00,-0.03,-0.06,1721206615577
-2.35,-0.51,12.26,0.02,-0.07,0.15,1721206615587
-0.04,-0.78,12.09,-0.03,0.07,0.17,1721206615597
-0.36,4.20,9.78,0.13,-0.17,0.06,1721206615607
-0.50,-1.24,7.13,-0.17,0.01,0.04,1721206615617
-2.40,-2.32,14.23,-0.14,-0.17,0.12,1721206615627
-1.60,1.74,10.21,-0.02,-0.02,0.24,1721206615637
0.27,2.55,7.14,-0.05,-0.09,0.30,1721206615647
1.61,-0.85,7.53,-0.22,-0.04,0.25,1721206615657
1.70,-2.80,11.53,-0.16,-0.10,0.11,1721206615667
1.87,-1.89,11.59,-0.19,-0.01,-0.01,1721206615677
0.09,0.50,13.17,-0.15,-0.12,-0.08,1721206615687
-2.25,2.50,11.03,-0.13,-0.16,-0.07,1721206615697
-2.08,-1.16,8.64,-0.21,-0.06,0.05,1721206615707
-1.65,0.10,12.01,-0.12,-0.12,0.18,1721206615717
-0.23,-3.10,6.87,-0.15,-0.11,0.16,1721206615727
0.21,1.91,10.83,-0.12,-0.01,0.02,1721206615737
1.08,-2.78,9.42,-0.10,-0.20,0.07,1721206615747
-0.12,-2.10,9.48,-0.08,-0.09,0.09,1721206615757
1.58,2.22,10.66,0.03,-0.01,0.10,1721206615767
0.84,4.16,11.12,-0.01,-0.18,0.01,1721206615777
1.24,2.59,9.41,-0.04,-0.07,-0.09,1721206615787
1.31,-1.09,10.57,-0.08,-0.10,-0.08,1721206615797
0.25,-4.02,8.01,-0.11,-0.10,-0.09,1721206615807
-1.42,-4.31,10.48,-0.13,-0.13,-0.02,1721206615817
0.09,0.62,12.80,0.08,0.00,-0.02,1721206615827
1.59,4.71,9.23,0.19,-0.13,-0.01,1721206615837
1.58,0.56,8.56,0.02,-0.07,-0.10,1721206615847
0.38,-0.35,12.53,0.02,-0.03,-0.19,1721206615857
-0.59,-3.34,11.39,-0.02,-0.07,-0.19,1721206615867
-2.07,4.07,12.11,0.11,-0.13,-0.03,1721206615877
0.78,0.94,8.73,0.07,0.02,0.14,1721206615887
2.07,-6.52,10.43,-0.09,0.01,0.04,1721206615897
2.08,3.00,14.12,0.08,0.03,-0.21,1721206615907
0.80,4.85,8.79,0.18,-0.12,-0.32,1721206615917
-0.09,1.78,10.23,0.10,0.07,-0.19,1721206615927
-0.32,-5.22,9.93,0.11,-0.01,-0.05,1721206615937
-0.03,2.03,10.66,0.18,-0.00,-0.04,1721206615947
2.29,2.85,9.73,0.18,0.10,-0.05,1721206615957
1.80,1.54,10.76,0.21,0.03,-0.17,1721206615967
1.67,-1.05,7.46,0.34,0.05,-0.29,1721206615977
0.31,-0.60,7.73,0.27,0.09,-0.38,1721206615987
-1.82,-0.76,13.89,0.18,0.05,-0.45,1721206615997
-3.67,2.60,15.45,0.29,-0.01,-0.31,1721206616007
-2.92,2.98,8.14,0.31,0.03,-0.06,1721206616017
0.37,3.61,5.25,0.33,0.17,0.08,1721206616027
3.04,-2.02,4.13,0.09,0.20,-0.09,1721206616037
2.06,0.76,11.30,0.01,0.07,-0.45,1721206616047
-0.01,1.16,12.60,0.11,0.09,-0.59,1721206616057
-2.90,2.37,7.02,0.15,-0.00,-0.32,1721206616067
-2.13,-1.24,7.00,-0.16,0.19,-0.08,1721206616077
0.70,-4.63,15.83,-0.20,0.15,-0.13,1721206616087
1.63,1.83,16.42,0.05,0.04,-0.20,1721206616097
1.70,6.01,2.15,0.25,0.07,-0.30,1721206616107
0.85,-1.07,2.03,-0.24,0.18,-0.43,1721206616117
-2.21,-4.76,19.74,-0.24,0.01,-0.41,1721206616127
-3.43,-0.51,14.14,0.15,0.04,-0.22,1721206616137
-1.86,1.96,2.87,-0.06,0.18,0.01,1721206616147
0.93,-0.90,9.49,-0.28,0.20,-0.00,1721206616157
1.72,-0.67,14.25,-0.07,0.08,-0.10,1721206616167
1.06,3.65,8.87,0.03,0.06,-0.30,1721206616177
-0.85,0.64,3.92,-0.18,0.04,-0.37,1721206616187
-1.29,-2.45,12.76,-0.38,0.21,-0.23,1721206616197
-0.67,-3.55,10.59,-0.18,0.03,0.04,1721206616207
0.34,-1.06,5.37,-0.13,0.15,0.03,1721206616217
2.40,-4.05,9.61,-0.22,0.20,-0.22,1721206616227
-1.57,1.64,13.95,-0.13,0.05,-0.32,1721206616237
-0.83,4.95,13.34,-0.03,0.27,-0.32,1721206616247
-0.91,1.30,11.46,-0.19,0.03,-0.14,1721206616257
-2.20,-1.67,11.05,-0.26,0.10,-0.04,1721206616267
-0.86,-2.86,10.75,-0.14,0.13,-0.05,1721206616277
-1.12,1.23,9.72,-0.00,0.04,-0.02,1721206616287
-1.03,-0.40,5.74,0.04,0.05,-0.04,1721206616297
-0.64,3.03,14.89,-0.01,0.30,-0.03,1721206616307
0.43,-0.70,15.40,-0.13,-0.03,-0.09,1721206616317
-2.28,-0.27,7.87,-0.01,-0.04,-0.07,1721206616327
-0.73,-1.97,7.11,0.01,0.19,-0.01,1721206616337
-0.83,-1.79,9.30,0.10,0.02,-0.02,1721206616347
-0.80,0.61,8.45,0.21,0.06,0.02,1721206616357
-0.02,1.70,8.48,0.25,0.11,-0.03,1721206616367
0.62,-3.33,15.88,-0.21,0.11,-0.19,1721206616377
-1.79,3.14,21.40,-0.02,-0.22,-0.17,1721206616387
-3.25,1.53,3.39,0.15,-0.12,0.06,1721206616397
-0.81,-3.77,6.51,-0.02,0.20,0.21,1721206616407
0.54,-0.99,11.83,0.18,-0.10,0.17,1721206616417
0.06,4.92,4.62,0.34,-0.05,-0.07,1721206616427
1.16,-1.36,9.81,-0.00,0.17,-0.29,1721206616437
-3.57,2.94,17.36,0.01,-0.22,-0.26,1721206616447
-5.08,2.05,7.42,0.09,-0.16,0.00,1721206616457
-2.77,-1.02,10.05,-0.03,0.06,0.20,1721206616467
1.37,2.79,12.36,0.15,-0.05,0.39,1721206616477
2.97,1.12,3.85,0.12,-0.13,0.25,1721206616487
4.25,-4.89,9.72,-0.23,0.08,-0.06,1721206616497
2.42,1.70,20.24,0.03,-0.08,-0.27,1721206616507
0.20,5.32,8.59,0.26,-0.10,-0.30,1721206616517
-1.76,1.16,7.85,-0.05,0.03,-0.14,1721206616527
-2.53,1.25,14.79,0.04,-0.09,0.03,1721206616537
-0.19,2.01,7.89,0.15,-0.03,0.17,1721206616547
1.53,-1.28,6.63,-0.05,-0.02,0.10,1721206616557
0.65,2.88,11.02,0.08,-0.04,-0.10,1721206616567
1.05,-1.56,7.66,0.01,-0.06,-0.08,1721206616577
-2.50,0.92,9.64,-0.00,-0.11,-0.13,1721206616587
-1.15,-0.28,11.85,-0.04,0.11,-0.01,1721206616597
-0.84,4.00,10.82,0.08,-0.12,0.11,1721206616607
0.93,-0.55,5.50,-0.12,0.03,0.08,1721206616617
0.98,-4.77,9.42,-0.18,-0.11,0.03,1721206616627
0.68,-1.48,11.10,-0.10,0.06,-0.13,1721206616637
0.32,-0.87,9.49,-0.08,-0.09,-0.10,1721206616647
-1.12,-0.90,9.89,-0.15,0.01,-0.07,1721206616657
-0.45,-1.56,10.23,-0.15,-0.04,-0.00,1721206616667
0.30,-0.77,11.39,-0.17,0.04,-0.04,1721206616677
-0.38,-0.39,12.18,-0.15,-0.03,-0.17,1721206616687
-1.53,-0.68,10.19,-0.11,-0.07,-0.19,1721206616697
-1.47,1.44,7.51,-0.01,-0.06,0.04,1721206616707
1.14,-1.62,9.10,-0.18,0.14,0.16,1721206616717
1.35,-1.12,15.21,-0.22,0.05,-0.01,1721206616727
-0.25,3.76,12.01,-0.06,-0.12,-0.23,1721206616737
1.00,-0.49,6.19,-0.15,0.04,-0.20,1721206616747
-0.28,-1.88,13.04,-0.18,0.00,-0.16,1721206616757
0.72,-0.73,12.53,0.03,0.03,-0.06,1721206616767
0.74,2.19,6.58,0.10,0.06,-0.10,1721206616777
-0.23,-0.54,11.66,-0.09,0.02,-0.22,1721206616787
-0.30,2.10,16.12,0.05,-0.06,-0.10,1721206616797
0.73,1.90,8.58,0.12,0.08,-0.09,1721206616807
-0.56,-3.94,6.69,0.03,-0.01,-0.24,1721206616817
-0.75,3.35,12.46,0.19,0.09,-0.16,1721206616827
0.97,-1.98,12.18,0.14,0.11,0.02,1721206616837
-0.60,8.08,11.17,0.29,0.01,-0.02,1721206616847
1.21,1.39,4.64,0.22,0.15,-0.23,1721206616857
0.24,-1.87,12.55,0.03,0.07,-0.20,1721206616867
-0.42,2.49,11.23,0.19,0.06,-0.10,1721206616877
0.32,0.12,6.28,0.17,0.07,-0.14,1721206616887
0.85,-2.29,8.84,0.02,0.10,-0.12,1721206616897
0.35,-0.89,12.68,0.11,0.08,-0.15,1721206616907
0.06,-0.16,12.16,0.15,0.15,-0.26,1721206616917
-1.45,2.89,10.73,0.21,0.03,-0.27,1721206616927
-2.07,-0.72,7.15,0.14,0.09,-0.17,1721206616937
-1.58,-0.30,13.11,0.05,0.19,-0.04,1721206616947
0.06,2.17,12.05,0.13,0.08,-0.04,1721206616957
1.28,2.49,8.21,0.08,0.11,-0.09,1721206616967
2.53,-0.81,7.89,-0.00,0.22,-0.15,1721206616977
1.88,-3.92,7.61,-0.12,0.12,-0.31,1721206616987
-0.45,-0.60,13.68,-0.02,0.20,-0.42,1721206616997
-1.20,2.90,9.51,0.19,0.12,-0.38,1721206617007
-2.15,4.87,5.90,0.15,0.13,-0.20,1721206617017
-1.21,-0.24,7.38,-0.04,0.15,-0.03,1721206617027
0.63,0.52,11.28,-0.04,0.19,-0.02,1721206617037
3.12,-1.65,11.56,-0.12,0.25,-0.13,1721206617047
1.36,-0.14,12.26,-0.14,0.05,-0.29,1721206617057
-1.37,0.14,10.12,-0.06,0.15,-0.31,1721206617067
-1.05,-0.86,10.42,-0.10,0.20,-0.19,1721206617077
-0.78,2.20,11.70,-0.04,0.15,-0.08,1721206617087
-0.02,1.41,9.29,-0.04,0.21,-0.13,1721206617097
-0.73,-0.52,9.62,-0.08,0.16,-0.18,1721206617107
-1.12,-2.20,8.75,-0.06,0.17,-0.12,1721206617117
-0.05,1.76,11.83,-0.02,0.25,-0.02,1721206617127
0.77,0.87,9.69,0.04,0.17,-0.10,1721206617137
2.02,-3.96,8.31,-0.09,0.10,0.05,1721206617662
1.24,-1.25,11.65,-0.07,0.06,0.03,1721206617666
2.24,1.91,13.33,0.06,-0.03,0.01,1721206617675
-0.42,4.99,10.64,0.01,-0.14,-0.17,1721206617685
0.46,1.37,9.84,-0.04,-0.04,-0.13,1721206617694
0.24,-1.18,9.51,0.04,-0.07,-0.07,1721206617704
0.90,-4.69,9.16,-0.04,0.01,-0.09,1721206617713
0.65,1.60,13.45,0.05,0.04,-0.12,1721206617723
-0.36,3.07,11.61,0.09,-0.05,-0.16,1721206617732
1.25,-1.54,7.95,0.11,0.03,-0.02,1721206617742
0.26,-3.53,8.29,0.12,0.08,-0.03,1721206617752
0.27,1.50,13.75,0.10,0.07,-0.18,1721206617762
-0.79,3.32,13.18,0.21,-0.05,-0.17,1721206617772
-0.74,7.36,6.37,0.32,0.03,0.00,1721206617782
2.17,-0.19,6.07,0.11,0.19,0.03,1721206617792
1.76,-2.98,10.37,-0.03,0.02,-0.11,1721206617802
0.28,-4.16,13.02,-0.05,0.11,-0.34,1721206617812
-1.60,3.16,12.71,0.15,0.01,-0.17,1721206617822
-0.96,0.99,8.82,0.09,0.09,-0.01,1721206617832
0.16,-2.01,12.19,0.16,0.10,-0.05,1721206617842
0.65,3.56,9.19,0.35,0.06,-0.14,1721206617852
-0.47,-0.68,7.30,0.15,0.08,-0.29,1721206617862
-3.63,1.56,12.51,0.22,-0.00,-0.21,1721206617872
-3.19,-0.69,8.91,0.25,0.08,-0.01,1721206617882
-0.65,-1.53,11.63,0.13,0.10,0.25,1721206617892
2.13,4.18,11.32,0.22,0.11,0.21,1721206617902
3.20,2.31,4.18,0.14,0.08,-0.16,1721206617912
1.89,-1.64,10.13,-0.06,0.12,-0.30,1721206617922
-1.62,3.03,16.00,0.12,-0.04,-0.22,1721206617932
-2.00,3.22,8.20,0.13,0.08,-0.06,1721206617942
-1.18,1.37,3.87,-0.00,0.04,0.07,1721206617952
0.66,0.20,7.03,-0.12,0.13,0.09,1721206617962
2.97,-2.24,12.69,-0.16,0.14,-0.07,1721206617972
1.10,1.22,9.34,0.06,-0.14,-0.20,1721206617982
0.54,-3.71,7.86,-0.25,0.21,-0.25,1721206617992
-1.35,-1.19,21.87,-0.24,0.02,-0.10,1721206618002
-0.77,6.38,13.14,0.14,-0.00,0.13,1721206618012
1.65,-0.45,-0.06,-0.12,0.16,0.02,1721206618022
0.08,-4.74,11.06,-0.23,0.06,-0.21,1721206618032
0.10,-2.01,11.84,0.05,0.12,-0.26,1721206618042
-1.48,5.33,11.16,0.03,0.11,-0.16,1721206618052
-3.00,3.83,6.77,-0.00,-0.02,0.00,1721206618062
-0.68,-4.98,5.86,-0.19,0.17,0.14,1721206618072
1.75,-4.76,11.07,-0.21,0.07,0.25,1721206618082
3.41,0.74,9.71,-0.04,0.19,-0.14,1721206618092
2.00,1.29,12.83,-0.19,0.08,-0.32,1721206618102
-2.33,4.58,11.84,-0.04,-0.06,-0.37,1721206618112
-3.73,-4.27,4.17,-0.20,-0.06,-0.00,1721206618122
-2.59,-6.68,15.15,-0.38,0.28,0.20,1721206618132
0.51,0.70,15.62,-0.02,0.13,0.13,1721206618142
-0.16,-0.33,9.01,-0.12,-0.11,0.01,1721206618152
-0.69,2.58,11.05,-0.04,0.19,-0.14,1721206618162
0.12,-0.80,8.52,0.05,-0.06,0.04,1721206618172
-0.04,-1.30,11.45,-0.14,0.14,0.09,1721206618182
0.10,0.48,13.35,-0.02,-0.02,0.12,1721206618192
-1.19,3.89,9.29,0.13,0.01,-0.03,1721206618202
-0.29,-0.61,7.19,0.02,0.03,-0.12,1721206618212
-2.75,-1.49,10.68,0.10,-0.11,0.02,1721206618222
0.82,2.48,8.92,0.22,0.16,0.14,1721206618232
-0.24,4.30,7.47,0.07,-0.14,0.11,1721206618242
-1.12,-2.13,14.44,-0.20,0.09,-0.09,1721206618252
-0.39,-0.62,18.93,-0.01,-0.07,-0.01,1721206618262
-2.05,1.85,5.74,0.12,-0.20,0.09,1721206618272
-0.52,-1.40,6.12,-0.00,0.08,0.10,1721206618282
0.07,3.39,14.47,0.13,-0.06,0.11,1721206618292
1.56,-1.63,12.04,0.10,-0.03,0.08,1721206618302
-0.95,1.20,12.35,0.18,-0.08,-0.11,1721206618312
-0.89,2.05,6.73,0.20,-0.05,-0.04,1721206618322
-0.65,2.07,11.38,0.10,-0.02,0.18,1721206618332
2.04,3.14,11.46,0.33,-0.02,0.17,1721206618342
3.07,4.14,5.15,0.39,-0.05,-0.04,1721206618352
0.79,-3.47,5.99,0.03,-0.11,-0.21,1721206618362
-2.37,-2.57,19.44,-0.11,-0.01,-0.24,1721206618372
-3.47,6.31,13.15,0.28,-0.16,-0.07,1721206618382
-3.73,6.65,-0.91,0.28,-0.08,0.17,1721206618392
-0.61,-7.17,4.13,-0.09,0.00,0.28,1721206618402
1.95,-7.26,18.45,-0.14,-0.03,0.32,1721206618412
2.74,7.42,11.99,0.33,-0.14,0.03,1721206618422
1.14,0.23,-0.45,-0.13,-0.18,-0.30,1721206618432
-4.45,-2.04,17.64,-0.29,-0.11,-0.06,1721206618442
-2.55,-3.85,15.32,0.08,-0.06,0.22,1721206618452
0.58,0.36,7.07,-0.06,-0.01,0.25,1721206618462
1.85,2.06,9.12,-0.14,-0.07,-0.00,1721206618472
0.53,2.38,7.15,0.00,-0.18,0.03,1721206618482
1.22,-4.36,8.43,-0.15,0.08,0.03,1721206618492
-1.34,0.69,12.62,-0.08,-0.24,-0.01,1721206618502
-0.03,2.21,9.18,-0.13,-0.05,-0.10,1721206618512
0.06,-6.26,8.78,-0.37,-0.12,-0.07,1721206618522
-2.92,0.03,14.06,-0.25,-0.12,0.05,1721206618532
-0.42,4.34,9.43,-0.02,-0.02,0.17,1721206618542
0.85,-2.10,4.03,-0.13,-0.08,0.06,1721206618552
1.06,-6.71,8.05,-0.27,-0.02,-0.13,1721206618562
0.11,0.66,14.38,-0.09,-0.09,-0.12,1721206618572
0.34,5.40,15.57,-0.12,-0.02,-0.06,1721206618582
0.71,4.53,13.96,-0.10,-0.12,0.08,1721206618592
0.02,-0.99,6.87,-0.12,-0.09,-0.09,1721206618602
1.44,-3.27,8.75,-0.20,0.03,-0.24,1721206618612
-0.06,0.73,12.02,0.01,-0.14,-0.23,1721206618622
-1.44,0.01,7.13,0.14,-0.12,-0.07,1721206618632
-0.18,-1.07,10.77,0.12,0.14,0.03,1721206618642
-0.02,2.13,10.58,0.22,-0.10,0.05,1721206618652
0.78,4.97,8.46,0.15,-0.02,-0.06,1721206618662
1.65,1.98,11.44,0.02,-0.03,-0.13,1721206618672
0.36,0.82,11.28,0.10,-0.05,-0.14,1721206618682
0.44,-6.07,7.90,0.03,-0.00,-0.11,1721206618692
-1.21,-3.10,13.97,-0.05,-0.02,-0.13,1721206618702
-0.07,2.60,15.48,0.11,-0.01,-0.05,1721206618712
1.24,6.06,7.53,0.33,-0.05,0.09,1721206618722
2.79,1.36,6.78,0.19,0.17,-0.01,1721206618732
2.51,-1.61,16.34,0.11,0.05,-0.30,1721206618742
-0.80,3.83,12.44,0.26,-0.12,-0.39,1721206618752
-1.75,1.36,5.16,0.10,0.03,-0.21,1721206618762
-1.70,-2.25,9.92,0.06,0.08,0.01,1721206618772
-0.04,-1.15,11.42,0.26,0.09,-0.05,1721206618782
0.92,-1.44,7.27,0.23,0.00,-0.16,1721206618792
-0.22,2.14,11.88,0.10,0.09,-0.25,1721206618802
-1.42,7.77,14.10,0.25,0.01,-0.21,1721206618812
-0.42,3.00,5.42,0.14,0.05,-0.04,1721206618822
1.16,-3.87,7.38,-0.03,0.12,-0.05,1721206618832
2.36,-2.68,10.53,-0.02,0.12,-0.21,1721206618842
0.61,1.34,7.04,-0.01,0.00,-0.44,1721206618852
-1.95,0.04,11.02,-0.08,0.09,-0.38,1721206618862
-2.78,-1.88,12.35,-0.05,0.08,-0.18,1721206618872
-1.92,-1.90,10.49,-0.01,0.06,-0.04,1721206618882
0.46,4.05,10.28,-0.00,0.14,-0.12,1721206618892
3.38,4.56,8.78,-0.04,0.13,-0.15,1721206618902
2.39,-0.85,5.09,-0.10,-0.02,-0.28,1721206618912
-0.34,-3.18,7.78,-0.19,0.13,-0.41,1721206618922
-0.76,-3.05,14.89,-0.23,0.15,-0.39,1721206618932
-2.21,0.03,14.29,-0.22,0.02,-0.17,1721206618942
-1.74,0.78,12.91,-0.25,0.22,-0.10,1721206618952
-0.67,0.97,8.80,-0.11,-0.01,-0.15,1721206618962
1.43,-1.34,6.90,-0.08,0.21,-0.14,1721206618972
1.94,-2.71,11.08,-0.14,0.17,-0.22,1721206618982
-0.65,7.38,12.87,0.06,0.12,-0.22,1721206618992
-1.65,0.68,7.11,-0.13,0.10,-0.31,1721206619002
-4.07,-6.48,9.90,-0.29,-0.06,-0.17,1721206619012
-0.75,-2.84,16.87,-0.17,0.34,0.00,1721206619022
1.61,3.09,11.36,-0.01,0.03,0.04,1721206619032
0.68,3.90,8.72,-0.02,0.15,-0.13,1721206619042
-0.71,0.41,10.57,0.08,0.08,-0.22,1721206619052
-2.67,-0.35,9.13,0.13,0.02,-0.04,1721206619062
-0.01,-1.33,8.63,0.07,0.21,0.08,1721206619072
1.05,3.24,9.06,0.12,0.04,0.07,1721206619082
1.40,-1.34,10.04,0.01,0.13,-0.05,1721206619092
-0.19,-2.72,12.23,0.00,-0.04,-0.10,1721206619102
-1.81,0.66,10.86,0.11,0.11,-0.14,1721206619112
-0.09,2.32,11.09,0.11,0.21,-0.15,1721206619122
-0.81,1.31,9.79,0.09,-0.05,-0.09,1721206619132
-0.78,-2.23,10.59,0.08,0.10,-0.10,1721206619142
-1.68,1.99,10.24,0.20,0.00,-0.08,1721206619152
-2.06,3.37,6.97,0.11,0.07,-0.07,1721206619162
-0.60,-2.49,12.29,-0.05,0.15,-0.08,1721206619172
-1.85,-1.18,11.35,0.07,-0.12,-0.08,1721206619182
-0.45,-2.26,8.93,0.04,0.14,-0.04,1721206619192
-0.17,-0.88,11.98,0.08,-0.04,-0.06,1721206619202
-0.49,6.79,12.06,0.27,0.10,-0.15,1721206619212
-0.54,2.12,4.89,0.23,-0.11,-0.06,1721206619222
-2.57,1.36,8.37,0.07,0.05,-0.02,1721206619232
0.68,-2.92,13.09,0.03,0.10,0.03,1721206619242
1.29,1.54,12.44,0.09,-0.05,-0.00,1721206619252
0.91,2.64,6.62,0.11,-0.01,-0.08,1721206619262
-0.78,-2.87,7.16,0.01,-0.03,-0.13,1721206619272
-1.84,1.46,13.07,0.09,0.08,-0.06,1721206619282
-0.79,0.75,9.97,0.09,-0.01,0.07,1721206619292
-0.29,3.49,10.61,0.05,0.01,0.09,1721206619302
0.76,2.40,9.85,-0.08,0.03,-0.01,1721206619312
-2.51,-0.15,10.52,-0.13,-0.29,-0.02,1721206619322
-2.48,1.33,11.81,-0.01,0.04,0.03,1721206619332
-0.96,-3.00,4.54,-0.10,-0.14,0.19,1721206619342
-0.58,-1.04,10.36,-0.23,0.06,0.18,1721206619352
1.24,0.50,14.43,-0.05,-0.06,0.15,1721206619362
1.33,0.71,9.28,-0.02,-0.10,0.12,1721206619372
2.17,0.38,9.52,-0.13,0.02,0.02,1721206619382
0.54,4.39,8.51,-0.04,-0.14,-0.08,1721206619392
-1.06,-3.32,5.92,-0.30,-0.02,-0.15,1721206619402
-3.87,-5.09,13.29,-0.29,-0.19,0.03,1721206619412
-2.00,-1.23,10.36,-0.02,-0.00,0.24,1721206619422
0.69,1.67,10.34,-0.21,0.05,0.24,1721206619432
1.31,5.94,13.92,-0.23,-0.17,0.14,1721206619442
0.17,-0.51,8.01,-0.14,-0.10,-0.11,1721206619452
1.68,-6.50,9.17,-0.24,-0.03,-0.08,1721206619462
-0.99,1.27,8.67,-0.06,-0.20,0.12,1721206619472
0.30,-0.91,9.37,-0.17,0.13,0.15,1721206619482
0.61,0.69,16.06,-0.16,-0.09,-0.07,1721206619492
0.94,0.70,11.48,-0.07,-0.20,0.02,1721206619502
3.34,-2.02,9.59,-0.09,0.14,-0.03,1721206619512
1.69,1.42,15.10,-0.11,-0.02,-0.17,1721206619522
-1.03,0.89,12.50,0.09,-0.17,-0.17,1721206619532
-0.64,1.97,4.75,0.26,-0.02,-0.13,1721206619542
0.45,3.05,8.23,0.21,0.08,-0.11,1721206619552
0.45,-1.73,12.10,0.07,-0.07,-0.10,1721206619562
-1.39,4.21,12.79,0.17,-0.06,-0.08,1721206619572
1.49,-4.47,7.69,0.13,0.03,0.08,1721206619582
0.21,-1.89,9.53,0.12,-0.03,0.03,1721206619592
1.77,2.82,10.42,0.29,0.10,-0.16,1721206619602
0.85,3.12,7.60,0.29,-0.15,-0.17,1721206619612
-0.59,2.91,9.79,0.22,0.15,-0.17,1721206619622
0.94,-0.25,10.69,0.25,0.08,-0.12,1721206619632
-0.20,-2.42,10.70,-0.00,0.03,-0.17,1721206619642
-0.42,1.59,15.10,0.12,-0.02,-0.05,1721206619652
1.89,-0.84,7.34,0.11,0.13,-0.07,1721206619667
3.19,1.56,9.54,0.22,0.16,-0.11,1721206619671
1.80,-3.05,7.93,0.15,0.04,-0.34,1721206619681
-1.27,1.48,9.15,0.14,0.06,-0.53,1721206619691
-2.21,1.86,13.29,0.19,0.14,-0.45,1721206619701
-3.27,3.04,7.45,0.21,0.00,-0.14,1721206619711
-1.26,-1.56,7.18,0.04,0.24,0.02,1721206619721
1.50,-3.00,10.74,-0.00,0.17,-0.07,1721206619731
1.16,4.81,10.44,0.03,0.05,-0.35,1721206619741
0.26,-0.01,10.94,-0.11,0.16,-0.45,1721206619751
-2.49,-2.38,11.02,-0.04,0.06,-0.26,1721206619761
-1.76,-1.12,10.47,-0.14,0.22,-0.11,1721206619771
0.49,2.83,14.78,-0.03,0.16,-0.12,1721206619781
1.43,4.76,5.98,0.08,0.10,-0.28,1721206619791
0.08,-1.30,5.11,-0.18,0.13,-0.37,1721206619801
-2.46,-2.55,11.99,-0.16,0.14,-0.33,1721206619811
-1.25,-3.41,10.77,-0.16,0.20,-0.18,1721206619821
-1.07,3.04,11.40,-0.08,0.14,-0.05,1721206619831
0.65,0.66,9.92,-0.15,0.23,-0.23,1721206619841
-0.17,1.17,11.00,-0.11,0.01,-0.29,1721206619851
0.11,-0.56,10.61,-0.14,0.22,-0.15,1721206619861
-0.13,-1.35,8.98,-0.14,0.14,-0.07,1721206619871
-0.69,0.51,10.30,-0.23,0.16,-0.11,1721206619881
-0.22,0.46,12.75,-0.12,0.17,-0.22,1721206619891
-0.04,-3.00,10.00,-0.16,0.08,-0.22,1721206619901
-0.98,2.45,11.32,-0.05,0.17,-0.19,1721206619911
-1.03,-0.58,6.29,-0.01,0.08,0.01,1721206619921
0.18,0.57,12.35,-0.13,0.32,0.04,1721206619931
0.37,-1.15,14.27,-0.03,0.09,-0.16,1721206619941
-1.53,2.64,9.50,0.06,0.03,-0.26,1721206619951
-0.28,0.06,7.29,0.00,0.22,-0.16,1721206619961
-1.04,-1.56,13.10,-0.09,0.11,0.03,1721206619971
-0.36,1.57,14.19,0.07,0.19,0.04,1721206619981
-1.30,1.12,8.37,0.15,0.03,-0.05,1721206619991
-2.28,0.79,9.38,0.08,0.15,-0.06,1721206620001
0.37,1.39,10.44,0.28,0.13,0.02,1721206620011
0.71,-1.95,5.45,0.18,-0.00,0.08,1721206620021
1.05,0.03,10.61,0.13,0.30,-0.04,1721206620031
-0.45,0.63,15.03,0.10,0.05,-0.14,1721206620041
-3.64,3.18,8.08,0.24,-0.10,-0.07,1721206620051
-0.99,-1.38,9.39,0.07,0.31,0.03,1721206620061
-2.84,5.29,12.29,0.25,-0.17,0.17,1721206620071
-0.33,-0.64,8.51,0.15,0.22,0.09,1721206620081
-0.23,-3.77,10.19,0.04,-0.12,0.10,1721206620091
-0.57,4.29,11.20,0.21,0.11,0.06,1721206620101
0.07,3.09,6.37,0.19,-0.09,-0.01,1721206620111
-2.44,-0.14,10.68,0.06,0.02,-0.01,1721206620121
-2.02,0.80,11.06,0.30,-0.06,0.15,1721206620131
0.45,-2.35,4.79,0.14,-0.00,0.31,1721206620141
2.06,-0.90,12.27,0.00,0.11,0.27,1721206620151
3.11,4.71,14.80,0.21,-0.06,0.07,1721206620161
1.88,2.08,7.06,0.20,-0.13,-0.06,1721206620171
-0.46,-2.63,4.80,0.18,-0.07,-0.05,1721206620181
-0.18,-1.91,12.92,0.03,0.18,0.03,1721206620191
-0.46,3.81,20.12,0.15,-0.06,0.08,1721206620201
-1.56,6.77,5.44,0.36,-0.25,0.08,1721206620211
-0.25,-0.85,-1.23,0.06,0.00,0.12,1721206620221
1.15,-3.61,12.63,-0.22,0.15,0.16,1721206620231
1.58,3.55,18.52,0.04,-0.01,0.01,1721206620241
0.20,4.40,3.14,0.16,-0.32,-0.07,1721206620251
-1.86,-5.55,1.28,-0.32,-0.04,0.07,1721206620261
-1.14,-5.83,19.17,-0.41,0.07,0.20,1721206620271
1.56,3.07,17.13,0.12,-0.08,0.13,1721206620281
1.23,4.84,-0.74,-0.03,-0.12,-0.07,1721206620291
-1.20,-0.20,10.71,-0.41,0.08,-0.11,1721206620301
-1.50,-3.25,15.73,-0.15,-0.12,0.02,1721206620311
-0.89,-3.00,10.24,-0.18,0.03,0.13,1721206620321
-0.12,-3.46,12.97,-0.25,-0.02,0.13,1721206620331
-1.34,6.64,11.57,-0.05,-0.17,0.05,1721206620341
1.26,2.90,4.37,-0.04,-0.12,0.10,1721206620351
1.75,-3.84,7.46,-0.29,0.03,-0.03,1721206620361
0.83,-2.74,15.08,-0.24,-0.01,-0.21,1721206620371
-2.15,0.25,9.75,-0.12,-0.16,-0.17,1721206620381
-3.51,0.03,6.73,-0.19,-0.04,-0.02,1721206620391
-0.08,1.19,12.18,-0.05,-0.03,0.23,1721206620401
2.89,1.63,8.41,0.10,-0.08,0.25,1721206620411
2.97,-6.08,2.38,-0.09,-0.04,-0.07,1721206620421
-0.59,1.99,19.83,-0.31,0.03,-0.41,1721206620431
-1.16,7.27,23.80,-0.08,-0.15,-0.28,1721206620441
-2.40,2.19,5.26,0.09,-0.26,-0.02,1721206620451
0.55,-8.97,-0.14,-0.09,0.12,0.06,1721206620461
1.10,0.25,9.71,0.20,0.09,0.11,1721206620471
0.60,6.05,12.76,0.33,-0.04,-0.06,1721206620481
0.63,-2.26,7.97,0.00,-0.07,-0.19,1721206620491
-1.13,3.41,17.34,-0.08,0.08,-0.30,1721206620501
0.77,-1.36,13.29,0.02,-0.09,-0.09,1721206620511
-0.74,3.34,9.25,0.19,-0.13,0.06,1721206620521
0.67,3.32,5.62,0.23,0.19,-0.01,1721206620531
1.70,-3.79,9.08,0.07,0.04,-0.12,1721206620541
-0.41,-1.64,14.85,0.06,-0.02,-0.29,1721206620551
-1.00,2.96,9.74,0.25,-0.07,-0.13,1721206620561
0.26,-1.01,7.80,0.09,0.08,-0.04,1721206620571
2.35,2.13,14.38,0.31,0.07,0.09,1721206620581
3.69,3.43,7.89,0.48,0.12,-0.21,1721206620591
0.65,0.93,2.55,0.31,0.06,-0.65,1721206620601
-4.43,0.72,10.28,0.06,0.00,-0.57,1721206620611
-5.04,0.22,17.47,0.09,0.08,0.09,1721206620621
-0.78,1.12,6.84,0.16,0.11,0.28,1721206620631
3.38,-5.04,6.55,-0.06,0.17,-0.03,1721206620641
3.89,3.02,13.92,0.09,0.07,-0.27,1721206620651
2.31,3.48,6.33,0.07,0.06,-0.49,1721206620661
-3.40,3.00,9.00,-0.02,0.05,-0.54,1721206620671
-5.09,-4.40,9.95,-0.10,0.11,-0.24,1721206620681
-2.84,-5.62,14.09,-0.16,0.15,0.22,1721206620691
2.29,4.27,16.37,0.05,0.20,0.23,1721206620701
3.11,5.88,1.31,-0.02,-0.06,-0.20,1721206620711
2.14,-4.92,9.48,-0.39,0.26,-0.39,1721206620721
1.03,-2.98,23.64,-0.10,0.11,-0.36,1721206620731
-2.22,7.33,6.14,0.24,-0.06,-0.20,1721206620741
-2.68,-3.25,0.32,-0.41,0.16,-0.09,1721206620751
-1.87,-1.53,17.05,-0.20,0.07,0.03,1721206620761
1.60,4.01,9.43,0.15,0.07,0.12,1721206620771
1.09,-0.67,-0.93,-0.14,0.02,-0.20,1721206620781
0.18,-6.61,12.44,-0.40,0.25,-0.35,1721206620791
0.43,0.16,19.15,-0.15,0.06,-0.06,1721206620801
0.74,4.65,9.34,-0.04,0.12,-0.01,1721206620811
-0.71,-1.37,11.50,-0.23,0.08,-0.27,1721206620821
-0.48,-1.57,13.47,-0.11,0.02,-0.05,1721206620831
0.30,-3.73,9.50,-0.11,0.10,0.03,1721206620841
0.01,4.55,8.56,0.07,0.21,-0.22,1721206620851
0.38,1.14,8.80,0.01,0.03,-0.21,1721206620861
-3.85,-2.99,11.67,-0.02,-0.07,-0.03,1721206620871
-0.82,2.48,11.55,0.18,0.25,0.10,1721206620881
2.14,-0.02,5.29,-0.00,0.03,0.04,1721206620891
1.80,-0.33,14.64,-0.19,0.25,-0.20,1721206620901
0.78,-1.45,18.11,-0.01,-0.12,-0.10,1721206620911
-3.12,2.81,4.64,0.29,0.03,-0.18,1721206620921
-0.75,-1.35,6.86,-0.01,0.25,-0.06,1721206620931
-4.04,1.55,13.02,0.05,-0.17,0.03,1721206620941
0.29,3.77,9.21,0.28,0.16,0.10,1721206620951
0.71,-4.80,7.65,-0.08,-0.04,0.06,1721206620961
-2.67,1.93,13.80,-0.02,0.10,-0.11,1721206620971
1.47,3.06,13.01,0.09,0.20,-0.09,1721206620981
-1.85,0.03,6.57,-0.05,-0.23,-0.15,1721206620991
-2.91,-3.05,10.05,-0.01,0.12,-0.06,1721206621001
-0.58,-0.65,15.78,0.11,0.07,0.12,1721206621011
-1.28,4.84,9.35,0.15,-0.15,0.07,1721206621021
-0.03,3.10,8.22,0.15,0.10,-0.13,1721206621031
-1.51,0.96,6.61,0.19,-0.25,-0.09,1721206621041
-1.92,1.00,11.49,0.13,0.12,0.06,1721206621051
-1.67,0.01,9.91,0.22,-0.15,0.17,1721206621061
-1.07,-0.48,4.07,0.11,-0.02,0.14,1721206621071
2.36,-1.56,14.68,-0.09,0.15,0.10,1721206621081
1.57,4.61,16.42,0.21,-0.24,0.03,1721206621091
1.70,3.72,6.63,0.17,-0.05,-0.07,1721206621101
-0.44,0.33,6.15,0.05,-0.16,-0.00,1721206621111
0.24,-1.86,10.81,-0.05,0.06,0.04,1721206621121
0.43,1.53,15.89,0.01,-0.05,-0.03,1721206621131
-2.07,1.48,3.74,0.16,-0.32,-0.03,1721206621141
-0.81,-1.33,8.85,-0.12,0.21,0.11,1721206621151
-0.23,1.53,20.44,-0.07,-0.16,0.25,1721206621161
-0.32,0.29,9.18,-0.09,-0.22,0.13,1721206621171
0.58,-1.39,8.64,-0.25,-0.08,-0.02,1721206621181
0.84,-1.13,11.25,-0.12,-0.12,0.07,1721206621191
0.57,1.19,6.62,0.03,-0.14,0.18,1721206621201
1.11,1.26,6.63,-0.00,0.02,0.09,1721206621211
0.74,3.87,10.90,-0.06,-0.09,-0.09,1721206621221
-0.25,-8.37,9.29,-0.37,-0.24,-0.11,1721206621231
-2.42,-3.25,17.05,-0.19,-0.05,-0.03,1721206621241
-1.81,3.77,5.67,0.09,-0.21,0.12,1721206621251
0.10,2.80,4.78,-0.07,0.09,0.12,1721206621261
2.43,-4.75,13.20,-0.02,-0.10,0.17,1721206621271
1.24,3.08,10.61,-0.04,-0.12,-0.05,1721206621281
0.80,4.90,12.79,-0.22,-0.02,-0.31,1721206621291
-2.04,-3.08,14.08,-0.31,-0.24,-0.17,1721206621301
-2.69,-2.18,9.65,-0.11,-0.08,-0.01,1721206621311
1.23,2.75,4.61,0.13,-0.08,0.22,1721206621321
3.22,-3.75,6.05,-0.16,0.05,0.10,1721206621331
1.16,2.77,17.24,-0.09,-0.06,-0.19,1721206621341
2.23,0.47,14.89,0.00,-0.13,-0.20,1721206621351
-0.98,0.96,8.03,-0.07,-0.07,-0.21,1721206621361
-1.15,1.79,8.01,0.06,-0.05,-0.17,1721206621371
-0.20,-2.86,8.95,0.11,-0.03,-0.07,1721206621381
0.32,2.64,9.53,0.33,0.02,-0.08,1721206621391
2.56,-2.31,8.69,0.12,-0.01,-0.09,1721206621401
0.10,-0.68,17.41,-0.14,0.00,-0.20,1721206621411
-1.06,6.98,16.30,0.12,-0.03,-0.25,1721206621421
-0.16,3.20,-1.16,0.32,-0.16,-0.06,1721206621431
2.00,-6.11,4.59,-0.01,0.33,-0.06,1721206621441
0.94,-0.16,21.02,0.11,-0.00,-0.24,1721206621451
-0.49,9.61,6.69,0.37,-0.15,-0.27,1721206621461
0.86,-0.14,0.71,-0.03,0.17,-0.15,1721206621471
0.82,-12.14,20.52,-0.43,0.12,-0.25,1721206621481
-0.60,2.49,22.48,0.23,-0.07,-0.31,1721206621491
-0.53,8.39,-4.65,0.45,0.02,-0.23,1721206621501
0.43,-4.87,6.69,-0.13,0.35,-0.29,1721206621511
-1.26,0.72,28.29,0.19,-0.00,-0.32,1721206621521
-2.45,7.21,2.92,0.50,-0.08,-0.29,1721206621531
-0.53,-2.42,-1.95,0.01,0.22,-0.05,1721206621541
1.30,-4.69,17.28,-0.12,0.28,-0.09,1721206621551
1.30,3.56,14.09,0.31,-0.02,-0.28,1721206621561
0.77,3.27,1.64,0.20,0.14,-0.33,1721206621571
-0.75,0.94,11.11,-0.00,0.26,-0.45,1721206621581
-0.76,2.96,13.92,0.14,0.12,-0.36,1721206621591
-0.62,0.68,6.15,-0.00,0.09,-0.14,1721206621601
0.28,-3.71,5.66,-0.08,0.21,-0.17,1721206621611
0.90,-4.33,11.59,-0.12,0.16,-0.38,1721206621621
-1.64,4.94,16.44,0.15,0.02,-0.38,1721206621631
-1.60,8.70,6.81,0.12,0.18,-0.30,1721206621641
-1.19,1.02,7.06,-0.18,0.17,-0.17,1721206621651
1.18,-7.81,15.50,-0.45,0.31,-0.14,1721206621661
1.43,4.61,7.36,0.08,0.03,-0.30,1721206621676
2.00,3.37,2.67,0.10,0.16,-0.23,1721206621680
-0.71,-5.32,3.05,-0.19,0.18,-0.44,1721206621690
-4.87,-0.81,15.73,-0.07,0.04,-0.35,1721206621700
-0.93,5.57,13.39,0.17,0.31,-0.16,1721206621710
0.20,-0.88,4.22,-0.08,0.08,0.00,1721206621720
0.32,-2.63,11.43,-0.20,0.39,-0.11,1721206621730
1.17,2.17,13.99,0.17,0.15,-0.12,1721206621740
-0.68,1.18,3.09,0.09,0.07,-0.23,1721206621750
-0.37,-1.60,7.18,0.02,0.31,-0.31,1721206621760
-0.38,-2.73,13.40,-0.00,0.07,-0.12,1721206621770
-1.67,1.92,13.02,-0.00,0.20,-0.08,1721206621780
-0.85,-1.38,14.73,-0.11,0.22,-0.16,1721206621790
-2.45,0.63,11.27,-0.02,0.05,-0.11,1721206621800
-2.50,1.86,2.21,0.25,0.20,0.07,1721206621810
0.91,-2.75,6.41,0.08,0.31,0.06,1721206621820
1.30,-3.09,12.36,-0.04,0.05,-0.06,1721206621830
0.90,0.60,18.01,0.01,0.25,-0.25,1721206621840
-1.97,3.88,12.70,-0.04,0.05,-0.22,1721206621850
-4.95,1.13,9.72,-0.10,0.04,-0.12,1721206621860
-2.94,-4.06,9.26,0.06,0.13,0.09,1721206621870
-0.44,-0.94,6.49,0.28,0.07,0.25,1721206621880
3.01,-1.44,8.37,0.15,0.28,0.13,1721206621890
1.39,6.84,13.53,0.19,0.10,-0.19,1721206621900
-0.60,1.26,10.79,0.10,0.06,-0.32,1721206621910
-4.23,-0.58,9.37,0.16,-0.02,-0.11,1721206621920
-4.20,1.75,5.84,0.29,0.02,0.14,1721206621930
-0.17,-2.95,7.34,0.10,0.19,0.23,1721206621940
1.15,2.86,13.72,0.21,0.05,0.12,1721206621950
2.57,4.20,8.83,0.23,0.07,-0.09,1721206621960
-0.42,-2.58,9.63,-0.06,-0.02,-0.14,1721206621970
-1.58,2.60,15.78,0.05,0.08,-0.08,1721206621980
-1.02,5.55,3.17,0.25,-0.02,0.10,1721206621990
0.33,-4.49,3.77,-0.17,0.20,0.12,1721206622000
1.80,-6.68,22.14,-0.18,0.12,0.12,1721206622010
0.21,8.46,12.61,0.35,-0.12,-0.08,1721206622020
0.32,0.25,-0.46,-0.07,0.02,-0.15,1721206622030
-4.02,-2.25,13.57,-0.20,0.03,-0.05,1721206622040
-1.02,2.50,11.78,0.21,0.13,0.05,1721206622050
1.25,0.47,3.23,0.13,0.02,0.18,1721206622060
0.62,3.78,8.67,-0.03,0.12,0.09,1721206622070
0.61,4.04,11.27,-0.08,0.01,-0.00,1721206622080
-0.48,-5.59,12.84,-0.39,0.03,-0.07,1721206622090
-2.59,-1.58,13.87,-0.16,-0.04,-0.04,1721206622100
-2.17,2.59,3.51,-0.12,-0.06,0.21,1721206622110
-1.15,1.12,7.29,-0.33,0.06,0.22,1721206622120
1.02,-2.38,10.44,-0.14,0.02,0.18,1721206622130
2.31,-6.28,8.49,-0.36,0.01,0.12,1721206622140
-0.28,1.00,18.03,-0.40,-0.01,-0.08,1721206622150
-1.89,2.80,12.39,-0.18,-0.17,-0.09,1721206622160
-1.72,-5.44,1.66,-0.39,-0.06,0.03,1721206622170
-2.27,-5.63,17.53,-0.50,0.18,0.24,1721206622180
-0.41,7.35,16.75,-0.15,0.01,0.19,1721206622190
2.20,1.00,4.08,-0.10,-0.11,0.10,1721206622200
1.28,-1.77,10.86,-0.34,0.07,-0.02,1721206622210
-0.11,3.91,14.16,-0.05,-0.09,0.08,1721206622220
0.34,-0.55,4.64,-0.02,-0.02,0.06,1721206622230
0.85,-3.23,5.23,-0.13,-0.02,-0.02,1721206622240
0.37,2.35,11.00,-0.01,-0.03,-0.07,1721206622250
0.23,-3.46,13.87,-0.23,0.00,0.05,1721206622260
-1.99,-1.54,19.64,-0.21,-0.04,0.03,1721206622270
-1.45,7.21,11.60,0.03,-0.12,0.03,1721206622280
1.30,-3.99,5.64,-0.10,0.04,0.14,1721206622290
0.29,-0.71,14.67,-0.07,0.06,0.02,1721206622300
0.98,4.13,11.42,0.23,-0.02,0.03,1721206622310
0.50,2.43,6.50,0.07,0.04,0.09,1721206622320
1.05,0.56,11.88,0.03,0.04,0.07,1721206622330
2.32,1.92,12.04,0.09,-0.01,-0.03,1721206622340
0.85,2.72,11.04,0.04,-0.04,-0.04,1721206622350
0.97,0.46,12.89,0.09,0.12,-0.03,1721206622360
0.59,5.82,9.02,0.30,-0.04,-0.04,1721206622370
1.16,-3.50,4.77,0.13,0.06,-0.08,1721206622380
-0.07,-4.69,12.01,0.06,0.11,-0.13,1721206622390
-0.85,0.83,15.52,0.23,0.05,-0.17,1721206622400
-1.10,4.11,10.77,0.36,-0.01,0.01,1721206622410
-0.53,5.10,7.05,0.34,0.11,0.08,1721206622420
1.44,3.63,7.82,0.23,0.13,0.11,1721206622430
1.84,-5.06,9.70,-0.03,0.10,-0.09,1721206622440
1.50,-0.27,11.41,0.08,0.09,-0.23,1721206622450
0.79,1.01,5.65,0.13,0.06,-0.25,1721206622460
-1.84,-1.53,10.89,0.03,0.08,-0.25,1721206622470
-2.63,-0.89,12.53,0.23,0.08,-0.11,1721206622480
-2.11,1.64,4.62,0.23,0.05,0.03,1721206622490
0.43,2.51,9.00,-0.02,0.19,0.07,1721206622500
2.00,-0.98,13.42,-0.06,0.07,-0.07,1721206622510
0.60,-0.46,11.52,0.06,-0.02,-0.17,1721206622520
-0.03,1.78,7.24,-0.06,0.14,-0.18,1721206622530
-0.30,1.97,12.59,-0.16,0.08,-0.04,1721206622540
-0.11,-0.33,9.93,-0.09,0.07,-0.06,1721206622550
0.57,-4.42,9.17,-0.31,0.17,-0.14,1721206622560
-0.64,1.67,19.45,-0.17,0.06,-0.17,1721206622570
-1.75,10.56,11.48,0.06,-0.02,-0.11,1721206622580
-0.94,-1.57,0.49,-0.06,0.11,0.07,1721206622590
0.72,-7.98,8.32,-0.24,0.27,0.11,1721206622600
0.69,3.28,14.42,0.08,-0.00,0.06,1721206622610
1.95,0.18,10.24,-0.07,0.10,-0.17,1721206622620
-0.49,-0.93,14.88,-0.10,0.04,-0.25,1721206622630
-2.24,5.64,9.79,0.13,-0.02,-0.02,1721206622640
-0.79,-1.66,4.57,-0.06,0.12,0.21,1721206622650
-0.18,-0.22,13.44,0.01,0.21,0.05,1721206622660
0.81,0.73,6.04,0.21,-0.16,-0.13,1721206622670
0.03,-4.41,5.13,0.05,0.13,-0.09,1721206622680
-0.33,-4.01,12.80,-0.10,0.11,0.06,1721206622690
-1.96,4.55,13.00,0.16,0.10,0.05,1721206622700
-1.02,2.23,4.01,0.07,-0.01,-0.00,1721206622710
-0.83,-4.97,7.40,-0.19,-0.01,0.08,1721206622720
2.43,-5.65,18.19,-0.11,0.22,0.13,1721206622730
2.16,2.32,12.55,0.00,-0.00,0.02,1721206622740
-2.22,5.95,7.83,-0.15,-0.06,-0.29,1721206622750
-3.11,0.77,9.42,-0.10,0.00,-0.31,1721206622760
-2.27,-10.70,12.28,-0.26,-0.03,0.07,1721206622770
-1.95,4.12,14.20,0.10,0.05,0.30,1721206622780
1.70,4.25,6.89,0.00,-0.04,0.11,1721206622790
-0.88,3.29,11.30,-0.08,-0.05,-0.20,1721206622800
-1.24,0.57,9.37,0.11,-0.09,-0.24,1721206622810
-2.85,-2.75,7.18,-0.05,-0.09,0.01,1721206622820
-2.24,2.89,14.49,0.00,0.13,0.15,1721206622830
1.22,0.62,10.85,0.07,-0.10,0.17,1721206622840
1.46,1.70,10.68,0.09,-0.03,0.08,1721206622850
3.23,2.04,13.47,0.16,0.03,-0.02,1721206622860
1.46,3.09,10.74,0.20,-0.15,-0.13,1721206622870
-0.99,3.93,7.39,0.26,-0.08,-0.12,1721206622880
-1.07,0.59,9.11,0.17,0.04,-0.11,1721206622890
-1.31,-0.25,13.33,0.18,-0.03,0.02,1721206622900
0.05,2.53,11.08,0.26,-0.07,0.15,1721206622910
-0.48,-0.40,6.50,0.12,-0.06,0.07,1721206622920
-0.09,-2.20,8.75,0.07,0.03,0.05,1721206622930
0.62,1.66,13.16,0.11,-0.01,0.07,1721206622940
0.45,5.85,10.75,0.24,-0.09,0.14,1721206622950
0.62,0.92,6.42,0.04,-0.03,0.03,1721206622960
-0.14,-4.01,7.31,-0.16,-0.09,-0.03,1721206622970
-1.88,1.18,9.70,-0.16,-0.07,-0.05,1721206622980
-1.88,-2.41,8.59,-0.20,-0.10,0.09,1721206622990
-1.10,-4.53,10.25,-0.21,-0.08,0.28,1721206623000
1.63,-3.28,10.04,-0.06,-0.01,0.24,1721206623010
3.85,-0.95,12.48,-0.18,0.05,-0.03,1721206623020
-0.41,5.67,13.31,-0.14,-0.20,-0.24,1721206623030
-2.92,2.71,6.35,-0.06,-0.17,-0.15,1721206623040
-0.91,-2.79,7.79,-0.13,0.07,0.10,1721206623050
-0.91,-5.38,7.19,-0.18,-0.18,0.33,1721206623060
-1.68,-1.71,11.38,-0.38,0.01,0.09,1721206623070
0.11,4.95,16.51,-0.21,-0.09,-0.08,1721206623080
0.75,2.44,3.59,0.01,-0.26,0.01,1721206623090
1.66,-4.39,6.70,-0.30,0.12,0.01,1721206623100
0.19,-0.60,19.14,-0.15,-0.14,0.03,1721206623110
-1.72,6.33,7.27,0.18,-0.21,-0.10,1721206623120
-0.10,-1.30,1.98,-0.06,-0.04,0.00,1721206623130
-1.49,-10.17,21.06,-0.54,-0.04,-0.00,1721206623140
-0.19,10.25,21.49,-0.03,-0.21,0.10,1721206623150
1.53,3.89,2.93,0.27,-0.14,0.10,1721206623160
0.96,-4.91,7.32,-0.19,0.10,-0.05,1721206623170
-0.74,5.19,20.22,0.15,-0.10,-0.04,1721206623180
0.43,6.73,6.63,0.49,-0.22,-0.00,1721206623190
1.15,-4.03,0.30,0.10,-0.06,0.04,1721206623200
1.48,0.46,13.91,0.08,0.13,0.04,1721206623210
1.95,-1.04,11.04,0.26,-0.17,-0.03,1721206623220
0.21,1.68,3.48,0.19,-0.13,-0.03,1721206623230
1.40,-0.92,11.16,0.06,0.12,-0.14,1721206623240
0.90,0.36,17.03,0.14,-0.11,-0.14,1721206623250
-0.61,3.18,10.54,0.14,-0.09,-0.09,1721206623260
-0.92,-2.19,8.72,0.08,-0.05,-0.03,1721206623270
-0.44,-0.41,9.98,0.11,-0.03,-0.02,1721206623280
-0.39,1.48,9.77,0.11,-0.06,-0.13,1721206623290
-0.33,0.09,9.02,0.14,-0.06,-0.08,1721206623300
0.48,-2.89,8.46,0.05,-0.01,-0.01,1721206623310
0.96,0.06,12.40,-0.03,-0.01,-0.04,1721206623320
1.29,3.38,9.15,0.15,-0.04,-0.11,1721206623330
1.83,-2.68,5.01,0.00,0.03,-0.12,1721206623340
1.14,-1.98,11.55,-0.06,0.06,-0.27,1721206623350
-1.31,3.88,10.80,0.14,-0.12,-0.36,1721206623360
-1.92,3.47,10.53,-0.05,0.07,-0.25,1721206623370
-1.45,0.14,13.24,-0.12,0.02,-0.08,1721206623380
0.31,-4.29,10.32,-0.25,0.00,0.01,1721206623390
0.89,1.47,12.07,-0.20,0.06,-0.15,1721206623400
0.82,0.57,8.68,-0.04,-0.05,-0.23,1721206623410
-1.17,-0.31,8.21,0.01,0.01,-0.33,1721206623420
-2.54,2.89,10.63,0.09,-0.07,-0.21,1721206623430
-2.23,1.76,10.78,-0.03,0.04,-0.03,1721206623440
-0.13,0.96,12.87,-0.19,0.01,0.19,1721206623450
2.96,1.15,11.72,-0.07,0.11,0.10,1721206623460
3.93,-2.91,7.38,-0.10,-0.05,-0.14,1721206623470
1.34,1.30,9.74,0.05,0.01,-0.44,1721206623480
0.36,-1.57,9.63,0.05,0.02,-0.43,1721206623490
-2.50,4.87,12.98,0.10,-0.00,-0.24,1721206623500
-2.60,2.51,6.99,0.20,0.04,-0.15,1721206623510
-0.79,-3.22,10.85,-0.09,0.13,-0.06,1721206623520
0.96,-0.62,11.69,0.09,-0.01,-0.17,1721206623530
1.65,0.27,1.00,0.23,-0.06,-0.19,1721206623540
1.98,-1.50,7.91,-0.00,0.32,-0.31,1721206623550
-0.20,1.77,20.67,-0.01,0.01,-0.38,1721206623560
-4.60,0.92,11.95,-0.04,-0.14,-0.41,1721206623570
-2.63,-2.89,7.74,-0.10,0.21,-0.21,1721206623580
0.46,-0.17,10.93,0.03,0.13,0.05,1721206623590
1.31,-0.24,7.18,0.16,0.02,-0.05,1721206623600
0.80,2.55,4.78,0.32,0.14,-0.34,1721206623610
0.24,-2.54,7.69,0.11,0.13,-0.40,1721206623620
-1.67,1.41,16.39,-0.02,0.08,-0.34,1721206623630
-0.64,2.70,13.99,-0.01,0.08,-0.28,1721206623640
-1.08,2.55,11.15,-0.05,0.14,-0.34,1721206623650
-1.85,-2.64,9.55,0.01,0.05,-0.27,1721206623660
-2.82,-3.53,8.00,0.04,0.07,-0.21,1721206623670
-1.55,6.65,10.92,0.13,-0.00,-0.21,1721206623685
-0.03,2.83,9.88,0.11,0.01,-0.24,1721206623689
-1.36,-4.59,11.43,-0.06,0.11,-0.28,1721206623699
-2.06,0.39,13.66,0.14,0.07,-0.18,1721206623709
-1.08,3.82,4.71,0.10,0.04,-0.10,1721206623719
0.51,-0.20,8.96,0.11,0.20,-0.12,1721206623729
0.56,-3.65,8.33,0.11,-0.00,-0.10,1721206623739
-0.68,-0.55,10.51,0.07,0.15,-0.17,1721206623749
1.07,0.85,17.19,0.09,0.25,-0.32,1721206623759
-0.13,6.05,10.83,0.20,0.00,-0.27,1721206623769
-1.92,0.34,5.95,0.03,0.10,-0.12,1721206623779
-2.43,-1.06,10.18,0.10,0.07,-0.01,1721206623789
-0.94,0.54,7.21,0.19,0.06,0.04,1721206623799
-0.57,-1.17,3.23,-0.00,0.03,-0.02,1721206623809
-0.31,-1.48,14.01,-0.16,0.26,-0.15,1721206623819
-0.91,2.02,15.58,0.07,-0.01,-0.09,1721206623829
-2.21,-0.34,6.35,-0.13,-0.04,0.10,1721206623839
-0.36,0.04,14.40,-0.16,0.18,0.17,1721206623849
1.23,4.07,9.22,0.10,-0.03,0.05,1721206623859
1.28,-1.16,5.00,-0.24,0.13,-0.12,1721206623869
-0.89,-2.69,18.08,-0.19,-0.04,-0.03,1721206623879
-1.77,4.60,9.98,0.17,-0.13,0.06,1721206623889
-1.09,-0.95,0.26,-0.14,0.04,0.11,1721206623899
-1.16,-4.32,14.18,-0.29,0.13,0.09,1721206623909
0.71,1.77,18.43,-0.03,0.04,0.04,1721206623919
-0.46,6.96,4.03,0.12,-0.22,0.03,1721206623929
0.79,-5.20,5.20,-0.26,0.21,-0.01,1721206623939
-0.91,-1.59,14.88,-0.12,-0.11,0.05,1721206623949
-0.32,1.07,9.78,-0.04,0.04,0.03,1721206623959
0.36,1.68,11.08,-0.01,-0.03,0.03,1721206623969
0.02,3.00,9.76,0.06,-0.05,0.08,1721206623979
-0.13,-0.46,9.97,-0.09,0.02,0.01,1721206623989
0.71,-1.38,12.03,-0.09,0.03,0.03,1721206623999
-0.62,-0.94,7.63,-0.01,-0.06,-0.00,1721206624009
-0.68,1.32,10.87,0.01,0.05,-0.00,1721206624019
2.37,0.24,10.35,0.09,-0.00,0.07,1721206624029
1.41,-3.69,7.43,-0.04,-0.04,0.05,1721206624039
0.08,-1.29,13.70,-0.10,0.11,-0.13,1721206624049
-0.87,2.17,13.75,0.05,-0.08,-0.13,1721206624059
-1.53,2.34,10.62,0.09,-0.02,-0.01,1721206624069
0.39,1.21,9.06,0.20,0.09,0.14,1721206624079
2.01,-1.19,10.18,0.04,0.09,0.13,1721206624089
1.66,0.75,11.85,0.04,0.02,-0.07,1721206624099
0.75,2.95,10.23,0.05,-0.03,-0.21,1721206624109
0.62,-1.70,9.10,0.11,0.09,-0.11,1721206624119
1.50,-3.30,11.02,0.17,0.15,-0.04,1721206624129
1.03,2.74,8.60,0.27,0.03,-0.13,1721206624139
0.53,5.86,5.67,0.27,0.11,-0.24,1721206624149
-0.38,1.09,12.78,0.06,0.14,-0.32,1721206624159
-1.66,-0.91,13.92,0.11,0.00,-0.11,1721206624169
-1.15,-5.00,9.15,0.05,0.14,-0.12,1721206624179
-0.18,-0.37,9.75,0.03,0.10,-0.08,1721206624189
0.51,2.58,10.94,0.11,0.13,-0.10,1721206624199
0.90,-0.76,10.11,0.15,0.12,-0.18,1721206624209
-0.17,1.54,13.70,0.18,0.15,-0.19,1721206624219
0.34,3.56,9.16,0.24,0.11,-0.07,1721206624229
1.10,1.83,4.90,0.02,0.16,0.02,1721206624239
1.28,1.16,9.33,0.00,0.17,-0.17,1721206624249
1.62,-2.91,9.44,0.05,0.12,-0.30,1721206624259
-0.75,2.30,8.09,0.08,0.09,-0.27,1721206624269
-1.34,-1.39,11.05,-0.15,0.22,-0.21,1721206624279
-2.44,-0.53,11.79,-0.08,0.08,-0.14,1721206624289
-0.76,-0.50,9.52,-0.14,0.20,0.01,1721206624299
0.94,-2.14,11.89,-0.08,0.15,-0.03,1721206624309
1.38,4.45,7.12,0.19,0.03,-0.11,1721206624319
0.89,2.99,3.48,-0.02,0.09,-0.09,1721206624329
-0.31,0.33,12.95,-0.22,0.24,-0.16,1721206624339
0.59,-3.63,17.72,-0.32,0.22,-0.20,1721206624349
-0.59,0.09,14.48,-0.14,0.04,-0.14,1721206624359
-0.26,2.04,4.46,-0.11,0.15,-0.07,1721206624369
-0.62,-1.53,6.52,-0.11,0.21,-0.14,1721206624379
-1.46,0.64,12.71,0.00,0.17,-0.12,1721206624389
-2.28,1.81,5.98,0.14,0.02,-0.12,1721206624399
-0.63,-3.17,7.40,-0.09,0.30,0.01,1721206624409
1.37,1.32,16.52,-0.03,0.28,0.02,1721206624419
1.55,4.05,11.86,-0.03,0.03,-0.02,1721206624429
-0.50,1.23,10.41,-0.13,0.18,-0.20,1721206624439
-0.31,-6.30,11.03,-0.15,0.16,-0.26,1721206624449
-2.98,-2.32,12.02,-0.09,-0.02,-0.09,1721206624459
-1.54,4.68,11.99,0.05,0.21,-0.02,1721206624469
-0.84,3.56,9.47,0.17,0.03,-0.04,1721206624479
-2.21,-2.89,4.24,0.09,-0.02,0.10,1721206624489
0.04,-1.68,11.07,0.06,0.39,0.09,1721206624499
1.87,3.13,13.16,0.11,-0.03,0.06,1721206624509
1.32,0.30,7.65,-0.01,0.11,-0.16,1721206624519
-0.36,-3.29,11.58,-0.04,0.10,-0.15,1721206624529
-2.19,-1.43,15.93,0.05,0.14,-0.09,1721206624539
-3.05,5.75,10.73,0.25,-0.02,0.07,1721206624549
-0.42,3.76,6.57,0.16,0.07,0.15,1721206624559
-0.07,1.63,9.28,0.13,0.04,0.01,1721206624569
0.05,-5.32,9.42,0.03,0.02,-0.09,1721206624579
-1.72,-0.20,9.07,0.08,0.08,-0.09,1721206624589
-1.20,2.75,11.73,0.07,0.17,-0.04,1721206624599
-0.51,0.89,13.67,0.06,-0.05,0.05,1721206624609
-1.69,-0.35,8.77,0.08,-0.07,0.16,1721206624619
1.45,1.53,16.01,0.03,0.24,0.10,1721206624629
1.28,6.59,8.87,0.27,-0.20,0.08,1721206624639
0.92,-0.88,4.60,-0.00,0.11,0.03,1721206624649
-0.00,-2.57,11.44,0.02,0.02,-0.07,1721206624659
0.57,0.89,11.40,0.17,0.16,-0.10,1721206624669
0.40,1.90,4.34,0.19,-0.04,0.05,1721206624679
0.45,-1.02,11.43,-0.13,0.21,-0.01,1721206624689
-2.18,3.56,21.33,0.00,-0.04,-0.11,1721206624699
-2.71,2.59,5.00,0.22,-0.19,0.06,1721206624709
-1.48,-1.73,2.82,-0.11,0.12,0.24,1721206624719
0.87,-0.69,11.51,-0.10,0.06,0.19,1721206624729
0.89,-1.07,7.19,-0.08,-0.06,0.01,1721206624739
-1.40,-1.50,8.53,-0.13,-0.10,0.02,1721206624749
-1.40,-1.25,12.46,-0.08,0.10,0.12,1721206624759
-0.31,4.07,12.26,-0.06,-0.02,0.19,1721206624769
0.85,2.26,8.39,-0.26,-0.07,0.07,1721206624779
-1.00,-4.15,12.78,-0.45,-0.09,0.07,1721206624789
-3.36,-0.83,10.30,-0.14,-0.15,0.11,1721206624799
-0.65,-0.85,8.43,-0.20,0.09,0.24,1721206624809
0.35,5.52,12.94,-0.14,-0.09,0.29,1721206624819
2.71,0.01,9.23,-0.19,-0.13,0.18,1721206624829
1.99,-3.98,12.01,-0.40,0.00,-0.06,1721206624839
-1.89,4.66,13.02,-0.18,-0.16,0.02,1721206624849
-2.56,-0.67,7.06,-0.17,-0.10,0.12,1721206624859
-0.38,-2.12,12.64,-0.09,-0.03,0.25,1721206624869
4.25,0.97,10.31,0.05,-0.07,0.27,1721206624879
2.39,-4.54,8.41,-0.15,-0.10,0.15,1721206624889
-0.04,5.66,15.61,-0.04,0.09,-0.18,1721206624899
0.25,1.67,7.99,0.14,-0.27,-0.20,1721206624909
-1.69,-3.07,5.68,0.06,0.01,-0.06,1721206624919
-0.48,-3.98,11.09,0.16,0.05,0.06,1721206624929
-0.57,5.04,8.88,0.34,-0.15,0.16,1721206624939
0.81,1.29,7.82,0.02,0.05,0.09,1721206624949
1.30,-5.10,15.83,-0.16,-0.06,-0.12,1721206624959
-0.40,3.19,14.91,0.06,-0.10,-0.19,1721206624969
-0.14,2.29,0.26,0.19,-0.10,-0.04,1721206624979
0.27,-3.14,11.25,-0.18,0.27,0.09,1721206624989
-0.72,3.57,23.96,0.06,-0.03,0.08,1721206624999
1.60,0.40,5.51,0.16,-0.15,0.03,1721206625009
2.91,-1.02,7.04,-0.15,0.14,-0.01,1721206625019
1.79,-1.63,16.73,-0.05,-0.02,-0.11,1721206625029
-1.00,5.09,11.26,0.21,-0.06,-0.23,1721206625039
-0.31,-1.78,3.74,0.30,0.05,-0.11,1721206625049
-0.47,-1.00,7.84,0.22,0.13,-0.02,1721206625059
-0.21,7.41,15.86,0.31,0.09,-0.03,1721206625069
0.36,2.94,9.28,0.22,-0.03,-0.06,1721206625079
-0.04,2.42,7.48,0.21,0.01,0.08,1721206625089
2.80,-7.43,7.38,-0.01,0.16,0.03,1721206625099
2.21,2.16,15.00,0.04,0.10,-0.24,1721206625109
0.83,3.08,5.84,0.19,-0.06,-0.30,1721206625119
-1.20,-2.27,6.06,0.03,0.15,-0.27,1721206625129
-1.93,4.02,12.34,0.31,0.06,-0.14,1721206625139
-0.40,1.80,6.16,0.12,0.14,-0.03,1721206625149
-0.83,-2.56,12.18,-0.14,0.10,-0.10,1721206625159
-1.39,2.14,11.90,0.03,-0.06,-0.05,1721206625169
0.14,0.09,6.58,-0.14,0.13,-0.01,1721206625179
0.99,-5.74,14.26,-0.22,0.06,-0.11,1721206625189
0.61,0.52,11.77,0.10,0.02,-0.21,1721206625199
0.52,6.52,5.83,0.01,0.17,-0.19,1721206625209
-2.02,2.36,11.07,-0.17,0.04,-0.10,1721206625219
-1.84,-2.81,12.53,-0.16,0.11,-0.09,1721206625229
0.23,0.02,6.93,0.05,-0.05,0.09,1721206625239
0.74,-2.87,3.15,-0.18,0.10,0.04,1721206625249
-0.22,-1.93,16.28,-0.22,0.18,-0.15,1721206625259
-1.22,4.51,13.05,0.00,-0.02,-0.18,1721206625269
-0.93,3.10,11.55,-0.19,0.16,-0.11,1721206625279
-0.96,-7.41,10.53,-0.23,-0.10,0.13,1721206625289
0.81,1.46,9.19,-0.04,0.21,0.13,1721206625299
3.73,3.81,10.82,0.11,0.06,0.02,1721206625309
-0.59,-0.18,3.37,0.10,-0.22,-0.19,1721206625319
-2.25,-5.80,9.91,-0.08,0.23,-0.20,1721206625329
-0.55,0.32,19.36,-0.06,0.09,-0.01,1721206625339
-1.58,7.71,8.33,0.14,-0.09,0.13,1721206625349
0.71,-4.67,6.37,-0.13,0.17,0.06,1721206625359
-0.21,-7.64,16.61,-0.07,0.02,-0.05,1721206625369
1.20,7.02,10.13,0.38,-0.02,-0.08,1721206625379
-0.62,4.14,0.98,0.19,-0.13,-0.01,1721206625389
-2.77,-6.83,11.70,-0.19,0.20,-0.04,1721206625399
-0.34,-1.80,23.09,0.06,0.08,-0.08,1721206625409
-1.83,7.47,3.18,0.30,-0.31,-0.06,1721206625419
-0.49,-1.07,4.55,-0.07,0.18,-0.03,1721206625429
-1.43,-2.14,17.03,0.05,-0.03,0.01,1721206625439
-2.21,5.53,7.25,0.30,-0.14,-0.05,1721206625449
-2.76,-1.76,0.35,-0.04,-0.16,-0.06,1721206625459
-2.06,-6.32,20.23,-0.32,0.23,-0.06,1721206625469
0.05,11.28,20.08,0.30,-0.11,0.11,1721206625479
-0.46,5.07,-1.19,0.13,-0.25,0.14,1721206625489
0.62,-7.69,11.80,-0.24,0.19,0.06,1721206625499
1.84,-3.89,22.00,0.01,-0.21,0.05,1721206625509
0.71,9.60,4.22,0.37,-0.27,0.02,1721206625519
1.70,0.21,0.72,0.06,-0.00,-0.03,1721206625529
-0.55,-5.22,16.21,-0.01,0.00,-0.07,1721206625539
-0.24,5.17,13.18,0.44,-0.09,-0.20,1721206625549
1.38,4.84,4.47,0.18,-0.08,-0.04,1721206625559
-2.48,0.38,8.08,-0.05,-0.19,-0.06,1721206625569
-2.11,-4.27,12.09,0.03,0.04,-0.17,1721206625579
-1.37,4.32,12.80,0.18,-0.08,0.08,1721206625589
-0.39,1.57,5.00,0.04,-0.24,0.35,1721206625599
0.66,-0.69,8.10,-0.10,-0.06,0.08,1721206625609
2.23,-2.27,10.25,-0.07,-0.13,-0.15,1721206625619
-0.43,1.45,12.77,-0.10,-0.13,-0.16,1721206625629
-1.39,0.56,12.31,-0.10,-0.08,-0.10,1721206625639
-2.30,0.12,10.79,-0.16,-0.16,0.05,1721206625649
-0.18,0.40,11.27,-0.18,-0.09,0.16,1721206625659
1.84,-1.95,12.53,-0.24,-0.10,0.02,1721206625669
-0.16,-1.77,10.71,-0.14,-0.20,-0.08,1721206625679
0.00,0.25,6.05,0.02,-0.14,-0.04,1721206625694
0.64,1.19,6.97,0.12,-0.12,-0.08,1721206625698
-0.14,-0.89,4.31,0.14,-0.15,-0.03,1721206625708
-0.13,-0.30,13.10,-0.03,0.08,-0.13,1721206625718
0.07,5.93,13.61,0.11,-0.12,-0.12,1721206625728
0.15,-0.69,2.17,-0.06,-0.13,-0.09,1721206625738
0.28,-7.36,9.59,-0.34,0.07,-0.11,1721206625748
-0.34,-2.54,19.73,-0.18,-0.03,-0.10,1721206625758
-1.37,4.93,10.57,0.11,-0.21,-0.05,1721206625768
1.76,-0.21,4.49,-0.06,0.11,0.01,1721206625778
1.07,-3.56,14.45,-0.22,-0.07,-0.11,1721206625788
0.11,3.19,16.26,-0.05,-0.05,-0.23,1721206625798
0.31,-0.32,6.94,-0.04,-0.05,-0.19,1721206625808
-1.63,-0.01,10.77,-0.04,0.05,-0.15,1721206625818
-0.47,0.35,9.10,0.17,-0.02,-0.10,1721206625828
1.88,-1.95,10.62,0.01,0.07,-0.04,1721206625838
0.24,3.60,13.64,0.11,0.02,-0.19,1721206625848
-0.96,4.65,8.98,0.19,-0.07,-0.31,1721206625858
-0.69,0.65,6.88,0.13,0.01,-0.15,1721206625868
-0.41,2.17,10.24,0.15,0.07,-0.05,1721206625878
0.99,0.17,8.09,0.16,0.07,-0.05,1721206625888
0.53,-2.41,6.80,0.08,0.01,-0.21,1721206625898
0.39,-0.37,11.12,0.04,0.08,-0.21,1721206625908
0.76,3.25,17.88,0.12,0.17,-0.23,1721206625918
-0.56,4.92,9.81,0.27,-0.05,-0.24,1721206625928
-0.35,-1.94,4.34,0.09,0.09,-0.15,1721206625938
0.91,-4.62,12.43,-0.08,0.18,-0.11,1721206625948
0.38,3.67,13.07,0.18,0.02,-0.26,1721206625958
0.37,-0.93,5.48,0.09,0.05,-0.28,1721206625968
-1.20,1.05,11.03,0.02,0.09,-0.18,1721206625978
-0.10,3.39,9.93,0.10,0.16,-0.17,1721206625988
0.97,-0.13,9.23,-0.10,0.15,-0.13,1721206625998
1.24,-0.11,13.46,-0.18,0.19,-0.18,1721206626008
1.00,-0.08,9.76,-0.08,0.07,-0.33,1721206626018
-1.08,2.49,9.53,-0.05,0.13,-0.34,1721206626028
-2.66,-0.12,8.16,-0.20,0.11,-0.27,1721206626038
-3.73,-3.20,12.13,-0.27,0.07,-0.03,1721206626048
-1.86,2.42,14.18,-0.16,0.22,-0.03,1721206626058
0.53,-2.31,8.77,-0.17,0.07,0.03,1721206626068
0.79,0.90,12.61,-0.14,0.14,-0.06,1721206626078
1.21,4.61,7.45,0.02,0.08,-0.08,1721206626088
0.21,0.32,9.89,-0.17,0.16,-0.13,1721206626098
-0.05,-4.00,13.57,-0.27,0.05,-0.17,1721206626108
-0.45,-0.05,12.33,-0.20,0.03,-0.11,1721206626118
0.40,3.69,11.17,-0.15,0.15,-0.10,1721206626128
0.86,-3.93,4.70,-0.09,0.08,-0.17,1721206626138
-1.36,1.81,12.15,-0.08,0.27,-0.31,1721206626148
-1.80,2.15,12.31,0.04,-0.01,-0.14,1721206626158
-1.89,-1.02,9.48,-0.16,0.09,0.01,1721206626168
0.29,-0.56,14.70,-0.10,0.21,0.10,1721206626178
0.54,-4.03,8.17,-0.15,-0.03,0.02,1721206626188
0.76,1.97,12.43,-0.03,0.25,-0.19,1721206626198
1.70,-1.85,7.56,0.13,-0.07,-0.25,1721206626208
-0.94,-0.37,12.19,-0.01,0.26,-0.12,1721206626218
-0.21,0.70,17.56,0.09,0.20,-0.06,1721206626228
-1.48,3.17,7.42,0.14,-0.12,-0.03,1721206626238
0.34,1.42,6.69,0.09,0.25,-0.10,1721206626248
1.34,-0.50,10.52,0.13,0.00,-0.10,1721206626258
-1.10,-1.03,8.91,0.07,0.05,-0.19,1721206626268
-1.99,-2.24,12.45,0.05,0.16,-0.24,1721206626278
-3.50,2.56,11.22,0.12,-0.06,-0.03,1721206626288
-2.01,5.48,7.47,0.20,0.12,0.05,1721206626298
0.01,-0.28,10.24,0.13,0.06,0.09,1721206626308
0.04,-3.48,10.78,0.10,-0.04,0.07,1721206626318
0.57,3.23,7.26,0.30,0.05,-0.03,1721206626328
1.10,1.87,8.71,0.03,0.11,-0.18,1721206626338
-1.48,-2.17,15.79,-0.07,-0.16,-0.17,1721206626348
-2.54,4.59,10.78,0.30,-0.04,-0.07,1721206626358
-0.90,0.06,5.99,0.09,0.11,0.05,1721206626368
-2.14,0.12,9.49,0.05,-0.10,0.08,1721206626378
1.38,1.25,9.71,0.15,0.11,0.03,1721206626388
2.23,-1.19,8.94,0.05,-0.08,0.07,1721206626398
0.93,1.87,10.54,0.18,0.01,-0.04,1721206626408
1.70,4.80,11.22,0.18,0.11,-0.19,1721206626418
-1.57,0.18,7.00,-0.06,-0.24,-0.18,1721206626428
-3.12,-4.14,11.54,-0.18,0.09,-0.12,1721206626438
-1.92,1.30,13.13,0.08,-0.07,0.12,1721206626448
-0.96,-0.33,2.91,-0.02,-0.12,0.27,1721206626458
1.12,-0.42,9.51,0.01,0.12,0.19,1721206626468
3.23,2.94,11.25,0.15,-0.05,0.08,1721206626478
1.33,2.69,6.30,-0.05,-0.09,-0.20,1721206626488
-0.85,0.34,12.46,-0.09,-0.01,-0.20,1721206626498
-2.03,-3.28,10.78,-0.23,-0.10,0.05,1721206626508
-1.85,2.75,12.34,-0.17,-0.07,0.14,1721206626518
1.80,2.69,9.60,-0.15,0.04,0.03,1721206626528
0.34,-1.86,9.50,-0.22,-0.17,-0.05,1721206626538
-2.02,-1.44,10.28,-0.15,-0.04,-0.16,1721206626548
-0.12,-1.31,10.46,-0.11,-0.01,-0.02,1721206626558
-0.55,-0.64,10.34,-0.07,-0.11,0.16,1721206626568
1.77,-1.79,11.42,-0.01,0.10,0.10,1721206626578
1.25,6.14,11.55,0.07,-0.13,-0.11,1721206626588
0.95,4.29,6.65,0.14,-0.11,-0.19,1721206626598
0.78,-6.73,12.93,-0.28,0.12,-0.26,1721206626608
-3.23,3.20,16.19,-0.11,-0.21,-0.26,1721206626618
-2.22,3.75,2.83,0.07,-0.09,0.04,1721206626628
-0.11,-2.74,9.45,-0.13,0.17,0.10,1721206626638
1.36,-3.98,14.69,-0.01,-0.02,0.02,1721206626648
2.57,-0.78,8.32,0.08,-0.04,-0.15,1721206626658
1.77,2.15,9.39,0.06,0.02,-0.16,1721206626668
-0.92,1.26,11.02,0.05,0.03,-0.32,1721206626678
-2.72,0.55,11.34,0.10,-0.14,-0.26,1721206626688
-1.57,1.26,6.89,0.18,0.06,-0.01,1721206626698
1.38,-4.70,11.55,-0.04,0.17,0.06,1721206626708
0.41,2.48,15.64,0.02,0.06,-0.17,1721206626718
0.54,5.88,11.58,0.06,-0.02,-0.24,1721206626728
1.16,0.30,7.65,0.08,0.07,-0.17,1721206626738
0.89,-2.13,7.05,0.17,0.11,-0.18,1721206626748
0.09,-2.28,4.74,0.16,0.07,-0.28,1721206626758
-0.84,4.82,6.41,0.30,0.12,-0.26,1721206626768
0.75,-3.96,8.79,0.02,0.21,-0.25,1721206626778
-1.13,-1.16,22.66,-0.01,0.03,-0.23,1721206626788
-1.26,6.21,7.71,0.28,0.02,-0.18,1721206626798
0.47,-3.18,8.25,-0.27,0.27,-0.20,1721206626808
-2.25,0.90,23.34,-0.12,-0.03,-0.24,1721206626818
-2.45,4.11,8.48,0.23,-0.01,-0.16,1721206626828
-0.49,-5.96,1.89,0.03,0.20,0.01,1721206626838
-0.25,0.74,10.77,0.19,0.23,-0.08,1721206626848
2.07,3.12,8.83,0.26,0.13,-0.14,1721206626858
0.32,6.73,10.43,0.23,0.05,-0.14,1721206626868
0.91,0.32,6.48,0.11,0.15,-0.11,1721206626878
0.42,-5.89,9.51,-0.17,0.13,-0.16,1721206626888
-0.05,1.71,14.16,-0.07,0.13,-0.18,1721206626898
0.81,2.06,6.55,0.01,0.17,-0.27,1721206626908
-1.03,-2.56,11.07,-0.13,0.13,-0.30,1721206626918
-2.24,2.49,20.91,0.12,0.17,-0.09,1721206626928
-2.34,5.77,5.71,0.25,-0.00,-0.11,1721206626938
-2.09,2.55,2.02,-0.14,0.19,-0.05,1721206626948
-0.09,-0.74,13.47,-0.14,0.22,0.05,1721206626958
2.54,-2.57,8.71,0.04,0.08,0.12,1721206626968
3.09,1.20,6.62,0.05,0.18,-0.11,1721206626978
2.08,-2.06,8.94,-0.11,0.24,-0.38,1721206626988
-1.42,-0.87,15.67,-0.16,0.06,-0.39,1721206626998
-2.60,1.67,11.52,0.06,0.07,-0.08,1721206627008
-0.49,-2.74,7.71,0.00,0.24,0.07,1721206627018
-0.52,5.74,14.05,0.15,0.13,0.07,1721206627028
-0.26,9.33,6.68,0.17,0.05,-0.11,1721206627038
0.73,-7.97,6.48,-0.26,0.16,-0.23,1721206627048
0.92,-7.23,16.72,-0.17,0.30,-0.21,1721206627058
-0.97,4.05,10.48,0.15,0.00,-0.13,1721206627068
-3.09,-1.48,7.11,-0.07,0.19,-0.12,1721206627078
-2.49,3.49,8.00,0.44,0.10,-0.04,1721206627088
2.31,-2.62,10.32,0.04,0.34,0.07,1721206627098
1.00,4.46,13.51,0.10,-0.19,-0.04,1721206627108
2.40,-1.26,8.42,-0.01,0.29,-0.16,1721206627118
-0.62,-4.12,11.86,-0.02,0.11,-0.22,1721206627128
-3.30,0.56,10.17,0.11,0.09,-0.14,1721206627138
-2.80,-1.23,9.26,0.05,0.01,0.01,1721206627148
-0.34,-0.28,10.31,0.09,0.21,0.06,1721206627158
0.04,1.23,15.02,-0.10,0.16,0.07,1721206627168
-1.93,8.30,12.99,0.21,0.02,-0.01,1721206627178
0.95,0.42,3.09,0.19,0.10,-0.09,1721206627188
-0.55,-5.64,3.61,0.05,-0.02,0.02,1721206627198
-1.45,4.99,7.79,0.23,0.15,0.10,1721206627208
1.26,-4.21,13.40,-0.15,0.25,-0.00,1721206627218
-2.31,-1.23,20.39,-0.03,-0.14,-0.07,1721206627228
-3.47,5.95,1.81,0.26,-0.05,0.03,1721206627238
-0.04,-0.06,6.15,-0.02,0.24,0.22,1721206627248
1.62,3.32,14.63,0.09,0.06,0.20,1721206627258
2.51,-0.18,7.12,0.08,-0.01,0.11,1721206627268
0.74,-0.16,7.86,-0.11,0.09,-0.02,1721206627278
-0.20,-2.92,12.35,-0.20,0.08,-0.13,1721206627288
-1.30,-5.05,13.86,-0.26,0.02,-0.11,1721206627298
-3.21,3.64,12.34,-0.01,-0.08,0.15,1721206627308
-1.92,3.43,8.58,0.02,0.08,0.33,1721206627318
1.30,1.56,9.25,-0.04,0.03,0.29,1721206627328
2.30,-0.16,8.77,-0.08,-0.02,0.11,1721206627338
-0.23,1.76,11.73,-0.18,-0.03,-0.01,1721206627348
-1.67,-2.01,11.76,-0.14,-0.04,0.10,1721206627358
-0.58,-3.70,8.86,-0.00,-0.05,0.34,1721206627368
0.99,1.60,8.34,0.09,0.00,0.33,1721206627378
2.12,5.19,11.23,0.07,-0.05,0.14,1721206627388
1.02,3.51,8.21,0.10,-0.17,-0.01,1721206627398
-1.32,1.84,8.23,-0.01,-0.05,-0.08,1721206627408
-2.20,0.58,13.39,-0.15,-0.04,0.09,1721206627418
-4.00,-2.59,11.92,-0.22,-0.18,0.22,1721206627428
-2.97,-0.39,6.27,-0.07,-0.12,0.31,1721206627438
1.87,-4.90,9.99,-0.22,0.09,0.37,1721206627448
2.16,-0.06,18.13,-0.06,-0.11,0.32,1721206627458
2.67,6.23,11.21,0.04,-0.20,0.11,1721206627468
1.28,4.17,9.51,-0.03,-0.15,-0.02,1721206627478
-0.80,5.14,8.79,0.08,-0.13,-0.13,1721206627488
-1.43,-6.92,5.66,-0.11,-0.21,-0.03,1721206627498
-2.74,-7.73,12.16,-0.13,-0.15,0.19,1721206627508
-1.09,4.19,9.56,0.27,-0.05,0.27,1721206627518
2.85,0.36,7.00,0.07,-0.09,0.33,1721206627528
2.35,2.12,16.18,0.03,-0.11,0.17,1721206627538
2.65,1.59,10.31,0.14,-0.23,-0.05,1721206627548
0.69,2.16,5.94,0.09,-0.09,-0.20,1721206627558
-1.61,-0.20,6.81,0.05,-0.12,-0.12,1721206627568
-1.86,-1.51,5.23,0.09,-0.19,0.08,1721206627578
1.05,-2.90,11.18,-0.11,0.11,0.11,1721206627588
1.85,-4.70,19.14,-0.17,-0.18,0.10,1721206627598
0.38,2.43,12.67,-0.02,-0.26,-0.03,1721206627608
1.05,0.13,7.69,-0.12,-0.02,-0.13,1721206627618
-0.64,-3.44,11.42,-0.13,-0.15,-0.08,1721206627628
-0.35,2.15,11.11,0.12,-0.10,-0.04,1721206627638
-1.64,4.01,4.81,0.19,-0.27,-0.21,1721206628168
0.07,0.21,6.46,0.17,0.01,-0.14,1721206628172
-3.32,-1.73,6.10,0.08,-0.01,-0.03,1721206628182
-0.87,-2.18,8.20,0.09,0.11,0.13,1721206628192
2.54,5.04,13.08,0.12,0.12,0.20,1721206628202
1.31,7.35,6.99,0.22,-0.21,0.00,1721206628212
0.98,-5.10,8.54,-0.17,0.17,-0.19,1721206628222
-0.41,-1.24,22.73,-0.09,0.10,-0.27,1721206628232
-2.13,5.48,7.57,0.05,-0.23,-0.09,1721206628242
-3.41,1.45,3.28,-0.24,0.03,0.11,1721206628252
-0.40,-6.76,13.82,-0.19,0.08,0.25,1721206628262
1.38,5.43,12.15,0.25,-0.16,0.19,1721206628272
2.96,-0.04,-3.47,-0.05,0.02,-0.12,1721206628282
-0.07,-2.22,8.52,-0.33,0.05,-0.21,1721206628292
-0.13,-0.37,26.95,-0.17,0.02,0.03,1721206628302
-3.84,5.36,14.02,0.08,-0.37,0.03,1721206628312
-1.28,2.35,8.04,-0.12,0.22,-0.07,1721206628322
1.57,-1.00,11.57,-0.17,-0.03,0.11,1721206628332
0.06,-1.39,7.92,-0.32,-0.18,0.13,1721206628342
-1.00,4.61,14.10,-0.09,-0.05,-0.11,1721206628352
0.07,-3.11,5.34,0.00,-0.10,0.00,1721206628362
0.90,-4.63,9.85,-0.12,0.17,-0.01,1721206628372
1.87,3.29,11.93,0.03,-0.14,0.03,1721206628382
-0.38,1.96,-0.61,-0.16,-0.25,0.04,1721206628392
1.21,-9.19,13.90,-0.34,0.41,-0.09,1721206628402
0.62,-1.75,20.23,0.09,-0.05,-0.18,1721206628412
-1.03,1.76,7.01,-0.01,-0.18,-0.15,1721206628422
-0.79,0.76,12.45,-0.22,0.07,0.00,1721206628432
0.94,6.62,15.07,0.06,0.11,0.00,1721206628442
1.82,-0.11,6.23,0.05,-0.00,0.02,1721206628452
0.05,-2.68,11.56,-0.11,0.06,-0.17,1721206628462
-0.95,-4.53,-2.95,0.09,-0.24,-0.23,1721206628472
1.72,1.67,15.15,-0.12,0.54,-0.30,1721206628482
-0.86,6.67,12.76,0.10,-0.40,-0.02,1721206628492
-0.03,-7.91,2.95,-0.07,0.33,0.02,1721206628502
-0.72,-4.06,19.96,-0.05,0.05,-0.16,1721206628512
0.10,5.39,11.78,0.07,-0.12,-0.15,1721206628522
0.38,9.05,11.21,0.06,0.14,-0.04,1721206628532
0.76,-2.25,12.84,-0.01,0.07,0.01,1721206628542
-0.82,0.85,9.34,0.19,-0.02,-0.06,1721206628552
1.88,1.11,8.47,0.05,0.26,-0.21,1721206628562
0.34,1.54,14.60,-0.05,-0.03,-0.20,1721206628572
-2.86,5.52,15.14,0.19,0.00,-0.22,1721206628582
-0.79,-1.40,3.90,0.35,0.02,0.04,1721206628592
0.48,-0.60,4.20,0.27,0.19,0.11,1721206628602
1.32,1.09,10.83,0.23,0.06,-0.07,1721206628612
-0.86,4.18,8.67,0.28,-0.07,-0.19,1721206628622
-0.99,1.51,7.34,0.20,0.12,-0.00,1721206628632
0.91,-4.63,9.84,0.10,0.11,0.04,1721206628642
1.70,1.62,17.11,0.04,0.15,-0.17,1721206628652
0.40,6.38,8.42,0.17,-0.13,-0.14,1721206628662
-0.04,0.41,3.16,-0.01,0.21,-0.13,1721206628672
-0.02,-5.70,10.79,-0.13,0.11,-0.15,1721206628682
-1.77,-1.14,12.71,0.14,-0.05,-0.20,1721206628692
-1.01,2.42,3.10,0.09,0.09,-0.15,1721206628702
-1.51,2.05,4.21,-0.08,-0.00,0.00,1721206628712
0.85,-6.25,15.21,-0.28,0.27,-0.00,1721206628722
1.25,3.26,20.89,-0.00,0.03,-0.07,1721206628732
0.07,3.06,4.34,-0.07,-0.07,-0.17,1721206628742
-0.73,-1.51,12.67,-0.47,0.23,-0.20,1721206628752
-0.13,1.25,19.10,-0.18,0.05,-0.13,1721206628762
-1.40,1.72,6.29,-0.05,-0.08,-0.06,1721206628772
-1.90,-0.38,7.10,-0.08,0.10,-0.03,1721206628782
0.08,-1.64,8.67,0.02,0.08,0.04,1721206628792
0.78,-1.14,10.47,-0.01,0.08,0.10,1721206628802
1.71,2.66,9.05,0.16,0.12,-0.13,1721206628812
1.44,0.52,8.80,0.08,0.01,-0.16,1721206628822
1.59,2.41,12.74,0.09,0.13,-0.20,1721206628832
1.49,2.37,10.19,-0.02,0.02,-0.16,1721206628842
-2.28,-6.99,8.04,-0.27,-0.06,-0.17,1721206628852
-1.72,-1.66,16.29,-0.03,0.35,-0.26,1721206628862
-1.24,4.60,10.99,0.22,-0.06,-0.20,1721206628872
-2.07,1.14,4.78,0.12,0.06,-0.15,1721206628882
-0.77,-4.60,8.24,0.08,0.08,0.04,1721206628892
0.81,1.36,13.72,0.08,0.24,-0.01,1721206628902
0.78,6.58,9.02,0.12,-0.04,-0.16,1721206628912
-0.74,-2.73,6.62,-0.10,0.05,-0.26,1721206628922
0.17,-4.45,14.05,-0.08,0.24,-0.30,1721206628932
-0.66,4.20,13.50,0.07,-0.01,-0.17,1721206628942
-1.44,3.24,5.86,-0.05,0.03,-0.13,1721206628952
-1.00,-8.41,10.59,-0.17,0.15,-0.14,1721206628962
-2.70,-1.31,11.82,0.01,-0.06,-0.10,1721206628972
-0.45,8.23,14.24,0.13,0.22,-0.09,1721206628982
-0.35,1.77,6.60,0.13,-0.16,-0.15,1721206628992
-2.81,0.15,1.68,0.08,0.05,-0.16,1721206629002
0.73,-2.77,12.84,-0.05,0.33,-0.03,1721206629012
-0.73,0.98,13.71,0.01,-0.15,-0.02,1721206629022
-0.03,0.02,12.64,-0.15,0.10,-0.10,1721206629032
-0.39,2.89,15.00,0.07,-0.07,-0.07,1721206629042
1.43,1.20,6.71,0.16,0.17,0.00,1721206629052
1.28,1.47,10.21,-0.03,0.10,-0.07,1721206629062
-0.38,8.45,15.14,0.19,-0.05,-0.14,1721206629072
-0.63,0.47,4.52,0.26,-0.03,-0.13,1721206629082
-1.24,-8.48,0.77,-0.01,0.06,-0.08,1721206629092
-2.29,3.86,16.87,-0.09,0.21,-0.04,1721206629102
-1.12,7.07,16.38,0.11,-0.00,-0.01,1721206629112
-0.47,-1.11,4.50,0.07,-0.08,0.01,1721206629122
-0.28,-6.65,8.79,-0.11,0.15,0.09,1721206629132
0.10,4.08,22.94,-0.12,0.06,0.09,1721206629142
-1.09,6.14,9.41,0.13,-0.22,0.04,1721206629152
-2.13,1.53,-2.56,0.16,0.00,-0.02,1721206629162
-0.07,-8.05,6.62,-0.08,0.11,0.13,1721206629172
-0.16,-2.30,17.27,-0.01,-0.16,0.34,1721206629182
0.85,6.00,6.89,0.25,-0.01,0.16,1721206629192
2.03,-2.08,2.64,-0.09,-0.05,-0.02,1721206629202
-0.84,0.99,15.56,-0.09,-0.00,-0.02,1721206629212
-0.05,2.44,9.65,0.07,-0.09,0.07,1721206629222
-0.97,-3.05,8.18,-0.33,-0.02,-0.04,1721206629232
-3.21,-1.26,14.58,-0.18,-0.11,-0.08,1721206629242
-1.84,0.48,5.20,0.06,-0.10,0.19,1721206629252
1.29,-1.49,5.94,-0.12,0.08,0.31,1721206629262
3.10,-1.27,20.20,-0.27,0.06,0.16,1721206629272
-0.44,4.61,12.39,-0.02,-0.31,-0.07,1721206629282
-0.09,1.38,-0.27,-0.09,-0.02,-0.15,1721206629292
-0.56,-6.19,15.01,-0.40,0.13,-0.05,1721206629302
-0.29,-0.47,18.37,-0.01,-0.11,0.10,1721206629312
1.44,1.10,6.62,0.06,-0.07,0.13,1721206629322
1.08,5.90,9.76,0.08,0.04,0.10,1721206629332
2.15,2.11,10.81,0.07,0.01,-0.08,1721206629342
-0.11,-3.92,10.14,-0.05,-0.19,-0.23,1721206629352
-1.90,-0.09,9.97,0.12,-0.05,-0.11,1721206629362
-0.55,-0.38,9.02,0.15,0.04,0.03,1721206629372
-1.50,5.83,10.16,0.26,-0.07,0.06,1721206629382
1.22,1.58,8.78,0.15,0.09,0.02,1721206629392
1.76,-2.22,10.37,0.02,-0.04,-0.02,1721206629402
0.79,2.18,12.81,0.05,0.05,-0.21,1721206629412
-0.57,0.91,8.83,0.07,-0.16,-0.15,1721206629422
-0.69,-1.16,7.86,0.04,0.08,-0.05,1721206629432
1.87,-1.65,9.93,0.10,0.05,-0.00,1721206629442
1.93,2.09,12.10,0.07,0.04,-0.12,1721206629452
0.99,2.13,11.81,0.06,0.06,-0.31,1721206629462
-0.95,-0.82,10.23,0.09,-0.02,-0.32,1721206629472
-1.91,1.36,8.83,0.12,0.05,-0.16,1721206629482
-0.70,1.20,11.27,0.09,0.11,-0.05,1721206629492
0.43,-0.71,8.81,0.08,0.03,-0.09,1721206629502
0.46,0.32,4.41,0.07,0.04,-0.17,1721206629512
0.91,-3.31,9.47,-0.13,0.20,-0.20,1721206629522
-0.65,1.93,19.04,-0.00,0.04,-0.29,1721206629532
-1.04,2.91,7.97,0.17,0.04,-0.18,1721206629542
0.00,-1.92,2.70,-0.10,0.15,-0.02,1721206629552
0.85,-1.63,10.63,-0.08,0.16,-0.18,1721206629562
1.34,0.12,11.95,-0.01,0.08,-0.37,1721206629572
-1.67,5.04,10.23,0.07,-0.03,-0.32,1721206629582
-2.20,1.62,9.28,-0.10,0.16,-0.15,1721206629592
-0.99,-3.62,11.56,-0.22,0.12,-0.03,1721206629602
0.61,-1.71,13.52,-0.25,0.16,-0.08,1721206629612
1.82,2.94,14.58,-0.11,0.15,-0.23,1721206629622
1.15,4.41,8.31,0.07,0.09,-0.36,1721206629632
-2.25,1.18,6.38,0.03,0.04,-0.34,1721206629642
-2.15,-2.96,13.30,-0.10,0.23,-0.14,1721206629652
-0.80,2.35,13.77,-0.03,0.15,0.00,1721206629662
0.61,6.09,10.37,0.03,0.19,-0.07,1721206629672
1.69,-1.61,7.82,-0.04,0.14,-0.24,1721206629682
-0.05,-4.94,13.98,0.00,0.17,-0.34,1721206629692
-1.30,2.21,9.71,0.22,0.08,-0.28,1721206629702
-1.90,5.47,8.16,0.14,0.16,-0.13,1721206629712
-1.12,-0.96,11.10,0.13,0.19,-0.09,1721206629722
-0.98,-0.17,12.81,0.17,0.11,-0.09,1721206629732
0.02,2.06,5.60,0.27,0.11,-0.12,1721206629742
0.21,2.71,7.14,0.15,0.23,-0.12,1721206629752
0.26,-1.81,6.39,0.23,0.06,-0.15,1721206629762
-0.22,-9.56,2.71,0.08,0.12,-0.19,1721206629772
-2.11,-3.49,13.67,0.04,0.17,-0.08,1721206629782
-0.44,4.26,17.76,0.24,0.24,-0.01,1721206629792
-0.13,5.60,10.41,0.28,0.09,0.00,1721206629802
-0.67,0.69,3.50,0.13,0.05,0.05,1721206629812
0.88,4.82,7.57,0.22,0.29,0.02,1721206629822
2.55,-3.52,9.69,-0.03,0.08,-0.07,1721206629832
-0.28,-4.96,14.39,-0.19,0.04,-0.28,1721206629842
-3.39,1.67,9.88,0.03,-0.06,-0.21,1721206629852
-3.75,-0.96,5.78,-0.13,0.17,0.01,1721206629862
-2.70,-1.38,14.20,-0.01,0.16,0.25,1721206629872
-0.17,0.12,8.28,0.16,0.06,0.23,1721206629882
1.66,0.32,5.28,0.11,0.09,0.02,1721206629892
1.53,-0.41,10.72,0.06,0.11,-0.12,1721206629902
-0.16,5.26,17.03,0.13,0.09,-0.10,1721206629912
-1.93,7.28,11.65,0.20,-0.11,0.01,1721206629922
-3.15,0.99,4.64,0.05,-0.07,0.11,1721206629932
0.51,-8.42,13.80,-0.19,0.25,0.21,1721206629942
0.81,-1.00,20.00,-0.08,-0.06,0.09,1721206629952
-1.98,9.14,3.95,0.33,-0.22,-0.05,1721206629962
-0.52,2.10,-2.94,0.35,0.05,0.25,1721206629972
2.64,-1.62,7.80,0.18,0.25,0.42,1721206629982
4.40,-0.45,14.35,0.15,-0.04,0.17,1721206629992
1.42,2.57,5.79,0.11,-0.14,-0.24,1721206630002
-2.35,0.64,5.43,-0.10,0.04,-0.31,1721206630012
-3.02,-8.73,21.82,-0.40,0.18,0.08,1721206630022
-1.91,4.99,26.65,0.23,-0.02,0.36,1721206630032
0.33,7.96,-2.04,0.28,-0.17,0.21,1721206630042
0.72,-3.08,3.41,-0.44,0.11,0.09,1721206630052
1.15,-3.36,24.23,-0.18,-0.09,0.11,1721206630062
0.23,3.37,3.72,0.29,-0.31,0.08,1721206630072
-0.70,3.50,-1.28,-0.08,0.10,-0.02,1721206630082
-1.42,-3.03,7.00,-0.12,-0.16,0.08,1721206630092
-2.28,-4.59,7.41,-0.20,0.00,0.05,1721206630102
-1.19,1.02,18.12,-0.19,0.14,0.09,1721206630112
-0.83,-2.21,15.98,-0.19,-0.11,0.13,1721206630122
-0.78,-2.35,16.99,-0.33,-0.12,0.21,1721206630132
0.33,8.79,9.69,0.04,-0.21,0.38,1721206630142
4.85,1.94,1.74,-0.17,0.02,0.24,1721206630152
1.35,-1.62,8.13,-0.25,-0.24,-0.07,1721206630162
-2.73,0.10,11.41,-0.01,-0.35,-0.26,1721206630177
-2.42,1.21,9.96,0.04,-0.27,-0.25,1721206630181
-3.67,-1.12,6.54,-0.11,-0.07,0.20,1721206630191
-0.79,5.07,13.32,-0.02,-0.03,0.41,1721206630201
1.67,4.86,10.19,0.04,-0.07,0.33,1721206630211
2.31,-3.23,7.17,-0.18,-0.06,-0.04,1721206630221
1.97,-6.69,15.14,-0.22,-0.07,-0.21,1721206630231
-1.33,-0.34,15.09,-0.18,-0.24,-0.21,1721206630241
-0.80,5.31,12.98,0.12,-0.11,0.07,1721206630251
1.22,3.43,6.40,0.29,0.02,0.25,1721206630261
1.83,-4.95,3.53,0.09,-0.09,0.13,1721206630271
0.02,-0.28,12.01,-0.02,-0.05,-0.24,1721206630281
-0.48,3.32,16.00,0.04,-0.08,-0.36,1721206630291
-2.68,0.55,12.20,0.11,-0.23,0.02,1721206630301
-1.01,-1.64,7.44,0.09,0.01,0.24,1721206630311
1.68,1.41,11.91,0.13,0.01,0.16,1721206630321
1.74,3.60,9.98,0.11,-0.13,-0.04,1721206630331
1.20,2.03,8.18,0.12,-0.07,-0.11,1721206630341
1.61,-2.45,6.64,0.15,-0.00,-0.08,1721206630351
1.16,-3.16,10.19,0.01,0.03,-0.09,1721206630361
-0.38,-0.09,11.32,0.14,-0.20,-0.12,1721206630371
0.06,3.26,7.04,0.18,0.06,-0.08,1721206630381
1.18,5.80,11.02,0.19,0.04,0.00,1721206630391
1.20,-0.29,10.13,0.11,-0.03,-0.12,1721206630401
-0.13,-8.27,12.39,-0.07,-0.00,-0.32,1721206630411
-2.72,2.73,16.52,0.04,-0.14,-0.23,1721206630421
-1.85,10.73,12.27,0.19,0.03,0.05,1721206630431
0.92,-0.94,5.12,0.11,0.01,0.07,1721206630441
2.00,-8.75,5.95,0.03,0.03,-0.09,1721206630451
1.11,4.66,13.40,0.10,0.11,-0.34,1721206630461
-0.98,7.43,9.45,0.11,-0.11,-0.34,1721206630471
-1.24,-2.35,6.45,0.03,0.05,-0.15,1721206630481
-0.43,-3.01,10.42,-0.02,0.04,0.03,1721206630491
1.18,7.32,11.67,0.09,0.08,-0.08,1721206630501
2.86,-1.36,6.26,-0.19,0.01,-0.29,1721206630511
0.27,-6.14,12.55,-0.36,-0.05,-0.37,1721206630521
-1.48,-1.26,15.43,-0.09,0.05,-0.39,1721206630531
-1.87,1.19,7.72,0.05,0.03,-0.18,1721206630541
-2.24,3.24,7.59,-0.02,0.02,-0.07,1721206630551
-0.83,5.86,11.19,0.09,0.08,-0.12,1721206630561
1.47,-0.79,4.84,0.02,-0.01,-0.14,1721206630571
1.90,-7.47,5.02,-0.25,0.07,-0.16,1721206630581
0.61,-0.25,17.78,-0.30,0.13,-0.31,1721206630591
-0.71,7.13,13.84,0.04,-0.02,-0.39,1721206630601
-2.11,-4.82,-0.17,-0.13,0.00,-0.32,1721206630611
-2.40,-7.39,7.86,-0.29,0.17,-0.16,1721206630621
0.02,6.29,26.44,-0.10,0.24,-0.05,1721206630631
-0.53,7.72,7.80,0.14,-0.26,-0.16,1721206630641
-0.42,-4.82,-3.54,-0.16,0.13,-0.19,1721206630651
0.97,-12.52,17.06,-0.38,0.43,-0.23,1721206630661
0.95,5.09,21.42,0.03,-0.00,-0.13,1721206630671
0.12,9.01,3.74,0.22,0.05,-0.24,1721206630681
0.03,-5.82,9.76,-0.12,0.18,-0.27,1721206630691
-0.99,0.14,21.53,0.03,-0.01,-0.20,1721206630701
-0.74,6.76,10.77,0.14,0.06,-0.11,1721206630711
0.21,6.34,6.11,0.11,0.20,-0.12,1721206630721
-0.74,-5.38,5.83,0.14,0.01,-0.25,1721206630731
-1.93,-7.21,6.39,0.15,0.10,-0.33,1721206630741
-0.85,1.10,11.69,0.22,0.23,-0.29,1721206630751
0.04,2.29,13.62,0.17,0.21,-0.17,1721206630761
-1.29,8.46,11.59,0.24,0.06,-0.15,1721206630771
-0.90,3.16,6.31,0.15,0.07,-0.17,1721206630781
-2.21,-6.07,12.23,-0.19,0.03,-0.20,1721206630791
-1.64,0.19,13.02,0.15,0.02,-0.17,1721206630801
0.86,2.59,-0.37,0.22,0.10,-0.09,1721206630811
0.30,-3.83,6.31,-0.09,0.22,-0.17,1721206630821
-0.78,-0.22,24.87,0.04,0.03,-0.12,1721206630831
-2.55,6.25,7.95,0.36,-0.11,-0.13,1721206630841
0.10,-0.52,2.54,-0.06,0.28,-0.12,1721206630851
-1.78,-0.64,12.34,-0.03,-0.03,-0.08,1721206630861
-0.41,-1.41,3.38,0.15,-0.04,0.00,1721206630871
1.35,-0.72,7.76,0.09,0.34,-0.08,1721206630881
3.15,1.22,13.94,0.14,0.21,-0.17,1721206630891
1.31,0.47,10.54,-0.07,0.09,-0.32,1721206630901
-2.57,2.96,14.16,-0.21,0.08,-0.44,1721206630911
-4.09,1.75,17.73,-0.18,0.09,-0.24,1721206630921
-5.58,-1.93,6.53,-0.04,-0.17,0.12,1721206630931
-1.86,1.35,0.57,0.11,0.18,0.35,1721206630941
4.90,-5.14,7.37,-0.17,0.30,0.21,1721206630951
1.44,6.71,16.79,-0.00,-0.04,-0.20,1721206630961
-0.07,0.72,9.53,-0.05,-0.03,-0.40,1721206630971
-3.90,-1.49,12.99,-0.21,0.07,-0.21,1721206630981
-3.95,-1.35,12.57,-0.16,0.08,0.10,1721206630991
-2.01,5.69,13.25,-0.08,0.06,0.27,1721206631001
1.33,4.18,10.81,-0.02,-0.01,0.28,1721206631011
1.95,0.45,6.13,0.05,-0.02,0.14,1721206631021
2.10,-3.79,7.76,-0.13,0.20,-0.18,1721206631031
-0.79,2.42,15.93,-0.13,-0.19,-0.18,1721206631041
-3.36,2.40,7.06,-0.04,-0.09,0.00,1721206631051
-1.87,1.69,7.32,0.07,0.14,0.17,1721206631061
1.45,-7.93,2.91,-0.01,-0.07,0.32,1721206631071
-0.07,0.99,13.96,-0.21,0.22,0.04,1721206631081
0.90,5.44,18.65,-0.09,0.02,-0.13,1721206631091
-1.32,1.46,8.77,-0.15,-0.17,-0.10,1721206631101
-1.11,-5.94,8.42,-0.18,0.03,0.09,1721206631111
2.21,-5.37,13.99,-0.16,0.14,0.23,1721206631121
1.07,1.39,11.03,-0.07,-0.07,0.09,1721206631131
0.15,3.42,5.20,0.06,-0.01,-0.03,1721206631141
0.96,-2.58,8.44,-0.11,0.05,-0.05,1721206631151
0.67,0.20,15.12,0.00,-0.02,0.04,1721206631161
-0.77,-0.93,9.50,-0.07,-0.00,-0.08,1721206631171
-2.16,-1.70,10.15,-0.12,-0.06,-0.01,1721206631181
0.22,5.85,11.93,0.09,0.17,0.13,1721206631191
1.56,-0.83,7.16,0.03,-0.03,0.16,1721206631201
0.96,-4.92,10.85,-0.12,0.14,-0.08,1721206631211
-0.41,0.53,13.16,-0.03,-0.08,-0.26,1721206631221
-1.30,3.87,12.18,0.00,0.02,-0.10,1721206631231
-0.89,1.07,11.05,0.07,0.07,0.07,1721206631241
-0.07,-0.34,9.76,0.20,-0.01,0.14,1721206631251
1.25,4.76,7.97,0.23,0.13,0.03,1721206631261
0.77,-0.22,9.73,0.08,0.01,-0.11,1721206631271
-1.14,1.00,13.49,0.06,-0.06,-0.06,1721206631281
-0.61,1.39,12.87,0.13,0.10,0.09,1721206631291
0.67,0.61,13.47,0.13,0.05,0.13,1721206631301
1.24,2.79,8.64,0.24,-0.04,0.12,1721206631311
-0.03,3.50,6.23,0.25,-0.04,-0.11,1721206631321
0.08,-0.78,11.25,0.29,0.10,-0.04,1721206631331
-0.81,-0.11,8.08,0.38,-0.05,0.15,1721206631341
-1.17,-0.43,4.31,0.27,-0.03,0.18,1721206631351
1.80,-2.32,11.52,0.08,0.15,0.10,1721206631361
1.67,11.12,15.42,0.38,-0.15,-0.03,1721206631371
1.73,5.53,2.25,0.17,-0.01,-0.03,1721206631381
-0.53,-9.67,10.04,-0.34,0.07,-0.14,1721206631391
-2.51,-2.66,17.09,-0.01,-0.09,-0.17,1721206631401
-1.18,1.76,4.19,0.02,-0.02,0.06,1721206631411
-0.46,-1.11,6.78,-0.14,0.01,0.21,1721206631421
0.53,1.12,8.56,0.23,-0.01,0.06,1721206631431
1.77,2.95,3.30,0.11,-0.00,-0.12,1721206631441
0.53,-2.26,14.45,-0.37,0.01,-0.12,1721206631451
-0.67,0.52,18.34,-0.13,-0.10,0.04,1721206631461
1.24,0.92,5.64,-0.19,0.01,0.17,1721206631471
1.70,2.00,9.73,-0.23,0.07,-0.09,1721206631481
1.01,1.12,10.27,-0.11,-0.09,-0.31,1721206631491
-0.13,-4.84,10.27,-0.25,0.11,-0.40,1721206631501
-2.72,3.35,14.54,-0.21,-0.07,-0.14,1721206631511
-2.61,-1.06,9.21,-0.18,-0.02,0.07,1721206631521
0.25,-4.46,9.93,-0.12,0.07,0.16,1721206631531
1.69,3.05,10.58,0.02,0.10,-0.02,1721206631541
1.62,1.93,8.98,0.04,-0.08,-0.23,1721206631551
-0.52,2.04,4.97,0.03,-0.13,-0.26,1721206631561
2.64,-2.13,17.31,-0.17,0.44,-0.32,1721206631571
0.74,-1.33,22.13,-0.14,-0.12,-0.14,1721206631581
-3.24,5.07,8.30,0.06,-0.12,-0.08,1721206631591
-0.07,-1.81,3.39,0.07,0.18,-0.06,1721206631601
0.50,1.22,8.86,0.22,0.03,-0.13,1721206631611
1.74,-2.28,6.35,0.28,0.04,-0.28,1721206631621
-0.67,-0.99,11.18,0.03,0.06,-0.35,1721206631631
-3.47,6.13,15.82,0.14,-0.01,-0.25,1721206631641
-1.56,4.64,13.05,-0.04,0.16,0.02,1721206631651
0.00,-2.89,7.79,-0.10,0.01,0.07,1721206631661
2.11,-9.33,4.20,-0.06,0.16,-0.11,1721206631671
1.55,-3.33,15.92,-0.09,0.19,-0.42,1721206631681
-0.71,9.57,18.15,0.26,0.00,-0.43,1721206631691
-4.58,2.96,2.50,0.07,-0.16,-0.21,1721206631701
-4.17,-1.65,12.07,-0.08,0.31,0.02,1721206631711
2.30,3.29,13.09,0.23,0.21,0.14,1721206631721
1.35,-0.41,0.65,0.01,-0.22,-0.01,1721206631731
0.28,-0.46,7.61,-0.01,0.23,-0.33,1721206631741
0.79,0.34,14.50,0.08,-0.02,-0.25,1721206631751
-2.85,0.94,6.85,0.02,-0.07,-0.08,1721206631761
-1.63,-2.00,12.72,-0.16,0.25,-0.06,1721206631771
0.88,-3.18,16.53,-0.10,0.05,0.04,1721206631781
0.75,2.79,8.89,0.13,-0.02,0.04,1721206631791
2.66,-1.46,6.22,0.03,0.14,-0.02,1721206631801
0.34,3.96,10.09,0.28,-0.02,-0.14,1721206631811
0.45,0.39,4.51,0.11,0.03,-0.14,1721206631821
-3.03,0.84,13.26,-0.12,-0.05,-0.14,1721206631831
-1.75,2.56,18.44,-0.02,0.15,-0.08,1721206631841
-1.52,3.51,17.31,-0.17,0.08,0.01,1721206631851
-3.26,4.82,8.66,-0.03,-0.26,0.04,1721206631861
-1.81,-2.49,0.37,-0.12,0.02,0.14,1721206631871
1.14,-1.80,13.14,-0.14,0.24,0.17,1721206631881
2.40,-0.13,11.76,0.07,-0.08,0.14,1721206631891
0.98,-0.75,7.15,0.06,-0.11,0.01,1721206631901
1.20,-0.14,11.20,-0.04,0.09,-0.01,1721206631911
0.15,4.99,14.64,0.03,-0.02,-0.01,1721206631921
-0.34,2.25,10.59,-0.05,-0.03,-0.14,1721206631931
-2.45,-4.81,10.18,-0.11,-0.12,-0.13,1721206631941
-1.94,-3.60,13.31,-0.06,0.06,0.03,1721206631951
-1.32,3.59,13.18,-0.05,0.05,0.16,1721206631961
-2.33,3.31,10.55,-0.03,-0.16,0.15,1721206631971
-0.03,-2.30,3.53,0.02,-0.08,0.20,1721206631981
2.94,-4.31,4.63,-0.00,0.02,0.11,1721206631991
0.14,-2.98,1.88,0.09,-0.20,-0.05,1721206632001
-0.35,-2.55,8.14,-0.02,0.15,-0.11,1721206632011
-1.53,1.55,7.79,0.18,-0.21,0.12,1721206632021
-0.78,-0.96,9.98,-0.25,0.11,0.17,1721206632031
0.46,-2.19,23.38,-0.30,-0.08,0.06,1721206632041
-2.17,2.12,16.28,-0.04,-0.28,-0.10,1721206632051
0.29,2.34,9.06,-0.15,0.01,-0.09,1721206632061
-0.00,2.81,11.86,-0.08,-0.12,0.20,1721206632071
-1.16,0.22,7.90,-0.11,-0.06,0.23,1721206632081
1.12,-1.38,9.75,-0.17,-0.01,0.04,1721206632091
0.72,6.92,9.05,-0.02,-0.16,-0.02,1721206632101
2.60,-0.36,5.86,-0.19,-0.06,0.09,1721206632111
1.67,-1.38,13.56,-0.29,-0.02,-0.02,1721206632121
2.42,-0.20,12.01,-0.08,-0.05,-0.17,1721206632131
0.47,0.72,6.79,-0.03,-0.17,-0.17,1721206632141
0.52,1.56,12.86,-0.15,0.13,-0.25,1721206632151
-0.06,1.98,19.18,-0.08,-0.10,-0.17,1721206632161
-0.48,4.57,11.41,0.18,-0.09,-0.05,1721206632171
1.48,-2.72,5.03,0.08,0.12,-0.06,1721206632186
1.49,1.80,8.77,0.09,0.09,-0.12,1721206632190
0.62,3.43,8.56,0.27,-0.04,-0.27,1721206632200
-0.27,-1.24,7.05,0.20,-0.04,-0.28,1721206632210
-0.29,-1.62,10.83,0.22,0.13,-0.25,1721206632220
-1.17,0.42,10.32,0.22,-0.06,-0.18,1721206632230
-0.49,2.00,9.94,0.10,0.06,-0.06,1721206632240
1.33,1.53,10.77,0.07,0.13,-0.09,1721206632250
1.85,-3.28,9.76,-0.03,0.04,-0.22,1721206632260
0.93,-3.33,13.61,-0.09,0.11,-0.43,1721206632270
-1.34,1.36,15.72,0.02,0.03,-0.45,1721206632280
-2.34,2.22,10.28,-0.06,0.07,-0.17,1721206632290
-1.14,-2.28,11.54,-0.19,0.16,-0.04,1721206632300
0.83,0.70,11.95,0.02,0.14,-0.14,1721206632310
2.14,3.66,5.37,0.03,0.07,-0.30,1721206632320
-0.09,-1.31,8.70,-0.19,0.05,-0.28,1721206632330
-1.23,0.26,14.03,-0.06,0.15,-0.26,1721206632340
-1.01,-0.54,7.58,-0.03,0.05,-0.22,1721206632350
-1.31,1.96,8.89,-0.07,0.05,-0.18,1721206632360
0.71,1.56,11.04,-0.08,0.22,-0.19,1721206632370
1.62,-2.01,11.74,-0.11,0.05,-0.19,1721206632380
0.72,3.56,9.96,-0.03,0.11,-0.29,1721206632390
-0.07,1.69,8.69,-0.04,0.14,-0.29,1721206632400
-0.69,0.41,10.04,-0.09,0.19,-0.31,1721206632410
-0.72,-5.70,11.21,-0.24,0.17,-0.29,1721206632420
-1.39,3.24,13.62,-0.05,0.08,-0.29,1721206632430
0.58,2.46,11.40,-0.08,0.23,-0.18,1721206632440
-0.34,-2.25,11.30,-0.12,0.15,-0.17,1721206632450
-1.41,-0.34,12.15,-0.08,0.25,-0.23,1721206632460
-0.44,0.53,10.04,0.06,0.17,-0.26,1721206632470
0.29,-0.77,11.39,0.03,0.20,-0.26,1721206632480
-0.46,3.71,12.71,0.19,0.15,-0.28,1721206632490
-1.66,-0.91,5.33,0.25,0.04,-0.16,1721206632500
-1.35,0.36,9.12,0.13,0.34,-0.06,1721206632510
1.00,1.32,14.78,0.16,0.23,-0.12,1721206632520
-0.21,1.74,7.48,0.18,0.04,-0.20,1721206632530
-1.29,-3.25,5.47,0.18,0.20,-0.18,1721206632540
-1.49,-2.63,8.55,0.25,0.16,-0.13,1721206632550
-1.11,2.86,9.60,0.18,0.19,-0.11,1721206632560
-0.47,4.87,13.62,0.17,0.17,-0.11,1721206632570
-1.80,-0.86,4.53,0.10,-0.05,-0.02,1721206632580
-1.41,-8.29,7.08,-0.09,0.27,0.07,1721206632590
-0.83,0.52,18.33,-0.10,0.09,0.02,1721206632600
-1.29,8.42,13.58,0.09,0.05,-0.16,1721206632610
-0.41,-1.90,4.85,-0.08,-0.00,-0.10,1721206632620
-1.33,-3.01,12.88,-0.23,0.24,0.09,1721206632630
0.23,0.73,17.07,-0.13,0.12,0.13,1721206632640
0.17,6.08,8.25,0.11,-0.04,0.05,1721206632650
-0.31,-5.15,2.64,0.02,0.03,-0.07,1721206632660
-3.20,-0.01,11.57,0.11,0.14,-0.08,1721206632670
0.29,5.44,13.56,0.29,0.07,0.13,1721206632680
-0.02,5.26,3.10,0.28,-0.09,0.24,1721206632690
2.08,-2.88,7.83,0.03,0.21,0.13,1721206632700
0.62,-2.01,16.17,-0.06,-0.13,0.00,1721206632710
0.69,0.73,13.48,0.12,0.09,-0.12,1721206632720
-0.17,3.62,3.34,0.19,-0.08,-0.04,1721206632730
-0.93,-0.94,7.30,-0.06,0.13,0.06,1721206632740
-0.09,1.09,18.51,0.09,0.00,0.23,1721206632750
-0.52,4.85,3.18,0.22,-0.18,0.12,1721206632760
-0.11,-2.18,5.65,-0.24,0.12,-0.09,1721206632770
-0.97,-0.73,18.23,-0.14,-0.03,0.05,1721206632780
-1.51,0.53,9.35,-0.11,-0.11,0.19,1721206632790
-2.66,-0.48,3.61,-0.08,-0.23,0.21,1721206632800
0.23,-5.49,11.20,-0.26,0.26,0.17,1721206632810
0.64,1.79,21.16,-0.08,-0.13,0.30,1721206632820
0.97,1.02,11.16,-0.13,-0.16,0.15,1721206632830
0.33,4.64,11.16,-0.13,-0.05,-0.07,1721206632840
0.47,1.98,9.03,-0.19,-0.11,0.02,1721206632850
-1.63,-1.43,6.62,-0.19,-0.21,0.16,1721206632860
-0.07,-4.18,6.72,-0.14,0.09,0.11,1721206632870
0.53,-6.81,5.62,-0.14,-0.09,0.08,1721206632880
-1.66,-2.94,9.65,-0.08,-0.10,0.12,1721206632890
1.95,0.86,16.38,0.02,0.04,0.21,1721206632900
1.48,9.76,12.52,0.16,-0.16,0.19,1721206632910
2.77,1.36,4.60,-0.01,-0.03,0.05,1721206632920
0.62,1.62,11.10,-0.17,-0.01,-0.12,1721206632930
-0.97,1.45,12.64,-0.17,-0.05,-0.14,1721206632940
-3.48,-0.78,6.66,-0.07,-0.23,0.05,1721206632950
0.05,-9.56,10.42,-0.32,0.14,0.21,1721206632960
1.67,0.66,22.49,-0.19,-0.02,0.29,1721206632970
1.20,13.08,9.73,0.25,-0.20,0.07,1721206632980
3.21,-1.26,-0.51,0.11,-0.15,-0.15,1721206632990
-1.39,-0.59,13.67,-0.09,0.28,-0.27,1721206633000
-0.70,4.42,18.25,0.16,-0.16,-0.25,1721206633010
-2.76,3.14,6.73,0.10,-0.25,-0.15,1721206633020
-0.86,-2.47,7.40,-0.11,0.07,-0.09,1721206633030
0.53,-5.24,14.97,-0.17,-0.09,0.17,1721206633040
1.15,1.44,16.60,0.04,0.12,-0.02,1721206633050
1.82,1.60,10.00,0.25,-0.14,-0.15,1721206633060
-0.51,-0.83,5.68,0.21,-0.11,-0.23,1721206633070
-1.08,7.40,9.25,0.42,0.09,-0.22,1721206633080
1.51,1.83,5.83,0.40,-0.01,-0.09,1721206633090
-0.26,-0.23,4.05,0.27,-0.00,-0.05,1721206633100
1.07,-4.92,10.15,0.18,0.10,-0.12,1721206633110
1.42,-1.62,10.85,0.14,-0.05,-0.16,1721206633120
-0.31,3.23,15.11,0.06,0.07,-0.31,1721206633130
-1.09,-0.84,15.79,0.15,-0.01,-0.30,1721206633140
-1.62,0.89,10.41,0.24,-0.05,-0.07,1721206633150
0.01,1.28,8.90,0.17,0.14,-0.03,1721206633160
0.87,4.77,8.71,0.22,0.05,-0.12,1721206633170
-0.08,0.00,6.54,0.06,0.02,-0.20,1721206633180
-1.30,0.13,7.77,0.10,0.00,-0.10,1721206633190
-0.04,-3.82,6.34,-0.02,0.12,-0.10,1721206633200
0.34,-2.14,12.70,-0.16,0.04,-0.05,1721206633210
0.41,4.41,17.18,-0.04,0.11,-0.11,1721206633220
1.31,-0.26,9.95,-0.00,0.06,-0.18,1721206633230
-0.85,0.65,8.91,-0.05,0.01,-0.28,1721206633240
-0.90,3.78,10.98,0.04,0.16,-0.25,1721206633250
-0.47,3.07,8.39,0.07,0.02,-0.14,1721206633260
-0.54,1.16,5.27,0.04,0.07,-0.16,1721206633270
0.26,-2.51,7.75,0.03,0.11,-0.26,1721206633280
-0.19,-3.76,8.28,-0.11,0.08,-0.34,1721206633290
-1.24,4.83,17.44,0.00,0.09,-0.30,1721206633300
-0.82,4.06,7.25,0.06,-0.01,-0.17,1721206633310
-0.62,-3.18,5.15,-0.14,0.16,-0.10,1721206633320
1.12,-5.73,13.74,-0.25,0.21,-0.19,1721206633330
-0.21,5.74,11.33,0.04,-0.08,-0.25,1721206633340
0.37,-0.61,5.13,-0.19,0.18,-0.28,1721206633350
-1.29,-4.36,13.01,-0.13,0.03,-0.26,1721206633360
-1.50,-3.30,11.22,-0.03,0.11,-0.07,1721206633370
-0.02,3.09,15.46,-0.08,0.21,0.03,1721206633380
1.70,6.06,13.06,0.01,0.09,-0.07,1721206633390
0.37,0.49,6.80,-0.03,-0.04,-0.22,1721206633400
-0.99,-1.45,5.49,0.05,0.16,-0.29,1721206633410
-1.41,-3.69,12.46,-0.14,0.07,-0.07,1721206633420
-1.50,4.93,13.61,0.12,0.08,-0.05,1721206633430
0.29,-1.58,6.59,-0.03,0.03,-0.03,1721206633440
-1.43,3.26,8.75,0.11,0.04,-0.03,1721206633450
2.64,-4.45,12.62,-0.09,0.33,-0.00,1721206633460
-1.27,1.75,10.79,0.15,-0.23,-0.06,1721206633470
0.64,-2.95,7.36,-0.00,0.31,-0.21,1721206633480
-2.27,5.90,12.71,0.18,-0.12,-0.07,1721206633490
0.20,2.20,8.30,0.14,0.20,0.01,1721206633500
-0.18,-7.02,13.24,-0.14,-0.00,-0.03,1721206633510
-2.35,-1.02,12.50,0.06,-0.07,-0.05,1721206633520
0.49,5.49,5.59,0.19,0.27,-0.10,1721206633530
0.31,0.23,11.07,-0.04,0.06,-0.14,1721206633540
-2.76,-2.69,12.58,0.15,-0.13,-0.11,1721206633550
-1.50,-0.30,6.45,0.20,0.13,0.00,1721206633560
-0.18,2.45,7.88,0.09,0.12,0.02,1721206633570
0.12,5.04,12.59,0.17,0.08,-0.15,1721206633580
-0.96,-1.36,6.38,0.06,-0.13,-0.13,1721206633590
-1.81,-3.68,11.71,0.05,0.17,-0.10,1721206633600
0.31,1.13,15.25,0.13,0.20,-0.06,1721206633610
0.28,8.33,10.19,0.28,-0.08,-0.00,1721206633620
