AccX,AccY,AccZ,GyrX,GyrY,GyrZ,Time
-3.50,-2.13,7.37,-0.04,-0.26,0.45,1721206889136
0.85,-3.97,12.24,-0.05,0.01,0.58,1721206889142
3.84,0.39,8.34,0.09,-0.33,0.31,1721206889152
2.76,-0.40,8.70,-0.11,-0.11,-0.31,1721206889162
-4.54,-3.56,17.05,0.04,-0.47,-0.31,1721206889172
-7.93,-3.52,7.20,0.18,-0.26,0.18,1721206889181
-3.27,0.57,8.95,0.08,-0.08,0.63,1721206889191
2.46,-2.79,11.09,-0.09,-0.23,0.54,1721206889201
4.58,-0.51,15.21,0.13,-0.25,0.17,1721206889211
4.40,-0.10,7.28,0.15,-0.31,0.04,1721206889221
2.25,-0.54,6.33,-0.04,-0.18,0.00,1721206889231
2.02,-2.82,12.81,-0.05,-0.11,-0.08,1721206889241
2.65,-0.29,12.93,0.13,-0.10,-0.05,1721206889251
3.11,1.95,4.83,0.04,-0.14,-0.14,1721206889261
0.83,-1.29,10.73,-0.11,-0.12,-0.43,1721206889271
-4.02,-0.96,12.65,0.03,-0.30,-0.41,1721206889281
-4.06,-4.76,11.77,0.06,-0.08,0.07,1721206889291
-0.70,-0.14,0.85,0.00,-0.24,0.43,1721206889301
5.42,-0.66,12.24,-0.17,0.24,-0.13,1721206889311
2.29,-4.73,14.75,0.01,-0.43,-0.63,1721206889321
-4.91,-3.06,9.21,0.10,-0.24,-0.34,1721206889331
-3.24,0.65,10.26,-0.04,0.02,0.15,1721206889341
3.52,-1.36,12.06,0.02,0.01,0.12,1721206889351
5.36,-1.39,9.14,-0.00,-0.21,-0.16,1721206889361
4.40,-1.04,11.80,0.09,0.05,-0.34,1721206889371
2.74,-1.81,7.04,-0.03,-0.06,-0.41,1721206889381
-0.59,-1.78,12.87,0.02,-0.04,-0.47,1721206889391
-0.12,-1.07,14.20,0.17,0.10,-0.35,1721206889401
0.07,-0.64,8.86,-0.01,-0.07,-0.15,1721206889411
0.84,1.96,9.31,0.01,0.01,-0.27,1721206889421
0.46,-0.38,7.02,-0.09,0.01,-0.45,1721206889431
-4.17,0.78,12.83,-0.07,-0.11,-0.47,1721206889441
-5.71,-0.04,10.43,0.02,-0.09,-0.21,1721206889451
-3.54,0.40,6.70,-0.18,0.02,0.10,1721206889461
-0.96,1.56,13.34,-0.17,-0.03,0.14,1721206889471
1.74,1.83,10.40,-0.09,-0.04,0.05,1721206889481
2.46,4.47,9.93,-0.16,0.02,-0.12,1721206889491
1.72,3.42,11.10,-0.11,-0.04,-0.25,1721206889501
0.81,2.04,11.28,-0.19,0.04,-0.24,1721206889511
0.57,3.96,11.87,-0.10,-0.04,-0.08,1721206889521
2.52,2.29,9.05,-0.23,0.09,-0.06,1721206889531
3.42,3.90,10.90,-0.15,0.04,-0.15,1721206889541
4.48,2.82,8.50,-0.16,0.13,-0.31,1721206889551
2.52,3.62,9.89,-0.11,0.07,-0.45,1721206889561
1.08,1.66,9.26,-0.14,0.15,-0.40,1721206889571
0.90,1.44,9.37,-0.09,0.16,-0.28,1721206889581
1.91,1.57,8.39,-0.09,0.15,-0.27,1721206889591
2.37,0.68,9.37,-0.11,0.17,-0.37,1721206889601
1.10,0.92,11.33,-0.03,0.16,-0.53,1721206889611
-0.74,0.91,8.72,0.03,0.15,-0.56,1721206889621
-2.48,-1.52,9.12,-0.06,0.17,-0.42,1721206889631
-1.80,0.09,13.24,0.06,0.20,-0.24,1721206889641
0.37,1.57,8.10,0.06,0.18,-0.19,1721206889651
1.55,1.80,11.07,-0.02,0.22,-0.39,1721206889661
0.85,0.23,10.41,-0.02,0.16,-0.48,1721206889671
-0.01,-1.75,10.65,-0.06,0.19,-0.47,1721206889681
-0.76,1.28,10.06,0.06,0.18,-0.42,1721206889691
0.56,-0.45,9.67,-0.00,0.25,-0.43,1721206889701
-0.31,-0.25,10.90,0.03,0.18,-0.44,1721206889711
-0.84,-1.03,9.42,0.01,0.19,-0.48,1721206889721
-1.03,-0.71,11.11,-0.02,0.21,-0.44,1721206889731
0.03,0.65,10.61,0.05,0.21,-0.36,1721206889741
0.04,-1.16,7.02,-0.08,0.24,-0.42,1721206889751
-0.70,-2.10,14.90,-0.09,0.20,-0.43,1721206889761
-1.70,-1.08,9.48,0.04,0.15,-0.36,1721206889771
-1.01,-0.98,9.56,-0.04,0.26,-0.28,1721206889781
-0.36,-2.44,12.33,-0.07,0.23,-0.31,1721206889791
-0.10,0.57,10.82,0.00,0.22,-0.35,1721206889801
-0.86,-3.01,6.64,-0.11,0.17,-0.36,1721206889811
-1.92,-1.27,12.12,-0.04,0.23,-0.37,1721206889821
-1.96,-1.96,9.72,0.06,0.20,-0.32,1721206889831
-2.60,-0.51,11.28,0.09,0.16,-0.23,1721206889841
-1.36,-0.66,10.82,0.12,0.22,-0.21,1721206889851
-0.94,0.28,11.03,0.09,0.17,-0.19,1721206889861
-1.31,-0.32,9.65,0.08,0.14,-0.20,1721206889871
-2.24,-2.37,10.77,0.01,0.15,-0.22,1721206889881
-2.68,-1.75,11.81,0.12,0.06,-0.09,1721206889891
-1.82,-4.71,7.35,0.06,0.06,0.04,1721206889901
-0.58,-2.39,13.13,0.06,0.12,0.07,1721206889911
0.57,-1.90,12.27,0.09,0.10,-0.07,1721206889921
0.07,-0.12,11.46,0.16,-0.03,-0.10,1721206889931
-0.91,-0.10,9.02,0.09,0.08,-0.13,1721206889941
-1.28,0.09,10.14,0.15,0.04,-0.08,1721206889951
-1.66,-5.38,8.27,0.06,-0.01,-0.04,1721206889960
-2.37,-1.51,12.94,0.09,0.01,-0.04,1721206889970
-1.48,-0.70,8.75,0.12,-0.02,0.05,1721206889980
-1.93,0.03,10.62,0.03,-0.04,0.10,1721206889990
-1.04,-0.26,9.69,0.00,-0.01,0.05,1721206890000
-0.55,-2.01,10.95,-0.01,-0.06,0.07,1721206890010
-0.80,-1.07,10.61,0.10,-0.08,0.07,1721206890020
0.05,0.80,8.18,0.10,-0.04,0.08,1721206890030
0.40,1.38,9.33,0.05,-0.05,0.05,1721206890040
0.66,0.75,9.69,0.06,-0.07,-0.02,1721206890050
0.26,0.16,9.99,-0.01,-0.01,-0.14,1721206890060
-0.03,1.53,11.43,0.05,-0.04,-0.11,1721206890070
-0.18,-0.16,8.25,0.02,-0.02,-0.08,1721206890080
-1.26,3.04,8.94,0.09,-0.11,-0.15,1721206890090
-1.43,1.96,8.54,-0.08,-0.04,-0.12,1721206890100
-2.52,0.03,13.06,-0.13,-0.13,-0.02,1721206890110
-2.34,0.30,12.06,-0.03,-0.12,0.01,1721206890120
-1.15,1.22,11.35,-0.03,-0.11,0.08,1721206890130
0.62,2.64,11.16,0.01,-0.11,0.16,1721206890140
2.33,1.79,6.64,-0.04,-0.09,0.09,1721206890150
3.18,1.52,12.75,-0.15,0.01,-0.08,1721206890160
2.03,-0.17,10.96,0.05,-0.16,-0.23,1721206890170
-0.10,-0.06,11.86,-0.09,0.01,-0.29,1721206890180
-0.18,3.42,12.43,0.15,-0.05,-0.10,1721206890190
-0.33,-1.98,1.81,-0.20,-0.13,0.06,1721206890200
-1.77,-1.80,12.49,-0.20,0.02,-0.21,1721206890210
-0.99,-1.46,12.64,-0.00,-0.04,-0.16,1721206890220
-2.18,-2.65,7.99,-0.19,-0.16,0.11,1721206890230
-1.78,-0.26,10.48,-0.07,-0.03,0.10,1721206890240
2.35,-0.85,10.10,-0.17,0.08,-0.01,1721206890250
1.26,-3.16,12.34,-0.20,-0.19,-0.06,1721206890260
-0.10,-2.14,9.63,-0.09,-0.04,-0.20,1721206890270
0.55,-1.95,8.72,-0.18,0.06,-0.26,1721206890280
-1.38,-0.93,10.57,-0.14,-0.11,-0.21,1721206890290
-0.44,-2.05,7.68,-0.18,0.05,-0.06,1721206890300
0.54,-1.83,11.26,-0.26,0.04,-0.09,1721206890310
1.25,1.17,11.10,-0.19,0.01,-0.13,1721206890320
0.95,-0.81,7.20,-0.22,-0.09,-0.18,1721206890330
1.75,-0.86,12.18,-0.18,0.07,-0.21,1721206890340
2.61,-1.80,12.42,-0.11,-0.04,-0.14,1721206890350
1.07,0.64,11.36,-0.07,0.01,-0.21,1721206890360
-1.17,-0.57,10.62,-0.06,0.05,-0.29,1721206890370
-2.21,-0.07,11.91,0.01,0.01,-0.32,1721206890380
-1.18,1.37,11.65,0.06,0.08,-0.09,1721206890390
-0.27,-3.16,8.26,0.17,-0.02,0.03,1721206890400
1.01,0.50,10.34,0.14,0.15,-0.10,1721206890410
0.98,-0.30,11.20,0.16,-0.03,-0.15,1721206890420
0.99,0.35,12.71,0.12,0.08,-0.18,1721206890430
1.58,-0.48,10.75,0.18,0.04,-0.14,1721206890440
0.81,-2.00,8.87,0.17,0.08,-0.15,1721206890450
0.45,0.06,12.05,0.14,0.10,-0.17,1721206890460
0.18,-0.50,9.48,0.18,0.08,-0.19,1721206890470
1.67,-1.04,10.67,0.06,0.23,-0.11,1721206890480
0.74,-1.55,8.44,0.22,0.02,-0.12,1721206890490
1.16,-4.41,7.41,-0.00,0.26,-0.16,1721206890500
0.21,0.57,14.69,0.12,0.14,-0.20,1721206890510
0.45,1.07,10.10,0.15,0.15,-0.11,1721206890520
0.73,0.29,10.28,0.05,0.21,-0.12,1721206890530
0.65,0.69,10.44,0.13,0.21,-0.25,1721206890540
-0.25,-2.34,9.47,0.02,0.16,-0.28,1721206890550
-1.54,1.85,12.56,0.17,0.23,-0.25,1721206890560
-0.89,-0.68,7.94,0.13,0.21,-0.16,1721206890570
-0.67,1.20,9.17,0.13,0.23,-0.15,1721206890580
0.40,0.66,7.84,0.06,0.24,-0.20,1721206890590
-0.85,1.95,11.45,0.01,0.18,-0.29,1721206890600
-1.47,0.94,9.22,0.06,0.18,-0.24,1721206890610
-1.63,-0.79,8.40,-0.04,0.18,-0.16,1721206890620
-0.70,1.32,10.51,-0.02,0.21,-0.09,1721206890630
0.54,1.92,9.90,-0.04,0.21,-0.21,1721206890640
0.01,0.91,10.30,-0.12,0.14,-0.30,1721206890650
-1.12,-0.96,10.82,-0.13,0.16,-0.25,1721206890660
-0.86,-0.16,10.29,-0.06,0.16,-0.15,1721206890670
1.01,1.10,10.27,-0.09,0.24,-0.13,1721206890680
1.09,0.69,8.85,-0.09,0.13,-0.21,1721206890690
-0.12,-1.08,9.90,-0.14,0.15,-0.25,1721206890700
-0.95,-1.69,10.60,-0.11,0.17,-0.22,1721206890710
-1.36,-0.93,11.20,-0.09,0.17,-0.14,1721206890720
-0.87,-0.09,9.11,-0.10,0.19,-0.07,1721206890730
-0.61,-0.66,9.18,-0.17,0.15,-0.12,1721206890740
-0.46,-1.03,9.67,-0.18,0.14,-0.12,1721206890750
-0.51,-2.74,10.40,-0.24,0.13,-0.01,1721206890760
-0.40,-0.17,13.78,-0.18,0.18,0.00,1721206890770
0.14,0.00,11.07,-0.13,0.12,-0.09,1721206890780
0.70,-1.96,8.86,-0.14,0.13,-0.04,1721206890790
-0.17,0.24,9.67,-0.07,0.14,-0.03,1721206890800
-0.73,2.01,9.58,0.04,0.15,0.02,1721206890810
-0.91,-2.00,8.56,-0.11,0.08,0.09,1721206890820
-0.90,2.04,14.36,0.08,0.11,0.13,1721206890830
-0.54,-3.08,7.63,0.07,0.13,0.09,1721206890840
-0.79,1.32,14.47,-0.04,0.16,-0.01,1721206890850
-1.40,-1.56,10.83,0.11,0.04,0.07,1721206890860
-1.06,-0.35,11.88,0.05,0.12,0.12,1721206890870
-0.59,1.35,8.72,0.17,0.03,0.09,1721206890880
-0.56,-1.23,9.63,0.06,0.12,-0.08,1721206890890
-1.45,-0.57,10.74,0.25,-0.04,-0.00,1721206890900
-1.47,-4.37,6.42,0.00,0.14,-0.00,1721206890910
-2.38,1.46,13.62,0.19,0.02,-0.01,1721206890920
-1.21,-2.71,6.35,0.08,0.02,0.10,1721206890930
-0.11,1.71,13.98,0.05,0.09,0.02,1721206890940
0.05,-1.19,7.20,0.12,-0.07,-0.06,1721206890950
-1.17,0.41,11.76,-0.05,0.03,-0.15,1721206890960
-2.57,2.83,10.93,0.22,-0.09,-0.13,1721206890970
-1.90,1.40,6.66,0.10,-0.01,-0.02,1721206890980
-1.44,1.81,10.24,0.12,-0.11,0.06,1721206890990
-1.51,1.43,10.44,0.11,-0.07,0.06,1721206891000
-1.57,1.59,11.48,0.04,-0.12,0.04,1721206891010
-2.99,0.12,9.16,0.06,-0.22,0.05,1721206891020
-2.46,-0.53,9.45,0.02,-0.14,0.17,1721206891030
-2.11,0.84,10.19,0.12,-0.19,0.22,1721206891040
-0.82,1.32,11.99,0.11,-0.14,0.20,1721206891050
-1.10,2.23,11.83,0.14,-0.23,0.25,1721206891060
-0.84,0.31,10.34,0.05,-0.21,0.33,1721206891070
0.31,1.63,11.03,0.13,-0.22,0.38,1721206891080
1.96,0.86,8.39,0.13,-0.22,0.43,1721206891090
2.96,1.39,7.70,0.09,-0.17,0.35,1721206891100
3.76,1.08,9.57,-0.01,-0.14,0.20,1721206891110
2.96,0.73,12.08,-0.04,-0.16,0.06,1721206891120
1.05,-1.21,11.15,-0.10,-0.16,-0.03,1721206891130
-1.57,-3.51,11.53,-0.12,-0.17,0.05,1721206891145
-2.31,-3.81,10.52,-0.14,-0.21,0.06,1721206891149
-0.92,-2.22,5.89,-0.03,-0.16,0.18,1721206891159
0.53,-2.53,9.56,-0.23,-0.02,0.12,1721206891169
-0.44,-0.81,11.38,-0.04,-0.18,-0.01,1721206891179
-2.18,-2.94,7.18,-0.14,-0.24,-0.03,1721206891189
-1.36,0.86,11.46,-0.16,-0.06,0.15,1721206891199
0.90,-2.18,7.41,-0.23,-0.15,0.24,1721206891209
1.59,-3.22,10.01,-0.32,-0.11,0.13,1721206891219
2.09,0.30,11.06,-0.23,-0.08,-0.05,1721206891229
0.94,2.33,9.44,-0.25,-0.16,-0.19,1721206891239
0.87,0.04,10.16,-0.24,-0.12,-0.10,1721206891249
0.85,-4.13,9.74,-0.35,-0.10,-0.09,1721206891259
-0.08,1.14,14.03,-0.17,-0.12,-0.21,1721206891269
1.44,-1.03,11.29,-0.10,-0.13,-0.12,1721206891279
2.26,-0.58,11.29,-0.03,-0.05,-0.04,1721206891289
0.51,-1.23,9.70,0.02,-0.10,-0.15,1721206891299
-0.33,-1.39,10.61,-0.06,-0.06,-0.27,1721206891309
-1.26,-0.15,13.09,0.08,-0.22,-0.15,1721206891319
0.42,-0.23,9.97,0.18,-0.05,0.09,1721206891329
2.37,0.90,10.72,0.11,0.04,0.02,1721206891339
2.06,0.28,12.89,0.10,-0.06,-0.14,1721206891349
0.52,1.39,13.79,0.21,-0.06,-0.22,1721206891359
0.79,-0.06,7.59,0.16,-0.02,-0.16,1721206891369
-0.10,1.57,12.30,0.17,-0.03,-0.02,1721206891379
1.33,0.98,6.96,0.23,0.06,0.01,1721206891389
1.98,-1.27,9.37,0.08,0.05,-0.19,1721206891399
0.60,-0.30,12.30,0.26,-0.07,-0.23,1721206891409
1.39,0.29,7.30,0.26,0.15,-0.20,1721206891419
0.90,2.79,11.58,0.29,0.08,-0.23,1721206891429
0.50,3.46,9.12,0.36,0.06,-0.19,1721206891439
0.53,0.89,7.30,0.21,0.12,-0.25,1721206891449
0.48,1.47,10.13,0.16,0.13,-0.30,1721206891459
0.60,-1.73,10.15,-0.02,0.15,-0.26,1721206891469
-0.09,0.54,12.42,0.15,0.09,-0.27,1721206891479
1.26,-3.06,5.99,0.03,0.20,-0.37,1721206891489
-0.24,1.30,11.24,0.12,0.10,-0.42,1721206891499
-1.03,-0.56,7.42,0.02,0.15,-0.44,1721206891509
-2.35,3.73,16.19,0.03,0.12,-0.46,1721206891519
-2.97,1.02,8.36,0.02,0.05,-0.35,1721206891529
-3.20,0.65,11.23,-0.11,0.10,-0.17,1721206891539
-0.07,0.19,9.55,-0.05,0.13,-0.11,1721206891549
1.62,2.20,8.39,-0.10,0.11,-0.24,1721206891559
1.39,-1.68,9.91,-0.15,0.07,-0.36,1721206891569
-1.31,-1.41,9.75,-0.07,0.08,-0.40,1721206891579
-1.51,-1.48,11.54,-0.12,0.14,-0.27,1721206891589
-0.47,-0.57,8.87,-0.04,0.03,-0.08,1721206891599
0.91,0.96,10.48,-0.10,0.22,-0.16,1721206891609
1.38,-0.31,8.98,-0.07,0.02,-0.34,1721206891619
0.44,-2.93,9.56,-0.09,0.14,-0.41,1721206891629
-1.30,-2.27,10.96,-0.05,0.09,-0.37,1721206891639
-2.72,-0.38,11.54,-0.07,0.18,-0.36,1721206891649
-2.21,0.77,12.28,0.01,0.05,-0.21,1721206891659
-0.97,3.65,9.70,0.06,0.15,-0.05,1721206891669
0.85,1.52,9.68,-0.08,0.16,-0.12,1721206891679
0.53,0.55,11.19,0.05,0.10,-0.19,1721206891689
0.79,-2.80,5.98,-0.13,0.13,-0.31,1721206891699
-1.45,3.92,12.55,0.11,0.13,-0.25,1721206891709
-1.56,-9.93,5.19,-0.09,-0.01,-0.07,1721206891719
0.63,0.16,17.74,0.08,0.28,-0.00,1721206891729
1.99,0.04,8.38,0.17,0.06,-0.23,1721206891739
-0.82,0.78,11.81,-0.02,0.09,-0.40,1721206891749
-2.02,0.52,10.64,0.20,0.13,-0.31,1721206891759
-2.87,-2.72,3.79,-0.02,0.08,-0.11,1721206891769
-2.42,-2.78,10.98,0.02,0.15,-0.10,1721206891779
-0.12,0.86,11.78,0.03,0.11,0.00,1721206891789
0.45,0.97,11.58,0.06,0.11,-0.22,1721206891799
-0.35,-1.11,11.00,0.06,-0.02,-0.26,1721206891809
-2.73,-0.35,10.40,0.03,0.14,-0.28,1721206891819
-2.91,4.51,14.32,0.15,0.03,-0.14,1721206891829
-2.81,4.33,9.28,0.23,0.02,-0.13,1721206891839
-0.88,2.60,8.69,0.11,0.02,0.11,1721206891849
0.79,0.28,8.09,0.15,0.10,0.13,1721206891859
2.61,-0.05,9.25,0.09,0.05,-0.06,1721206891869
2.33,4.28,11.31,0.20,0.01,-0.28,1721206891879
-0.72,-0.84,5.37,0.12,-0.06,-0.35,1721206891889
-3.96,1.16,11.62,0.13,0.08,-0.18,1721206891899
-3.29,8.99,10.95,0.28,0.06,0.05,1721206891909
-2.11,3.92,4.99,-0.06,-0.06,0.13,1721206891919
-2.17,-2.97,12.11,-0.32,-0.01,0.08,1721206891929
-0.46,-8.05,13.13,-0.15,-0.12,0.21,1721206891939
0.60,-0.22,13.67,0.10,-0.04,0.24,1721206891949
1.48,2.92,7.94,0.08,-0.09,0.12,1721206891959
2.17,2.60,7.47,0.09,-0.07,0.04,1721206891969
2.04,-3.46,5.98,-0.18,-0.00,0.03,1721206891979
-1.81,0.29,12.46,-0.11,-0.11,-0.24,1721206891989
-2.31,-1.38,10.70,-0.11,0.01,-0.14,1721206891999
-3.94,-0.03,11.40,-0.00,-0.19,0.18,1721206892009
-0.95,-2.00,8.05,-0.10,0.07,0.30,1721206892019
1.62,-1.07,12.61,-0.18,-0.05,0.17,1721206892029
2.49,0.16,12.24,-0.12,-0.03,0.00,1721206892039
-0.66,0.79,9.62,-0.06,-0.19,-0.16,1721206892049
-0.44,-1.08,8.76,-0.11,0.00,-0.06,1721206892059
0.41,-2.93,8.29,-0.05,-0.08,0.03,1721206892069
1.47,-5.61,9.67,-0.17,0.02,-0.01,1721206892079
1.00,1.31,12.09,-0.01,-0.06,-0.17,1721206892089
-0.00,-1.09,6.80,0.01,0.01,-0.21,1721206892099
-0.59,-2.66,14.43,-0.05,-0.03,-0.20,1721206892109
0.91,-1.46,14.45,0.08,0.03,-0.07,1721206892119
-0.45,1.06,11.18,0.04,-0.02,-0.18,1721206892129
1.04,0.34,9.94,0.11,0.06,-0.13,1721206892139
0.51,0.09,8.93,0.13,0.02,-0.22,1721206892149
0.64,-0.05,0.20,0.20,0.03,-0.11,1721206892159
1.46,-4.88,13.44,-0.29,0.30,-0.31,1721206892169
-1.06,-1.38,23.68,-0.05,-0.17,-0.18,1721206892179
-1.46,6.44,16.64,0.16,0.10,-0.16,1721206892189
1.14,3.89,3.38,0.23,0.09,-0.11,1721206892199
2.22,3.59,10.28,0.07,0.24,-0.29,1721206892209
-0.07,2.45,7.54,0.33,0.03,-0.35,1721206892219
-2.89,-0.59,10.69,0.12,0.19,-0.44,1721206892229
-1.95,-2.40,6.58,0.33,0.02,-0.02,1721206892239
0.58,2.63,8.90,0.10,0.26,0.13,1721206892249
2.27,4.89,10.01,0.24,0.07,-0.02,1721206892259
2.28,-0.38,8.60,0.01,0.16,-0.33,1721206892269
0.75,-3.58,9.96,0.00,0.05,-0.24,1721206892279
-0.41,2.05,14.09,0.03,0.24,-0.19,1721206892289
-0.23,3.56,11.83,0.08,0.13,-0.19,1721206892299
-0.44,2.55,10.00,0.05,0.07,-0.26,1721206892309
-0.22,-3.39,7.10,-0.08,0.12,-0.22,1721206892319
-2.23,0.13,9.89,-0.03,0.13,-0.24,1721206892329
-2.03,1.42,6.88,-0.03,0.12,-0.15,1721206892339
-1.24,1.72,8.58,-0.06,0.07,-0.07,1721206892349
-0.42,0.47,7.17,-0.03,0.13,-0.01,1721206892359
-0.85,-0.34,7.59,-0.20,0.04,-0.02,1721206892369
0.47,-3.89,13.21,-0.23,0.08,-0.06,1721206892379
1.31,0.41,16.69,-0.11,0.07,-0.08,1721206892389
0.07,1.71,7.07,-0.04,-0.04,-0.12,1721206892399
-1.46,-2.39,8.04,-0.29,0.10,-0.16,1721206892409
-3.06,-7.24,11.08,-0.21,-0.02,-0.09,1721206892419
-0.76,-6.60,15.01,-0.24,0.14,0.04,1721206892429
0.17,8.74,15.61,0.22,0.01,0.09,1721206892439
-1.15,3.91,2.01,-0.11,-0.06,-0.03,1721206892449
-2.82,-2.64,11.06,-0.30,-0.08,0.03,1721206892459
0.01,-11.20,15.11,-0.27,0.02,0.26,1721206892469
0.79,2.08,16.12,0.07,-0.06,0.30,1721206892479
-0.19,2.49,0.23,0.04,-0.21,0.03,1721206892489
-0.96,-3.28,10.51,-0.14,-0.04,0.11,1721206892499
0.47,-1.34,15.15,0.06,-0.04,0.38,1721206892509
2.45,-1.27,12.54,-0.09,0.04,0.23,1721206892519
2.61,5.89,14.45,0.11,-0.14,-0.05,1721206892529
-0.12,0.34,4.53,0.05,-0.20,-0.08,1721206892539
-2.42,-1.07,10.21,0.02,-0.10,0.03,1721206892549
-0.60,-7.00,10.37,0.05,-0.05,0.22,1721206892559
0.65,5.24,13.48,0.26,-0.10,0.13,1721206892569
0.40,7.69,8.16,0.31,-0.18,-0.08,1721206892579
-0.04,9.33,13.39,0.18,-0.03,-0.18,1721206892589
-2.55,-1.10,5.71,0.16,-0.27,-0.15,1721206892599
-2.66,-3.96,9.17,0.05,-0.10,0.10,1721206892609
0.02,5.78,11.22,0.36,-0.07,0.22,1721206892619
2.64,4.72,7.20,0.19,-0.12,-0.01,1721206892629
1.40,-1.00,12.00,0.16,-0.16,-0.29,1721206892639
-1.54,-0.41,9.49,0.26,-0.13,-0.35,1721206892649
-4.27,1.68,8.39,0.13,-0.15,-0.29,1721206892659
-5.28,5.49,10.67,0.24,-0.18,0.06,1721206892669
-2.08,0.25,5.70,0.08,-0.12,0.31,1721206892679
2.03,-4.90,10.92,-0.01,-0.11,0.29,1721206892689
4.22,-2.35,14.11,0.08,-0.13,0.00,1721206892699
2.80,4.65,12.34,0.22,-0.25,-0.23,1721206892709
-0.27,4.77,4.86,0.05,-0.21,-0.17,1721206892719
0.14,-1.90,9.07,-0.13,-0.03,0.00,1721206892729
1.81,-6.64,12.11,-0.17,-0.11,-0.03,1721206892739
0.84,-0.45,12.75,-0.02,-0.18,-0.29,1721206892749
-1.60,4.00,9.12,0.05,-0.17,-0.25,1721206892759
-1.78,-5.64,3.95,-0.27,-0.09,0.03,1721206892769
0.71,-4.64,13.05,-0.17,-0.00,0.16,1721206892779
2.39,-0.61,15.64,0.01,0.00,-0.28,1721206892789
0.91,-0.87,9.19,0.01,-0.24,-0.40,1721206892799
-2.35,1.30,0.27,-0.20,-0.09,-0.26,1721206892809
0.62,-3.78,10.26,-0.28,0.25,-0.11,1721206892819
1.38,-8.61,12.27,-0.16,-0.15,-0.19,1721206892829
1.69,0.00,15.47,-0.11,0.10,-0.41,1721206892839
0.62,1.70,13.31,0.01,-0.06,-0.44,1721206892849
-1.87,-0.30,10.54,-0.21,0.09,-0.31,1721206892859
-0.86,2.76,12.91,0.03,0.05,-0.29,1721206892869
-0.34,0.68,7.18,-0.05,0.09,-0.34,1721206892879
-2.21,-2.46,9.06,-0.12,0.01,-0.37,1721206892889
-2.02,-3.20,9.36,-0.08,0.13,-0.30,1721206892899
-0.90,0.37,12.40,-0.04,0.04,-0.06,1721206892909
0.22,4.91,12.43,0.10,0.08,-0.08,1721206892919
3.39,3.03,8.52,0.08,0.09,-0.19,1721206892929
2.33,2.06,8.86,-0.02,0.04,-0.41,1721206892939
-0.68,-2.79,14.00,-0.11,0.11,-0.49,1721206892949
-3.72,0.01,11.30,0.19,-0.04,-0.26,1721206892959
-1.24,2.99,5.40,0.15,0.23,0.09,1721206892969
2.33,1.30,10.77,0.11,0.10,0.11,1721206892979
5.26,2.58,12.16,0.15,0.19,-0.05,1721206892989
4.99,1.47,9.03,0.09,0.13,-0.36,1721206892999
3.00,4.29,14.43,0.04,0.24,-0.49,1721206893009
1.20,3.70,8.83,0.16,0.13,-0.35,1721206893019
0.63,3.65,8.74,0.03,0.33,-0.39,1721206893029
0.28,-0.44,9.03,0.05,0.18,-0.37,1721206893039
-0.95,-1.39,9.84,0.01,0.31,-0.40,1721206893049
-0.79,1.99,8.33,0.17,0.28,-0.37,1721206893059
-0.07,3.34,8.62,0.02,0.31,-0.36,1721206893069
-0.67,3.81,13.98,0.06,0.25,-0.42,1721206893079
-1.82,-3.42,2.97,-0.02,0.09,-0.34,1721206893089
0.65,-1.22,15.53,-0.21,0.55,-0.33,1721206893099
1.03,-1.77,15.16,0.09,0.17,-0.52,1721206893109
-3.57,1.96,9.05,0.09,0.16,-0.67,1721206893119
-4.92,-0.98,5.53,0.11,0.25,-0.45,1721206893129
-4.58,-4.23,7.49,-0.10,0.27,-0.09,1721206893139
1.75,-1.87,10.70,0.03,0.23,-0.15,1721206893154
2.88,-3.01,9.17,-0.02,0.25,-0.30,1721206893158
-0.19,-5.95,9.26,-0.09,0.19,-0.70,1721206893168
-5.13,-3.28,14.18,0.06,0.17,-0.57,1721206893178
-6.17,1.64,9.84,0.09,0.24,-0.14,1721206893188
-3.69,1.43,8.60,-0.05,0.22,0.16,1721206893198
1.55,-2.23,11.55,-0.14,0.23,0.15,1721206893208
3.15,-7.06,11.86,-0.06,0.18,-0.12,1721206893218
-0.65,-1.72,9.87,0.04,0.11,-0.32,1721206893228
-2.93,0.88,6.95,0.04,0.18,-0.29,1721206893238
-3.67,0.78,8.95,0.06,0.08,0.16,1721206893248
-0.33,-1.20,12.99,-0.03,0.24,0.36,1721206893258
2.66,4.36,17.14,0.22,0.10,0.20,1721206893268
2.78,2.23,2.08,0.03,0.08,-0.15,1721206893278
-1.34,2.89,13.33,0.01,0.15,-0.32,1721206893288
-5.05,4.89,8.38,0.17,-0.03,0.00,1721206893298
-3.83,-1.58,10.68,-0.01,0.18,0.27,1721206893308
-1.38,2.35,8.79,0.30,-0.07,0.44,1721206893318
3.24,5.63,6.41,-0.08,0.30,0.10,1721206893328
4.89,5.95,16.84,0.12,-0.02,-0.14,1721206893338
-0.89,0.74,6.73,0.09,-0.05,-0.28,1721206893348
-4.22,1.02,11.52,0.11,0.14,-0.10,1721206893358
-3.30,0.27,11.93,0.08,0.06,0.28,1721206893368
1.62,4.16,13.85,0.26,0.11,0.59,1721206893378
7.07,3.23,6.91,0.19,0.22,0.13,1721206893388
5.66,-1.92,6.08,-0.00,0.01,-0.20,1721206893398
-0.23,-1.77,2.21,-0.19,-0.23,-0.59,1721206893408
-7.69,-4.82,18.44,-0.24,0.19,-0.44,1721206893418
-11.99,0.28,16.43,0.26,-0.12,0.18,1721206893428
-9.24,-3.39,2.53,0.06,0.05,0.99,1721206893438
0.36,2.35,0.40,0.01,0.02,1.12,1721206893448
10.57,-2.77,10.61,-0.31,0.24,0.76,1721206893458
11.78,-0.10,21.67,0.02,-0.10,0.13,1721206893468
7.45,2.18,7.18,0.09,-0.23,-0.43,1721206893478
0.62,-0.02,9.03,-0.34,0.10,-0.64,1721206893488
-7.67,-0.97,15.35,-0.23,-0.28,-0.23,1721206893498
-8.41,-1.64,8.62,-0.11,0.02,0.32,1721206893508
-0.96,-1.80,5.43,-0.12,-0.03,0.64,1721206893518
4.27,-3.36,12.45,-0.25,0.11,0.47,1721206893528
2.77,4.65,15.63,0.01,-0.11,-0.10,1721206893538
-0.65,2.69,5.19,-0.02,-0.20,-0.20,1721206893548
-2.48,1.81,13.61,-0.21,0.09,0.04,1721206893558
-0.93,-4.91,11.18,-0.06,-0.12,0.24,1721206893568
0.26,1.21,11.41,0.05,0.00,0.21,1721206893578
2.02,3.66,2.49,0.09,-0.14,0.09,1721206893588
1.34,1.33,10.89,-0.18,-0.00,0.03,1721206893598
-0.72,-3.32,14.62,0.03,-0.22,-0.14,1721206893608
-0.47,-1.19,11.71,0.16,-0.05,0.02,1721206893618
-1.12,4.44,5.94,0.15,-0.10,0.25,1721206893628
-0.27,4.72,8.91,-0.03,0.00,0.07,1721206893638
1.25,-5.43,12.72,-0.04,-0.11,0.06,1721206893648
1.27,-0.12,10.54,0.21,-0.08,0.06,1721206893658
1.79,4.76,5.68,0.05,-0.07,0.01,1721206893668
0.28,3.73,9.15,-0.14,-0.04,0.02,1721206893678
-0.73,-7.60,8.13,-0.22,-0.17,-0.00,1721206893688
-0.52,-1.66,17.00,-0.00,0.07,-0.01,1721206893698
0.77,2.64,10.10,0.15,-0.12,-0.02,1721206893708
-1.56,5.17,14.10,-0.02,-0.09,-0.01,1721206893718
0.06,-5.48,7.56,-0.07,-0.08,0.27,1721206893728
1.75,-0.82,12.97,-0.01,0.07,0.13,1721206893738
3.61,4.15,9.07,0.27,-0.14,0.05,1721206893748
2.71,6.78,6.50,0.11,0.05,-0.23,1721206893758
-0.33,-4.60,8.64,-0.13,-0.12,-0.37,1721206893768
-3.41,0.73,19.82,0.06,0.03,-0.27,1721206893778
-2.86,1.16,9.48,0.24,-0.19,0.17,1721206893788
1.70,2.09,9.12,-0.02,0.20,0.37,1721206893798
5.40,5.38,7.58,0.05,-0.11,0.13,1721206893808
5.86,0.79,11.78,-0.21,0.07,-0.36,1721206893818
-0.42,0.62,12.02,0.10,-0.21,-0.55,1721206893828
-5.19,-3.06,3.69,-0.11,0.01,-0.40,1721206893838
-7.09,1.26,15.45,-0.07,-0.09,0.16,1721206893848
-2.71,-0.38,12.87,0.03,0.00,0.44,1721206893858
2.45,-2.98,7.84,0.01,-0.14,0.46,1721206893868
5.51,-2.97,6.47,-0.02,0.04,0.14,1721206893878
6.00,-1.12,12.77,-0.11,0.03,-0.22,1721206893888
1.34,-0.13,14.29,0.17,-0.12,-0.37,1721206893898
-1.70,6.21,10.37,0.25,0.03,-0.29,1721206893908
-1.60,1.01,1.88,-0.08,-0.05,0.05,1721206893918
1.74,-3.16,11.46,-0.41,0.23,0.25,1721206893928
5.48,-0.75,17.62,0.01,0.10,-0.05,1721206893938
4.26,1.90,-0.34,0.15,-0.05,-0.48,1721206893948
-0.53,-3.55,-1.19,-0.19,0.07,-0.60,1721206893958
-4.80,1.12,14.22,-0.01,0.07,-0.36,1721206893968
-2.41,4.04,18.39,-0.04,0.23,-0.07,1721206893978
0.55,8.48,15.68,-0.03,0.09,0.07,1721206893988
3.55,0.71,4.85,-0.26,0.21,-0.16,1721206893998
3.25,-3.22,4.05,-0.22,0.12,-0.41,1721206894008
0.92,-3.03,4.46,-0.26,0.14,-0.56,1721206894018
-1.31,-3.94,15.74,-0.27,0.16,-0.53,1721206894028
-2.86,0.56,23.13,-0.03,0.12,-0.40,1721206894038
-2.57,0.12,12.74,0.15,0.20,-0.15,1721206894048
1.81,1.48,1.98,0.01,0.34,-0.06,1721206894058
3.25,6.14,7.02,-0.15,0.32,-0.36,1721206894068
0.49,0.35,9.34,-0.12,0.06,-0.64,1721206894078
-3.08,-6.56,6.51,-0.15,0.11,-0.47,1721206894088
-2.37,-4.77,10.42,-0.27,0.37,-0.20,1721206894098
-1.64,7.27,18.00,-0.10,0.22,-0.20,1721206894108
-0.62,5.11,12.52,-0.02,0.16,-0.36,1721206894118
-1.26,-8.91,8.28,-0.29,0.20,-0.41,1721206894128
-1.44,-8.60,15.01,-0.15,0.25,-0.24,1721206894138
0.58,4.87,13.97,0.14,0.34,-0.17,1721206894148
-0.15,6.65,7.80,0.32,0.17,-0.43,1721206894158
-1.99,2.19,4.96,0.21,0.17,-0.58,1721206894168
-4.63,-5.58,5.62,0.07,0.17,-0.41,1721206894178
-5.39,-4.51,14.66,0.01,0.25,-0.19,1721206894188
-2.03,3.19,20.05,0.05,0.27,-0.02,1721206894198
-1.08,1.83,12.90,0.27,0.14,-0.06,1721206894208
-1.12,-1.02,5.60,0.19,0.14,-0.11,1721206894218
-1.28,1.23,7.25,0.29,0.13,-0.10,1721206894228
-0.92,1.43,8.27,0.15,0.16,-0.08,1721206894238
-1.34,-2.24,10.35,0.16,0.13,-0.13,1721206894248
-1.70,3.00,10.11,0.39,0.17,-0.13,1721206894258
-2.55,5.90,0.60,0.45,0.07,-0.00,1721206894268
-0.34,-2.98,8.28,-0.19,0.24,0.05,1721206894278
-0.01,-0.55,24.26,-0.00,0.10,0.05,1721206894288
0.80,2.60,10.16,0.38,0.09,-0.04,1721206894298
0.40,2.15,-1.43,0.19,0.06,-0.11,1721206894308
0.25,-2.64,8.84,-0.26,0.22,-0.10,1721206894318
0.18,-1.82,21.82,0.00,0.13,0.01,1721206894328
0.84,2.38,11.22,0.26,0.18,-0.01,1721206894338
1.17,3.12,1.92,0.09,0.15,-0.13,1721206894348
-1.30,3.78,6.52,-0.09,0.20,-0.22,1721206894358
-2.76,-1.85,5.20,-0.02,0.05,-0.06,1721206894368
-1.73,-5.10,12.90,-0.19,0.28,0.08,1721206894378
-0.75,4.20,13.50,0.21,0.07,0.15,1721206894388
1.10,4.09,8.62,-0.16,0.26,0.05,1721206894398
-1.01,1.24,16.42,-0.27,0.04,-0.15,1721206894408
-3.54,-0.85,11.02,-0.04,0.00,-0.06,1721206894418
-3.58,-3.34,3.22,-0.22,0.07,0.16,1721206894428
-2.13,-1.72,10.26,-0.20,0.10,0.37,1721206894438
1.20,1.75,12.84,-0.02,0.14,0.34,1721206894448
1.83,0.82,6.08,0.07,-0.02,0.15,1721206894458
0.40,0.13,3.31,-0.09,-0.03,-0.02,1721206894468
0.10,-2.67,17.28,-0.45,0.19,-0.09,1721206894478
-2.37,0.72,20.08,-0.16,-0.11,0.02,1721206894488
-4.62,0.64,7.18,-0.11,-0.05,0.20,1721206894498
-2.52,-0.73,5.93,-0.20,0.03,0.43,1721206894508
1.55,0.14,9.58,-0.10,0.11,0.45,1721206894518
3.03,0.67,11.29,-0.11,-0.04,0.27,1721206894528
1.55,2.99,13.37,-0.17,-0.02,0.08,1721206894538
-1.12,1.87,10.65,-0.14,-0.13,-0.02,1721206894548
-3.23,-1.95,6.57,-0.17,-0.12,0.06,1721206894558
-2.84,-4.03,11.76,-0.20,-0.02,0.31,1721206894568
-0.75,2.22,11.12,0.14,-0.08,0.44,1721206894578
1.56,2.27,6.31,0.19,-0.03,0.43,1721206894588
1.66,2.08,8.99,0.02,-0.01,0.19,1721206894598
0.02,-0.73,16.84,-0.19,-0.10,-0.06,1721206894608
-1.88,0.97,16.15,-0.03,-0.26,0.14,1721206894618
-1.13,-0.23,7.10,0.08,-0.11,0.35,1721206894628
2.56,-0.05,9.62,0.04,-0.02,0.38,1721206894638
3.23,3.62,13.42,0.19,0.01,0.29,1721206894648
2.77,9.70,7.97,0.31,-0.05,-0.07,1721206894658
-0.91,-1.43,3.60,0.08,-0.22,-0.29,1721206894668
-3.92,-6.72,14.40,-0.24,-0.09,-0.17,1721206894678
-4.12,2.30,20.67,0.25,-0.20,0.22,1721206894688
0.44,-3.22,1.31,0.23,-0.10,0.55,1721206894698
3.54,-1.42,6.92,0.02,0.10,0.31,1721206894708
3.23,4.99,15.37,0.31,-0.16,-0.06,1721206894718
1.41,5.35,5.83,0.37,-0.20,-0.20,1721206894728
-0.26,-2.85,5.11,-0.04,-0.06,-0.00,1721206894738
-0.98,-3.81,14.78,-0.06,-0.04,0.12,1721206894748
0.74,-5.44,18.40,0.10,-0.06,0.08,1721206894758
1.65,0.93,10.82,0.29,-0.16,0.06,1721206894768
2.27,8.44,-2.04,0.31,0.03,-0.01,1721206894778
1.81,-0.73,3.88,-0.16,0.02,-0.14,1721206894788
-0.97,-10.50,20.91,-0.18,-0.04,-0.21,1721206894798
-3.24,-0.38,15.26,0.26,-0.16,-0.01,1721206894808
-1.43,5.57,1.79,0.25,-0.06,0.27,1721206894818
3.97,2.04,5.85,-0.14,0.14,0.33,1721206894828
4.64,-6.99,9.24,-0.13,-0.08,-0.06,1721206894838
1.40,-2.78,12.83,-0.02,0.00,-0.34,1721206894848
-2.46,-0.76,10.49,0.01,-0.10,-0.19,1721206894858
-3.66,-2.22,17.83,-0.26,0.06,0.09,1721206894868
-1.66,1.47,20.72,0.14,-0.07,0.28,1721206894878
3.11,-0.07,3.77,0.24,0.05,0.35,1721206894888
5.39,1.38,3.57,-0.19,0.12,0.10,1721206894898
3.68,1.51,14.74,-0.17,0.03,-0.33,1721206894908
-0.00,2.27,8.30,0.08,-0.07,-0.41,1721206894918
-2.78,-0.52,3.11,-0.13,0.02,-0.19,1721206894928
-1.98,-0.33,12.73,-0.27,0.12,0.07,1721206894938
0.10,1.37,16.98,-0.22,0.04,0.04,1721206894948
1.66,5.52,12.77,-0.01,-0.02,-0.14,1721206894958
0.25,0.97,3.45,-0.18,-0.00,-0.25,1721206894968
-2.14,-4.33,10.60,-0.32,0.04,-0.24,1721206894978
-1.63,1.25,16.61,-0.16,0.04,-0.17,1721206894988
-0.78,5.30,9.75,0.09,-0.00,-0.08,1721206894998
-0.19,-0.89,0.57,-0.14,-0.01,-0.12,1721206895008
0.08,-2.35,12.28,-0.29,0.09,-0.16,1721206895018
1.05,-0.84,16.09,-0.13,0.01,-0.11,1721206895028
0.48,6.01,11.61,0.01,0.04,-0.26,1721206895038
0.04,-0.44,4.41,-0.14,-0.04,-0.23,1721206895048
-0.22,-3.59,9.13,-0.27,0.10,-0.21,1721206895058
0.23,-0.86,14.22,-0.11,0.09,-0.25,1721206895068
-0.48,1.00,9.79,0.07,0.03,-0.31,1721206895078
-0.95,0.02,7.05,-0.13,0.10,-0.29,1721206895088
-1.95,-2.19,12.48,-0.13,0.05,-0.16,1721206895098
-0.46,2.17,12.85,0.07,0.09,-0.05,1721206895108
0.98,2.55,7.64,0.12,0.09,-0.06,1721206895118
1.23,3.93,10.10,-0.04,0.11,-0.22,1721206895128
-0.42,-0.45,11.48,-0.06,0.03,-0.27,1721206895138
-1.51,-3.10,10.48,-0.07,0.11,-0.18,1721206895148
-0.75,2.54,14.12,0.01,0.18,-0.14,1721206895163
-1.36,3.04,13.14,0.11,0.06,-0.15,1721206895167
-0.86,0.54,7.10,0.13,0.10,-0.21,1721206895177
-1.13,-1.00,10.31,0.16,0.12,-0.08,1721206895187
-0.23,2.60,11.34,0.16,0.19,-0.10,1721206895197
-0.03,4.47,13.17,0.24,0.07,-0.16,1721206895207
-1.09,3.31,8.66,0.25,0.06,-0.20,1721206895217
-0.79,-2.30,5.83,0.12,0.09,-0.12,1721206895227
-1.01,-0.77,10.98,0.13,0.14,-0.06,1721206895237
-0.56,-3.10,11.85,0.11,0.11,-0.15,1721206895247
-0.27,-0.34,13.41,0.17,0.10,-0.18,1721206895257
-1.36,3.03,7.25,0.32,0.06,-0.20,1721206895267
-2.09,-1.49,6.79,0.18,0.11,-0.13,1721206895277
-2.43,-0.78,10.77,0.18,0.10,-0.08,1721206895287
-0.84,-0.14,10.61,0.21,0.12,-0.04,1721206895297
-0.92,-3.03,4.53,0.14,-0.00,-0.04,1721206895307
0.20,-1.01,10.68,-0.00,0.22,-0.08,1721206895317
-0.59,3.46,18.22,0.12,0.01,-0.10,1721206895327
-2.16,3.06,10.02,0.18,-0.02,-0.20,1721206895337
-2.32,-1.74,7.62,-0.02,0.07,-0.12,1721206895347
-1.55,-5.18,9.70,-0.12,0.06,0.08,1721206895357
-0.55,3.22,13.50,0.14,0.06,0.05,1721206895367
0.05,1.12,6.17,0.10,0.00,-0.10,1721206895377
-2.21,-0.21,6.66,0.06,-0.05,-0.14,1721206895387
-2.08,0.69,9.18,0.06,0.05,0.08,1721206895397
-0.05,2.47,13.27,-0.01,0.09,0.18,1721206895407
1.45,1.97,9.43,0.11,-0.05,0.10,1721206895417
1.79,-3.13,8.61,-0.05,0.05,-0.04,1721206895427
1.21,-1.32,15.31,-0.01,-0.01,-0.11,1721206895437
0.03,4.32,12.76,0.11,0.03,-0.17,1721206895447
-1.35,5.40,6.27,0.14,-0.05,-0.04,1721206895457
-0.92,1.56,5.31,-0.16,0.10,0.03,1721206895467
0.62,-4.88,10.39,-0.27,0.04,0.06,1721206895477
0.70,-2.02,11.19,-0.06,0.02,-0.01,1721206895487
0.11,1.16,8.32,-0.13,0.07,-0.04,1721206895497
-0.91,3.12,12.03,-0.02,0.04,-0.03,1721206895507
-0.71,0.97,5.78,0.00,0.01,0.09,1721206895517
0.50,-5.25,9.89,-0.30,0.10,0.15,1721206895527
1.32,-1.28,23.72,-0.23,0.15,-0.10,1721206895537
-1.00,6.13,12.88,0.14,-0.15,-0.21,1721206895547
-3.67,1.49,0.74,-0.14,-0.05,-0.02,1721206895557
-3.40,0.79,9.53,-0.21,0.09,0.27,1721206895567
0.64,-2.93,8.63,-0.16,0.05,0.35,1721206895577
2.14,-2.03,9.58,-0.24,-0.02,0.05,1721206895587
0.11,-0.11,9.86,-0.21,-0.05,-0.07,1721206895597
-1.36,-2.86,12.63,-0.29,-0.00,0.03,1721206895607
-1.70,5.85,12.96,0.02,-0.02,0.13,1721206895617
-0.39,-1.27,2.71,-0.10,-0.08,0.17,1721206895627
0.27,-4.68,10.95,-0.29,0.01,0.07,1721206895637
0.12,-0.25,15.10,-0.18,-0.06,-0.02,1721206895647
-1.52,-1.38,13.19,-0.16,-0.13,-0.00,1721206895657
-1.98,0.07,14.16,-0.16,-0.08,0.11,1721206895667
-1.60,10.32,14.52,0.03,-0.06,0.20,1721206895677
-0.20,5.88,7.54,0.15,-0.03,0.19,1721206895687
-0.25,-5.35,3.07,-0.11,-0.15,0.18,1721206895697
-0.92,-4.42,11.41,-0.12,-0.03,0.17,1721206895707
0.37,2.95,13.10,0.15,-0.09,0.24,1721206895717
0.82,2.27,7.32,0.21,-0.18,0.22,1721206895727
1.74,-1.23,8.95,0.11,-0.14,0.17,1721206895737
1.59,6.96,11.39,0.37,-0.07,0.07,1721206895747
1.24,-1.53,6.81,0.16,-0.10,-0.00,1721206895757
-0.35,-3.74,15.62,-0.08,-0.11,-0.03,1721206895767
-1.73,1.94,17.00,0.25,-0.21,0.06,1721206895777
0.55,2.38,6.50,0.19,-0.12,0.25,1721206895787
1.53,-0.27,6.88,0.08,-0.05,0.27,1721206895797
2.61,-3.50,8.24,0.16,-0.09,0.16,1721206895807
2.80,-1.37,10.38,0.22,-0.08,-0.13,1721206895817
1.36,1.78,7.89,0.34,-0.14,-0.14,1721206895827
-0.37,-1.31,7.40,0.19,-0.06,-0.06,1721206895837
-1.06,0.56,14.24,0.18,-0.03,-0.00,1721206895847
0.91,1.91,7.34,0.32,-0.12,0.12,1721206895857
3.12,-2.17,3.69,0.10,0.04,0.12,1721206895867
3.15,-6.29,14.15,-0.17,0.01,-0.16,1721206895877
-0.16,3.62,22.53,0.24,-0.07,-0.43,1721206895887
-1.97,-1.05,8.26,0.28,-0.13,-0.16,1721206895897
-2.10,-0.51,8.12,-0.01,0.10,0.06,1721206895907
1.06,1.59,9.75,0.23,0.05,0.19,1721206895917
3.92,-1.40,5.83,0.16,0.09,0.00,1721206895927
3.55,3.79,13.38,0.24,0.07,-0.25,1721206895937
0.82,1.65,12.16,0.14,-0.01,-0.36,1721206895947
-2.88,4.46,10.56,0.16,-0.03,-0.26,1721206895957
-1.86,-2.17,6.11,-0.04,0.09,-0.06,1721206895967
-1.01,-3.09,12.97,-0.11,0.13,-0.01,1721206895977
-0.82,2.94,15.60,0.16,0.02,-0.14,1721206895987
-0.70,3.20,6.01,0.22,0.02,-0.16,1721206895997
-0.97,2.05,2.26,0.09,0.03,-0.10,1721206896007
0.06,-0.41,7.04,-0.09,0.12,-0.12,1721206896017
-0.24,-0.67,10.99,0.07,-0.00,-0.17,1721206896027
-0.16,5.72,8.68,0.09,0.07,-0.19,1721206896037
-0.02,3.63,8.67,-0.06,-0.01,-0.14,1721206896047
0.49,-3.47,8.92,-0.30,0.07,-0.16,1721206896057
1.17,-3.06,13.15,-0.29,0.08,-0.27,1721206896067
0.57,1.32,12.47,-0.09,0.02,-0.32,1721206896077
-0.26,-0.88,4.69,-0.07,0.03,-0.36,1721206896087
-2.89,1.75,9.83,-0.18,0.02,-0.37,1721206896097
-3.27,-2.16,7.27,-0.14,0.02,-0.15,1721206896107
-0.65,-4.74,9.34,-0.37,0.16,0.07,1721206896117
2.31,-0.07,13.27,-0.25,0.10,0.07,1721206896127
3.11,-0.66,14.95,-0.23,0.10,-0.16,1721206896137
1.02,-4.32,10.86,-0.30,-0.03,-0.36,1721206896147
-1.60,-4.44,14.69,-0.30,0.06,-0.35,1721206896157
-0.85,2.43,13.06,-0.13,0.12,-0.13,1721206896167
-1.01,6.81,6.90,-0.11,0.05,-0.05,1721206896177
-0.80,-1.04,9.34,-0.33,0.11,-0.19,1721206896187
-0.43,-5.30,11.55,-0.18,0.06,-0.12,1721206896197
0.17,2.15,8.56,-0.01,0.12,-0.02,1721206896207
1.49,6.85,6.95,0.06,0.12,-0.11,1721206896217
0.31,-4.33,4.37,-0.02,0.00,-0.20,1721206896227
-0.91,-4.04,20.90,-0.18,0.18,-0.22,1721206896237
0.28,13.18,26.55,0.09,0.10,-0.30,1721206896247
-2.85,4.25,7.07,0.20,-0.07,-0.17,1721206896257
-3.25,-6.73,2.17,-0.15,0.19,-0.06,1721206896267
-0.52,-0.01,14.09,0.28,0.19,0.03,1721206896277
0.58,1.21,8.07,0.42,0.08,-0.02,1721206896287
0.29,2.92,16.99,0.19,0.15,-0.17,1721206896297
-1.04,5.71,13.97,0.46,-0.02,-0.20,1721206896307
-1.28,-2.74,1.82,0.28,0.08,-0.06,1721206896317
-0.91,-4.22,13.51,0.00,0.20,-0.02,1721206896327
-1.18,8.53,15.85,0.66,-0.03,-0.11,1721206896337
-0.83,2.95,-3.91,0.62,-0.01,-0.07,1721206896347
-1.55,-4.93,-1.61,-0.10,0.14,0.07,1721206896357
0.09,-7.51,23.10,-0.35,0.27,-0.02,1721206896367
0.61,-1.43,22.45,0.34,-0.11,-0.16,1721206896377
-1.15,-0.10,-2.55,0.45,-0.07,-0.12,1721206896387
-1.62,2.36,-1.97,-0.00,0.18,0.02,1721206896397
-0.70,-1.32,13.64,-0.27,0.08,0.02,1721206896407
0.40,-2.54,16.70,0.05,-0.08,-0.02,1721206896417
-0.36,-1.14,5.25,0.11,0.01,-0.14,1721206896427
-2.22,-1.04,10.67,-0.25,0.01,-0.13,1721206896437
-2.86,-2.26,19.36,-0.15,-0.04,0.08,1721206896447
-0.89,-4.01,16.35,-0.07,0.01,0.26,1721206896457
1.29,2.53,4.84,0.22,-0.10,0.23,1721206896467
2.85,5.84,2.26,-0.07,0.03,-0.06,1721206896477
2.03,1.37,7.62,-0.18,-0.08,-0.12,1721206896487
-0.60,-4.32,4.92,-0.14,-0.11,0.03,1721206896497
-1.24,-0.85,16.39,-0.23,0.10,-0.02,1721206896507
-1.90,6.85,18.21,0.12,-0.17,0.00,1721206896517
-1.37,-2.23,5.05,-0.14,-0.11,0.12,1721206896527
-0.53,-1.15,14.82,-0.15,0.03,0.17,1721206896537
0.99,4.11,12.54,0.02,-0.06,0.13,1721206896547
0.73,3.67,13.41,-0.14,-0.01,0.03,1721206896557
-0.61,1.30,9.89,0.01,-0.16,-0.02,1721206896567
-0.06,0.03,5.90,-0.21,-0.01,0.10,1721206896577
0.13,3.53,13.61,-0.14,-0.05,0.23,1721206896587
2.02,2.23,9.52,-0.06,-0.07,0.07,1721206896597
2.17,-1.52,7.13,-0.12,-0.10,-0.15,1721206896607
-0.73,-2.22,7.71,-0.19,-0.12,-0.19,1721206896617
-1.03,-2.20,17.74,-0.28,0.08,-0.09,1721206896627
-2.42,5.78,17.34,0.05,-0.16,-0.08,1721206896637
-2.11,4.45,1.73,0.01,-0.11,-0.01,1721206896647
-0.88,-5.55,5.40,-0.39,0.02,0.07,1721206896657
-0.21,-1.09,13.32,-0.05,-0.05,0.04,1721206896667
-0.16,1.56,4.51,0.02,-0.09,-0.09,1721206896677
-1.93,0.86,7.64,-0.06,-0.14,-0.02,1721206896687
-0.46,-1.21,11.01,-0.12,-0.02,0.08,1721206896697
0.74,-2.23,15.11,-0.20,-0.06,0.04,1721206896707
0.01,1.81,11.53,-0.04,-0.19,-0.04,1721206896717
-0.60,0.62,4.00,0.05,-0.14,0.03,1721206896727
-0.23,1.32,8.07,-0.18,-0.01,0.03,1721206896737
-0.63,0.24,17.11,-0.22,-0.16,0.09,1721206896747
-0.02,-1.74,14.00,-0.23,-0.13,-0.01,1721206896757
0.76,-1.82,9.56,-0.23,-0.18,-0.07,1721206896767
1.33,1.25,11.03,-0.19,-0.09,0.04,1721206896777
2.57,0.44,7.90,0.02,-0.02,0.15,1721206896787
2.82,-3.72,7.41,-0.06,-0.05,-0.03,1721206896797
-0.00,3.29,15.03,0.16,-0.09,-0.22,1721206896807
0.52,8.85,13.02,0.24,-0.03,-0.19,1721206896817
0.87,-0.88,10.78,-0.09,-0.08,-0.04,1721206896827
0.42,-0.64,14.17,0.02,0.03,-0.06,1721206896837
1.85,-2.69,6.60,0.17,-0.08,-0.08,1721206896847
1.45,1.27,6.60,0.19,0.01,-0.20,1721206896857
1.50,0.87,11.25,0.06,0.04,-0.20,1721206896867
-0.22,1.04,13.11,0.15,-0.05,-0.13,1721206896877
1.08,-0.25,10.25,0.15,0.10,-0.13,1721206896887
1.72,-4.70,8.06,0.08,0.04,-0.20,1721206896897
0.43,1.02,8.66,0.20,0.08,-0.33,1721206896907
-0.35,-2.97,5.78,0.19,0.01,-0.21,1721206896917
-0.62,-4.72,15.52,-0.06,0.17,-0.16,1721206896927
-0.71,1.66,22.04,0.35,0.00,-0.10,1721206896937
0.26,3.26,4.77,0.36,0.04,-0.18,1721206896947
-0.04,0.90,8.40,0.01,0.16,-0.23,1721206896957
-1.18,2.00,15.74,0.20,0.06,-0.21,1721206896967
-1.30,4.42,5.12,0.48,0.04,-0.13,1721206896977
0.08,-5.96,-2.08,0.03,0.12,-0.11,1721206896987
-1.96,-2.68,13.12,-0.15,0.05,-0.13,1721206896997
-1.88,4.00,17.97,0.20,0.04,-0.09,1721206897007
-1.43,3.80,10.00,0.18,-0.01,0.03,1721206897017
-0.35,0.39,7.63,0.04,0.04,0.18,1721206897027
2.70,-4.84,11.76,-0.25,0.18,0.01,1721206897037
1.83,0.98,16.70,0.05,-0.03,-0.20,1721206897047
-0.58,4.54,4.41,0.23,-0.05,-0.19,1721206897057
-1.85,-0.29,7.04,-0.07,0.08,-0.13,1721206897067
-2.14,-0.43,12.90,0.19,-0.12,0.06,1721206897077
1.09,1.50,3.63,0.10,0.05,0.22,1721206897087
3.33,4.73,9.78,-0.09,0.09,0.03,1721206897097
3.98,1.90,10.67,-0.02,-0.02,-0.26,1721206897107
1.54,0.61,5.18,0.13,-0.05,-0.44,1721206897117
-1.53,-4.11,1.62,-0.17,-0.04,-0.36,1721206897127
-2.37,-3.75,17.14,-0.37,0.07,-0.13,1721206897137
-0.54,5.76,16.62,0.05,-0.00,0.01,1721206897147
1.35,-1.19,3.24,-0.26,0.03,-0.07,1721206897157
0.76,-2.44,16.28,-0.20,-0.02,-0.30,1721206897172
0.56,-1.34,13.94,-0.08,-0.01,-0.26,1721206897176
0.11,-2.93,2.41,-0.16,0.05,-0.20,1721206897186
-1.20,2.48,12.04,-0.15,0.02,-0.20,1721206897196
0.00,0.34,13.43,-0.11,0.07,-0.18,1721206897206
-0.80,-2.24,15.19,-0.14,0.03,-0.05,1721206897216
0.04,4.99,9.07,0.10,0.06,-0.07,1721206897226
2.09,3.70,2.58,-0.06,0.16,-0.17,1721206897236
1.51,1.02,9.79,-0.12,0.03,-0.27,1721206897246
-0.23,1.35,12.80,0.09,0.07,-0.34,1721206897256
-1.68,-2.17,5.09,-0.02,0.06,-0.25,1721206897266
-1.42,-2.31,10.44,-0.22,0.16,-0.13,1721206897276
0.46,0.35,18.15,-0.07,0.17,-0.17,1721206897286
0.30,2.47,11.27,0.15,0.02,-0.26,1721206897296
-1.01,0.94,7.51,0.00,0.13,-0.35,1721206897306
-1.64,-2.11,12.64,0.00,0.17,-0.28,1721206897316
-1.63,-0.55,11.90,0.10,0.11,-0.18,1721206897326
0.25,1.57,11.80,-0.00,0.22,-0.22,1721206897336
-1.55,2.93,16.29,0.10,0.08,-0.30,1721206897346
-3.39,6.60,11.01,0.39,0.05,-0.25,1721206897356
-2.16,-4.18,-0.54,0.18,0.06,-0.06,1721206897366
1.12,-2.71,8.43,-0.01,0.18,-0.04,1721206897376
1.36,-1.04,13.72,0.11,0.09,-0.16,1721206897386
-2.40,3.40,7.75,0.27,-0.03,-0.31,1721206897396
-2.90,-0.24,7.92,0.01,0.12,-0.24,1721206897406
-1.22,-7.12,15.48,-0.13,0.09,-0.01,1721206897416
0.04,1.16,16.14,0.20,0.07,0.05,1721206897426
1.20,1.79,7.65,0.08,0.09,-0.11,1721206897436
-1.04,-0.43,11.07,-0.01,-0.07,-0.29,1721206897446
-2.31,-1.25,11.20,0.18,0.02,-0.18,1721206897456
-2.38,-1.03,4.44,0.11,0.02,-0.01,1721206897466
-1.18,2.80,11.88,-0.01,0.10,-0.03,1721206897476
0.67,-0.21,12.29,0.07,-0.05,0.02,1721206897486
0.63,2.46,11.34,0.22,0.03,-0.04,1721206897496
0.95,3.77,5.96,0.19,-0.01,-0.09,1721206897506
0.16,-2.51,8.55,-0.18,-0.01,-0.13,1721206897516
-0.44,2.13,14.47,0.03,0.03,-0.13,1721206897526
-0.46,-0.06,3.26,-0.00,-0.05,-0.05,1721206897536
-0.80,-4.53,10.55,-0.27,0.09,0.02,1721206897546
1.06,-1.64,16.45,0.08,0.09,0.05,1721206897556
2.49,2.46,8.21,0.15,0.03,-0.02,1721206897566
1.44,5.06,11.14,-0.06,0.09,-0.20,1721206897576
-0.50,1.30,12.48,-0.06,-0.04,-0.16,1721206897586
-1.40,-1.70,10.04,-0.10,0.07,-0.07,1721206897596
-0.87,-2.07,7.26,-0.12,0.06,-0.03,1721206897606
-1.13,0.04,9.04,-0.16,0.06,0.02,1721206897616
-1.80,1.07,12.88,-0.17,0.05,0.07,1721206897626
-0.06,0.61,11.30,-0.02,-0.02,0.12,1721206897636
1.96,0.28,5.88,-0.15,0.09,0.01,1721206897646
1.90,-3.91,8.18,-0.30,0.02,-0.13,1721206897656
-0.85,-0.74,12.34,-0.21,0.04,-0.17,1721206897666
-2.33,1.92,9.40,-0.02,-0.01,-0.05,1721206897676
-2.53,-2.01,7.75,-0.17,0.01,0.06,1721206897686
-0.40,-1.55,14.34,-0.28,0.05,0.04,1721206897696
0.24,2.29,14.77,-0.21,-0.05,-0.09,1721206897706
-1.45,2.51,11.31,-0.16,-0.09,-0.06,1721206897716
-2.77,-1.39,7.36,-0.13,0.00,0.02,1721206897726
-1.27,-0.62,8.52,-0.05,0.01,0.13,1721206897736
0.48,1.57,7.54,0.03,-0.05,0.14,1721206897746
1.35,0.82,9.08,-0.04,-0.01,0.07,1721206897756
1.02,3.35,14.56,-0.06,0.01,-0.07,1721206897766
0.35,5.61,16.63,0.01,-0.13,0.02,1721206897776
0.19,2.79,10.87,0.06,-0.05,0.02,1721206897786
1.15,-2.23,6.17,0.07,-0.07,-0.05,1721206897796
0.02,0.34,6.97,0.11,-0.05,-0.12,1721206897806
-0.53,-1.56,11.46,0.08,-0.03,-0.08,1721206897816
-1.47,3.44,15.61,0.28,-0.10,0.03,1721206897826
1.59,1.95,6.43,0.34,-0.03,0.14,1721206897836
2.08,-1.05,4.16,0.19,-0.02,0.06,1721206897846
1.16,1.97,12.43,0.17,0.01,-0.10,1721206897856
0.52,-1.79,10.56,0.22,-0.09,-0.10,1721206897866
-0.12,1.17,8.63,0.28,-0.06,0.01,1721206897876
0.80,-2.19,9.55,0.09,0.02,0.01,1721206897886
0.60,-2.30,16.99,0.11,-0.05,0.03,1721206897896
1.31,1.75,9.10,0.34,0.01,0.01,1721206897906
1.71,-1.51,-0.38,0.20,-0.00,-0.03,1721206897916
1.93,-0.96,8.49,0.01,0.12,-0.09,1721206897926
0.45,-1.30,13.17,0.10,-0.06,-0.19,1721206897936
-0.61,-0.06,10.65,0.14,-0.03,-0.11,1721206897946
0.42,0.33,10.53,-0.04,0.12,0.01,1721206897956
0.85,-5.62,20.53,-0.17,0.10,-0.06,1721206897966
-0.17,1.33,15.44,0.39,-0.11,-0.11,1721206897976
1.72,-0.93,0.85,0.14,0.16,-0.14,1721206897986
0.65,0.81,12.82,-0.04,0.09,-0.24,1721206897996
-1.74,0.72,10.77,0.17,0.01,-0.24,1721206898006
-2.00,-1.55,6.73,0.02,0.07,-0.08,1721206898016
-0.52,3.51,10.38,0.10,0.11,0.02,1721206898026
1.79,-0.25,7.19,-0.07,0.11,-0.11,1721206898036
0.66,2.16,12.97,0.05,0.01,-0.21,1721206898046
0.76,2.55,6.37,0.07,0.09,-0.23,1721206898056
-0.79,0.24,7.48,-0.13,0.04,-0.32,1721206898066
-1.94,1.57,13.91,-0.11,0.04,-0.23,1721206898076
-0.49,-0.23,5.03,-0.04,0.05,-0.02,1721206898086
1.05,0.27,9.01,-0.26,0.15,-0.11,1721206898096
1.56,0.84,16.96,-0.21,0.08,-0.30,1721206898106
1.26,0.29,8.85,-0.02,0.00,-0.29,1721206898116
0.76,-2.92,8.73,-0.29,0.19,-0.25,1721206898126
0.03,-1.13,15.04,-0.19,0.14,-0.26,1721206898136
0.49,2.77,11.24,0.06,0.13,-0.21,1721206898146
0.89,3.03,8.28,0.02,0.17,-0.32,1721206898156
0.31,0.47,10.01,-0.05,0.07,-0.32,1721206898166
-0.57,-2.12,12.81,-0.12,0.19,-0.19,1721206898176
-0.20,-0.58,9.18,-0.02,0.20,-0.13,1721206898186
-0.03,4.98,7.78,0.06,0.18,-0.25,1721206898196
0.78,-0.38,6.78,0.00,0.16,-0.28,1721206898206
-0.50,-1.90,8.95,0.01,0.19,-0.31,1721206898216
-2.21,1.88,11.12,0.05,0.16,-0.24,1721206898226
-1.80,2.22,10.43,-0.05,0.21,-0.14,1721206898236
-0.40,1.89,14.99,-0.07,0.21,-0.12,1721206898246
-0.53,-1.93,11.45,-0.01,0.13,-0.19,1721206898256
-1.11,-1.40,9.55,0.02,0.20,-0.21,1721206898266
-1.28,-1.07,9.61,-0.05,0.18,-0.15,1721206898276
-1.59,-0.62,11.62,0.03,0.17,-0.18,1721206898286
-1.80,0.12,9.50,0.19,0.13,-0.18,1721206898296
-2.49,-0.35,5.86,0.25,0.06,-0.06,1721206898306
-1.48,8.60,11.67,0.28,0.23,0.01,1721206898316
0.32,3.81,6.15,0.12,0.04,-0.03,1721206898326
0.46,-11.44,6.87,-0.33,0.12,-0.13,1721206898336
0.16,-2.49,19.53,-0.08,0.16,-0.20,1721206898346
-1.02,1.33,6.53,0.20,0.00,-0.15,1721206898356
-2.17,1.84,7.53,-0.00,0.20,-0.18,1721206898366
-2.22,-3.37,11.56,0.03,0.02,-0.01,1721206898376
-0.65,0.35,13.52,0.12,0.13,0.06,1721206898386
1.99,4.53,11.62,0.15,0.15,-0.02,1721206898396
0.24,-3.65,4.35,-0.08,-0.01,-0.18,1721206898406
-1.70,-1.31,14.71,-0.10,0.14,-0.24,1721206898416
-2.64,3.01,13.93,0.18,-0.04,-0.08,1721206898426
-2.40,-1.21,6.33,0.06,0.02,0.12,1721206898436
0.01,1.80,12.75,0.07,0.17,0.08,1721206898446
0.27,4.36,9.17,0.21,-0.09,0.04,1721206898456
-0.14,3.76,8.88,0.15,0.05,-0.08,1721206898466
-1.40,-0.46,3.08,0.22,-0.13,-0.04,1721206898476
-1.78,-0.67,4.32,0.04,0.05,0.11,1721206898486
0.94,-5.39,19.63,-0.27,0.13,0.21,1721206898496
1.81,1.61,23.28,0.28,-0.06,0.09,1721206898506
2.27,4.97,5.12,0.35,-0.02,-0.01,1721206898516
0.49,-0.83,6.35,0.04,0.02,-0.06,1721206898526
-0.19,5.64,13.94,0.40,0.03,-0.02,1721206898536
1.55,2.91,1.21,0.25,0.06,0.04,1721206898546
1.21,-5.28,9.06,-0.19,0.12,-0.10,1721206898556
-1.12,0.40,16.38,0.19,-0.06,-0.22,1721206898566
-2.84,4.93,1.31,0.17,-0.09,-0.08,1721206898576
-2.60,-1.05,8.19,-0.31,0.16,0.08,1721206898586
-1.00,-3.32,16.95,0.01,-0.00,0.17,1721206898596
1.40,-0.98,6.15,0.07,0.02,0.08,1721206898606
1.60,1.77,10.04,-0.18,0.06,-0.01,1721206898616
0.56,1.48,15.58,-0.12,-0.02,-0.08,1721206898626
-0.12,-0.41,11.50,-0.01,-0.03,-0.10,1721206898636
-0.15,-2.84,5.02,0.01,0.02,-0.08,1721206898646
-0.22,-2.12,4.68,-0.14,0.05,-0.01,1721206898656
-0.81,4.51,14.62,-0.14,0.16,-0.13,1721206898666
-0.85,3.06,11.81,-0.05,-0.06,-0.04,1721206898676
0.44,-2.91,7.52,-0.27,0.09,-0.03,1721206898686
-0.50,-0.69,11.09,-0.25,0.05,-0.16,1721206898696
-2.36,0.19,8.11,-0.25,-0.02,-0.17,1721206898706
-2.48,0.06,8.28,-0.25,0.04,-0.08,1721206898716
-1.90,-3.98,11.20,-0.24,0.07,0.08,1721206898726
-0.09,-1.30,12.67,-0.16,0.03,0.16,1721206898736
1.37,5.06,13.30,-0.18,0.05,0.01,1721206898746
1.76,0.38,13.21,-0.32,0.00,-0.13,1721206898756
-1.61,-1.89,13.24,-0.23,-0.05,-0.21,1721206898766
-2.09,1.70,10.35,-0.04,0.03,-0.06,1721206898776
-0.71,4.96,6.70,0.12,0.05,0.07,1721206898786
0.18,-2.15,7.09,-0.07,0.06,0.08,1721206898796
0.50,0.82,15.15,-0.01,0.06,-0.04,1721206898806
0.53,2.99,7.40,0.19,-0.10,-0.05,1721206898816
0.21,-2.37,4.84,0.01,0.06,0.00,1721206898826
-0.47,0.68,11.23,0.09,0.01,-0.06,1721206898836
-0.12,-5.82,13.96,-0.17,0.02,-0.06,1721206898846
-1.96,0.14,21.95,0.02,-0.04,0.07,1721206898856
-0.01,1.51,8.54,0.18,0.02,0.12,1721206898866
1.61,0.77,9.71,0.00,0.06,0.12,1721206898876
2.37,3.59,11.11,0.22,0.05,0.05,1721206898886
2.42,-0.35,9.43,0.14,0.07,-0.02,1721206898896
0.50,0.38,8.54,0.19,0.02,-0.12,1721206898906
-0.39,0.32,6.09,0.08,0.06,-0.11,1721206898916
-0.82,0.05,16.25,-0.05,0.09,0.05,1721206898926
0.57,3.45,12.61,0.33,0.02,0.19,1721206898936
2.72,-1.57,0.32,0.18,0.12,0.13,1721206898946
2.55,-5.25,10.59,-0.15,0.12,-0.09,1721206898956
-1.19,3.08,21.24,0.25,-0.03,-0.33,1721206898966
-3.14,2.93,5.95,0.33,-0.10,-0.11,1721206898976
-1.98,2.07,10.15,-0.06,0.22,0.28,1721206898986
1.54,-0.71,14.97,0.08,0.10,0.17,1721206898996
2.69,-0.46,5.42,0.12,0.03,-0.03,1721206899006
1.99,2.15,8.31,-0.04,0.14,-0.16,1721206899016
0.21,-0.39,8.78,0.01,0.05,-0.18,1721206899026
-0.52,1.37,8.59,0.08,0.09,-0.07,1721206899036
0.05,1.59,8.51,0.00,0.11,-0.06,1721206899046
-0.02,0.78,7.41,-0.06,0.00,-0.09,1721206899056
0.41,-1.03,13.65,-0.29,0.21,-0.19,1721206899066
-0.97,1.93,17.54,-0.11,0.05,-0.24,1721206899076
-2.31,-0.62,5.50,-0.00,-0.02,-0.09,1721206899086
-0.10,-3.27,6.84,-0.28,0.18,-0.07,1721206899096
0.51,1.00,17.35,-0.12,0.06,-0.08,1721206899106
-0.50,5.48,10.39,0.12,-0.03,-0.17,1721206899116
-1.56,-2.15,8.13,-0.27,0.02,0.09,1721206899645
-2.47,-0.65,10.77,-0.20,-0.06,0.12,1721206899649
0.25,-1.69,8.13,-0.14,-0.03,0.18,1721206899658
0.16,-1.14,12.42,-0.22,-0.13,0.03,1721206899668
-0.50,3.01,15.37,-0.03,-0.16,-0.00,1721206899677
1.11,-1.83,0.99,0.14,-0.21,0.17,1721206899687
3.18,-3.26,3.33,-0.28,0.14,0.11,1721206899696
0.59,2.83,21.08,-0.24,-0.08,-0.07,1721206899706
-0.50,2.62,17.69,0.00,-0.18,-0.10,1721206899716
1.21,1.13,6.22,-0.10,0.01,0.02,1721206899726
1.26,2.06,10.68,-0.16,-0.03,-0.01,1721206899736
1.40,-1.48,10.19,-0.01,-0.07,-0.09,1721206899746
2.03,-3.64,6.74,0.02,-0.02,-0.18,1721206899756
1.25,1.54,7.42,0.12,0.01,-0.20,1721206899766
-0.76,4.98,12.61,0.09,0.00,-0.23,1721206899776
0.80,-2.14,14.37,-0.02,0.05,-0.12,1721206899786
0.88,0.87,11.18,0.11,0.02,-0.17,1721206899796
-0.17,-0.91,6.05,0.05,0.03,-0.30,1721206899806
-1.61,-1.00,10.84,0.06,0.03,-0.23,1721206899816
-0.66,0.14,11.46,0.16,0.08,-0.05,1721206899826
0.80,-0.62,10.94,0.14,0.09,-0.03,1721206899836
1.83,1.11,11.46,0.10,0.12,-0.19,1721206899846
-0.14,4.88,11.18,0.14,0.02,-0.27,1721206899856
-0.77,-0.94,7.25,0.03,0.12,-0.24,1721206899866
-1.21,-5.49,11.41,-0.03,0.11,-0.12,1721206899876
-0.79,-1.14,14.94,0.15,0.10,0.01,1721206899886
1.42,5.42,8.07,0.29,0.15,-0.02,1721206899896
1.81,1.08,7.56,0.09,0.11,-0.16,1721206899906
1.61,-4.17,13.33,0.11,0.10,-0.18,1721206899916
0.29,0.59,11.06,0.35,0.12,-0.19,1721206899926
-0.55,3.99,5.74,0.23,0.13,-0.23,1721206899936
-2.00,0.10,12.18,-0.03,0.12,-0.14,1721206899946
-1.96,0.55,15.07,0.14,0.16,-0.09,1721206899956
1.05,-3.53,6.55,0.13,0.14,0.15,1721206899966
2.77,7.04,9.57,0.19,0.25,-0.01,1721206899976
2.32,4.03,6.10,0.07,0.10,-0.36,1721206899986
-1.26,-1.53,11.03,-0.11,0.11,-0.35,1721206899996
-2.19,0.01,12.01,0.03,0.19,-0.20,1721206900006
-0.61,1.60,4.09,0.02,0.09,-0.00,1721206900016
0.91,-1.28,8.03,-0.23,0.28,-0.06,1721206900026
0.34,-1.38,18.24,-0.18,0.17,-0.37,1721206900036
-1.70,2.04,8.79,0.19,-0.02,-0.29,1721206900046
-1.25,1.28,5.87,-0.20,0.27,-0.19,1721206900056
-0.63,0.38,14.49,-0.15,0.09,-0.00,1721206900066
0.30,-0.73,8.39,-0.08,0.14,-0.16,1721206900076
-0.29,0.85,11.35,-0.13,0.16,-0.29,1721206900086
-1.80,3.82,8.29,0.13,0.06,-0.28,1721206900096
-1.80,0.99,5.82,-0.14,0.19,-0.12,1721206900106
-2.23,-4.32,10.87,-0.24,0.07,0.00,1721206900116
-0.78,-2.62,12.99,-0.21,0.17,0.01,1721206900126
1.21,2.10,13.71,-0.11,0.12,-0.04,1721206900136
-0.20,0.04,2.49,-0.06,-0.06,-0.13,1721206900146
-1.27,-2.93,12.73,-0.33,0.24,-0.25,1721206900156
-1.30,-1.74,18.49,-0.11,0.02,-0.05,1721206900166
-1.42,2.52,6.85,0.16,0.01,0.10,1721206900176
1.07,0.42,8.53,-0.16,0.23,0.05,1721206900186
0.49,7.02,19.46,0.08,0.06,-0.07,1721206900196
0.31,6.25,7.13,0.45,0.00,-0.13,1721206900206
-0.29,-10.67,-1.59,-0.09,0.10,-0.15,1721206900216
-1.00,0.80,17.06,0.04,0.16,-0.01,1721206900226
0.08,4.23,15.47,0.22,0.07,-0.01,1721206900236
-0.87,-1.28,4.18,0.13,-0.02,-0.14,1721206900246
-1.64,0.50,4.72,0.29,0.05,0.01,1721206900256
0.10,-3.94,8.45,0.02,0.18,0.16,1721206900266
1.29,-0.97,17.29,0.09,0.06,0.02,1721206900276
1.22,3.66,15.67,0.17,0.05,-0.26,1721206900286
-2.53,2.54,8.95,0.09,-0.06,-0.27,1721206900296
-4.22,-6.72,8.99,-0.07,0.02,0.06,1721206900306
-2.28,-2.98,14.49,0.13,0.11,0.15,1721206900316
1.39,4.55,6.62,0.36,0.05,0.10,1721206900326
1.11,1.26,5.34,0.13,-0.02,-0.08,1721206900336
-1.21,-0.07,8.84,0.20,-0.03,-0.17,1721206900346
0.19,6.15,8.67,0.21,0.17,-0.02,1721206900356
0.22,-2.37,6.46,-0.17,-0.01,-0.01,1721206900366
-0.45,-7.20,14.74,-0.24,0.06,-0.12,1721206900376
-1.57,3.13,12.58,0.24,-0.05,-0.16,1721206900386
-1.92,1.85,3.73,-0.12,-0.00,-0.07,1721206900396
-1.44,-4.12,15.70,-0.18,0.05,0.05,1721206900406
-0.53,-4.17,10.34,0.12,-0.08,0.09,1721206900416
0.75,4.33,9.21,0.01,0.08,-0.00,1721206900426
1.43,5.30,13.92,-0.02,0.03,-0.10,1721206900436
-0.73,-0.61,7.02,-0.00,-0.11,-0.11,1721206900446
-1.20,-4.56,6.10,-0.16,0.06,-0.01,1721206900456
0.05,-0.98,14.38,-0.13,0.08,0.05,1721206900466
0.02,6.28,12.94,0.13,-0.06,0.04,1721206900476
0.50,4.99,4.40,0.14,-0.03,0.05,1721206900486
1.09,-1.12,5.69,-0.12,0.05,0.05,1721206900496
0.31,-0.52,14.23,-0.13,0.03,-0.10,1721206900506
-1.97,5.10,13.17,-0.08,-0.09,-0.12,1721206900516
-2.84,-2.87,11.35,-0.36,-0.04,0.09,1721206900526
-2.40,-3.87,14.67,-0.18,-0.11,0.32,1721206900536
0.78,3.55,11.74,0.02,0.04,0.35,1721206900546
3.28,3.64,4.80,-0.07,-0.10,0.24,1721206900556
1.68,-1.82,14.57,-0.35,-0.01,-0.10,1721206900566
-0.94,-3.00,13.71,-0.07,-0.22,-0.21,1721206900576
-3.75,3.39,0.64,0.16,-0.18,0.07,1721206900586
-2.72,-4.14,6.21,-0.24,0.04,0.32,1721206900596
-0.30,-3.79,18.60,-0.04,-0.06,0.33,1721206900606
1.51,5.55,12.37,0.25,-0.13,0.27,1721206900616
2.75,4.26,4.95,0.02,-0.08,0.11,1721206900626
-0.52,1.57,4.72,0.02,-0.23,-0.08,1721206900636
-0.30,-3.46,6.98,-0.11,-0.03,-0.07,1721206900646
-0.81,-4.54,13.73,-0.15,-0.17,0.12,1721206900656
-1.76,-1.23,14.99,-0.05,-0.15,0.21,1721206900666
1.08,1.61,10.51,0.00,-0.14,0.26,1721206900676
3.67,2.72,8.98,-0.03,-0.11,0.25,1721206900686
3.64,-3.05,13.52,-0.16,-0.04,0.05,1721206900696
1.33,-2.31,12.55,0.09,-0.12,-0.23,1721206900706
-0.73,5.37,4.09,0.30,-0.17,-0.20,1721206900716
0.42,0.68,8.39,-0.13,0.05,0.03,1721206900726
0.02,-4.83,18.05,-0.12,-0.04,0.05,1721206900736
1.71,7.29,9.31,0.27,-0.06,0.06,1721206900746
3.12,3.88,1.32,0.11,0.03,-0.02,1721206900756
2.72,-9.24,8.72,-0.17,0.01,-0.27,1721206900766
-1.23,5.20,17.63,0.24,-0.09,-0.40,1721206900776
-2.19,1.22,7.92,0.14,-0.09,-0.22,1721206900786
-1.27,-6.10,9.93,-0.21,0.06,0.04,1721206900796
-1.20,4.93,17.53,0.16,0.07,-0.01,1721206900806
1.40,2.87,5.62,0.16,-0.06,0.07,1721206900816
1.72,-6.42,7.09,-0.15,0.11,-0.00,1721206900826
1.77,-2.71,15.48,0.07,0.06,-0.20,1721206900836
1.29,7.78,3.78,0.35,-0.11,-0.09,1721206900846
2.86,-3.23,5.58,-0.13,0.24,-0.08,1721206900856
2.18,-3.08,20.37,0.12,0.07,-0.28,1721206900866
0.30,11.00,4.70,0.64,0.02,-0.26,1721206900876
0.77,-2.51,-0.12,-0.18,0.25,-0.29,1721206900886
-1.74,-7.11,27.14,-0.30,0.13,-0.44,1721206900896
-3.13,5.10,15.51,0.55,-0.07,-0.28,1721206900906
-1.18,-2.43,-5.38,0.01,0.18,0.08,1721206900916
0.12,-2.58,18.63,-0.24,0.31,-0.11,1721206900926
1.00,6.08,16.43,0.39,-0.01,-0.36,1721206900936
-0.26,4.89,-1.04,0.04,0.07,-0.23,1721206900946
-0.97,-4.56,14.10,-0.43,0.31,-0.24,1721206900956
-1.66,0.20,16.00,0.13,-0.03,-0.23,1721206900966
-0.23,2.42,-0.72,-0.05,0.18,-0.07,1721206900976
0.09,-2.94,15.80,-0.35,0.22,-0.21,1721206900986
-0.32,1.40,17.20,0.19,0.00,-0.38,1721206900996
-1.23,5.90,1.87,0.12,0.11,-0.22,1721206901006
-1.23,4.29,11.87,-0.32,0.25,-0.15,1721206901016
-1.41,0.06,17.31,-0.20,0.07,-0.25,1721206901026
-0.33,0.67,3.78,0.02,0.07,-0.13,1721206901036
1.79,-4.36,3.03,-0.33,0.28,-0.12,1721206901046
-0.35,-1.17,16.25,-0.15,0.12,-0.39,1721206901056
-1.70,1.77,13.04,0.09,0.08,-0.37,1721206901066
-2.15,1.97,6.58,0.02,0.14,-0.15,1721206901076
-0.12,2.20,9.96,-0.03,0.26,0.00,1721206901086
2.21,-1.00,9.09,-0.07,0.19,-0.07,1721206901096
2.62,-1.92,6.18,-0.02,0.18,-0.28,1721206901106
0.61,-4.01,9.32,-0.24,0.23,-0.50,1721206901116
-3.12,0.03,19.57,-0.14,0.12,-0.47,1721206901126
-4.13,3.60,13.47,0.04,0.15,-0.23,1721206901136
-2.26,-1.32,5.30,-0.12,0.24,0.05,1721206901146
-0.44,2.60,14.87,0.00,0.32,0.03,1721206901156
1.15,6.56,7.18,0.32,0.16,-0.10,1721206901166
0.55,-2.51,1.75,-0.01,0.17,-0.20,1721206901176
-1.02,-7.60,18.05,-0.23,0.23,-0.22,1721206901186
-2.38,5.18,18.32,0.23,0.13,-0.09,1721206901196
-1.80,2.66,4.67,0.10,0.12,0.01,1721206901206
-0.22,0.78,14.02,0.10,0.20,0.00,1721206901216
0.24,4.20,7.59,0.48,0.13,-0.00,1721206901226
-1.16,-4.15,0.95,0.19,0.13,-0.12,1721206901236
-1.64,-4.13,11.15,0.00,0.13,-0.06,1721206901246
-0.33,0.93,20.40,0.08,0.24,-0.05,1721206901256
-2.55,-0.71,8.67,0.17,-0.08,-0.11,1721206901266
-4.35,-0.25,8.00,0.06,0.16,-0.03,1721206901276
-1.67,-1.67,12.97,0.08,0.16,0.22,1721206901286
0.08,-1.51,7.46,0.14,0.04,0.29,1721206901296
1.09,1.16,11.41,0.05,0.17,0.10,1721206901306
-0.41,1.92,6.96,0.22,-0.13,-0.09,1721206901316
-1.58,-3.59,6.79,-0.04,0.04,0.03,1721206901326
-1.39,-2.81,16.44,-0.05,0.09,0.16,1721206901336
-1.52,0.46,11.88,0.15,-0.09,0.18,1721206901346
-0.58,0.84,9.66,0.09,0.00,0.11,1721206901356
-0.85,3.97,7.76,0.24,-0.09,0.19,1721206901366
-0.77,5.68,8.98,0.03,-0.03,0.19,1721206901376
-0.54,-4.02,8.11,-0.11,-0.10,0.25,1721206901386
0.29,-3.91,12.31,-0.11,-0.02,0.26,1721206901396
0.47,4.03,9.28,0.12,-0.11,0.25,1721206901406
1.19,0.37,7.82,-0.16,-0.06,0.26,1721206901416
0.83,1.80,18.86,0.03,-0.05,0.20,1721206901426
0.81,5.79,6.31,0.30,-0.21,0.14,1721206901436
0.38,0.64,4.54,-0.26,-0.08,0.12,1721206901446
-2.09,0.43,18.15,-0.23,-0.21,0.18,1721206901456
-1.88,2.03,7.16,0.14,-0.23,0.31,1721206901466
0.87,-7.09,1.76,-0.27,-0.13,0.37,1721206901476
1.50,-3.31,17.65,-0.22,-0.07,0.35,1721206901486
1.42,5.49,14.78,0.11,-0.25,0.15,1721206901496
-0.11,4.98,5.42,-0.06,-0.26,0.02,1721206901506
-0.93,1.23,5.75,-0.13,-0.23,0.18,1721206901516
-0.16,-5.62,4.29,-0.27,-0.18,0.22,1721206901526
-0.97,-7.59,12.96,-0.38,-0.25,0.17,1721206901536
-1.78,0.61,15.70,-0.10,-0.31,0.13,1721206901546
-1.26,4.93,10.19,-0.06,-0.38,0.30,1721206901556
1.80,0.88,10.07,-0.28,-0.16,0.43,1721206901566
2.22,-3.63,9.51,-0.24,-0.35,0.27,1721206901576
1.40,-0.25,7.13,-0.15,-0.26,-0.07,1721206901586
-0.18,-2.07,11.86,-0.29,-0.27,-0.07,1721206901596
-1.80,-1.96,15.05,-0.17,-0.35,0.14,1721206901606
-0.57,1.91,11.30,0.02,-0.25,0.37,1721206901616
2.83,-1.34,9.55,-0.23,-0.17,0.25,1721206901626
2.71,3.60,17.84,-0.12,-0.24,0.07,1721206901636
2.19,3.30,3.14,0.23,-0.28,-0.14,1721206901651
3.49,-0.99,1.75,0.13,-0.19,-0.12,1721206901655
1.07,-2.30,8.46,0.03,-0.21,-0.29,1721206901665
-1.04,2.36,12.70,0.23,-0.29,-0.31,1721206901675
-0.61,-1.75,11.38,0.08,-0.22,-0.14,1721206901685
-1.58,0.97,11.20,0.17,-0.25,-0.00,1721206901695
1.39,1.00,6.62,0.23,-0.06,-0.12,1721206901705
2.58,-0.13,10.89,0.18,-0.17,-0.25,1721206901715
1.32,3.93,11.11,0.35,-0.15,-0.37,1721206901725
0.91,-3.42,8.37,0.12,-0.04,-0.33,1721206901735
-0.43,1.12,14.80,0.11,-0.09,-0.25,1721206901745
1.35,-0.09,10.07,0.17,-0.04,-0.22,1721206901755
2.23,-3.66,11.14,0.03,-0.00,-0.24,1721206901765
1.46,2.81,13.10,0.32,-0.05,-0.37,1721206901775
1.95,2.28,4.81,0.23,0.06,-0.43,1721206901785
0.33,1.19,8.23,0.07,0.00,-0.50,1721206901795
-0.53,-2.81,10.65,0.14,0.04,-0.52,1721206901805
-0.83,-0.28,6.18,0.22,0.07,-0.39,1721206901815
-1.75,2.23,9.90,0.00,0.06,-0.26,1721206901825
0.00,-1.11,16.38,0.07,0.14,-0.23,1721206901835
2.21,-4.07,9.45,0.12,0.09,-0.19,1721206901845
2.61,5.72,12.63,0.05,0.20,-0.35,1721206901855
2.43,5.26,6.49,0.13,0.09,-0.50,1721206901865
0.32,-3.83,0.80,-0.14,0.18,-0.60,1721206901875
-1.71,-5.53,10.75,-0.22,0.24,-0.53,1721206901885
-3.40,-2.06,11.23,-0.08,0.13,-0.40,1721206901895
-3.00,3.40,13.25,-0.06,0.17,-0.18,1721206901905
-0.45,4.29,12.75,-0.03,0.23,-0.18,1721206901915
0.83,0.03,8.08,-0.14,0.19,-0.29,1721206901925
-0.31,1.88,10.34,-0.18,0.20,-0.41,1721206901935
-0.89,0.62,7.75,-0.27,0.21,-0.42,1721206901945
-1.94,-2.43,14.12,-0.36,0.19,-0.42,1721206901955
-1.62,-0.38,14.26,-0.12,0.19,-0.28,1721206901965
-1.34,2.25,5.40,-0.04,0.15,-0.22,1721206901975
-0.85,-0.37,5.09,-0.18,0.17,-0.24,1721206901985
-0.32,-2.38,17.63,-0.30,0.29,-0.29,1721206901995
-0.58,2.25,18.49,-0.05,0.16,-0.30,1721206902005
-1.91,2.52,1.47,0.12,0.08,-0.27,1721206902015
0.85,-6.06,7.80,-0.30,0.38,-0.20,1721206902025
0.96,3.02,21.44,0.05,0.25,-0.23,1721206902035
-0.07,6.98,7.29,0.38,0.14,-0.35,1721206902045
-0.90,-2.71,1.56,-0.02,0.21,-0.39,1721206902055
-1.88,-5.00,10.79,0.00,0.24,-0.17,1721206902065
-0.96,0.34,13.12,0.09,0.26,-0.11,1721206902075
0.09,2.25,14.77,0.01,0.25,-0.23,1721206902085
-2.38,-0.15,6.89,0.18,0.05,-0.24,1721206902095
-3.39,-2.53,6.76,0.05,0.33,-0.08,1721206902105
-1.62,1.91,17.93,0.11,0.28,0.06,1721206902115
0.79,3.01,10.72,0.28,0.14,0.11,1721206902125
0.03,-0.92,4.96,0.12,0.13,-0.01,1721206902135
0.25,-2.38,10.07,0.07,0.17,-0.02,1721206902145
1.36,0.63,12.32,0.24,0.19,-0.05,1721206902155
-0.66,-1.22,6.80,0.11,0.13,-0.21,1721206902165
-3.18,-1.17,10.63,0.03,0.18,-0.17,1721206902175
-2.56,-1.97,13.05,0.03,0.19,0.01,1721206902185
-1.19,3.62,12.14,0.23,0.12,0.16,1721206902195
0.14,5.01,3.28,0.24,0.18,0.02,1721206902205
0.32,-8.35,3.91,-0.12,0.09,-0.09,1721206902215
-0.85,-1.55,19.47,0.10,0.14,-0.11,1721206902225
-0.52,9.39,10.14,0.44,0.09,-0.11,1721206902235
-2.09,-0.57,-0.66,-0.11,-0.01,-0.13,1721206902245
-3.35,-4.18,17.14,-0.18,0.09,0.02,1721206902255
-0.89,-0.42,10.51,0.25,0.03,0.12,1721206902265
-0.15,0.52,-2.42,-0.01,-0.02,0.07,1721206902275
-0.95,-3.62,16.13,-0.29,0.07,-0.06,1721206902285
-1.01,3.09,20.16,0.25,-0.03,0.04,1721206902295
-0.62,1.88,-2.37,0.10,-0.08,0.14,1721206902305
1.53,1.41,13.65,-0.16,0.20,0.12,1721206902315
2.27,2.73,16.31,0.05,-0.11,0.01,1721206902325
1.05,-1.03,9.01,-0.09,0.03,-0.15,1721206902335
-0.41,5.13,12.06,0.11,0.06,-0.17,1721206902345
-1.80,0.38,2.12,-0.01,-0.06,-0.02,1721206902355
-2.79,-2.07,13.24,-0.12,0.06,0.07,1721206902365
-1.15,2.76,13.95,0.26,-0.03,0.23,1721206902375
0.62,1.87,0.82,0.06,-0.03,0.21,1721206902385
2.48,1.50,11.91,-0.09,0.11,0.06,1721206902395
1.05,0.84,11.22,-0.04,-0.09,-0.13,1721206902405
-2.17,-2.91,12.05,-0.26,-0.06,-0.21,1721206902415
-4.31,0.85,17.94,0.00,-0.07,0.01,1721206902425
-2.78,-1.33,10.21,-0.10,0.01,0.28,1721206902435
0.34,2.72,9.73,-0.03,-0.05,0.38,1721206902445
3.40,1.59,4.70,-0.03,0.01,0.10,1721206902455
1.85,-1.87,4.69,-0.08,-0.10,-0.15,1721206902465
-1.43,-2.95,11.30,-0.05,-0.05,-0.13,1721206902475
-2.10,0.23,12.84,-0.10,-0.02,-0.02,1721206902485
-1.17,-0.96,16.87,-0.24,-0.05,0.21,1721206902495
-0.53,5.82,9.00,0.09,-0.12,0.22,1721206902505
1.99,-2.77,1.58,-0.13,-0.02,0.13,1721206902515
2.29,-3.64,17.31,-0.24,0.03,0.01,1721206902525
0.19,1.59,10.63,0.20,-0.14,-0.17,1721206902535
-1.06,-2.38,2.34,-0.11,-0.04,-0.19,1721206902545
-2.52,3.67,14.95,-0.01,-0.14,0.25,1721206902555
1.83,5.53,10.35,0.20,0.15,0.37,1721206902565
4.92,-4.01,5.26,-0.03,-0.06,0.07,1721206902575
3.86,-4.09,9.30,-0.12,-0.02,-0.22,1721206902585
-0.62,3.87,15.59,-0.10,-0.06,-0.47,1721206902595
-1.63,-1.95,12.50,-0.07,-0.12,-0.14,1721206902605
-1.10,-0.31,7.21,0.11,0.09,0.19,1721206902615
2.01,-3.25,4.34,0.02,0.15,0.06,1721206902625
1.78,0.04,15.23,-0.01,0.04,-0.21,1721206902635
0.29,3.11,16.97,0.02,0.06,-0.35,1721206902645
-1.36,0.16,10.59,-0.00,-0.03,-0.15,1721206902655
-0.23,5.91,13.29,0.15,0.26,0.01,1721206902665
2.02,-6.79,1.82,0.01,-0.03,0.03,1721206902675
-0.39,-0.17,18.55,-0.16,0.26,-0.23,1721206902685
-0.36,0.50,12.32,0.22,-0.01,-0.27,1721206902695
-0.84,-4.45,1.45,0.01,0.09,-0.16,1721206902705
0.60,3.55,12.12,0.14,0.23,0.06,1721206902715
2.24,2.61,11.93,0.22,0.14,-0.05,1721206902725
1.35,0.35,11.99,0.14,0.17,-0.26,1721206902735
0.45,0.65,8.14,0.16,0.15,-0.38,1721206902745
-1.51,-1.92,9.75,-0.05,0.16,-0.33,1721206902755
-3.80,0.76,17.58,0.05,0.17,-0.25,1721206902765
-2.74,2.26,8.25,0.26,0.10,0.03,1721206902775
0.81,0.78,6.57,0.15,0.27,0.16,1721206902785
2.80,-1.59,5.39,0.07,0.17,-0.07,1721206902795
1.94,2.45,10.00,-0.01,0.23,-0.37,1721206902805
-1.50,1.74,12.05,0.01,0.10,-0.40,1721206902815
-3.98,0.52,7.73,0.12,0.09,-0.09,1721206902825
-1.01,-2.53,11.39,-0.12,0.33,0.08,1721206902835
1.01,2.82,18.34,0.00,0.11,0.04,1721206902845
2.45,4.04,10.93,-0.04,0.15,-0.12,1721206902855
1.25,1.65,8.41,-0.05,0.12,-0.29,1721206902865
-1.65,3.23,1.13,0.14,0.04,-0.32,1721206902875
-3.34,-9.00,5.12,-0.31,0.23,-0.17,1721206902885
-3.77,-3.23,20.96,-0.08,0.15,0.01,1721206902895
-1.99,6.18,8.62,0.23,0.05,0.19,1721206902905
1.01,3.41,7.00,-0.27,0.23,0.18,1721206902915
2.72,-2.04,16.54,-0.18,0.09,0.07,1721206902925
1.96,-1.26,5.41,0.07,-0.05,0.02,1721206902935
1.41,0.43,6.46,-0.14,0.21,-0.18,1721206902945
-1.08,2.24,13.19,0.02,-0.01,-0.20,1721206902955
-3.33,-2.47,7.21,-0.07,0.01,0.01,1721206902965
-3.01,-3.48,14.22,-0.11,0.19,0.16,1721206902975
-0.10,5.17,9.60,0.12,0.05,0.38,1721206902985
3.16,0.85,5.79,-0.20,0.11,0.22,1721206902995
3.63,-5.63,13.78,-0.20,0.06,-0.10,1721206903005
-0.46,1.94,10.66,0.12,-0.05,-0.26,1721206903015
-3.15,0.55,10.68,-0.13,0.05,-0.16,1721206903025
-3.00,-0.26,14.82,-0.01,-0.02,0.31,1721206903035
0.23,4.49,9.62,0.10,0.14,0.25,1721206903045
1.42,2.38,6.06,0.03,-0.10,0.05,1721206903055
4.30,-11.13,9.73,-0.19,0.15,0.09,1721206903065
1.34,5.30,16.31,0.20,0.06,-0.28,1721206903075
-3.17,8.77,6.32,0.13,-0.18,-0.45,1721206903085
-5.33,-5.99,8.31,-0.12,0.04,-0.07,1721206903095
-3.82,-3.99,12.94,0.17,0.09,0.35,1721206903105
1.29,6.22,6.17,0.21,0.06,0.38,1721206903115
3.01,-4.25,12.24,-0.17,-0.01,0.04,1721206903125
1.06,0.91,16.91,0.14,-0.06,-0.28,1721206903135
-2.19,3.96,0.88,0.27,-0.20,-0.15,1721206903145
-2.25,-1.56,11.68,-0.17,0.11,0.08,1721206903155
-0.49,3.50,18.20,0.22,-0.08,0.15,1721206903165
1.02,4.81,0.92,0.24,-0.12,0.08,1721206903175
1.60,-5.14,8.90,-0.15,0.04,-0.10,1721206903185
-0.47,-0.02,13.64,0.13,-0.12,-0.09,1721206903195
-2.10,11.73,8.53,0.28,-0.05,-0.02,1721206903205
-0.34,-2.77,9.31,-0.14,-0.06,0.06,1721206903215
0.52,-9.45,17.07,-0.10,-0.04,0.13,1721206903225
0.99,9.13,3.95,0.49,-0.10,0.05,1721206903235
2.29,-3.79,0.51,-0.30,0.02,-0.04,1721206903245
1.03,-1.89,29.23,-0.12,0.12,-0.22,1721206903255
-0.68,11.75,6.13,0.72,-0.27,-0.15,1721206903265
-0.60,-0.13,-7.81,-0.15,0.04,-0.05,1721206903275
-1.18,-9.39,23.45,-0.58,0.09,-0.09,1721206903285
-1.06,8.18,17.58,0.44,-0.17,-0.06,1721206903295
-2.33,-0.08,-12.73,0.01,-0.19,-0.03,1721206903305
-1.98,-6.37,16.54,-0.45,0.22,0.09,1721206903315
1.90,7.19,20.61,0.36,-0.07,0.18,1721206903325
1.84,1.59,1.44,-0.24,-0.07,-0.15,1721206903335
-1.62,-3.12,22.46,-0.58,-0.02,-0.35,1721206903345
-3.64,7.70,15.56,0.07,-0.17,-0.27,1721206903355
-3.96,1.70,-7.40,-0.10,-0.21,0.19,1721206903365
-0.28,-16.83,18.17,-0.82,0.34,0.31,1721206903375
1.36,3.96,24.84,0.04,-0.18,0.09,1721206903385
1.36,11.87,-4.06,0.24,-0.17,-0.06,1721206903395
3.13,-6.00,5.72,-0.39,0.17,-0.04,1721206903405
0.07,0.75,19.32,0.08,-0.10,-0.08,1721206903415
-0.49,3.41,1.90,0.27,-0.05,-0.19,1721206903425
-0.60,-5.30,8.70,-0.26,0.17,-0.26,1721206903435
-3.52,-2.77,20.94,-0.16,-0.14,-0.22,1721206903445
-1.59,8.92,13.93,0.14,-0.05,0.12,1721206903455
1.87,7.67,4.63,0.30,0.18,0.33,1721206903465
3.29,-13.65,0.10,0.07,0.05,0.10,1721206903475
2.47,0.40,15.45,0.03,0.30,-0.45,1721206903485
0.34,15.32,20.02,0.15,-0.15,-0.42,1721206903495
-3.00,-17.48,1.30,-0.15,-0.18,-0.22,1721206903505
-1.68,-4.43,11.84,0.01,0.36,0.08,1721206903515
2.83,2.25,15.26,0.20,0.16,0.28,1721206903525
1.71,1.75,12.64,0.19,0.05,0.10,1721206903535
3.73,6.04,8.88,0.48,0.15,-0.12,1721206903545
2.87,1.20,2.62,0.21,0.17,-0.19,1721206903555
-1.19,-6.04,15.51,-0.24,0.17,-0.40,1721206903565
-2.53,0.14,13.95,0.30,0.01,-0.31,1721206903575
-2.70,4.40,-2.32,0.30,0.05,0.04,1721206903585
-0.54,-4.83,13.05,-0.24,0.38,0.22,1721206903595
0.02,4.58,22.59,0.19,-0.00,0.11,1721206903605
2.45,8.03,-3.02,0.29,0.12,0.09,1721206903615
1.72,-10.77,7.21,-0.62,0.25,-0.01,1721206903625
-2.03,1.46,30.03,-0.02,0.05,-0.22,1721206903635
-2.45,4.31,-8.19,0.61,-0.20,0.13,1721206903645
-0.98,-13.96,33.05,-0.46,0.57,-0.16,1721206903660
-4.18,2.30,43.16,0.06,-0.22,0.05,1721206903664
-1.41,24.78,5.01,1.30,-0.06,-0.03,1721206903674
1.45,-8.21,-23.02,-0.07,0.10,0.20,1721206903684
-4.50,-8.54,22.11,-0.24,0.09,-0.08,1721206903694
1.29,3.01,18.53,0.78,0.14,-0.04,1721206903704
-0.11,-0.34,-8.39,-0.07,0.07,0.15,1721206903714
-3.11,-2.58,21.59,-0.20,0.03,0.17,1721206903724
2.04,6.29,15.64,0.46,0.05,0.25,1721206903734
3.21,3.36,-3.48,0.03,0.03,0.27,1721206903744
2.71,-5.71,10.45,-0.44,0.15,-0.18,1721206903754
0.40,0.57,20.06,0.08,-0.07,-0.38,1721206903764
-2.74,2.60,7.10,0.03,-0.04,-0.12,1721206903774
-4.38,0.24,11.73,-0.22,0.06,0.18,1721206903784
-1.13,-1.51,12.50,-0.13,-0.03,0.31,1721206903794
2.93,1.80,12.79,-0.13,0.03,0.37,1721206903804
3.56,-0.30,7.67,-0.05,-0.04,0.10,1721206903814
2.25,-1.10,7.55,-0.13,0.02,-0.26,1721206903824
-2.88,-1.36,2.92,0.09,-0.23,-0.15,1721206903834
-3.00,-8.60,10.96,-0.21,0.14,0.10,1721206903844
-0.34,4.73,21.08,0.10,-0.01,0.35,1721206903854
2.12,9.26,1.97,0.33,-0.09,0.28,1721206903864
5.43,-3.51,3.93,-0.36,0.10,0.05,1721206903874
3.94,-5.32,16.45,-0.31,-0.01,-0.16,1721206903884
1.42,4.86,11.43,-0.02,-0.05,-0.38,1721206903894
-2.05,-4.56,8.51,-0.49,-0.00,-0.40,1721206903904
-5.99,-2.04,18.21,-0.20,-0.11,-0.18,1721206903914
-3.66,3.11,2.06,0.14,-0.02,0.25,1721206903924
0.87,-3.89,8.96,-0.40,0.21,0.30,1721206903934
3.15,-0.38,22.67,-0.13,-0.01,0.01,1721206903944
2.14,6.96,8.88,0.20,-0.12,-0.17,1721206903954
-0.57,-3.23,5.37,-0.35,0.02,-0.28,1721206903964
-1.76,-6.96,22.29,-0.27,-0.03,-0.14,1721206903974
-1.24,9.68,5.25,0.43,-0.09,-0.01,1721206903984
-0.70,-2.18,-3.92,-0.01,0.03,-0.07,1721206903994
-1.13,-7.37,17.49,-0.10,0.05,-0.11,1721206904004
0.42,12.54,12.72,0.55,0.01,-0.10,1721206904014
0.07,-2.28,0.38,-0.31,0.01,-0.17,1721206904024
-0.73,-10.32,28.30,-0.58,0.11,-0.22,1721206904034
-2.10,12.59,13.63,0.54,-0.17,-0.10,1721206904044
-1.09,-8.72,-6.17,-0.46,0.01,-0.04,1721206904054
-1.22,-0.88,34.81,-0.22,0.15,-0.05,1721206904064
0.17,15.01,8.76,0.73,-0.15,-0.15,1721206904074
-0.23,-6.18,-7.03,-0.34,-0.01,-0.15,1721206904084
-1.81,1.14,28.08,-0.10,0.04,-0.14,1721206904094
-0.35,9.06,7.55,0.63,-0.10,-0.09,1721206904104
-0.20,-1.89,-1.77,-0.11,0.09,-0.20,1721206904114
-0.96,-4.51,24.34,-0.04,-0.01,-0.17,1721206904124
-0.55,6.82,9.29,0.60,-0.08,-0.09,1721206904134
-0.41,1.14,-1.34,0.02,0.04,-0.04,1721206904144
-0.05,-6.14,22.91,-0.16,0.07,-0.11,1721206904154
-0.13,12.21,14.07,0.73,-0.08,-0.16,1721206904164
-0.32,1.60,-11.25,0.10,-0.07,-0.08,1721206904174
-0.56,-17.00,18.34,-0.69,0.26,-0.12,1721206904184
-1.61,7.45,26.42,0.57,-0.14,-0.15,1721206904194
-0.85,5.50,-12.91,0.40,-0.14,-0.02,1721206904204
-0.62,-7.92,10.63,-0.40,0.35,0.10,1721206904214
2.00,-2.11,17.60,0.40,-0.07,0.02,1721206904224
3.48,1.47,2.60,0.12,0.13,-0.30,1721206904234
-1.32,4.07,15.95,-0.02,0.02,-0.56,1721206904244
-5.30,-1.20,10.00,0.05,-0.01,-0.36,1721206904254
-5.65,4.93,12.34,-0.06,0.12,0.01,1721206904264
-2.50,-2.49,3.43,-0.20,-0.01,0.22,1721206904274
0.85,-14.20,11.14,-0.69,0.23,-0.02,1721206904284
-1.89,16.12,22.98,0.10,-0.13,-0.14,1721206904294
-0.98,3.28,-2.19,-0.04,-0.12,-0.02,1721206904304
1.07,-18.93,9.45,-0.71,0.35,0.11,1721206904314
1.73,8.81,16.95,0.24,0.04,0.05,1721206904324
2.45,5.59,1.41,-0.18,0.02,-0.20,1721206904334
-0.65,-5.48,23.21,-0.44,0.11,-0.31,1721206904344
-1.94,15.52,12.37,0.46,-0.13,-0.24,1721206904354
-2.23,-0.63,-8.78,-0.02,0.02,0.03,1721206904364
-2.77,-11.99,17.07,-0.54,0.28,-0.11,1721206904374
-0.73,9.94,17.13,0.45,-0.09,-0.09,1721206904384
-1.15,-0.50,-10.30,0.26,-0.08,0.21,1721206904394
-0.52,-14.17,12.96,-0.61,0.39,0.16,1721206904404
1.39,12.91,25.57,0.30,-0.12,0.08,1721206904414
1.11,-0.18,-5.34,0.23,-0.22,0.08,1721206904424
1.73,-23.11,22.97,-1.20,0.42,-0.15,1721206904434
-0.85,17.89,31.58,0.43,-0.33,0.02,1721206904444
-1.65,1.95,-14.66,0.54,-0.11,0.21,1721206904454
4.42,-15.34,17.02,-1.11,0.78,-0.00,1721206904464
-3.42,18.17,34.06,0.33,-0.66,0.15,1721206904474
-1.92,-1.33,-12.54,0.70,0.02,0.18,1721206904484
8.37,-15.27,9.47,-1.15,0.58,0.12,1721206904494
-2.86,17.89,32.35,0.01,-0.63,0.16,1721206904504
-0.96,1.36,-5.27,0.67,0.07,0.06,1721206904514
6.87,-16.52,2.12,-0.79,0.20,0.12,1721206904524
-5.87,13.45,34.22,0.06,-0.37,0.20,1721206904534
-0.22,12.14,4.17,0.80,0.18,0.17,1721206904544
6.46,-11.60,-3.25,-0.16,0.06,0.31,1721206904554
-1.58,3.50,23.87,0.22,0.03,-0.10,1721206904564
2.11,7.63,0.10,0.84,-0.10,-0.14,1721206904574
0.54,-9.44,6.72,-0.47,0.33,-0.28,1721206904584
-4.20,8.61,34.37,0.34,-0.32,-0.17,1721206904594
-3.49,7.18,-14.85,1.01,-0.19,0.22,1721206904604
3.78,-6.92,-1.36,-0.51,0.69,0.30,1721206904614
1.68,5.33,38.82,0.01,-0.11,-0.07,1721206904624
-0.44,14.43,0.95,1.09,-0.28,-0.17,1721206904634
0.64,-8.36,-18.71,-0.53,0.19,-0.07,1721206904644
-3.07,-11.12,36.62,-0.68,0.19,-0.09,1721206904654
-0.71,5.45,16.55,0.89,-0.28,0.03,1721206904664
1.77,-3.93,-19.88,-0.16,0.07,0.11,1721206904674
-4.39,-4.47,25.46,-0.30,0.12,-0.11,1721206904684
0.48,2.74,17.66,0.63,-0.09,-0.17,1721206904694
0.76,0.27,-5.00,-0.14,0.02,-0.11,1721206904704
-0.85,-4.69,16.24,-0.52,-0.00,-0.04,1721206904714
0.34,0.26,16.99,0.10,0.02,-0.08,1721206904724
0.50,1.28,-0.55,-0.05,-0.04,-0.07,1721206904734
-0.14,-4.20,9.93,-0.43,0.08,-0.21,1721206904744
-2.13,-0.21,18.22,-0.17,-0.08,-0.21,1721206904754
-2.22,3.30,8.10,-0.05,0.02,-0.00,1721206904764
0.53,-0.07,3.23,-0.23,-0.00,0.27,1721206904774
3.54,-10.49,8.11,-0.48,0.12,0.22,1721206904784
3.06,-1.02,24.56,-0.24,0.09,-0.20,1721206904794
1.28,9.27,15.70,0.07,-0.12,-0.41,1721206904804
-3.03,0.82,4.05,-0.19,-0.09,-0.27,1721206904814
-3.06,5.53,14.54,0.02,0.06,0.02,1721206904824
1.94,2.32,7.89,0.27,0.08,0.18,1721206904834
2.52,-2.86,3.09,0.08,0.08,-0.07,1721206904844
0.73,1.12,10.19,0.11,0.04,-0.45,1721206904854
-2.00,-2.09,9.18,0.06,-0.06,-0.40,1721206904864
-5.46,1.34,12.30,0.11,0.05,-0.13,1721206904874
-3.81,0.68,11.68,0.17,0.03,0.13,1721206904884
1.08,0.15,11.91,0.09,0.09,0.29,1721206904894
2.61,0.49,10.07,0.15,0.05,0.05,1721206904904
2.41,0.03,9.87,0.02,-0.02,-0.30,1721206904914
0.40,-1.43,13.23,0.06,-0.02,-0.39,1721206904924
-3.93,-0.74,9.36,0.15,-0.05,-0.34,1721206904934
-4.95,2.14,7.96,0.18,-0.04,-0.05,1721206904944
-2.38,1.93,5.24,0.22,0.02,0.18,1721206904954
1.29,-3.93,7.86,-0.00,0.05,0.12,1721206904964
2.21,0.95,12.68,0.13,-0.03,-0.17,1721206904974
0.54,1.95,7.84,0.00,-0.08,-0.36,1721206904984
-3.32,-0.98,15.47,-0.13,-0.04,-0.31,1721206904994
-4.39,-0.27,11.28,0.11,-0.11,0.02,1721206905004
-1.64,-1.91,10.24,-0.08,0.04,0.25,1721206905014
1.31,2.08,13.50,0.18,-0.08,0.23,1721206905024
4.11,1.62,4.35,0.09,0.02,0.00,1721206905034
2.52,3.76,15.20,0.02,-0.00,-0.25,1721206905044
0.10,0.30,8.90,0.14,-0.11,-0.32,1721206905054
-1.69,-2.20,9.32,-0.10,0.04,-0.22,1721206905064
-3.12,3.90,16.32,0.03,-0.03,-0.03,1721206905074
-1.57,3.84,8.27,0.18,-0.07,0.03,1721206905084
-0.31,0.07,4.51,0.14,-0.03,0.06,1721206905094
0.65,-0.71,9.11,0.03,0.04,0.07,1721206905104
0.06,2.37,10.59,0.08,-0.09,-0.06,1721206905114
0.40,0.07,11.55,-0.01,-0.01,-0.17,1721206905124
-0.94,-3.18,5.61,0.04,-0.12,-0.08,1721206905134
-1.71,3.52,13.05,-0.03,0.12,-0.06,1721206905144
0.56,6.74,10.64,0.07,-0.09,-0.03,1721206905154
1.46,-10.36,11.49,-0.48,-0.02,0.06,1721206905164
-1.08,2.38,17.06,0.04,-0.08,-0.21,1721206905174
-1.67,3.63,-1.08,0.03,-0.12,-0.30,1721206905184
-3.03,-2.29,12.10,-0.32,0.09,0.01,1721206905194
-1.97,-2.82,10.63,0.19,-0.07,0.28,1721206905204
0.91,0.37,1.96,0.01,0.02,0.11,1721206905214
2.15,-2.36,17.49,-0.38,0.03,-0.20,1721206905224
-1.43,4.63,18.35,-0.03,-0.22,-0.17,1721206905234
-2.62,-0.13,1.01,-0.07,-0.13,-0.11,1721206905244
-0.96,-5.37,10.03,-0.29,0.12,0.03,1721206905254
0.50,1.85,12.60,0.05,-0.09,0.15,1721206905264
0.24,-0.13,8.35,-0.12,0.04,-0.05,1721206905274
0.57,5.35,14.25,0.00,-0.09,-0.04,1721206905284
0.45,1.38,3.30,0.06,-0.05,0.11,1721206905294
1.34,-5.61,6.46,-0.23,0.03,0.06,1721206905304
1.18,-2.07,19.15,-0.19,0.03,-0.10,1721206905314
-0.75,-0.47,19.02,-0.13,-0.13,-0.16,1721206905324
-0.85,5.67,7.89,0.16,-0.10,0.03,1721206905334
1.44,-0.40,2.66,0.01,0.12,0.10,1721206905344
0.63,-1.07,14.21,0.05,0.01,-0.07,1721206905354
0.72,3.64,8.00,0.40,-0.07,-0.05,1721206905364
0.85,-2.86,4.71,0.02,0.11,-0.21,1721206905374
-2.13,1.55,17.90,0.04,-0.15,-0.07,1721206905384
-0.43,1.77,10.64,0.08,0.03,0.13,1721206905394
1.58,0.53,13.65,-0.01,0.12,0.09,1721206905404
1.96,2.08,7.74,0.29,-0.07,0.00,1721206905414
2.27,-3.49,5.62,-0.01,0.11,-0.18,1721206905424
0.10,-1.00,18.05,0.02,0.00,-0.19,1721206905434
-1.06,3.38,5.17,0.24,-0.06,-0.01,1721206905444
1.07,-5.52,8.05,-0.09,0.19,0.11,1721206905454
2.30,1.27,18.13,0.22,0.09,-0.06,1721206905464
1.72,2.48,3.70,0.30,-0.07,-0.22,1721206905474
-0.38,2.08,11.91,0.09,0.20,-0.33,1721206905484
-1.68,-2.34,7.98,0.25,-0.06,-0.16,1721206905494
-2.57,0.95,7.44,0.10,0.11,-0.03,1721206905504
-0.58,6.54,13.75,0.24,0.13,0.02,1721206905514
1.82,-2.52,8.26,-0.07,0.05,0.00,1721206905524
2.04,-0.25,13.01,0.03,0.10,-0.18,1721206905534
1.67,2.48,4.69,0.05,0.08,-0.35,1721206905544
-0.62,0.77,10.26,-0.15,0.10,-0.39,1721206905554
-2.13,0.95,10.02,0.14,-0.00,-0.30,1721206905564
-1.36,-7.46,3.31,-0.11,0.13,-0.16,1721206905574
-1.69,-0.57,17.28,-0.04,0.12,-0.08,1721206905584
0.90,6.30,14.76,0.17,0.05,-0.16,1721206905594
0.59,5.12,7.37,-0.04,0.04,-0.24,1721206905604
-2.29,1.78,7.78,-0.06,0.01,-0.22,1721206905614
-0.43,-5.17,9.47,-0.25,0.19,-0.13,1721206905624
0.23,-0.30,12.59,-0.00,0.06,-0.10,1721206905634
0.09,-0.51,7.76,-0.16,0.09,-0.18,1721206905644
-2.40,1.76,12.51,-0.02,-0.05,-0.29,1721206905654
-1.89,-0.04,2.50,-0.20,0.09,0.05,1721206905669
0.23,-1.65,7.92,-0.41,0.18,0.09,1721206905673
1.84,-2.52,18.82,-0.29,0.05,0.13,1721206905683
2.84,-1.58,8.53,-0.16,0.06,-0.14,1721206905693
1.72,1.64,8.26,-0.17,0.11,-0.32,1721206905703
-0.01,-1.85,10.97,-0.08,0.02,-0.23,1721206905713
-0.96,0.24,17.03,-0.07,0.16,-0.14,1721206905723
-0.44,10.72,11.32,0.32,0.08,-0.11,1721206905733
0.11,1.42,-1.57,0.17,0.08,-0.07,1721206905743
0.52,-4.52,9.05,-0.11,0.22,-0.01,1721206905753
0.51,0.25,16.44,0.13,0.18,-0.21,1721206905763
-0.89,-0.24,7.26,0.00,-0.04,-0.35,1721206905773
-3.66,-1.49,10.75,-0.06,0.09,-0.23,1721206905783
-3.26,-3.48,11.86,0.01,0.12,0.04,1721206905793
-0.05,1.16,11.36,0.18,0.16,0.16,1721206905803
1.22,4.21,8.05,0.24,0.11,-0.06,1721206905813
-0.61,1.31,8.92,0.05,0.05,-0.31,1721206905823
-2.46,-2.51,14.29,-0.04,0.04,-0.17,1721206905833
-1.37,-3.60,20.14,-0.22,0.18,0.00,1721206905843
-1.74,5.34,9.07,0.23,-0.09,-0.01,1721206905853
-1.25,-0.76,-1.25,0.05,0.03,-0.07,1721206905863
-0.28,-5.90,17.21,-0.09,0.14,-0.06,1721206905873
0.04,3.00,11.00,0.45,-0.05,0.01,1721206905883
-0.91,2.12,-2.61,0.16,0.05,-0.15,1721206905893
-1.79,-1.79,17.16,-0.25,0.10,-0.22,1721206905903
-3.08,2.21,21.28,0.19,-0.11,-0.06,1721206905913
-2.43,0.45,0.50,0.21,-0.04,0.09,1721206905923
0.46,-0.50,11.90,-0.09,0.17,0.12,1721206905933
1.47,4.53,15.63,0.25,-0.13,0.10,1721206905943
2.36,3.39,1.53,0.26,0.01,-0.01,1721206905953
3.00,1.09,5.68,0.09,0.10,-0.11,1721206905963
0.21,1.17,7.45,0.07,-0.09,-0.16,1721206905973
-0.57,-4.42,12.14,-0.21,0.08,-0.22,1721206905983
-1.06,-2.56,19.74,-0.03,0.02,-0.21,1721206905993
-2.28,1.27,10.25,0.10,-0.04,-0.08,1721206906003
-1.89,2.14,9.53,-0.04,0.07,0.11,1721206906013
0.67,4.17,10.09,0.13,0.02,0.19,1721206906023
1.84,1.18,7.04,-0.04,0.04,0.05,1721206906033
0.88,-1.68,7.76,-0.07,0.02,-0.23,1721206906043
-0.85,-1.08,8.52,-0.12,-0.01,-0.23,1721206906053
-3.92,4.69,11.65,-0.10,-0.08,0.00,1721206906063
-2.91,0.23,10.06,-0.10,-0.00,0.22,1721206906073
1.32,-5.40,8.01,-0.19,0.05,0.23,1721206906083
2.44,0.81,8.59,-0.22,-0.01,-0.03,1721206906093
-0.04,0.54,13.29,-0.35,-0.05,-0.25,1721206906103
-2.34,-0.70,13.18,-0.11,-0.10,-0.10,1721206906113
-1.90,0.26,2.72,0.04,-0.06,0.18,1721206906123
0.28,-5.56,7.51,-0.40,0.09,0.19,1721206906133
-0.77,0.96,22.90,-0.30,-0.05,-0.06,1721206906143
0.10,8.91,11.98,0.09,-0.16,-0.05,1721206906153
-0.89,-3.87,-2.04,-0.12,-0.08,0.08,1721206906163
-0.09,-5.48,10.24,-0.06,0.14,0.10,1721206906173
1.37,5.93,11.02,0.21,-0.08,-0.01,1721206906183
-1.14,2.96,12.10,-0.11,-0.11,-0.06,1721206906193
-0.31,-1.53,19.34,-0.18,-0.06,0.14,1721206906203
0.95,7.92,8.52,0.18,0.04,0.15,1721206906213
2.04,-2.80,1.45,-0.17,-0.05,0.02,1721206906223
1.55,-8.76,18.84,-0.21,0.05,-0.17,1721206906233
0.17,16.69,14.71,0.49,-0.16,0.01,1721206906243
0.34,-0.75,-1.67,0.15,-0.03,0.06,1721206906253
1.98,-9.99,17.72,-0.41,0.22,-0.16,1721206906263
-1.05,12.50,20.04,0.38,-0.26,-0.25,1721206906273
-0.65,-3.37,-5.72,0.24,-0.07,-0.06,1721206906283
-0.67,-6.06,14.28,-0.15,0.32,0.03,1721206906293
0.78,4.09,18.90,0.44,-0.09,0.07,1721206906303
2.77,-0.77,-0.33,0.12,0.06,0.05,1721206906313
0.49,1.77,16.56,-0.07,0.03,-0.21,1721206906323
1.06,5.09,8.94,0.37,-0.02,-0.10,1721206906333
2.26,-6.12,-0.70,0.04,0.11,-0.04,1721206906343
1.58,-3.87,16.59,-0.04,0.15,-0.23,1721206906353
-0.98,4.92,15.36,0.30,-0.06,-0.33,1721206906363
-1.58,0.52,5.23,0.14,0.06,-0.07,1721206906373
-0.32,-1.56,15.52,0.00,0.21,0.00,1721206906383
1.41,3.59,13.87,0.24,0.06,-0.05,1721206906393
0.99,2.18,7.57,0.10,0.09,-0.26,1721206906403
-0.23,-3.16,11.77,-0.02,0.16,-0.32,1721206906413
-2.34,1.26,10.87,0.08,0.03,-0.14,1721206906423
-1.77,4.02,8.10,0.16,0.15,0.03,1721206906433
0.71,0.72,4.36,0.07,0.08,0.02,1721206906443
1.46,-1.29,10.90,-0.02,0.07,-0.06,1721206906453
0.84,3.08,11.63,0.15,0.04,-0.16,1721206906462
0.27,2.01,8.43,-0.13,0.11,-0.20,1721206906472
-2.95,1.40,15.63,-0.05,-0.04,-0.19,1721206906482
-2.75,-1.74,4.98,-0.01,0.00,-0.08,1721206906492
-1.07,-2.64,10.19,-0.18,0.14,0.08,1721206906502
-0.40,1.32,11.91,0.02,0.01,0.05,1721206906512
1.54,1.91,8.06,-0.03,0.05,-0.05,1721206906522
0.69,0.34,9.37,-0.05,0.00,-0.08,1721206906532
-0.13,-2.68,9.20,-0.17,0.04,-0.08,1721206906542
0.99,-1.34,15.73,-0.25,0.07,-0.04,1721206906552
1.76,3.83,15.21,-0.01,0.05,-0.05,1721206906562
0.25,-3.79,-0.89,-0.02,-0.14,-0.21,1721206906572
-0.53,-2.45,8.45,-0.14,0.18,-0.21,1721206906582
-0.78,5.71,15.12,0.14,-0.02,-0.12,1721206906592
-0.47,-0.71,8.20,-0.16,0.02,-0.07,1721206906602
-0.74,-2.08,14.05,-0.07,0.06,-0.05,1721206906612
0.41,-0.09,5.43,-0.00,0.07,-0.07,1721206906622
-0.96,4.93,10.05,0.03,0.03,-0.09,1721206906632
-0.88,-2.02,10.93,0.03,-0.04,-0.12,1721206906642
-0.70,-5.74,14.99,-0.07,0.11,-0.04,1721206906652
-0.72,4.77,12.06,0.19,-0.01,-0.03,1721206906662
0.91,3.94,6.82,0.00,0.01,0.02,1721206906672
0.58,-0.28,13.04,0.02,0.10,-0.19,1721206906682
-0.56,-4.01,9.21,0.17,-0.09,-0.22,1721206906692
-1.77,0.51,5.79,0.22,0.03,-0.04,1721206906702
-1.12,-0.58,10.87,-0.03,0.16,-0.01,1721206906712
0.56,-1.96,17.02,-0.01,-0.04,-0.02,1721206906722
1.20,4.14,7.48,0.46,0.01,-0.16,1721206906732
0.88,-6.47,-1.76,0.07,0.05,-0.17,1721206906742
0.07,-6.09,18.68,-0.08,0.20,-0.23,1721206906752
-0.45,6.23,19.28,0.33,-0.01,-0.26,1721206906762
-2.49,1.31,2.07,0.04,-0.02,-0.42,1721206906772
-4.45,2.52,8.81,0.15,-0.01,-0.11,1721206906782
-2.16,-0.29,4.74,0.10,0.14,0.07,1721206906792
0.36,-3.84,15.90,-0.14,0.12,-0.06,1721206906802
-0.25,7.29,14.02,0.26,-0.06,-0.31,1721206906812
-1.65,-1.44,2.61,-0.17,-0.03,-0.35,1721206906822
-4.54,-2.07,21.65,-0.16,0.00,-0.07,1721206906832
-2.19,1.03,7.32,0.37,-0.07,0.20,1721206906842
3.53,0.09,4.33,0.03,0.22,0.10,1721206906852
3.21,3.43,12.82,0.19,-0.09,-0.25,1721206906862
0.79,0.77,11.77,0.04,0.01,-0.41,1721206906872
-1.29,5.27,14.89,0.30,0.03,-0.32,1721206906882
-2.04,5.19,-0.55,0.19,-0.03,-0.18,1721206906892
-1.84,-1.28,9.67,-0.15,0.19,-0.07,1721206906902
-0.71,-2.79,8.43,0.18,-0.05,0.06,1721206906912
0.46,3.63,6.14,0.00,0.14,-0.04,1721206906922
0.42,0.65,10.55,-0.08,0.04,-0.13,1721206906932
-0.07,-6.05,13.99,-0.23,0.06,-0.24,1721206906942
-2.33,6.42,15.55,0.16,-0.02,-0.14,1721206906952
-3.26,0.60,2.34,-0.20,0.00,-0.05,1721206906962
-2.02,-4.31,16.14,-0.30,0.16,0.08,1721206906972
0.70,-2.23,11.76,-0.02,0.02,0.10,1721206906982
0.72,-0.54,9.55,-0.18,0.04,-0.07,1721206906992
0.14,1.55,10.35,-0.08,0.01,-0.01,1721206907002
-0.30,4.08,1.87,0.10,0.00,0.06,1721206907012
0.34,-3.54,4.62,-0.22,0.16,-0.07,1721206907022
-1.64,-1.30,16.40,-0.10,-0.05,-0.13,1721206907032
-2.61,3.05,6.85,0.11,-0.03,0.05,1721206907042
-0.80,-4.33,7.85,-0.40,0.12,0.19,1721206907052
0.33,-5.77,19.60,-0.31,0.05,0.25,1721206907062
2.11,10.05,13.33,0.12,0.02,0.19,1721206907072
3.19,2.21,3.83,-0.03,0.03,0.07,1721206907082
2.09,-8.01,14.79,-0.40,0.12,-0.17,1721206907092
-1.25,4.37,14.71,0.07,-0.11,-0.26,1721206907102
-1.34,5.04,5.18,0.10,0.05,-0.06,1721206907112
-1.65,-4.04,12.94,-0.17,0.13,0.08,1721206907122
0.75,3.89,13.80,0.16,0.01,0.19,1721206907132
2.13,1.07,5.82,0.06,0.10,0.03,1721206907142
1.02,-4.49,12.42,-0.15,0.03,-0.20,1721206907152
-0.45,7.67,13.55,0.28,0.02,-0.20,1721206907162
0.23,-0.81,2.55,0.27,0.02,0.13,1721206907172
0.09,-6.06,8.70,-0.02,0.22,0.08,1721206907181
0.11,3.06,13.75,0.30,-0.05,0.11,1721206907191
0.89,1.12,9.44,-0.05,0.12,0.09,1721206907201
0.18,4.23,21.81,-0.04,0.11,-0.05,1721206907211
1.71,3.69,3.62,0.32,-0.02,0.15,1721206907221
3.77,-7.71,0.18,-0.14,0.33,0.07,1721206907231
1.98,-3.41,19.66,-0.06,0.13,-0.33,1721206907241
-1.34,7.78,10.67,0.45,-0.06,-0.34,1721206907251
-1.16,-0.27,2.55,0.05,0.19,0.00,1721206907261
-0.16,-2.13,18.78,-0.08,0.24,0.04,1721206907271
0.59,2.69,11.09,0.29,0.03,-0.17,1721206907281
-0.53,0.11,2.49,-0.05,0.12,-0.31,1721206907291
-2.91,2.31,15.54,-0.14,0.20,-0.26,1721206907301
-3.25,1.82,8.92,0.13,-0.02,0.02,1721206907311
-0.59,-4.85,5.52,-0.22,0.23,0.09,1721206907321
0.84,-2.55,23.04,-0.34,0.16,-0.07,1721206907331
0.03,11.93,13.63,0.31,-0.11,-0.09,1721206907341
0.65,1.66,-3.49,-0.31,0.16,-0.10,1721206907351
-1.71,-5.53,18.90,-0.44,0.08,-0.14,1721206907361
-0.91,-1.66,13.32,-0.01,-0.03,-0.03,1721206907371
0.15,4.04,8.03,-0.13,0.10,0.04,1721206907381
0.47,2.19,5.96,-0.16,-0.02,-0.04,1721206907391
0.66,0.60,12.76,-0.15,0.05,-0.01,1721206907401
0.31,1.16,8.43,0.00,0.08,-0.09,1721206907411
0.26,-4.12,11.65,-0.35,0.10,-0.07,1721206907421
-0.73,-0.79,13.88,-0.12,-0.01,-0.05,1721206907431
-1.45,0.28,8.53,-0.19,0.07,0.02,1721206907441
-0.96,-0.65,12.18,-0.09,0.00,0.03,1721206907451
0.66,1.03,10.86,0.06,-0.01,0.15,1721206907461
0.91,-1.28,6.91,-0.05,0.04,0.11,1721206907471
1.62,-3.56,13.86,-0.20,0.08,0.04,1721206907481
1.42,7.93,12.85,0.08,0.04,-0.03,1721206907491
1.33,-1.47,3.10,0.01,-0.07,0.03,1721206907501
1.02,-6.66,12.48,-0.11,0.11,-0.01,1721206907511
0.49,8.92,13.97,0.35,0.01,-0.11,1721206907521
-0.22,4.66,4.27,0.17,-0.06,-0.03,1721206907531
-0.20,-4.21,13.59,-0.10,0.15,-0.04,1721206907541
-0.51,4.19,12.53,0.31,-0.04,-0.01,1721206907551
0.52,-1.43,1.75,0.14,0.05,-0.01,1721206907561
0.60,-3.67,14.80,-0.02,0.09,-0.07,1721206907571
-0.02,4.83,15.95,0.25,-0.01,-0.19,1721206907581
-0.86,3.76,5.94,0.20,-0.06,-0.19,1721206907591
-2.53,-3.74,5.91,0.07,0.00,-0.12,1721206907601
-0.38,-1.70,10.50,0.13,0.15,-0.05,1721206907611
0.58,4.41,9.62,0.22,0.02,-0.12,1721206907621
-0.60,1.06,8.60,0.13,0.04,-0.34,1721206907631
-2.07,2.23,7.98,0.13,-0.05,-0.26,1721206907641
-2.07,-2.61,9.73,-0.07,0.10,-0.15,1721206907651
-1.44,-2.13,12.60,-0.02,0.02,-0.11,1721206907661
-1.82,3.89,5.00,0.22,-0.05,-0.23,1721206907676
-2.09,3.12,3.42,0.13,-0.12,-0.27,1721206907680
-3.43,-6.00,12.87,-0.09,0.04,-0.20,1721206907690
-1.65,1.25,16.53,0.21,0.05,0.10,1721206907700
0.52,5.71,4.53,0.11,0.03,0.09,1721206907710
1.69,1.69,12.29,-0.10,0.03,-0.07,1721206907720
1.25,-1.30,11.14,0.04,-0.04,-0.18,1721206907730
-0.36,-0.39,8.96,0.05,0.02,-0.19,1721206907740
-0.44,-0.81,12.30,-0.04,0.07,-0.14,1721206907750
-0.92,2.16,10.93,0.12,-0.03,-0.00,1721206907760
-1.00,5.50,5.47,0.19,-0.01,0.09,1721206907770
0.80,1.03,8.54,0.11,0.05,0.10,1721206907780
1.30,-4.30,10.29,0.00,0.02,-0.02,1721206907790
-0.78,0.51,14.82,-0.08,0.02,-0.19,1721206907800
-3.81,6.38,13.99,-0.06,-0.10,-0.15,1721206907810
-4.45,3.53,8.67,-0.02,-0.03,0.14,1721206907820
-0.23,-6.22,4.27,-0.08,-0.02,0.54,1721206907830
3.56,-6.08,10.75,-0.16,0.15,0.27,1721206907840
2.55,6.11,13.44,0.12,-0.13,-0.17,1721206907850
-0.23,0.34,4.26,-0.00,-0.18,-0.25,1721206907860
-3.35,-1.67,13.96,-0.09,0.04,0.03,1721206907870
-1.19,-2.61,14.17,-0.00,0.07,0.22,1721206907880
1.05,1.63,13.81,-0.10,-0.01,0.09,1721206907890
0.80,7.14,9.50,0.07,-0.08,-0.07,1721206907900
-1.09,-3.43,1.73,-0.11,-0.11,-0.10,1721206907910
-1.17,-5.93,6.73,-0.03,-0.06,0.12,1721206907920
0.99,-0.46,6.18,0.17,0.06,0.04,1721206907930
1.12,1.03,13.44,-0.13,-0.02,-0.04,1721206907940
-0.81,3.45,13.80,0.06,-0.19,-0.03,1721206907950
0.04,-3.04,7.18,-0.16,0.04,-0.04,1721206907960
1.14,-2.51,16.07,-0.19,-0.03,0.04,1721206907970
0.09,1.75,14.73,-0.08,-0.08,-0.07,1721206907980
0.18,-0.47,11.05,-0.07,-0.04,-0.07,1721206907990
1.49,-1.96,2.43,0.05,0.00,-0.06,1721206908000
0.77,-0.85,8.26,-0.02,0.04,-0.03,1721206908010
0.77,5.52,14.64,0.09,0.10,-0.06,1721206908020
0.66,-0.74,8.68,-0.00,-0.08,-0.00,1721206908030
-0.36,-5.64,9.50,-0.14,0.06,-0.09,1721206908040
0.36,-0.83,12.11,0.02,-0.01,-0.06,1721206908050
0.41,-0.49,14.31,-0.08,0.10,0.01,1721206908060
-0.44,7.37,17.40,0.22,0.01,0.02,1721206908070
1.81,6.54,3.86,0.39,0.10,0.09,1721206908080
3.69,-2.26,3.63,0.04,0.20,-0.06,1721206908090
2.11,-2.26,12.91,-0.01,0.06,-0.27,1721206908100
-0.14,6.15,15.12,0.21,0.13,-0.31,1721206908110
-0.72,0.28,4.35,0.18,-0.02,0.08,1721206908120
1.71,-8.81,5.71,-0.02,0.27,0.02,1721206908130
2.31,-4.91,16.39,0.10,0.12,-0.29,1721206908140
-1.39,6.43,16.05,0.31,0.05,-0.41,1721206908150
-3.37,14.22,8.39,0.55,0.09,-0.12,1721206908160
-1.13,-4.54,0.20,0.10,0.22,0.08,1721206908170
0.78,-13.31,12.81,-0.18,0.25,0.04,1721206908180
0.22,4.75,20.76,0.27,0.12,-0.17,1721206908190
-0.09,11.25,5.85,0.51,0.07,-0.17,1721206908200
-1.06,3.20,-3.18,0.20,0.12,-0.12,1721206908210
-0.35,-2.74,9.59,-0.02,0.13,0.06,1721206908220
0.56,-1.71,12.94,0.10,0.07,-0.08,1721206908230
0.46,1.10,7.65,-0.08,0.11,-0.17,1721206908240
-1.80,1.50,15.12,-0.15,0.07,-0.12,1721206908250
-2.27,-0.15,12.61,0.08,0.02,-0.07,1721206908260
-2.16,0.48,7.04,0.09,0.00,0.12,1721206908270
-0.23,3.90,14.68,-0.12,0.13,0.16,1721206908280
1.17,7.26,7.82,0.16,-0.08,0.07,1721206908290
0.38,-0.72,-5.84,-0.05,-0.12,0.04,1721206908300
0.26,-6.27,5.32,-0.32,0.09,0.08,1721206908310
1.22,-9.46,21.65,-0.37,0.02,0.01,1721206908320
-0.83,9.02,23.34,0.14,-0.09,-0.02,1721206908330
-1.69,2.48,-4.33,-0.02,-0.25,-0.04,1721206908340
-0.06,-0.31,11.65,-0.41,0.23,0.09,1721206908350
1.40,2.38,15.12,0.01,-0.12,0.18,1721206908360
1.08,-7.02,4.03,-0.31,-0.06,-0.14,1721206908370
-1.48,-7.71,15.23,-0.32,-0.06,-0.22,1721206908380
-2.73,3.50,14.19,0.00,-0.06,-0.04,1721206908390
-1.41,5.06,10.97,-0.03,0.01,0.14,1721206908400
-0.11,-1.84,8.02,-0.06,-0.19,0.21,1721206908410
2.05,1.84,12.85,0.10,0.05,0.07,1721206908420
3.24,-1.05,2.04,0.11,-0.10,-0.07,1721206908430
1.44,-6.18,11.72,-0.42,0.07,-0.33,1721206908440
-1.47,6.21,24.08,0.06,-0.17,-0.40,1721206908450
-5.42,-1.85,-1.37,0.14,-0.23,-0.30,1721206908460
-3.73,-6.45,12.29,-0.21,0.21,0.13,1721206908470
1.00,6.44,22.02,0.16,0.01,0.33,1721206908480
2.81,8.84,9.03,0.21,-0.12,-0.00,1721206908490
2.34,-1.34,4.61,0.00,-0.11,-0.38,1721206908500
-1.12,-6.02,8.76,0.03,-0.11,-0.40,1721206908510
-2.50,-2.96,14.47,0.01,0.02,-0.20,1721206908520
-2.34,7.20,14.63,0.18,-0.05,-0.12,1721206908530
-2.61,8.11,5.94,0.31,-0.15,-0.07,1721206908540
-0.61,1.87,10.41,0.09,0.04,0.02,1721206908550
0.81,-6.46,7.75,0.10,-0.10,0.03,1721206908560
1.36,-2.26,5.50,0.07,0.01,-0.12,1721206908570
-0.31,2.86,11.19,0.06,-0.07,-0.31,1721206908580
-1.52,5.16,18.58,0.24,-0.03,-0.19,1721206908590
-2.09,4.18,2.72,0.48,-0.19,0.11,1721206908600
1.69,-5.41,7.41,-0.12,0.15,0.19,1721206908610
3.79,9.13,16.65,0.34,0.03,-0.06,1721206908620
2.58,0.26,-4.97,-0.04,-0.16,-0.29,1721206908630
-1.28,-4.09,15.10,-0.34,0.10,-0.34,1721206908640
-2.18,-6.73,15.89,0.10,-0.10,-0.08,1721206908650
-1.56,0.91,11.52,-0.01,0.06,-0.04,1721206908660
-1.77,5.29,7.61,-0.03,-0.13,-0.06,1721206908670
-0.99,1.53,9.66,-0.21,-0.03,0.00,1721206908680
-0.03,0.23,8.57,0.00,-0.10,0.14,1721206908690
-0.05,-6.56,5.74,-0.35,-0.04,-0.06,1721206908700
-1.93,-3.77,21.31,-0.42,-0.06,-0.18,1721206908710
-3.51,4.19,19.54,-0.08,-0.23,-0.04,1721206908720
-2.90,5.42,2.15,0.03,-0.17,0.26,1721206908730
0.70,-0.10,2.90,-0.21,0.03,0.34,1721206908740
2.66,-4.54,12.16,-0.21,-0.07,0.03,1721206908750
1.59,-1.46,14.16,-0.17,-0.16,-0.27,1721206908760
-2.72,3.07,9.21,-0.12,-0.22,-0.21,1721206908770
-4.02,1.41,13.45,-0.25,-0.12,0.16,1721206908780
-1.11,0.91,12.68,-0.09,-0.16,0.39,1721206908790
2.98,-5.26,7.82,-0.23,-0.11,0.18,1721206908800
2.07,4.40,13.68,-0.12,-0.15,-0.22,1721206908810
-1.19,5.78,12.46,-0.07,-0.29,-0.18,1721206908820
-2.86,-2.20,9.33,-0.02,-0.22,0.07,1721206908830
-1.36,-8.05,3.62,0.10,-0.21,0.27,1721206908840
1.58,-2.60,10.60,0.07,-0.08,0.18,1721206908850
1.23,2.18,16.77,0.08,-0.35,0.16,1721206908860
2.02,12.48,14.37,0.30,-0.14,0.14,1721206908870
2.43,8.10,6.58,0.23,-0.22,0.03,1721206908880
3.41,-11.86,2.73,-0.18,-0.16,-0.00,1721206908890
2.08,-9.63,14.53,-0.23,0.03,-0.28,1721206908900
-0.74,9.34,17.64,0.20,-0.28,-0.35,1721206908910
-2.11,2.41,3.53,0.21,-0.23,-0.03,1721206908920
0.47,-3.62,4.33,0.10,0.01,0.26,1721206908930
5.60,-5.37,8.40,-0.01,0.09,0.05,1721206908940
3.38,4.30,18.84,-0.02,-0.06,-0.50,1721206908950
-1.16,4.80,10.98,0.20,-0.24,-0.60,1721206908960
-2.42,-2.31,11.62,-0.15,0.05,-0.26,1721206908970
-1.26,-6.28,14.94,0.02,-0.03,0.05,1721206908980
2.19,-3.58,4.49,0.04,0.08,-0.18,1721206908990
2.07,11.06,8.55,0.27,0.06,-0.39,1721206909000
1.22,9.07,4.96,0.28,0.04,-0.47,1721206909010
-0.65,-8.50,4.97,-0.05,0.02,-0.58,1721206909020
-1.34,-12.73,11.56,-0.23,0.16,-0.49,1721206909030
-2.87,0.12,23.59,-0.31,0.09,-0.46,1721206909040
-2.22,8.32,25.19,0.05,0.02,-0.31,1721206909050
-0.12,5.64,-3.62,0.44,-0.00,-0.13,1721206909060
3.56,-6.33,1.89,-0.19,0.51,-0.29,1721206909070
1.09,6.50,21.46,0.07,0.07,-0.69,1721206909080
-2.04,5.80,5.91,0.07,0.02,-0.77,1721206909090
-4.58,1.76,6.37,-0.12,0.30,-0.47,1721206909100
-2.36,-7.16,7.56,-0.12,0.22,-0.13,1721206909110
1.17,-4.87,11.22,-0.07,0.22,-0.06,1721206909120
2.67,2.68,17.86,-0.13,0.24,-0.38,1721206909130
0.42,6.13,14.36,0.06,0.08,-0.61,1721206909140
-2.36,-1.08,-8.71,0.19,0.04,-0.43,1721206909150
-0.54,-11.97,11.62,-0.54,0.67,-0.40,1721206909160
-1.05,10.32,31.99,0.14,0.04,-0.31,1721206909170
-1.59,7.27,5.50,0.28,0.19,-0.34,1721206909180
0.09,-2.92,0.45,-0.36,0.39,-0.32,1721206909190
0.67,0.75,13.85,-0.17,0.33,-0.18,1721206909200
1.43,-1.48,5.78,0.04,0.23,-0.32,1721206909210
0.45,-6.58,4.26,-0.04,0.34,-0.64,1721206909220
-3.51,-0.42,8.39,0.18,0.25,-0.60,1721206909230
-5.99,-2.08,14.44,-0.19,0.36,-0.36,1721206909240
-4.45,3.14,28.74,-0.23,0.26,0.03,1721206909250
-0.04,5.20,14.37,0.13,0.30,0.17,1721206909260
1.22,-3.33,-4.47,-0.03,0.24,-0.16,1721206909270
2.86,-6.37,6.73,-0.20,0.49,-0.44,1721206909280
-0.40,6.57,20.85,0.06,0.27,-0.44,1721206909290
-4.63,2.38,8.44,0.10,0.08,-0.41,1721206909300
-5.32,4.59,5.34,0.21,0.30,-0.08,1721206909310
-3.15,-3.01,-0.15,0.03,0.30,0.31,1721206909320
2.71,-9.36,22.50,-0.41,0.48,0.26,1721206909330
3.28,4.11,24.20,0.27,0.09,-0.08,1721206909340
0.23,-4.24,-3.60,-0.01,0.04,-0.41,1721206909350
-6.39,-3.95,11.67,-0.11,0.26,-0.22,1721206909360
-2.96,-1.15,21.16,-0.03,0.25,0.04,1721206909370
-2.95,7.16,-3.73,0.51,-0.11,0.35,1721206909380
5.89,1.13,7.31,-0.06,0.78,0.14,1721206909390
9.00,4.62,14.20,-0.03,-0.18,-0.02,1721206909400
-2.97,2.31,3.74,0.19,0.01,-0.21,1721206909410
-0.97,-1.01,16.16,-0.22,0.48,-0.20,1721206909420
-3.44,3.32,15.54,0.32,-0.12,0.09,1721206909430
-2.72,3.19,3.14,0.22,0.13,0.36,1721206909440
1.53,3.34,19.96,-0.08,0.27,0.31,1721206909450
2.72,7.04,12.39,0.22,-0.02,0.09,1721206909460
1.71,-7.71,1.27,-0.32,0.15,-0.16,1721206909470
-3.56,0.29,19.99,-0.04,-0.01,-0.22,1721206909480
-2.36,6.01,6.73,0.44,0.04,0.08,1721206909490
-0.93,-2.98,0.05,0.14,0.13,0.33,1721206909500
1.07,3.12,12.23,0.36,0.10,0.23,1721206909510
3.50,5.47,5.32,0.34,0.10,0.01,1721206909520
0.14,-5.72,11.52,-0.32,0.06,-0.23,1721206909530
-3.64,8.53,25.38,0.21,0.04,-0.13,1721206909540
-3.20,4.09,-6.70,0.40,-0.14,0.23,1721206909550
-0.89,-10.55,6.46,-0.48,0.22,0.51,1721206909560
1.59,4.79,24.46,0.09,0.01,0.36,1721206909570
3.20,7.86,-2.86,0.41,-0.15,-0.03,1721206909580
-0.82,-5.94,-3.81,-0.28,-0.06,-0.20,1721206909590
-3.97,-1.26,19.69,-0.09,0.07,0.14,1721206909600
-1.09,-1.75,14.96,-0.05,0.02,0.24,1721206909610
-1.43,-1.49,21.98,-0.33,-0.08,0.09,1721206909620
-0.07,1.23,7.84,0.02,0.02,-0.16,1721206910156
-0.78,-0.58,8.36,-0.13,0.01,-0.15,1721206910161
-3.00,1.72,10.32,0.06,-0.03,-0.16,1721206910171
-2.79,-2.08,7.84,-0.12,0.07,-0.04,1721206910181
-0.49,0.67,17.26,-0.10,0.10,0.16,1721206910191
0.47,2.68,7.71,0.06,-0.05,0.08,1721206910201
0.06,-2.29,9.72,-0.17,0.02,-0.16,1721206910211
-0.49,-1.86,13.96,-0.00,0.03,-0.14,1721206910221
-2.50,2.10,7.62,0.03,-0.08,-0.05,1721206910231
-1.98,0.59,10.98,-0.04,0.01,-0.00,1721206910241
-1.79,0.45,9.27,0.03,-0.09,0.09,1721206910251
-0.48,-4.39,3.94,-0.05,-0.03,0.09,1721206910261
1.16,1.07,14.25,-0.08,0.06,-0.05,1721206910271
-0.11,5.04,10.75,0.15,-0.16,-0.13,1721206910281
-1.34,-5.93,7.29,-0.18,-0.08,-0.14,1721206910291
-3.84,3.04,16.22,0.12,-0.11,-0.02,1721206910301
-2.32,3.30,8.68,0.03,-0.08,0.16,1721206910311
-0.03,-0.80,14.23,-0.14,-0.08,0.20,1721206910321
0.91,-2.43,13.60,-0.03,-0.14,0.11,1721206910331
0.81,1.06,9.90,0.04,-0.16,0.09,1721206910341
1.18,-2.32,7.96,0.01,-0.08,0.04,1721206910351
0.96,3.75,16.76,0.14,-0.07,0.06,1721206910361
0.23,7.05,8.09,0.35,-0.22,0.11,1721206910371
0.65,-1.75,5.78,0.10,-0.06,-0.01,1721206910381
-0.21,-1.45,14.85,0.08,-0.13,-0.10,1721206910391
-2.48,3.40,11.32,0.21,-0.17,-0.04,1721206910401
-2.59,3.07,10.59,0.13,-0.11,0.07,1721206910411
-0.65,1.94,8.99,0.25,-0.16,0.26,1721206910421
1.58,2.49,8.92,0.18,-0.09,0.29,1721206910431
2.68,6.99,11.02,0.21,-0.11,-0.04,1721206910441
0.07,0.93,0.87,0.17,-0.32,-0.22,1721206910451
-3.01,-13.07,0.55,-0.23,-0.17,-0.08,1721206910461
-3.42,-6.34,21.51,-0.08,-0.09,0.17,1721206910471
0.79,2.36,16.67,0.46,-0.24,0.36,1721206910481
2.99,6.22,2.15,0.32,-0.16,0.21,1721206910491
2.63,12.77,10.13,0.25,-0.11,-0.03,1721206910501
1.75,2.73,4.76,-0.06,-0.21,-0.22,1721206910511
-1.71,-16.79,12.00,-0.58,-0.16,-0.34,1721206910521
-6.04,0.71,18.95,0.16,-0.25,-0.25,1721206910531
-5.47,-1.42,0.19,-0.08,-0.32,0.26,1721206910541
-0.20,-5.29,13.73,-0.19,0.04,0.65,1721206910551
6.52,0.42,8.89,0.40,-0.17,0.44,1721206910561
8.67,1.02,1.24,0.01,0.01,-0.19,1721206910571
1.50,9.89,19.75,0.06,-0.25,-0.69,1721206910581
-2.68,9.87,14.35,0.27,-0.23,-0.49,1721206910591
-3.14,-16.00,2.68,-0.41,-0.06,-0.04,1721206910601
-3.69,-10.25,21.09,-0.29,-0.06,0.10,1721206910611
2.22,13.57,9.91,0.50,-0.17,0.23,1721206910621
5.43,3.93,-11.81,0.13,-0.05,0.10,1721206910631
4.09,-5.52,9.95,-0.16,0.17,-0.44,1721206910641
1.24,2.15,15.36,0.20,-0.09,-0.77,1721206910651
-3.96,-8.58,6.99,-0.45,-0.11,-0.66,1721206910661
-7.77,-0.11,34.08,-0.38,-0.10,-0.21,1721206910671
-3.47,7.11,12.65,0.37,-0.04,0.26,1721206910681
4.30,-7.01,-4.09,-0.15,0.18,0.52,1721206910691
7.00,-1.39,15.22,-0.00,0.30,-0.23,1721206910701
3.85,10.66,10.11,0.37,-0.14,-0.74,1721206910711
-1.54,5.10,-1.85,0.12,-0.04,-0.65,1721206910721
-3.05,-4.11,3.77,0.00,0.13,-0.21,1721206910731
-1.45,-10.92,11.47,-0.34,0.17,-0.12,1721206910741
-0.74,-1.76,29.89,-0.20,-0.01,-0.15,1721206910751
-0.13,15.36,19.91,0.44,0.04,-0.17,1721206910761
2.58,4.33,-2.54,0.26,0.16,-0.12,1721206910771
1.78,-5.99,5.25,-0.11,0.20,-0.25,1721206910781
-0.80,-2.44,17.96,0.07,0.13,-0.56,1721206910791
-4.75,2.26,6.54,0.23,-0.08,-0.36,1721206910801
-2.92,3.51,5.50,0.03,0.20,0.16,1721206910811
2.17,6.89,15.94,0.14,0.21,0.34,1721206910821
7.13,3.97,7.17,0.23,0.17,0.08,1721206910831
6.42,-10.19,5.68,-0.30,0.20,-0.55,1721206910841
-0.37,7.06,23.43,0.07,0.12,-0.90,1721206910851
-5.82,5.54,1.98,0.40,-0.05,-0.54,1721206910861
-6.12,-5.90,5.03,-0.20,0.38,-0.06,1721206910871
-2.23,1.89,22.88,0.19,0.22,0.20,1721206910881
2.98,3.62,1.72,0.33,0.13,0.15,1721206910891
3.63,-0.24,4.47,-0.18,0.29,-0.33,1721206910901
0.44,3.74,15.87,0.10,0.11,-0.53,1721206910911
-2.68,-4.74,5.97,0.01,0.12,-0.39,1721206910921
-3.67,-1.82,13.00,0.04,0.21,-0.20,1721206910931
-0.74,0.90,5.21,0.08,0.18,-0.06,1721206910941
0.79,2.71,17.13,-0.11,0.31,-0.15,1721206910951
1.20,5.34,4.04,0.43,0.06,-0.27,1721206910961
0.94,-6.77,-1.75,-0.27,0.35,-0.35,1721206910971
-1.88,-6.69,24.66,-0.32,0.25,-0.29,1721206910981
-2.05,1.45,20.89,0.17,0.17,-0.28,1721206910991
-2.17,7.40,1.98,0.12,0.14,-0.07,1721206911001
0.33,-4.45,1.67,-0.15,0.29,-0.02,1721206911011
1.59,-4.40,17.29,-0.09,0.36,-0.08,1721206911021
-0.08,3.29,7.55,0.28,0.12,-0.28,1721206911031
-0.83,-5.71,2.88,-0.33,0.32,-0.37,1721206911041
-3.74,3.19,25.97,-0.08,0.23,-0.16,1721206911051
-1.45,12.73,8.48,0.38,0.15,0.12,1721206911061
2.45,-9.57,-0.03,-0.45,0.32,0.12,1721206911071
1.45,-13.07,18.94,-0.33,0.27,-0.21,1721206911081
0.64,1.64,7.65,0.10,0.13,-0.42,1721206911091
-3.72,3.53,10.46,-0.30,0.27,-0.47,1721206911101
-6.86,7.94,15.37,0.25,0.02,0.00,1721206911111
-4.52,-6.92,-4.42,-0.03,0.15,0.41,1721206911121
2.91,-11.70,19.54,-0.44,0.50,0.44,1721206911131
5.91,11.87,20.57,0.28,0.07,0.16,1721206911141
2.98,9.04,-0.85,0.04,0.03,-0.40,1721206911151
-2.50,-2.89,13.26,-0.10,0.08,-0.42,1721206911161
-4.47,-4.43,7.71,0.25,0.08,0.11,1721206911171
-2.50,2.71,8.91,-0.09,0.30,0.17,1721206911181
-0.98,7.61,16.89,-0.01,0.00,0.14,1721206911191
-0.02,-0.23,7.89,0.05,0.03,0.11,1721206911201
-0.74,-6.35,6.84,-0.04,0.10,-0.00,1721206911211
-0.55,-2.77,21.28,-0.14,0.12,0.19,1721206911221
0.03,13.01,18.83,0.32,0.03,0.16,1721206911231
0.91,9.23,2.86,0.28,-0.02,0.11,1721206911241
0.77,-2.59,0.64,0.22,0.06,0.21,1721206911251
2.17,-7.75,6.94,-0.02,0.21,0.14,1721206911261
1.69,6.54,22.48,0.18,0.09,-0.13,1721206911271
-1.14,13.10,6.61,0.50,-0.13,-0.20,1721206911281
-4.04,0.88,0.40,-0.03,0.01,0.02,1721206911291
-3.99,-1.93,10.00,-0.05,0.04,0.41,1721206911301
1.84,-11.22,13.26,-0.28,0.16,0.41,1721206911311
2.37,5.68,17.88,0.21,-0.05,-0.13,1721206911321
-0.71,1.16,1.24,0.01,-0.16,-0.25,1721206911331
-4.01,7.07,16.31,0.09,0.12,0.13,1721206911341
1.72,-1.18,5.45,0.06,0.08,0.46,1721206911351
4.96,-8.71,13.13,-0.37,0.20,0.13,1721206911361
1.84,4.93,11.17,0.21,-0.21,-0.43,1721206911371
-2.45,-0.70,1.16,-0.26,-0.04,-0.37,1721206911381
-6.05,2.47,17.18,0.01,-0.02,0.11,1721206911391
0.15,-7.53,5.50,-0.15,0.10,0.39,1721206911401
3.13,-2.95,15.62,-0.23,0.09,-0.02,1721206911411
2.29,-0.85,7.35,-0.05,-0.10,-0.32,1721206911421
-3.09,5.74,6.83,-0.18,0.07,-0.29,1721206911431
-3.04,-0.86,12.37,-0.13,0.07,0.20,1721206911441
1.24,-12.58,11.28,-0.44,0.15,0.25,1721206911451
2.09,3.60,21.79,-0.17,0.04,-0.14,1721206911461
-0.16,8.50,6.08,-0.05,-0.16,-0.17,1721206911471
-1.76,0.39,-0.65,-0.10,0.05,0.01,1721206911481
1.01,-5.36,7.47,-0.05,0.20,0.23,1721206911491
2.08,-3.40,18.45,-0.26,0.17,-0.10,1721206911501
-2.10,6.84,15.43,-0.05,-0.17,-0.27,1721206911511
-3.45,7.81,2.78,-0.11,0.00,-0.04,1721206911521
-0.96,-8.08,11.53,-0.38,0.16,0.31,1721206911531
2.28,-2.93,16.84,-0.02,0.07,0.32,1721206911541
2.95,6.58,4.90,0.16,-0.00,-0.01,1721206911551
-0.03,-0.52,13.43,-0.30,0.04,-0.18,1721206911561
-3.58,2.46,14.86,0.04,-0.20,0.01,1721206911571
-1.37,3.20,-0.55,0.16,0.05,0.40,1721206911581
3.35,-10.79,10.39,-0.38,0.17,0.32,1721206911591
1.72,3.95,24.46,0.15,-0.11,0.01,1721206911601
0.00,8.85,0.04,0.47,-0.16,0.01,1721206911611
-0.42,-2.41,8.16,-0.22,0.19,0.09,1721206911621
-1.04,6.68,21.61,0.25,-0.12,0.23,1721206911631
1.02,-4.27,-0.78,0.08,-0.07,0.24,1721206911641
0.58,-2.70,12.86,-0.15,0.12,0.06,1721206911651
-0.80,-0.00,15.25,0.10,-0.17,0.02,1721206911661
-1.76,1.85,16.36,0.08,-0.03,0.31,1721206911671
0.35,6.18,9.43,0.47,-0.11,0.46,1721206911681
3.80,0.32,0.18,0.10,0.06,0.37,1721206911691
3.69,2.35,15.73,0.00,-0.02,-0.01,1721206911701
1.81,0.32,13.14,0.05,-0.12,-0.25,1721206911711
-1.46,0.98,9.39,0.04,-0.09,-0.08,1721206911721
-2.21,1.67,6.90,0.12,-0.03,0.16,1721206911731
0.12,-3.15,9.68,-0.02,0.05,0.16,1721206911741
2.23,2.45,11.37,0.18,-0.07,-0.02,1721206911751
1.02,1.96,4.62,0.13,-0.09,-0.08,1721206911761
-1.17,7.09,13.25,0.16,0.08,-0.27,1721206911771
-0.25,3.87,5.98,0.11,-0.11,-0.03,1721206911781
-0.78,-10.44,13.56,-0.52,0.04,-0.01,1721206911791
0.21,3.12,19.50,0.20,-0.07,-0.13,1721206911801
1.13,-0.92,-7.21,0.06,-0.17,-0.04,1721206911811
0.52,-0.32,8.96,-0.11,0.18,-0.17,1721206911821
-0.58,2.67,12.90,0.30,-0.09,-0.36,1721206911831
-3.16,1.93,6.58,0.04,-0.04,-0.15,1721206911841
-2.49,-8.37,11.12,-0.38,0.03,0.07,1721206911851
1.15,1.80,23.66,-0.14,0.11,0.07,1721206911861
2.96,9.32,8.65,0.18,-0.09,-0.06,1721206911871
2.26,-2.69,2.04,-0.25,0.02,-0.47,1721206911881
-3.32,-4.41,11.06,-0.01,-0.14,-0.44,1721206911891
-4.71,-4.00,6.87,-0.04,0.01,-0.09,1721206911901
-1.99,2.43,15.32,-0.02,0.10,0.10,1721206911911
0.38,9.08,9.07,0.46,-0.05,0.09,1721206911921
2.07,-3.15,-2.48,-0.12,-0.01,0.10,1721206911931
3.21,-10.81,29.37,-0.48,0.19,-0.15,1721206911941
1.82,11.55,21.23,0.38,-0.16,-0.35,1721206911951
-1.58,4.31,-7.68,0.01,-0.20,-0.33,1721206911961
-3.32,-7.06,10.97,-0.14,0.07,-0.18,1721206911971
-2.38,0.45,10.37,0.32,-0.09,0.18,1721206911981
-0.36,2.74,8.49,-0.03,0.05,-0.02,1721206911991
-1.06,6.15,19.80,0.01,-0.07,-0.19,1721206912001
-2.28,-0.75,2.67,0.08,-0.20,-0.02,1721206912011
-0.93,-13.61,5.59,-0.38,0.02,0.08,1721206912021
0.50,4.69,26.38,0.11,0.03,-0.02,1721206912031
1.43,6.48,4.74,0.32,-0.21,-0.07,1721206912041
-0.17,-2.19,7.13,-0.17,0.03,-0.19,1721206912051
-1.84,3.52,11.91,0.29,-0.09,-0.13,1721206912061
0.39,-1.50,-0.04,-0.15,0.06,-0.02,1721206912071
-0.62,3.94,18.50,-0.10,0.01,-0.12,1721206912081
-0.12,2.47,9.90,0.12,-0.14,-0.05,1721206912091
-1.17,-8.52,7.53,-0.31,-0.01,-0.00,1721206912101
0.17,-1.64,15.67,-0.06,-0.03,0.02,1721206912111
2.01,-0.51,8.53,-0.06,-0.08,0.02,1721206912121
0.78,5.92,11.53,0.31,-0.06,0.01,1721206912131
1.58,1.36,-2.01,0.34,-0.01,0.04,1721206912141
1.36,0.76,16.42,-0.13,0.09,-0.17,1721206912151
-2.41,3.32,19.41,-0.00,-0.18,-0.41,1721206912166
-2.76,0.54,13.01,-0.09,-0.15,-0.35,1721206912170
-6.34,7.35,2.50,0.06,-0.25,-0.07,1721206912180
-3.30,-4.06,3.63,-0.26,0.08,0.21,1721206912190
0.24,-8.22,15.97,-0.15,-0.04,0.27,1721206912200
1.02,2.41,5.37,0.24,-0.17,0.08,1721206912210
2.09,4.27,9.17,-0.08,0.04,-0.12,1721206912220
0.43,5.05,14.82,0.09,-0.25,0.05,1721206912230
0.91,-2.31,9.30,-0.11,-0.10,0.00,1721206912240
1.99,-1.13,20.82,-0.13,0.04,-0.12,1721206912250
-0.66,6.92,13.02,0.14,-0.15,-0.27,1721206912260
-3.44,2.47,2.46,0.03,-0.16,-0.18,1721206912270
-2.29,-2.69,3.77,0.08,0.03,0.00,1721206912280
0.27,-6.50,-1.13,0.10,-0.08,0.22,1721206912290
1.98,3.90,6.62,0.12,0.06,0.01,1721206912300
1.67,2.94,6.63,0.01,-0.22,-0.12,1721206912310
-0.63,-7.75,21.79,-0.47,0.01,-0.28,1721206912320
-2.84,0.53,22.84,0.22,-0.29,0.04,1721206912330
-0.12,3.96,2.21,0.01,0.04,0.23,1721206912340
2.63,0.04,18.56,-0.30,0.12,0.04,1721206912350
0.66,4.89,11.12,0.20,-0.28,-0.03,1721206912360
2.54,2.32,-1.48,-0.05,0.14,-0.13,1721206912370
2.07,-4.38,9.03,-0.35,-0.11,-0.14,1721206912380
-0.55,-1.65,13.01,-0.18,-0.04,-0.18,1721206912390
-1.13,1.60,15.14,-0.20,0.05,-0.23,1721206912400
-1.49,-0.84,13.05,-0.11,-0.18,-0.07,1721206912410
-1.21,2.85,10.30,-0.07,0.01,0.03,1721206912420
1.34,0.55,15.26,-0.07,0.15,-0.02,1721206912430
0.42,1.92,9.18,0.11,-0.12,-0.15,1721206912440
0.24,1.76,3.67,0.03,0.04,-0.07,1721206912450
2.38,-0.61,7.12,0.09,0.11,0.02,1721206912460
2.91,-3.67,6.95,-0.00,0.02,-0.13,1721206912470
2.04,9.37,13.22,0.24,0.06,-0.31,1721206912480
1.24,2.64,1.51,0.11,-0.02,-0.29,1721206912490
-0.68,-10.79,14.82,-0.48,0.18,-0.33,1721206912500
-3.63,6.03,28.45,0.13,-0.08,-0.25,1721206912510
-2.56,-1.49,4.30,0.08,-0.05,-0.00,1721206912520
-0.87,-1.95,13.30,-0.14,0.19,0.03,1721206912530
0.75,4.98,12.64,0.24,-0.03,-0.08,1721206912540
1.32,2.49,2.73,0.03,0.07,-0.06,1721206912550
0.97,-3.72,9.55,-0.13,0.13,-0.08,1721206912560
1.02,1.63,12.88,0.07,0.03,-0.16,1721206912570
1.38,2.59,11.03,-0.03,0.11,-0.22,1721206912580
0.07,-0.41,11.26,-0.06,0.03,-0.20,1721206912590
-0.97,2.19,8.49,0.07,0.06,-0.27,1721206912600
-0.45,-0.57,12.19,-0.05,0.15,-0.25,1721206912610
-1.69,2.12,13.19,0.06,0.02,-0.20,1721206912620
-2.26,8.01,6.02,0.05,0.01,-0.08,1721206912630
0.27,-2.58,9.41,-0.42,0.20,-0.13,1721206912640
-0.21,-4.55,20.59,-0.22,-0.05,-0.09,1721206912650
0.06,-1.51,2.71,0.08,-0.02,-0.03,1721206912660
1.53,-4.31,9.76,-0.45,0.24,-0.22,1721206912670
0.32,3.50,19.29,0.12,-0.11,-0.28,1721206912680
-0.77,7.47,2.28,0.30,0.02,-0.08,1721206912690
-0.01,-4.67,6.13,-0.23,0.18,-0.06,1721206912700
1.87,-6.12,17.92,-0.10,0.14,-0.08,1721206912710
1.94,9.78,10.79,0.30,0.05,-0.20,1721206912720
0.85,1.03,-0.23,-0.14,0.07,-0.54,1721206912730
-3.22,-6.36,13.49,-0.12,0.06,-0.45,1721206912740
-4.87,1.46,8.67,0.29,0.05,-0.15,1721206912750
-2.11,3.32,6.94,-0.03,0.19,0.01,1721206912760
-1.02,1.07,11.67,-0.07,0.03,-0.05,1721206912770
-0.23,-1.02,11.90,-0.03,0.04,-0.05,1721206912780
0.14,-3.14,15.72,-0.12,0.08,-0.08,1721206912790
-0.51,1.12,16.83,-0.12,0.03,-0.17,1721206912800
-0.58,1.88,9.19,0.05,-0.04,-0.10,1721206912810
-0.04,-1.23,0.81,0.12,0.04,-0.06,1721206912820
0.55,-6.37,5.00,0.00,0.04,0.04,1721206912830
1.04,2.19,14.45,0.24,0.06,-0.02,1721206912840
-0.14,3.16,11.77,0.14,0.01,-0.26,1721206912850
-2.54,3.39,10.82,0.11,-0.05,-0.37,1721206912860
-3.78,4.35,-1.21,0.20,-0.07,0.00,1721206912870
-1.08,-15.94,9.92,-0.63,0.21,0.06,1721206912880
0.39,6.64,32.61,0.18,-0.01,-0.07,1721206912890
-0.19,8.81,-10.52,0.59,-0.24,-0.17,1721206912900
0.76,-9.57,6.26,-0.72,0.42,-0.25,1721206912910
-1.98,10.64,29.70,0.24,-0.19,0.01,1721206912920
-1.06,5.08,-5.83,0.53,-0.20,0.12,1721206912930
3.81,-6.09,7.99,-0.45,0.50,-0.12,1721206912940
2.43,1.60,27.08,0.12,-0.16,-0.24,1721206912950
1.35,-0.81,8.05,0.11,-0.06,-0.16,1721206912960
-0.88,9.79,19.25,0.06,0.20,-0.42,1721206912970
-2.06,4.53,6.00,0.35,-0.19,-0.32,1721206912980
-4.77,-5.90,-4.81,-0.11,-0.00,-0.05,1721206912990
-3.09,-1.87,10.94,-0.10,0.32,0.05,1721206913000
0.88,-3.84,6.43,-0.05,0.03,0.20,1721206913010
0.99,-5.99,11.68,-0.03,-0.01,0.22,1721206913020
3.94,2.22,20.52,0.30,0.21,0.10,1721206913030
5.57,11.08,13.16,0.37,-0.00,-0.10,1721206913040
3.12,6.31,4.69,-0.14,0.06,-0.45,1721206913050
-2.40,-7.69,9.63,-0.57,0.12,-0.82,1721206913060
-9.54,-5.80,16.55,-0.15,-0.08,-0.43,1721206913070
-10.64,-2.29,1.26,0.07,-0.06,0.32,1721206913080
-2.84,-3.48,7.85,-0.27,0.37,0.67,1721206913090
4.92,-0.58,15.26,-0.08,0.08,0.57,1721206913100
6.36,6.94,14.31,-0.18,0.07,0.00,1721206913110
4.15,7.72,6.86,-0.08,-0.07,-0.45,1721206913120
-1.09,-10.40,1.92,-0.59,0.03,-0.65,1721206913130
-8.24,-2.96,20.47,-0.30,-0.12,-0.36,1721206913140
-5.86,3.12,13.80,0.02,-0.00,0.00,1721206913150
-2.31,1.31,6.32,-0.21,0.06,0.36,1721206913160
0.41,7.60,8.61,0.12,0.02,0.49,1721206913170
2.94,9.84,-0.91,0.37,0.13,0.26,1721206913180
5.43,1.00,-0.42,0.08,0.11,-0.21,1721206913190
0.61,-7.32,18.30,-0.42,-0.06,-0.55,1721206913200
-2.55,0.28,20.84,0.06,-0.21,-0.46,1721206913210
-4.18,0.07,7.50,0.01,-0.09,-0.22,1721206913220
-3.87,1.92,15.03,-0.06,-0.03,0.29,1721206913230
-0.30,13.13,12.59,0.32,0.16,0.40,1721206913240
4.25,0.15,2.00,0.23,-0.00,0.19,1721206913250
3.61,-7.01,3.36,-0.11,0.11,-0.27,1721206913260
0.98,-8.15,21.10,-0.47,-0.00,-0.53,1721206913270
-2.94,14.37,26.94,0.16,-0.38,-0.41,1721206913280
-2.26,1.01,-5.07,0.49,-0.10,0.07,1721206913290
3.39,-13.42,2.07,-0.48,0.53,0.20,1721206913300
-2.90,12.82,29.19,0.21,-0.27,0.06,1721206913310
0.98,2.61,-5.19,0.78,-0.14,0.11,1721206913320
8.33,-8.20,-5.18,-0.32,0.54,0.02,1721206913330
-2.98,4.04,27.73,0.26,-0.40,-0.14,1721206913340
-1.07,0.59,5.30,0.58,0.01,-0.16,1721206913350
1.20,3.52,15.25,-0.12,0.43,-0.05,1721206913360
0.55,1.98,18.11,0.42,-0.17,0.07,1721206913370
3.09,-4.63,-8.17,0.21,0.23,0.04,1721206913380
3.05,-4.90,12.10,-0.25,0.43,-0.41,1721206913390
-3.44,0.98,24.19,0.21,-0.16,-0.67,1721206913400
-6.75,-0.67,7.83,0.32,-0.03,-0.09,1721206913410
-2.41,6.71,12.05,0.12,0.25,0.52,1721206913420
5.41,2.54,14.00,-0.03,0.26,0.41,1721206913430
7.71,-3.55,13.60,-0.12,0.14,-0.20,1721206913440
3.61,7.71,5.38,0.26,0.07,-0.69,1721206913450
-2.09,-0.42,6.37,-0.16,0.26,-0.87,1721206913460
-9.42,0.74,16.99,0.04,-0.03,-0.47,1721206913470
-7.79,0.81,1.59,0.14,0.12,0.26,1721206913480
1.56,-3.56,7.86,-0.31,0.43,0.47,1721206913490
4.16,5.35,11.12,0.11,0.00,0.05,1721206913500
4.14,-0.02,2.10,-0.08,0.13,-0.40,1721206913510
-0.28,-3.93,15.49,-0.34,0.10,-0.53,1721206913520
-4.03,0.00,20.73,-0.05,0.10,-0.32,1721206913530
-2.62,6.74,7.14,0.02,0.15,0.11,1721206913540
1.83,2.44,3.50,-0.33,0.23,0.21,1721206913550
4.76,-7.77,4.80,-0.28,0.18,-0.08,1721206913560
3.51,-4.97,11.83,-0.17,0.29,-0.47,1721206913570
-1.58,0.00,11.95,-0.10,0.09,-0.68,1721206913580
-5.31,-1.30,17.22,-0.22,0.10,-0.37,1721206913590
-4.85,10.37,14.94,0.10,0.18,0.08,1721206913600
-0.84,5.68,4.71,-0.02,0.23,0.36,1721206913610
3.28,-7.84,8.40,-0.17,0.27,0.19,1721206913620
4.69,-2.39,13.63,-0.10,0.25,-0.23,1721206913630
-0.33,13.24,16.53,0.07,0.10,-0.63,1721206913640
-4.84,0.37,1.29,0.28,-0.17,-0.53,1721206913650
-6.33,-9.45,1.07,0.06,0.33,0.05,1721206913660
-2.67,-0.91,15.30,0.22,0.26,0.53,1721206913670
3.13,5.46,11.10,0.33,0.20,0.36,1721206913680
4.01,3.13,12.56,0.02,0.12,-0.14,1721206913690
0.10,2.88,15.05,-0.04,0.00,-0.40,1721206913700
-3.67,-8.71,11.17,-0.08,0.04,-0.23,1721206913710
-4.16,1.69,12.45,0.22,0.22,0.01,1721206913720
-1.31,8.65,9.29,0.33,0.07,0.27,1721206913730
-1.02,0.76,4.19,0.30,-0.03,0.22,1721206913740
2.58,-5.01,6.20,0.27,0.22,0.15,1721206913750
3.06,0.02,9.76,0.03,0.11,0.07,1721206913760
-1.15,6.84,13.88,0.07,-0.07,-0.29,1721206913770
-2.17,1.69,9.39,0.13,0.06,-0.38,1721206913780
-3.51,-9.97,0.45,0.06,-0.08,0.11,1721206913790
-3.40,-6.82,10.27,-0.12,0.14,0.36,1721206913800
2.20,10.09,21.10,0.31,0.15,0.13,1721206913810
1.87,2.84,0.34,0.06,-0.21,-0.09,1721206913820
-2.57,0.13,14.61,-0.27,0.05,-0.26,1721206913830
-2.79,-3.45,10.80,0.15,-0.10,0.10,1721206913840
-1.75,-4.63,2.73,-0.26,0.12,0.30,1721206913850
-1.19,3.49,19.49,-0.21,-0.08,0.19,1721206913860
1.21,6.42,13.47,0.35,-0.15,0.18,1721206913870
1.30,-2.12,-13.54,0.13,-0.22,0.30,1721206913880
4.00,-15.89,17.21,-1.07,0.55,0.07,1721206913890
3.94,23.21,50.07,0.52,-0.14,-0.26,1721206913900
-4.13,5.35,-26.78,0.49,-0.83,-0.23,1721206913910
2.77,-21.80,8.73,-1.74,1.22,0.15,1721206913920
5.75,11.24,45.59,0.55,-0.86,0.82,1721206913930
-2.67,-0.54,-21.59,0.72,-0.34,0.37,1721206913940
9.61,-4.26,16.20,-0.82,1.18,0.11,1721206913950
2.96,19.71,23.44,0.33,-0.94,0.07,1721206913960
-5.40,-4.97,-19.84,0.13,-0.36,0.08,1721206913970
-1.04,-8.60,18.06,-0.70,0.70,-0.01,1721206913980
0.23,7.25,28.68,0.10,-0.43,0.29,1721206913990
-1.43,5.93,-0.40,0.07,-0.37,0.45,1721206914000
3.03,-0.62,9.41,-0.14,0.02,0.56,1721206914010
7.10,4.31,15.67,0.08,-0.04,0.13,1721206914020
2.53,2.48,10.19,-0.08,-0.27,-0.53,1721206914030
-5.74,-2.13,7.71,-0.03,-0.30,-0.44,1721206914040
-6.76,-8.32,3.98,-0.08,-0.15,0.20,1721206914050
-3.02,-0.74,11.60,-0.06,-0.08,0.63,1721206914060
4.40,-2.43,15.92,-0.11,-0.20,0.67,1721206914070
7.39,7.67,14.96,0.18,-0.10,0.13,1721206914080
3.78,4.70,-8.71,0.27,-0.45,-0.33,1721206914090
-0.06,-8.23,12.78,-0.58,0.25,-0.46,1721206914100
-2.53,0.04,29.07,-0.07,-0.31,-0.09,1721206914110
-4.71,1.16,-3.36,0.20,-0.34,0.02,1721206914120
-0.47,-4.16,4.13,-0.24,0.08,0.30,1721206914130
4.46,-6.39,15.79,-0.09,-0.04,0.28,1721206914140
2.71,5.80,9.12,0.21,-0.28,0.00,1721206914150
2.41,-0.30,8.51,-0.04,0.01,-0.22,1721206914160
-1.82,5.56,16.94,0.03,-0.13,-0.36,1721206914175
-2.54,6.70,11.85,0.02,-0.18,-0.24,1721206914179
-1.43,-0.38,8.07,-0.21,0.02,0.05,1721206914189
0.44,-5.04,16.95,-0.25,-0.04,0.12,1721206914199
2.29,6.47,8.25,0.30,-0.14,0.12,1721206914209
4.77,1.68,0.07,0.12,0.06,-0.03,1721206914219
3.72,-2.43,11.60,-0.01,-0.01,-0.41,1721206914229
-1.37,6.70,8.19,0.38,-0.22,-0.48,1721206914239
-1.62,-0.90,5.27,0.06,0.17,-0.33,1721206914249
-2.88,-4.19,22.17,-0.07,-0.00,-0.12,1721206914259
-3.02,0.58,16.43,0.04,-0.17,-0.01,1721206914269
-0.69,11.35,10.02,0.39,0.06,0.15,1721206914279
5.04,1.02,6.51,0.13,0.18,-0.08,1721206914289
2.53,6.60,5.54,0.40,-0.25,-0.39,1721206914299
2.57,-3.90,-4.86,0.11,0.16,-0.51,1721206914309
-2.75,-8.15,19.25,-0.42,0.10,-0.52,1721206914319
-6.33,8.56,20.97,0.41,-0.28,-0.16,1721206914329
-0.86,-0.71,-6.02,-0.11,0.12,0.27,1721206914339
3.48,-0.58,25.86,-0.39,0.27,0.06,1721206914349
4.31,14.45,13.68,0.59,-0.19,-0.31,1721206914359
3.36,-9.69,-8.39,-0.47,0.09,-0.59,1721206914369
-6.50,-4.86,32.46,-0.31,-0.03,-0.74,1721206914379
-5.67,9.73,9.25,0.79,-0.02,-0.23,1721206914389
-3.11,0.98,-9.41,-0.19,0.23,0.25,1721206914399
-1.42,4.84,21.64,0.03,-0.03,0.30,1721206914409
3.60,-2.95,1.94,0.22,-0.09,0.03,1721206914419
5.54,-6.88,-0.37,-0.34,0.18,-0.22,1721206914429
2.54,0.40,17.04,-0.25,-0.08,-0.41,1721206914439
-1.09,4.56,18.67,0.08,0.02,-0.56,1721206914449
-4.72,1.64,4.07,0.15,-0.16,-0.24,1721206914459
-3.83,-8.60,2.54,-0.28,0.05,0.13,1721206914469
0.99,0.43,21.47,-0.15,0.17,0.25,1721206914479
3.87,8.43,11.80,0.01,-0.04,-0.14,1721206914489
1.25,2.93,9.02,-0.23,-0.10,-0.45,1721206914499
-2.86,-8.46,7.97,-0.03,-0.09,-0.37,1721206914509
-3.30,-8.27,6.17,-0.25,0.07,-0.03,1721206914519
-0.37,1.19,18.19,-0.15,-0.02,0.26,1721206914529
2.97,6.34,10.35,0.22,-0.02,0.08,1721206914539
1.57,1.20,-3.69,0.18,-0.12,-0.29,1721206914549
0.58,-6.06,6.63,-0.19,0.11,-0.25,1721206914558
0.75,-0.97,25.35,-0.18,0.12,-0.17,1721206914568
-0.07,5.49,17.13,-0.03,-0.08,-0.41,1721206914578
-1.21,4.59,4.66,0.03,-0.06,-0.29,1721206914588
-1.83,-7.64,2.09,-0.00,0.07,-0.06,1721206914598
-1.42,-9.31,5.94,-0.17,0.00,-0.04,1721206914608
2.55,2.47,22.55,0.09,0.25,-0.18,1721206914618
0.61,6.19,5.61,0.20,-0.15,-0.48,1721206914628
-2.40,1.78,7.76,-0.13,0.11,-0.43,1721206914638
-1.61,-4.69,15.35,-0.08,0.14,-0.12,1721206914648
-0.51,-0.19,17.57,-0.08,0.16,-0.17,1721206914658
-0.15,3.24,11.16,0.11,0.06,-0.40,1721206914668
-0.76,3.32,6.87,0.10,0.06,-0.42,1721206914678
-1.14,3.35,10.93,0.19,0.14,-0.17,1721206914688
0.13,6.12,6.35,0.40,0.04,-0.13,1721206914698
1.99,0.70,4.64,0.18,0.19,-0.32,1721206914708
-0.24,-3.25,13.40,-0.10,0.11,-0.54,1721206914718
-4.46,2.33,13.00,0.07,-0.03,-0.44,1721206914728
-4.16,-0.51,12.46,-0.06,0.21,-0.11,1721206914738
-1.52,4.51,16.64,0.35,0.14,0.19,1721206914748
3.59,6.99,3.68,0.46,0.26,0.11,1721206914758
4.73,-2.08,6.11,0.07,0.14,-0.17,1721206914768
1.98,1.19,9.14,0.24,0.08,-0.51,1721206914778
-1.61,2.00,8.65,0.16,0.18,-0.65,1721206914788
-4.73,2.81,7.70,0.21,0.05,-0.26,1721206914798
-3.77,-3.14,3.73,0.09,0.14,0.09,1721206914808
0.42,-6.31,12.25,-0.16,0.28,0.13,1721206914818
1.37,2.88,22.24,0.02,0.21,-0.16,1721206914828
-0.01,7.91,6.94,0.28,-0.03,-0.31,1721206914838
-2.51,1.55,0.35,-0.08,0.18,-0.21,1721206914848
-3.75,-9.77,11.88,-0.41,0.16,0.01,1721206914858
-2.31,-1.71,19.15,-0.06,0.08,0.18,1721206914868
0.44,4.89,3.90,0.05,0.08,0.16,1721206914878
1.39,-2.15,10.85,-0.35,0.09,0.14,1721206914888
1.68,2.14,13.31,0.20,-0.02,0.11,1721206914898
2.35,0.07,-2.57,-0.05,0.06,-0.10,1721206914908
-0.84,-2.71,16.28,-0.34,0.13,-0.33,1721206914918
-2.93,2.31,19.09,0.05,-0.08,-0.14,1721206914928
-4.33,4.02,3.20,0.00,-0.02,0.19,1721206914938
-1.85,-0.83,7.87,-0.20,0.14,0.39,1721206914948
2.69,-5.79,11.65,-0.15,0.08,0.22,1721206914958
1.94,-3.72,13.81,-0.25,0.06,-0.07,1721206914968
-1.82,7.32,15.58,0.05,-0.13,-0.08,1721206914978
-0.96,2.56,4.49,0.11,0.02,0.22,1721206914988
1.32,0.09,9.50,-0.06,0.14,0.27,1721206914998
2.33,-7.07,13.61,-0.17,0.07,0.04,1721206915008
0.35,0.09,16.10,-0.00,-0.08,-0.18,1721206915018
-2.01,6.72,8.36,0.16,0.01,-0.01,1721206915028
-1.72,2.68,7.18,0.08,0.01,0.28,1721206915038
1.74,-5.34,10.00,0.03,0.06,0.24,1721206915048
3.43,-1.75,9.99,0.13,-0.02,0.03,1721206915058
0.97,8.48,10.62,0.16,0.02,-0.18,1721206915068
-0.82,1.47,9.81,0.03,-0.06,-0.05,1721206915078
-0.74,-2.79,8.09,0.09,-0.03,0.12,1721206915088
2.63,-7.65,5.79,-0.09,0.13,0.11,1721206915098
1.76,-1.20,19.61,-0.14,0.07,-0.14,1721206915108
-1.32,5.99,15.36,0.18,-0.14,-0.22,1721206915118
-1.11,3.81,4.06,0.21,0.05,0.06,1721206915128
1.76,-0.49,-0.51,0.17,0.06,0.22,1721206915138
3.82,-2.49,8.06,-0.20,0.19,-0.22,1721206915148
0.38,2.01,20.59,-0.08,-0.10,-0.50,1721206915158
-4.70,1.94,9.46,0.12,-0.11,-0.31,1721206915168
-3.17,2.03,6.78,-0.02,0.18,0.13,1721206915178
1.26,-0.17,11.11,-0.02,0.04,0.32,1721206915188
4.47,-0.42,5.04,-0.05,0.08,-0.05,1721206915198
3.62,-4.30,13.91,-0.44,0.12,-0.47,1721206915208
-3.79,6.71,18.07,0.03,-0.23,-0.49,1721206915218
-5.72,4.81,-1.28,-0.06,0.01,0.01,1721206915228
-2.53,-6.56,14.34,-0.44,0.26,0.21,1721206915238
0.07,1.84,18.67,0.03,-0.08,0.09,1721206915248
1.25,1.04,0.97,-0.09,0.03,-0.07,1721206915258
0.39,2.53,14.81,-0.14,0.13,-0.14,1721206915268
-0.34,8.72,14.34,0.24,-0.08,-0.11,1721206915278
0.68,-5.47,0.25,-0.02,0.02,0.04,1721206915288
1.48,-3.78,12.97,-0.09,0.18,-0.10,1721206915298
1.61,5.18,13.69,0.11,-0.04,-0.20,1721206915308
0.00,1.97,12.77,-0.05,0.06,-0.21,1721206915318
-1.45,4.64,14.89,0.27,-0.02,-0.10,1721206915328
-0.41,-1.86,-1.00,0.21,-0.02,0.09,1721206915338
0.65,-1.87,14.53,-0.20,0.21,-0.06,1721206915348
0.57,3.65,20.00,0.15,-0.05,-0.15,1721206915358
-0.28,-2.60,2.23,0.15,-0.04,-0.02,1721206915368
-0.38,-1.32,9.17,0.07,0.14,-0.05,1721206915378
0.06,7.83,17.10,0.30,0.06,-0.13,1721206915388
-0.81,4.64,8.16,0.22,-0.10,-0.07,1721206915398
-0.97,-3.01,9.93,-0.01,0.07,-0.01,1721206915408
0.05,3.60,14.12,0.21,0.03,0.04,1721206915418
0.67,10.45,0.14,0.44,-0.00,0.02,1721206915428
1.48,-6.82,2.13,-0.22,0.16,-0.23,1721206915438
-2.56,-7.50,27.55,-0.10,-0.01,-0.36,1721206915448
-3.14,6.29,5.53,0.64,-0.10,0.06,1721206915458
0.88,-0.43,-4.53,-0.09,0.20,0.24,1721206915468
1.95,2.46,15.50,-0.07,-0.02,0.05,1721206915478
2.32,-0.81,8.77,0.18,-0.09,-0.23,1721206915488
-0.36,-3.63,4.23,-0.09,-0.01,-0.33,1721206915498
-3.34,0.84,15.99,-0.12,0.05,-0.23,1721206915508
-2.25,-0.77,15.02,-0.02,0.06,0.06,1721206915518
-0.03,1.00,11.20,0.01,0.04,0.06,1721206915528
2.04,5.72,3.86,0.16,0.02,-0.04,1721206915538
2.03,-6.06,0.20,-0.32,-0.01,-0.22,1721206915548
-2.14,-4.42,22.70,-0.31,0.06,-0.36,1721206915558
-2.23,9.17,8.16,0.42,-0.11,-0.05,1721206915568
0.62,-7.41,-3.77,-0.54,0.12,0.15,1721206915578
