AccX,AccY,AccZ,GyrX,GyrY,GyrZ,Time
0.79,-1.42,10.28,-0.00,-0.17,0.18,1721207213142
0.08,-2.30,9.71,-0.05,-0.10,0.18,1721207213147
0.92,0.58,13.22,-0.03,-0.09,0.22,1721207213157
0.70,-1.22,8.66,0.02,-0.26,0.30,1721207213167
2.66,-0.17,8.04,-0.04,0.01,0.24,1721207213177
2.77,1.09,9.77,0.01,-0.21,0.11,1721207213187
4.16,-3.80,9.61,-0.05,-0.03,0.06,1721207213197
2.98,-2.42,13.14,0.06,-0.09,-0.01,1721207213207
2.32,-3.85,10.08,0.09,-0.09,0.02,1721207213217
1.85,-0.13,11.62,0.14,0.07,-0.00,1721207213227
2.46,-3.12,10.69,0.11,0.01,-0.07,1721207213237
3.92,-1.94,12.16,0.17,0.13,-0.06,1721207213247
4.78,-2.64,9.13,0.21,0.16,-0.05,1721207213257
3.63,-4.89,8.71,0.12,0.22,-0.13,1721207213267
2.64,0.76,13.59,0.20,0.17,-0.26,1721207213277
2.48,-2.11,9.00,0.15,0.11,-0.20,1721207213287
0.79,2.80,15.57,0.06,0.26,-0.31,1721207213297
1.02,-0.98,9.51,0.15,0.10,-0.27,1721207213307
1.04,1.88,6.18,0.11,0.33,-0.35,1721207213317
1.70,1.53,9.33,0.18,0.26,-0.32,1721207213327
1.38,-2.52,9.51,0.12,0.36,-0.23,1721207213337
-1.42,-0.35,12.23,0.10,0.29,-0.28,1721207213347
-1.32,1.22,10.82,0.18,0.24,-0.24,1721207213357
0.26,3.56,9.84,0.18,0.30,-0.15,1721207213367
1.51,3.23,8.39,0.19,0.28,-0.12,1721207213377
1.99,0.47,6.25,0.10,0.34,-0.35,1721207213387
-0.60,1.12,9.60,0.05,0.24,-0.57,1721207213397
-3.73,0.35,10.71,0.11,0.20,-0.52,1721207213407
-4.76,2.67,10.30,0.15,0.27,-0.37,1721207213417
-3.20,1.24,6.66,0.09,0.23,-0.15,1721207213427
-1.66,0.52,10.44,0.03,0.29,-0.23,1721207213437
-2.14,5.31,11.76,0.11,0.15,-0.36,1721207213447
-2.91,2.25,8.25,-0.16,0.15,-0.32,1721207213457
-2.91,-1.68,13.00,-0.23,0.15,-0.11,1721207213467
0.14,-6.11,11.72,-0.15,0.21,0.00,1721207213477
2.90,0.48,12.13,0.02,0.25,-0.17,1721207213487
3.68,2.42,5.23,0.04,0.11,-0.48,1721207213497
0.88,-0.05,8.59,-0.22,0.20,-0.68,1721207213507
-3.17,-2.29,15.20,-0.15,0.10,-0.59,1721207213517
-5.60,0.38,13.09,-0.03,0.07,-0.31,1721207213527
-1.94,2.69,8.88,-0.05,0.19,-0.05,1721207213537
2.68,-1.90,7.64,-0.19,0.26,-0.25,1721207213547
1.04,-0.43,9.45,-0.01,0.12,-0.54,1721207213557
-0.68,-1.85,8.85,-0.11,0.31,-0.71,1721207213567
-4.80,0.61,11.80,0.00,0.02,-0.50,1721207213577
-5.71,-2.43,8.02,-0.05,0.14,-0.17,1721207213587
-2.78,-0.35,14.99,-0.01,0.31,0.12,1721207213597
2.43,-2.20,9.07,0.03,0.13,0.08,1721207213607
3.79,-0.32,11.20,-0.04,0.25,-0.26,1721207213617
2.15,-0.66,11.35,0.13,0.12,-0.53,1721207213627
-2.27,-2.34,11.14,0.05,0.17,-0.56,1721207213637
-4.57,-3.14,11.06,0.16,0.11,-0.27,1721207213647
-1.69,-4.34,11.14,0.10,0.31,0.06,1721207213657
-3.25,0.79,10.63,0.21,-0.00,0.01,1721207213667
-1.66,1.54,6.79,0.15,0.13,-0.28,1721207213677
0.54,-2.54,10.59,0.01,0.14,-0.18,1721207213687
-3.10,-5.31,8.16,-0.02,-0.04,-0.14,1721207213697
-2.54,2.17,11.13,0.17,0.31,-0.11,1721207213707
-1.07,-4.35,2.31,-0.07,-0.08,-0.01,1721207213717
-4.33,-0.44,15.64,-0.16,0.25,-0.23,1721207213727
-1.87,-3.91,9.52,0.17,-0.12,-0.06,1721207213737
-0.39,-0.50,14.86,-0.15,0.40,0.06,1721207213747
-0.54,3.98,9.91,0.20,-0.29,-0.04,1721207213757
-0.58,3.58,5.18,-0.01,0.14,-0.28,1721207213767
-2.78,3.27,11.52,0.09,-0.04,-0.15,1721207213777
-5.21,-0.88,2.50,-0.01,-0.19,0.04,1721207213787
-2.29,0.39,14.21,-0.13,0.19,0.19,1721207213797
1.23,-1.03,13.10,0.10,-0.19,0.26,1721207213807
2.44,3.66,13.23,0.09,0.11,-0.01,1721207213817
2.53,2.82,9.53,0.15,-0.10,-0.19,1721207213827
-1.96,4.10,8.69,-0.10,-0.05,-0.20,1721207213837
-4.37,4.42,11.56,-0.08,-0.13,-0.05,1721207213847
-3.98,1.40,9.43,-0.11,-0.04,0.21,1721207213857
-2.14,-0.76,8.56,-0.03,-0.08,0.40,1721207213867
-0.16,-0.40,7.32,-0.06,-0.06,0.36,1721207213877
1.31,-1.09,4.69,-0.08,-0.15,0.21,1721207213887
2.25,0.15,14.88,-0.04,-0.01,0.17,1721207213897
2.05,-0.78,11.83,0.10,-0.23,0.28,1721207213907
0.64,3.29,11.47,-0.03,-0.04,0.05,1721207213917
1.57,-1.07,9.37,-0.03,-0.14,0.04,1721207213927
-1.42,-3.45,10.44,-0.17,-0.14,0.10,1721207213937
-2.66,-0.99,13.15,0.01,-0.09,0.19,1721207213947
-1.53,-3.50,7.53,-0.05,-0.06,0.33,1721207213957
-1.54,2.67,12.75,-0.03,-0.14,0.35,1721207213967
1.34,-4.35,8.33,-0.20,-0.15,0.36,1721207213977
1.79,-0.81,17.36,0.01,0.02,0.30,1721207213987
0.61,-2.13,4.36,0.14,-0.16,0.22,1721207213997
-0.81,3.19,11.24,-0.03,0.02,0.15,1721207214007
1.21,-3.20,10.57,0.08,-0.14,0.26,1721207214017
2.59,-3.48,11.33,-0.02,-0.02,0.26,1721207214027
3.45,-3.69,8.78,0.12,-0.20,0.21,1721207214037
4.81,-0.67,9.62,0.08,0.10,0.09,1721207214047
3.28,-3.24,10.38,0.17,-0.16,-0.03,1721207214057
1.46,-3.21,9.89,0.09,0.02,-0.05,1721207214067
0.36,-0.19,11.76,0.09,0.01,-0.08,1721207214077
1.21,0.75,14.27,0.11,0.07,0.05,1721207214087
1.02,-7.67,8.17,-0.03,-0.08,0.20,1721207214097
1.76,-0.17,12.72,0.10,0.13,0.15,1721207214107
2.50,-3.41,8.41,0.06,0.04,-0.01,1721207214117
1.27,2.10,14.29,0.11,0.07,0.03,1721207214127
1.27,-1.00,6.13,0.11,0.01,0.14,1721207214137
1.33,4.49,7.40,0.15,0.15,0.16,1721207214147
3.12,-2.23,5.60,-0.06,0.16,-0.01,1721207214157
1.51,1.47,12.23,0.06,0.07,-0.13,1721207214167
-1.45,-0.22,11.12,0.07,0.03,-0.17,1721207214177
-1.62,0.90,13.92,0.00,0.18,0.00,1721207214187
0.58,2.85,11.97,0.08,0.11,0.23,1721207214197
3.56,3.59,9.74,-0.06,0.30,0.05,1721207214207
4.29,1.21,7.70,-0.06,0.10,-0.18,1721207214217
2.55,2.26,9.93,-0.11,0.36,-0.47,1721207214227
-1.10,-0.64,8.21,-0.09,0.07,-0.51,1721207214237
-3.55,2.07,12.77,-0.08,0.17,-0.37,1721207214247
-3.82,0.43,10.07,0.04,0.17,-0.15,1721207214257
-1.86,0.86,10.44,-0.13,0.17,-0.02,1721207214267
1.71,0.15,10.67,-0.08,0.20,-0.08,1721207214277
2.27,-0.90,9.41,-0.07,0.09,-0.17,1721207214287
-1.05,1.81,8.12,0.03,0.15,-0.40,1721207214297
-1.21,-1.06,5.71,-0.14,0.12,-0.32,1721207214307
-2.69,0.41,11.93,-0.17,0.09,-0.13,1721207214317
-0.43,-4.51,10.69,-0.11,0.14,0.03,1721207214327
2.08,-2.98,8.77,-0.08,0.20,-0.02,1721207214337
4.59,-2.76,8.28,-0.09,0.21,-0.23,1721207214347
0.03,0.13,13.12,-0.03,0.16,-0.50,1721207214357
-4.01,-2.96,11.88,0.03,0.04,-0.46,1721207214367
-4.62,-0.79,10.01,0.04,-0.00,0.00,1721207214377
-1.96,-4.79,9.00,-0.13,0.25,0.22,1721207214387
-0.27,-2.45,12.45,0.01,0.04,0.11,1721207214397
2.40,-5.67,11.08,-0.09,0.24,-0.23,1721207214407
-3.10,0.89,14.80,0.17,-0.18,-0.31,1721207214417
-5.60,-1.11,5.46,0.08,0.04,-0.17,1721207214427
-6.16,0.16,9.18,-0.02,0.11,0.07,1721207214437
-1.18,-3.28,13.01,-0.13,0.14,0.19,1721207214447
-1.36,-1.71,12.07,0.13,-0.11,0.10,1721207214457
-1.73,-1.27,5.28,0.05,-0.06,-0.04,1721207214467
-2.63,5.39,12.11,0.15,0.04,-0.14,1721207214477
-2.83,5.38,10.06,0.10,-0.07,-0.08,1721207214487
-3.13,0.41,15.24,-0.11,-0.04,0.05,1721207214497
-4.04,0.62,10.63,0.26,-0.39,0.29,1721207214507
0.63,-2.80,4.52,0.08,0.06,0.43,1721207214517
3.11,3.64,11.72,0.20,-0.16,0.27,1721207214527
4.38,6.14,9.43,0.25,-0.16,-0.11,1721207214537
1.40,4.55,12.28,0.10,-0.14,-0.26,1721207214547
-3.91,4.43,10.19,0.12,-0.29,-0.23,1721207214557
-4.74,-0.85,8.86,-0.09,-0.06,0.14,1721207214567
-1.29,1.64,11.21,0.08,-0.15,0.53,1721207214577
2.37,0.63,4.64,0.09,-0.06,0.36,1721207214587
3.35,1.29,7.83,0.02,-0.07,0.00,1721207214597
1.49,2.25,10.75,0.05,-0.17,-0.11,1721207214607
-0.33,0.95,11.03,-0.04,-0.10,-0.02,1721207214617
-0.29,2.38,13.00,0.04,-0.08,0.10,1721207214627
2.23,-1.14,7.54,-0.03,-0.08,0.10,1721207214637
1.87,-3.33,9.90,-0.11,-0.11,-0.01,1721207214647
0.63,-5.75,12.85,-0.10,-0.08,-0.13,1721207214657
0.26,-1.38,14.43,0.03,-0.02,-0.09,1721207214667
-0.78,-2.33,9.39,0.02,-0.07,0.09,1721207214677
0.00,0.77,3.14,0.04,-0.04,0.05,1721207214687
4.45,-7.68,7.83,-0.43,0.23,-0.08,1721207214697
-0.17,-10.22,18.60,-0.18,-0.18,-0.12,1721207214707
-2.11,-5.68,13.60,-0.07,0.08,-0.18,1721207214717
-1.79,-1.23,12.01,0.02,-0.06,0.07,1721207214727
0.70,0.36,4.41,-0.09,0.02,0.20,1721207214737
3.89,-2.21,9.00,-0.16,0.20,-0.03,1721207214747
1.69,-5.43,9.52,-0.09,-0.07,-0.26,1721207214757
-3.10,0.09,13.58,-0.02,0.05,-0.23,1721207214767
-3.14,-0.04,10.05,0.00,0.04,0.05,1721207214777
-0.83,3.04,13.16,-0.04,0.11,0.35,1721207214787
3.42,-2.56,8.93,-0.06,0.11,0.36,1721207214797
3.46,0.89,10.97,0.01,0.00,0.01,1721207214807
2.79,3.24,10.80,0.28,0.02,-0.24,1721207214817
0.10,4.35,6.01,0.29,-0.00,-0.18,1721207214827
-1.58,5.05,9.57,0.23,0.06,-0.03,1721207214837
-0.68,1.42,11.03,0.08,0.05,0.13,1721207214847
0.14,0.62,16.00,0.07,0.08,0.16,1721207214857
3.79,1.19,10.72,0.27,0.12,0.12,1721207214867
3.84,2.41,6.46,0.29,0.12,-0.07,1721207214877
2.87,4.61,10.62,0.23,0.18,-0.34,1721207214887
0.18,1.56,10.16,0.18,0.00,-0.34,1721207214897
-0.97,3.01,9.67,0.14,0.16,-0.24,1721207214907
0.02,0.10,9.33,0.08,0.17,-0.13,1721207214917
-0.23,3.35,4.60,0.21,0.09,-0.19,1721207214927
-0.03,-3.15,5.57,-0.17,0.26,-0.39,1721207214937
-3.97,-0.23,17.91,-0.15,-0.02,-0.35,1721207214947
-3.85,2.01,14.58,0.05,0.13,-0.13,1721207214957
-0.19,-1.42,4.46,-0.11,0.13,0.12,1721207214967
3.04,-4.46,8.39,-0.32,0.25,0.06,1721207214977
3.75,-0.06,13.95,-0.10,0.19,-0.31,1721207214987
0.85,-1.07,7.88,-0.01,0.05,-0.57,1721207214997
-3.27,-5.13,7.12,-0.33,0.10,-0.41,1721207215007
-4.06,-3.82,12.97,-0.09,0.07,-0.04,1721207215017
0.13,1.92,10.14,-0.02,0.31,0.09,1721207215027
1.79,5.22,8.20,0.00,0.01,-0.17,1721207215037
-1.27,-10.13,1.45,-0.39,-0.06,-0.28,1721207215047
-4.85,-4.99,20.67,-0.26,0.29,-0.28,1721207215057
-1.82,1.02,14.98,0.22,0.08,0.01,1721207215067
-1.78,5.00,7.16,-0.04,0.00,0.13,1721207215077
-0.42,-0.68,5.26,-0.11,-0.00,0.07,1721207215087
0.99,-6.02,13.01,-0.21,0.25,-0.05,1721207215097
-1.20,1.16,16.28,-0.00,-0.10,-0.07,1721207215107
-2.12,5.11,4.80,0.07,-0.12,-0.06,1721207215117
-1.47,1.90,13.22,-0.09,0.13,0.04,1721207215127
-2.91,-0.36,9.33,0.03,-0.34,0.24,1721207215137
1.22,3.12,14.01,0.10,-0.10,0.30,1721207215152
1.02,2.00,12.39,0.11,-0.15,0.13,1721207215156
0.50,4.78,12.32,0.10,0.01,-0.12,1721207215166
-0.28,1.45,10.13,0.33,-0.15,-0.06,1721207215176
-0.09,3.60,8.21,0.38,0.01,0.14,1721207215186
2.79,7.50,18.97,0.16,0.27,0.14,1721207215196
-1.73,9.82,12.11,0.38,-0.68,0.00,1721207215206
-0.83,-2.55,3.75,0.03,0.16,-0.16,1721207215216
-2.85,-0.47,5.59,0.17,-0.38,0.01,1721207215226
-3.00,-2.61,3.67,-0.18,0.09,0.08,1721207215236
-4.34,-0.85,16.46,0.08,-0.28,0.25,1721207215246
10.31,3.17,13.30,0.56,0.53,0.65,1721207215256
9.25,2.42,-12.06,-0.23,-0.83,-0.02,1721207215266
2.47,2.48,18.87,-0.57,0.69,-1.08,1721207215276
-7.79,-6.47,31.80,0.00,-0.47,-1.18,1721207215286
-20.77,-7.67,6.23,0.26,-0.37,-0.17,1721207215296
-18.28,1.88,3.44,0.14,-0.01,1.18,1721207215306
1.46,1.33,8.57,0.04,0.39,2.20,1721207215316
17.72,1.15,11.87,-0.12,0.27,1.67,1721207215326
21.58,-2.10,15.45,-0.16,0.20,0.39,1721207215336
20.04,-0.98,12.16,-0.03,-0.25,-1.17,1721207215346
3.18,0.12,10.73,-0.08,-0.68,-1.93,1721207215356
-8.00,-2.43,8.74,0.11,-0.12,-1.83,1721207215366
-21.85,-0.21,4.95,0.01,-0.33,-0.31,1721207215376
-14.71,-2.93,5.47,-0.15,0.33,1.03,1721207215386
2.34,-5.49,12.09,-0.19,0.38,1.18,1721207215396
9.29,-0.62,16.34,-0.09,0.05,0.34,1721207215406
7.30,1.74,10.24,0.01,-0.25,-0.37,1721207215416
1.44,0.91,5.55,-0.17,-0.03,-0.68,1721207215426
-2.13,-4.82,11.39,-0.27,0.05,-0.48,1721207215436
-4.31,-3.54,12.35,-0.01,-0.15,-0.12,1721207215446
-1.02,3.27,7.36,0.05,0.03,0.14,1721207215456
3.03,0.73,13.26,-0.34,0.20,-0.00,1721207215466
1.54,4.88,19.39,-0.03,-0.07,-0.38,1721207215476
0.58,0.24,1.24,0.14,-0.13,-0.48,1721207215486
-3.50,-3.16,-0.37,-0.17,-0.00,-0.30,1721207215496
-3.94,0.62,22.37,-0.14,0.19,-0.13,1721207215506
0.20,6.16,18.12,0.32,-0.05,0.00,1721207215516
3.38,0.43,-0.18,0.06,0.03,0.06,1721207215526
2.49,-3.76,8.60,-0.31,0.13,-0.25,1721207215536
-0.68,-0.33,16.36,0.12,-0.04,-0.53,1721207215546
-1.30,1.83,6.74,0.31,0.09,-0.26,1721207215556
-2.04,5.65,4.20,0.27,0.15,-0.02,1721207215566
0.75,-3.79,9.30,-0.10,0.15,0.02,1721207215576
1.81,-2.60,20.27,-0.09,0.12,-0.19,1721207215586
2.09,5.79,14.45,0.33,0.07,-0.23,1721207215596
2.15,-1.48,-0.93,0.16,0.13,-0.15,1721207215606
0.25,-2.20,12.97,-0.13,0.39,-0.34,1721207215616
-0.81,4.73,20.89,0.19,0.11,-0.42,1721207215626
-0.83,-0.18,10.05,0.13,0.12,-0.23,1721207215636
-0.71,3.89,7.01,0.16,0.20,-0.02,1721207215646
2.12,2.89,4.73,0.15,0.36,-0.11,1721207215656
1.85,-3.17,5.08,-0.06,0.20,-0.38,1721207215666
-1.63,-7.28,20.15,-0.21,0.22,-0.58,1721207215676
-3.29,-0.58,15.77,0.32,0.11,-0.30,1721207215686
-3.61,4.86,2.22,0.15,0.29,-0.11,1721207215696
-1.76,0.72,7.86,-0.06,0.22,-0.01,1721207215706
1.30,-6.15,13.80,-0.11,0.33,-0.07,1721207215716
0.10,-1.46,12.76,0.15,0.19,-0.28,1721207215726
-0.67,5.77,8.18,0.12,0.31,-0.42,1721207215736
-2.57,4.70,3.09,0.01,0.05,-0.20,1721207215746
-2.76,-1.15,3.86,-0.15,0.21,0.05,1721207215756
-0.28,-5.79,9.65,-0.24,0.31,-0.03,1721207215766
-0.91,2.57,19.31,-0.08,0.17,-0.12,1721207215776
0.93,3.31,10.11,0.09,0.13,-0.03,1721207215786
0.32,1.03,5.34,-0.32,0.23,-0.01,1721207215796
-0.53,1.44,16.31,-0.26,0.17,-0.15,1721207215806
0.55,-1.31,8.94,-0.04,0.12,-0.10,1721207215816
0.96,-3.33,4.90,-0.24,0.25,-0.05,1721207215826
-0.60,-0.29,13.70,-0.25,0.19,-0.24,1721207215836
-2.02,2.85,17.69,-0.04,0.15,-0.24,1721207215846
-3.53,1.99,9.36,0.08,0.10,-0.09,1721207215856
-2.72,2.64,9.27,-0.09,0.21,0.09,1721207215866
0.52,-1.91,12.78,-0.29,0.20,0.23,1721207215876
1.74,3.71,12.65,0.05,0.07,0.14,1721207215886
2.42,4.08,1.76,0.11,0.07,-0.17,1721207215896
-2.12,-2.93,3.95,-0.16,0.09,-0.30,1721207215906
-4.54,-3.56,15.28,-0.20,0.10,-0.06,1721207215916
-2.72,4.43,15.87,0.07,0.10,0.31,1721207215926
1.65,1.04,5.55,-0.07,0.16,0.42,1721207215936
2.47,-0.62,9.13,-0.18,0.14,0.11,1721207215946
1.53,0.36,12.28,-0.02,-0.01,-0.13,1721207215956
-0.99,1.77,8.38,0.04,0.01,-0.11,1721207215966
-2.43,-2.55,8.78,-0.20,0.07,0.06,1721207215976
-2.92,-2.55,13.61,-0.17,-0.05,0.30,1721207215986
-0.22,-0.74,11.44,0.01,0.09,0.36,1721207215996
1.72,2.13,11.68,0.05,0.07,0.17,1721207216006
0.73,3.64,9.70,0.04,-0.01,-0.00,1721207216016
0.01,2.78,10.39,-0.00,0.07,0.03,1721207216026
-1.50,-0.67,7.91,0.03,-0.18,0.27,1721207216036
0.44,0.70,7.95,0.03,0.15,0.29,1721207216046
2.43,-1.67,10.16,-0.06,-0.04,0.15,1721207216056
-0.18,-1.52,13.98,-0.06,-0.16,0.04,1721207216066
-0.85,-0.14,8.71,0.12,-0.02,0.04,1721207216076
-0.76,0.80,7.32,0.05,0.12,0.09,1721207216086
0.38,-1.00,12.37,-0.09,0.05,0.14,1721207216096
0.56,-2.00,15.46,0.13,-0.11,0.14,1721207216106
0.03,3.10,10.28,0.21,0.02,0.09,1721207216116
-0.80,0.94,8.29,0.03,-0.00,0.01,1721207216126
-1.73,1.49,10.79,0.06,-0.09,0.08,1721207216136
-0.91,1.52,7.92,0.20,-0.06,0.14,1721207216146
0.44,-3.10,7.75,0.01,-0.03,0.11,1721207216156
0.13,-1.94,12.37,-0.02,-0.02,0.07,1721207216166
1.50,-0.57,12.98,-0.03,-0.00,0.05,1721207216176
0.01,2.96,11.01,0.18,-0.14,0.02,1721207216186
-0.79,4.10,3.24,0.24,-0.03,-0.00,1721207216196
-0.10,-3.52,8.19,-0.13,0.02,0.04,1721207216206
0.31,-0.74,19.28,-0.05,-0.12,0.11,1721207216216
0.51,1.82,11.13,0.16,-0.09,0.03,1721207216226
-0.55,-0.47,5.53,-0.00,-0.13,-0.10,1721207216236
-2.22,-0.62,9.97,0.03,-0.05,0.05,1721207216246
-0.12,0.26,11.89,0.11,0.03,0.14,1721207216256
0.82,1.80,12.34,0.13,-0.10,0.05,1721207216266
0.41,3.14,7.85,0.20,-0.12,-0.06,1721207216276
-0.36,2.55,10.52,-0.00,0.10,-0.15,1721207216286
-1.70,0.59,9.90,0.13,-0.21,-0.04,1721207216296
-1.60,-0.53,4.32,0.15,-0.08,0.11,1721207216306
0.22,-3.34,6.42,-0.04,-0.04,0.15,1721207216316
0.71,0.51,15.08,-0.05,-0.09,0.01,1721207216326
1.32,0.41,12.56,0.15,-0.12,-0.08,1721207216336
0.23,1.05,11.47,0.04,-0.02,-0.21,1721207216346
-1.54,1.44,11.41,0.05,-0.17,-0.10,1721207216356
-2.17,2.86,9.90,0.07,-0.09,0.08,1721207216366
1.50,1.45,8.72,0.03,0.03,0.13,1721207216376
2.68,-1.72,7.84,-0.05,-0.09,0.07,1721207216386
2.61,-1.47,11.61,-0.02,0.01,-0.16,1721207216396
2.46,1.93,11.78,0.10,0.02,-0.27,1721207216406
-0.09,0.58,7.41,0.03,-0.10,-0.24,1721207216416
-2.57,1.08,10.86,0.00,-0.01,-0.15,1721207216426
-2.22,3.12,12.40,0.14,0.01,-0.04,1721207216436
-0.09,1.26,6.50,0.09,-0.05,0.06,1721207216446
0.36,2.61,10.76,-0.04,0.07,-0.01,1721207216456
0.54,-1.30,9.99,-0.07,-0.06,-0.09,1721207216466
-0.56,1.01,15.57,-0.08,0.02,-0.14,1721207216476
-1.49,-2.90,6.55,0.02,-0.16,-0.06,1721207216486
-2.10,-0.04,8.89,-0.14,0.19,-0.07,1721207216496
-0.01,-2.10,13.51,-0.12,0.06,-0.03,1721207216506
-0.14,2.60,13.73,0.08,-0.02,0.12,1721207216516
0.58,1.13,1.99,0.09,-0.04,0.05,1721207216526
-0.39,-1.49,5.04,-0.13,0.02,-0.02,1721207216536
1.03,-1.14,13.82,-0.06,0.16,-0.02,1721207216546
-0.20,-2.16,11.21,-0.06,-0.08,-0.06,1721207216556
-2.54,-0.15,11.69,-0.12,-0.09,-0.07,1721207216566
-0.81,-0.33,9.16,-0.10,0.06,0.03,1721207216576
1.31,-0.10,13.76,-0.21,0.13,0.09,1721207216586
0.68,-0.51,11.50,-0.09,-0.07,-0.02,1721207216596
-1.10,-1.05,3.71,-0.15,0.01,-0.18,1721207216606
-1.47,-0.67,9.67,-0.18,0.07,-0.12,1721207216616
-2.14,2.13,12.50,-0.12,-0.12,0.11,1721207216626
-0.55,0.27,10.08,-0.17,0.01,0.19,1721207216636
1.87,-3.38,9.95,-0.13,-0.01,0.14,1721207216646
1.61,1.17,10.97,-0.15,0.08,-0.10,1721207216656
-0.55,5.10,13.61,-0.08,-0.08,-0.13,1721207216666
-1.21,-1.88,10.46,-0.06,-0.02,0.01,1721207216676
-0.25,-0.31,9.23,0.03,-0.01,0.14,1721207216686
1.58,1.78,10.10,0.05,0.03,0.13,1721207216696
1.26,0.28,11.20,0.02,-0.02,-0.00,1721207216706
0.54,2.03,9.38,0.21,-0.00,-0.12,1721207216716
0.15,-0.54,5.50,0.21,0.01,-0.10,1721207216726
-1.27,1.10,9.72,0.11,-0.01,-0.01,1721207216736
-1.25,-1.36,15.51,-0.05,0.01,0.06,1721207216746
0.84,2.74,18.08,0.10,-0.00,0.15,1721207216756
2.98,2.55,3.10,0.32,-0.04,0.08,1721207216766
0.79,-6.17,3.62,-0.03,-0.00,-0.06,1721207216776
-1.55,2.89,23.02,0.03,0.14,-0.31,1721207216786
-2.06,2.47,12.66,0.39,-0.21,-0.20,1721207216796
-0.79,0.23,-1.31,0.19,0.08,0.06,1721207216806
0.48,-3.56,9.57,-0.06,0.09,0.18,1721207216816
0.44,0.61,20.44,0.10,0.05,0.06,1721207216826
1.88,6.37,10.73,0.41,-0.08,-0.06,1721207216836
1.75,1.91,-0.38,0.17,-0.02,-0.06,1721207216846
0.23,-7.66,11.88,-0.33,0.18,-0.22,1721207216856
-1.44,1.98,20.78,0.19,-0.13,-0.20,1721207216866
-0.20,-0.94,0.47,0.25,-0.04,0.06,1721207216876
0.03,-4.45,5.02,-0.05,0.10,0.09,1721207216886
0.79,0.28,17.37,0.16,0.11,-0.05,1721207216896
0.22,2.61,11.38,0.34,-0.04,-0.18,1721207216906
-1.74,4.15,4.48,0.23,-0.06,-0.11,1721207216916
-0.66,-1.17,7.83,-0.02,0.12,0.04,1721207216926
-0.28,-2.54,15.40,0.05,-0.01,0.10,1721207216936
0.50,0.49,12.01,0.13,0.03,-0.10,1721207216946
0.57,2.18,8.69,0.19,-0.04,-0.10,1721207216956
0.34,0.24,6.05,0.05,0.07,-0.06,1721207216966
-1.04,-0.65,7.15,-0.01,-0.03,-0.13,1721207216976
-1.80,-3.09,12.50,-0.09,0.04,-0.17,1721207216986
-2.14,-1.58,13.83,0.09,-0.08,-0.00,1721207216996
-0.86,3.53,7.68,0.02,0.02,0.05,1721207217006
1.08,3.03,13.25,-0.12,0.04,0.02,1721207217016
1.89,-1.61,12.66,-0.16,-0.04,-0.05,1721207217026
-0.29,-3.14,13.21,-0.19,-0.06,-0.20,1721207217036
-0.01,1.61,12.62,0.02,0.02,-0.22,1721207217046
-0.60,6.48,10.18,0.04,-0.03,-0.17,1721207217056
-2.34,4.54,4.82,0.07,-0.13,-0.02,1721207217066
-1.18,-0.65,7.49,-0.01,0.07,0.02,1721207217076
0.77,-0.22,6.50,0.07,-0.09,0.02,1721207217086
1.32,5.59,7.31,-0.04,0.04,-0.09,1721207217096
2.03,-1.13,8.22,-0.15,-0.03,-0.22,1721207217106
0.75,-4.38,11.74,-0.25,-0.04,-0.24,1721207217116
-0.59,1.89,13.78,-0.06,-0.01,-0.19,1721207217126
0.10,1.40,8.16,-0.17,-0.00,-0.12,1721207217136
-0.35,-6.67,12.33,-0.48,-0.00,-0.16,1721207217146
-0.59,2.77,10.21,0.20,-0.14,-0.25,1721207217161
-0.32,3.39,5.13,0.22,-0.05,-0.21,1721207217165
-1.28,3.43,4.17,-0.13,0.09,-0.21,1721207217175
-2.02,-4.67,14.48,-0.11,-0.09,-0.05,1721207217185
-0.34,-1.07,10.56,0.07,0.02,0.14,1721207217195
2.12,2.53,8.58,-0.05,0.12,0.01,1721207217205
1.97,-1.74,11.18,-0.16,-0.02,-0.25,1721207217215
-0.49,4.80,12.93,0.06,-0.07,-0.41,1721207217225
-0.43,3.70,5.56,0.11,0.04,-0.17,1721207217235
0.25,-4.44,5.15,-0.19,0.14,-0.04,1721207217245
0.28,-0.06,16.06,-0.15,0.08,-0.30,1721207217255
-0.52,4.19,10.47,0.12,-0.04,-0.41,1721207217265
-0.44,-4.18,7.00,-0.16,0.12,-0.33,1721207217275
-3.08,-5.22,16.20,-0.20,-0.01,-0.22,1721207217285
-1.50,6.46,20.13,0.08,0.22,-0.26,1721207217295
0.80,3.55,15.93,0.15,0.08,-0.16,1721207217305
-1.78,2.89,4.48,0.18,-0.05,-0.23,1721207217315
1.08,0.87,8.38,0.21,0.36,-0.26,1721207217325
-0.35,0.57,11.61,0.19,-0.05,-0.25,1721207217335
-2.28,5.23,8.50,0.34,-0.03,-0.27,1721207217345
-1.89,0.39,3.29,0.27,0.11,-0.27,1721207217355
-1.04,-5.91,5.61,0.08,0.15,-0.16,1721207217365
0.36,-2.06,15.26,0.08,0.23,-0.10,1721207217375
0.69,7.79,12.53,0.43,0.06,-0.21,1721207217385
1.84,7.07,4.23,0.21,0.20,-0.32,1721207217395
-2.10,-5.90,1.98,-0.16,-0.08,-0.30,1721207217405
-3.00,-10.67,19.53,-0.45,0.34,-0.31,1721207217415
-0.64,7.35,25.22,0.32,0.12,-0.18,1721207217425
-1.80,3.16,-9.04,0.22,-0.16,-0.12,1721207217435
-1.88,-6.95,3.61,-0.54,0.51,-0.28,1721207217445
-1.06,-4.60,24.28,-0.12,0.14,-0.24,1721207217455
-1.17,2.72,5.60,0.33,-0.04,-0.08,1721207217465
-0.21,3.07,3.97,-0.11,0.42,-0.19,1721207217475
0.45,0.26,14.53,-0.13,0.05,-0.24,1721207217485
-3.02,-2.57,5.37,-0.05,-0.06,-0.13,1721207217495
-1.01,-3.47,10.52,-0.17,0.30,-0.08,1721207217505
0.02,0.69,15.06,-0.06,0.09,-0.11,1721207217515
-1.97,3.11,11.53,-0.04,0.12,-0.22,1721207217525
-0.74,-2.38,13.99,-0.19,0.20,-0.19,1721207217535
-2.43,-0.68,10.62,0.02,0.00,-0.07,1721207217545
-2.16,6.92,2.27,0.12,0.09,-0.01,1721207217555
1.46,-1.88,9.18,-0.29,0.28,0.05,1721207217565
0.35,-3.02,21.14,-0.12,-0.03,0.04,1721207217575
1.16,2.15,12.53,0.12,0.11,-0.01,1721207217585
0.61,3.94,10.49,-0.07,0.13,-0.11,1721207217595
-0.07,2.85,12.85,-0.03,0.17,-0.12,1721207217605
0.12,0.81,13.05,0.04,0.09,0.01,1721207217615
-0.48,4.14,10.92,0.21,0.01,0.11,1721207217625
0.96,3.45,6.12,0.21,0.17,0.02,1721207217635
-1.21,0.08,5.41,0.10,-0.01,-0.14,1721207217645
-3.13,-0.94,12.62,0.11,0.20,-0.05,1721207217655
-1.88,2.55,11.60,0.40,0.10,0.26,1721207217665
-0.61,2.63,5.56,0.18,0.10,0.19,1721207217675
-1.18,1.33,8.38,0.08,-0.06,0.06,1721207217685
-1.24,0.84,7.38,0.03,0.06,0.11,1721207217695
-0.57,-0.23,11.37,-0.06,0.11,0.07,1721207217705
-1.59,-4.49,11.75,-0.05,-0.09,0.08,1721207217715
-3.22,-1.35,7.34,0.11,-0.15,0.26,1721207217725
-0.27,0.00,6.51,0.05,0.10,0.35,1721207217735
1.59,0.70,11.33,-0.05,0.02,0.11,1721207217745
-0.14,0.13,13.70,0.03,-0.10,-0.05,1721207217755
-1.42,1.25,7.79,0.17,-0.07,0.10,1721207217765
-0.68,-2.26,5.34,-0.19,0.05,0.22,1721207217775
0.54,-2.26,19.75,-0.27,0.03,0.20,1721207217785
0.95,0.33,12.06,0.14,-0.22,0.14,1721207217795
1.55,-2.20,2.07,-0.10,-0.05,0.08,1721207217805
1.27,-4.07,8.03,-0.21,-0.02,0.15,1721207217815
2.11,1.90,13.08,0.02,0.01,0.16,1721207217825
2.75,0.13,7.82,0.02,0.01,-0.07,1721207217835
1.17,-1.43,10.99,-0.17,0.08,-0.20,1721207217845
-0.61,1.15,13.90,-0.05,-0.01,-0.13,1721207217855
-1.24,0.17,11.38,-0.12,-0.00,-0.05,1721207217865
-0.36,1.12,9.49,-0.03,0.04,0.06,1721207217875
0.53,0.16,7.94,-0.14,0.11,-0.08,1721207217885
-1.12,0.79,11.29,-0.04,-0.05,-0.16,1721207217895
1.29,0.40,10.98,0.05,0.19,-0.08,1721207217905
1.63,2.34,9.48,0.06,0.06,-0.09,1721207217915
-0.79,4.56,12.76,0.04,0.11,-0.25,1721207217925
-0.87,5.36,14.51,0.04,0.06,-0.32,1721207217935
-1.33,0.94,8.58,0.01,-0.01,-0.14,1721207217945
-0.70,-8.30,9.64,-0.15,0.20,-0.06,1721207217955
-2.27,1.17,13.32,0.13,0.05,-0.03,1721207217965
-1.02,5.40,7.36,0.20,0.09,-0.01,1721207217975
1.37,2.15,10.35,0.17,0.12,0.01,1721207217985
2.08,-1.16,5.04,0.29,0.03,-0.06,1721207217995
1.39,-4.37,2.26,0.07,0.19,-0.22,1721207218005
-2.56,-1.48,17.96,-0.05,0.04,-0.29,1721207218015
-3.10,7.00,15.73,0.42,-0.02,-0.00,1721207218025
0.50,-0.91,-2.26,0.15,0.17,0.24,1721207218035
1.68,-6.30,4.52,-0.24,0.21,0.06,1721207218045
0.93,-2.30,19.57,-0.10,0.11,-0.26,1721207218055
-1.90,4.80,19.00,0.22,-0.01,-0.22,1721207218065
-1.58,-0.37,2.72,0.20,0.05,0.14,1721207218075
0.05,-1.38,1.35,-0.07,0.20,0.27,1721207218085
2.68,2.11,9.85,-0.07,0.27,-0.02,1721207218095
0.96,-2.56,12.76,-0.19,0.04,-0.29,1721207218105
-5.06,-4.51,15.90,-0.08,-0.11,-0.18,1721207218115
-5.14,-2.57,22.34,-0.25,0.13,0.12,1721207218125
-0.98,5.68,18.06,0.27,0.03,0.46,1721207218135
3.74,-2.11,-4.43,-0.04,0.15,0.45,1721207218145
4.56,3.46,13.31,-0.37,0.38,-0.10,1721207218155
2.34,4.85,18.15,0.09,-0.07,-0.34,1721207218165
-1.64,-5.69,4.73,-0.05,-0.06,-0.14,1721207218175
-3.43,-0.08,9.04,-0.03,0.02,0.21,1721207218185
0.41,7.49,7.94,0.03,0.12,0.32,1721207218195
2.70,6.39,13.75,-0.12,0.11,0.10,1721207218205
0.24,1.15,13.25,0.11,-0.12,-0.15,1721207218215
-2.10,-0.56,4.33,0.03,-0.00,-0.12,1721207218225
-1.72,-0.17,6.90,-0.24,0.10,0.19,1721207218235
-0.43,0.89,15.68,-0.29,0.05,0.23,1721207218245
0.62,1.49,13.46,0.14,-0.14,0.16,1721207218255
0.58,-1.32,-7.36,0.25,-0.08,0.06,1721207218265
2.87,-9.82,7.31,-0.63,0.30,0.02,1721207218275
-1.10,4.95,31.98,-0.15,-0.22,0.03,1721207218285
0.28,2.44,10.39,0.28,-0.20,0.13,1721207218295
0.14,-0.36,4.60,-0.16,0.18,0.02,1721207218305
1.19,-2.96,14.41,-0.28,-0.05,0.08,1721207218315
1.99,-1.23,7.34,-0.07,-0.18,0.18,1721207218325
2.75,2.12,4.48,-0.07,0.19,-0.11,1721207218335
0.77,-4.98,12.09,-0.33,0.08,-0.53,1721207218345
-4.16,-0.16,13.78,0.05,-0.20,-0.37,1721207218355
-4.41,1.85,-0.40,0.34,0.11,0.20,1721207218365
1.22,-3.17,4.92,-0.25,0.26,0.46,1721207218375
1.36,4.46,23.02,-0.21,-0.03,0.07,1721207218385
2.38,6.90,16.01,0.32,-0.09,-0.27,1721207218395
0.04,-8.08,-1.42,-0.15,-0.24,-0.29,1721207218405
-2.35,-4.33,12.12,-0.48,0.45,-0.12,1721207218415
0.74,7.32,21.90,0.05,0.07,-0.05,1721207218425
-2.07,4.69,4.38,0.16,-0.29,-0.12,1721207218435
-0.79,-1.91,3.69,0.00,0.23,-0.12,1721207218445
-1.36,-3.50,8.10,0.02,-0.04,0.11,1721207218455
-0.14,-0.61,10.39,-0.03,0.18,0.08,1721207218465
2.20,3.15,18.51,-0.03,0.08,-0.07,1721207218475
-1.72,1.75,12.56,0.12,-0.28,-0.10,1721207218485
-1.77,-2.80,7.41,0.05,0.12,0.07,1721207218495
1.33,2.15,12.39,0.13,0.15,0.14,1721207218505
1.62,1.03,5.44,0.19,-0.14,0.02,1721207218515
0.58,0.55,6.72,0.06,0.18,-0.30,1721207218525
-2.71,-1.98,10.36,0.09,-0.15,-0.24,1721207218535
-3.98,-1.05,9.64,0.03,0.06,0.01,1721207218545
-0.00,2.16,13.17,0.00,0.25,0.10,1721207218555
-1.05,-4.13,9.52,-0.13,-0.16,0.02,1721207218565
-2.17,-2.01,11.03,0.02,0.05,-0.08,1721207218575
1.04,-1.62,12.69,0.09,0.08,0.05,1721207218585
-0.75,0.04,10.39,0.09,-0.18,0.14,1721207218595
-0.45,3.38,10.81,0.11,0.02,-0.06,1721207218605
1.15,1.77,10.21,0.05,0.01,-0.12,1721207218615
-1.66,-3.11,7.15,-0.10,-0.15,-0.06,1721207218625
-2.60,-1.96,9.41,-0.00,0.07,-0.01,1721207218635
0.26,-0.25,11.54,0.05,0.03,0.08,1721207218645
-0.54,3.11,11.49,0.08,-0.14,0.04,1721207218655
-1.02,0.17,10.63,0.09,-0.09,-0.02,1721207218665
-0.74,-0.69,11.11,0.09,-0.09,0.05,1721207218675
-0.59,7.53,12.95,0.23,-0.05,0.07,1721207218685
1.08,-0.72,7.81,0.06,-0.13,0.10,1721207218695
1.12,-3.18,11.69,0.03,0.04,0.07,1721207218705
2.10,2.22,9.01,0.29,-0.04,0.03,1721207218715
1.43,-0.60,8.96,-0.00,-0.01,-0.10,1721207218725
0.06,4.52,18.63,0.24,-0.12,-0.06,1721207218735
0.44,6.31,2.84,0.55,-0.20,-0.01,1721207218745
-0.62,1.60,1.11,0.13,0.02,-0.07,1721207218755
-1.56,-1.61,11.17,-0.00,-0.02,-0.06,1721207218765
-1.22,-1.32,12.62,0.14,-0.05,0.01,1721207218775
-2.29,6.60,8.57,0.27,-0.05,0.02,1721207218785
-0.63,-5.54,8.67,-0.23,0.06,-0.05,1721207218795
-1.62,0.34,23.52,-0.01,0.01,0.02,1721207218805
-0.17,7.34,6.93,0.38,-0.18,0.08,1721207218815
-1.47,3.40,-0.65,-0.09,-0.03,0.07,1721207218825
-1.49,-5.40,7.55,-0.22,0.01,0.05,1721207218835
0.35,-3.19,12.91,0.01,-0.03,0.03,1721207218845
1.50,2.52,8.96,0.07,-0.16,0.12,1721207218855
2.06,0.99,11.60,-0.21,0.07,-0.00,1721207218865
0.25,2.33,11.42,0.04,-0.15,-0.20,1721207218875
0.45,-4.66,4.09,-0.18,0.03,-0.25,1721207218885
-2.46,-2.35,10.68,-0.13,-0.07,-0.10,1721207218895
-2.40,-1.20,11.93,-0.17,0.02,-0.02,1721207218905
-1.34,2.94,14.82,-0.15,-0.10,0.09,1721207218915
0.06,-2.24,5.06,-0.16,-0.17,0.19,1721207218925
1.74,-4.92,7.65,-0.43,0.11,0.02,1721207218935
0.23,-1.24,12.00,-0.22,-0.17,-0.12,1721207218945
-1.04,-3.85,8.48,-0.27,-0.06,-0.11,1721207218955
-1.25,-0.77,16.99,-0.32,0.02,-0.02,1721207218965
-1.10,5.47,13.24,-0.03,-0.15,0.05,1721207218975
1.96,-5.27,3.17,-0.31,-0.05,0.12,1721207218985
0.81,-2.07,13.77,-0.37,0.05,-0.08,1721207218995
0.78,6.27,15.61,0.03,-0.08,-0.16,1721207219005
0.10,1.15,8.72,-0.06,-0.11,-0.11,1721207219015
-1.70,-0.33,12.35,-0.12,-0.09,-0.07,1721207219025
-0.49,-2.58,7.41,-0.07,-0.02,-0.14,1721207219035
-2.12,-0.96,13.69,-0.11,-0.12,-0.11,1721207219045
0.28,6.45,17.15,0.20,-0.03,0.15,1721207219055
1.59,3.89,4.94,0.52,-0.04,0.15,1721207219065
0.62,-7.64,2.76,0.18,-0.06,-0.06,1721207219075
-0.97,8.55,19.76,0.26,-0.01,-0.17,1721207219085
1.13,3.56,14.54,0.55,-0.13,0.01,1721207219095
0.73,-3.17,4.88,0.24,0.00,0.10,1721207219105
-0.06,5.02,9.98,0.44,0.02,-0.06,1721207219115
3.16,3.62,7.88,0.40,0.07,-0.02,1721207219125
1.38,0.46,13.98,0.18,-0.04,0.01,1721207219135
1.82,2.51,11.32,0.38,-0.03,-0.16,1721207219145
2.17,-4.13,2.36,0.15,-0.03,-0.24,1721207219155
-2.29,0.98,19.04,0.08,-0.06,-0.38,1721207219170
-2.76,1.66,16.95,0.25,-0.12,-0.31,1721207219174
-2.88,2.68,-0.10,0.29,-0.05,-0.01,1721207219184
-0.02,-10.21,4.52,-0.35,0.25,0.04,1721207219194
-0.43,-0.37,28.61,0.05,0.05,-0.17,1721207219204
-0.30,5.56,8.95,0.51,-0.18,-0.12,1721207219214
0.61,2.78,-2.57,-0.02,0.13,0.01,1721207219224
1.53,0.22,7.10,-0.07,0.13,-0.11,1721207219234
0.96,-3.93,4.63,-0.04,0.00,-0.29,1721207219244
-1.95,-0.18,5.05,-0.21,-0.03,-0.27,1721207219254
-3.07,-3.81,18.84,-0.49,0.15,-0.25,1721207219264
-3.84,0.05,19.10,0.21,-0.20,-0.02,1721207219274
-0.51,-4.28,-4.48,-0.25,0.10,0.08,1721207219284
0.17,-3.13,16.37,-0.55,0.20,-0.05,1721207219294
-0.52,-2.75,19.78,-0.13,-0.12,-0.18,1721207219304
-2.19,3.55,17.81,-0.11,-0.02,-0.14,1721207219314
-0.64,3.90,7.69,0.01,-0.12,0.19,1721207219324
2.42,-2.86,2.63,-0.45,0.14,0.11,1721207219334
2.75,-1.82,20.86,-0.53,0.06,-0.21,1721207219344
-0.18,6.71,14.83,0.04,-0.22,-0.44,1721207219354
-2.35,0.63,1.79,-0.11,-0.03,-0.27,1721207219364
-4.03,0.70,8.70,-0.07,0.04,0.12,1721207219374
0.76,0.20,13.21,-0.15,0.19,0.05,1721207219384
2.11,1.45,17.79,-0.19,-0.18,0.10,1721207219394
2.02,5.76,14.69,0.03,0.02,-0.07,1721207219404
3.42,-0.25,11.27,-0.08,-0.10,-0.18,1721207219414
-0.27,0.90,9.57,0.10,-0.17,-0.15,1721207219424
0.70,3.12,4.30,0.30,0.22,-0.17,1721207219434
-0.11,-4.45,7.30,0.11,-0.04,-0.33,1721207219444
-2.91,4.67,13.57,0.36,-0.10,-0.23,1721207219454
-0.11,4.53,5.62,0.41,0.11,0.03,1721207219464
0.37,2.49,9.41,0.03,0.11,0.13,1721207219474
1.70,0.06,10.40,-0.01,-0.04,-0.02,1721207219484
3.28,-10.08,8.44,-0.19,0.06,-0.17,1721207219494
0.30,0.15,13.24,0.12,0.05,-0.40,1721207219504
-1.49,2.33,3.38,0.30,0.05,-0.43,1721207219514
-2.31,-3.81,6.42,0.02,0.14,-0.24,1721207219524
-3.02,8.73,15.77,0.31,0.01,-0.05,1721207219534
-1.72,5.81,3.22,0.17,-0.05,0.08,1721207219544
1.79,-8.51,7.66,-0.43,0.21,0.10,1721207219554
3.75,-6.58,16.55,-0.17,0.05,-0.11,1721207219564
1.97,-1.45,7.13,-0.00,-0.01,-0.33,1721207219574
-0.47,3.94,9.42,-0.03,0.15,-0.56,1721207219584
-4.35,0.03,6.25,0.12,-0.12,-0.37,1721207219594
-4.67,-5.04,8.82,-0.19,0.22,-0.08,1721207219604
-0.72,7.55,18.29,0.17,0.07,0.22,1721207219614
1.81,0.22,4.20,-0.11,-0.04,0.13,1721207219624
0.74,-3.81,14.82,-0.47,0.14,-0.32,1721207219634
1.61,0.17,18.70,0.04,0.05,-0.39,1721207219644
-0.84,-4.86,9.17,-0.30,-0.03,-0.23,1721207219654
-4.42,1.58,11.26,0.02,-0.14,-0.04,1721207219664
1.75,5.62,5.85,0.30,0.32,0.01,1721207219674
0.79,-3.18,6.61,-0.03,-0.09,-0.22,1721207219684
-2.73,5.68,8.89,0.41,-0.01,-0.22,1721207219694
1.80,-5.11,3.61,-0.11,0.22,-0.11,1721207219704
-5.15,-0.52,23.00,-0.38,-0.16,-0.26,1721207219714
-2.33,8.38,16.97,0.35,0.07,-0.19,1721207219724
0.09,-5.57,0.44,-0.10,0.01,-0.06,1721207219734
-3.46,-1.25,10.29,-0.01,0.06,-0.08,1721207219744
0.08,-0.73,10.25,0.19,0.03,-0.04,1721207219754
0.70,1.00,15.70,0.05,0.23,-0.13,1721207219764
-0.47,7.73,8.68,0.53,-0.16,-0.13,1721207219774
-0.88,-4.61,2.19,-0.12,0.18,-0.07,1721207219784
-2.77,0.18,25.90,-0.05,-0.08,0.05,1721207219794
-0.38,3.22,5.98,0.49,-0.25,0.20,1721207219804
3.00,-4.09,2.71,-0.06,0.32,-0.05,1721207219814
0.88,3.37,16.43,0.25,-0.24,-0.11,1721207219824
0.71,1.74,-0.61,0.46,-0.12,-0.02,1721207219834
2.19,-1.74,12.71,-0.10,0.48,-0.18,1721207219844
0.10,6.81,23.23,0.25,-0.18,-0.28,1721207219854
-5.51,-0.04,-0.30,0.15,-0.31,-0.30,1721207219864
-6.03,1.26,3.39,0.04,0.14,0.05,1721207219874
0.50,-2.03,5.99,-0.01,0.15,0.45,1721207219884
1.90,-2.81,15.04,-0.18,0.01,0.27,1721207219894
2.51,2.37,16.50,0.17,-0.13,-0.12,1721207219904
2.27,0.56,6.16,0.03,0.01,-0.29,1721207219914
-2.77,-0.80,11.78,-0.27,-0.07,-0.19,1721207219924
-3.20,4.38,18.54,0.06,0.02,0.01,1721207219934
-1.40,3.77,-2.62,0.28,-0.25,0.17,1721207219944
-0.54,-4.98,-4.78,-0.26,0.07,0.11,1721207219954
-0.60,-6.56,20.43,-0.33,0.26,-0.01,1721207219964
1.24,6.87,20.70,0.12,-0.15,-0.15,1721207219974
-0.54,2.25,2.76,-0.07,-0.24,-0.17,1721207219984
-2.25,-2.42,8.00,-0.32,0.07,-0.06,1721207219994
-0.51,-4.72,12.06,-0.27,0.04,0.02,1721207220004
-1.64,-1.14,6.89,-0.06,-0.13,-0.06,1721207220014
-0.53,-1.39,10.06,-0.16,0.09,-0.03,1721207220024
0.75,0.83,14.56,-0.13,-0.02,0.07,1721207220034
1.24,0.89,9.93,-0.10,-0.18,0.05,1721207220044
1.97,0.87,9.71,-0.18,0.07,-0.17,1721207220054
1.66,-0.82,12.63,-0.25,-0.04,-0.22,1721207220064
-2.43,2.74,12.29,-0.18,-0.08,-0.24,1721207220074
-3.15,-3.15,7.28,-0.15,-0.10,-0.12,1721207220084
-0.95,-2.84,9.62,-0.26,0.03,0.07,1721207220094
0.79,1.94,14.92,-0.24,0.01,0.15,1721207220104
1.41,5.06,14.43,-0.13,-0.01,-0.04,1721207220114
2.31,0.20,7.84,-0.01,-0.11,-0.16,1721207220124
-0.04,-1.99,7.51,-0.03,-0.02,-0.28,1721207220134
-1.89,1.88,12.96,0.06,0.01,-0.28,1721207220144
-1.30,0.88,9.18,0.16,-0.07,-0.04,1721207220154
-1.19,-2.77,10.65,0.08,-0.05,0.05,1721207220164
0.77,3.11,12.48,0.31,-0.01,0.07,1721207220174
2.62,6.56,5.79,0.39,0.08,-0.05,1721207220184
1.36,-0.54,8.42,0.11,-0.07,-0.25,1721207220194
-0.86,-3.26,12.90,0.16,-0.02,-0.32,1721207220204
-1.67,-1.26,10.58,0.23,0.00,-0.15,1721207220214
-2.19,1.69,9.90,0.19,-0.11,0.04,1721207220224
0.91,2.34,11.43,0.24,0.06,0.18,1721207220234
3.13,0.20,13.62,0.11,0.09,0.03,1721207220244
0.82,0.34,10.52,0.16,-0.19,-0.16,1721207220254
0.58,-2.32,5.28,0.09,0.01,-0.22,1721207220264
1.17,-2.44,15.22,-0.03,0.21,-0.10,1721207220274
-0.39,8.85,18.26,0.41,-0.08,0.01,1721207220284
1.60,1.63,-2.33,0.42,-0.01,0.06,1721207220294
2.63,-2.90,2.53,0.01,0.23,-0.17,1721207220304
1.99,-1.81,18.26,0.05,0.10,-0.43,1721207220314
-3.13,6.91,13.39,0.32,-0.10,-0.37,1721207220324
-3.64,0.96,0.91,0.17,0.04,-0.03,1721207220334
-0.54,-8.38,6.30,-0.12,0.15,0.06,1721207220344
0.51,0.13,17.31,0.07,0.10,-0.10,1721207220354
-0.29,3.20,15.66,0.17,-0.00,-0.32,1721207220364
-2.32,2.97,5.53,0.23,-0.14,-0.21,1721207220374
-3.05,-1.27,0.17,-0.00,0.03,0.01,1721207220384
-0.19,-2.63,11.65,-0.18,0.16,0.11,1721207220394
1.35,-0.10,8.84,-0.01,-0.14,-0.07,1721207220404
1.51,0.61,13.68,-0.27,0.09,-0.23,1721207220414
-0.06,6.23,17.15,0.06,-0.10,-0.22,1721207220424
-0.33,-1.52,4.87,-0.17,-0.04,-0.08,1721207220434
-0.06,-0.39,8.93,-0.25,0.01,-0.03,1721207220444
0.65,-2.87,10.34,-0.36,-0.01,-0.18,1721207220454
-0.93,1.57,19.42,-0.09,-0.09,-0.26,1721207220464
-2.43,3.12,4.90,0.14,-0.12,-0.11,1721207220474
-0.61,-3.27,6.48,-0.39,0.18,0.15,1721207220484
0.24,-1.91,21.43,-0.24,-0.09,0.15,1721207220494
2.26,3.44,9.54,0.12,-0.13,0.03,1721207220504
4.18,3.72,3.72,-0.03,0.13,-0.14,1721207220514
0.44,-0.85,6.21,-0.11,-0.26,-0.25,1721207220524
-2.74,-1.56,12.20,-0.12,-0.12,-0.21,1721207220534
0.21,-0.55,11.56,-0.01,0.03,0.03,1721207220544
1.32,-4.73,11.07,-0.30,0.08,-0.04,1721207220554
0.14,2.81,13.54,-0.01,-0.20,-0.12,1721207220564
0.06,-0.67,6.48,-0.00,0.01,-0.25,1721207220574
-1.58,0.05,11.14,-0.08,-0.05,-0.16,1721207220584
-0.64,1.58,12.75,-0.08,-0.06,0.05,1721207220594
1.28,2.75,11.43,-0.03,-0.04,0.11,1721207220604
2.56,-1.83,5.49,-0.05,-0.04,-0.06,1721207220614
2.73,-4.29,8.94,-0.15,0.01,-0.24,1721207220624
-0.15,2.20,12.79,0.11,-0.05,-0.36,1721207220634
-2.02,3.78,8.80,0.14,-0.03,-0.35,1721207220644
-3.38,3.31,10.94,0.10,-0.05,-0.17,1721207220654
-2.26,-1.01,10.08,-0.01,0.03,0.05,1721207220664
1.62,0.34,13.09,0.03,0.07,0.11,1721207220674
2.80,-0.18,10.57,0.01,0.00,-0.22,1721207220684
0.20,-0.87,10.50,0.04,-0.08,-0.51,1721207220694
-2.22,0.12,11.16,0.15,-0.04,-0.38,1721207220704
-3.37,0.98,6.95,0.24,-0.02,-0.12,1721207220714
-0.81,2.58,9.32,0.23,0.10,0.02,1721207220724
1.07,0.74,10.06,0.11,-0.01,-0.08,1721207220734
0.29,2.08,9.19,0.21,-0.07,-0.32,1721207220744
-0.53,-5.20,5.86,-0.01,-0.10,-0.27,1721207220754
-2.46,-1.98,15.05,-0.12,0.12,-0.28,1721207220764
-1.55,3.51,15.84,0.23,-0.03,-0.22,1721207220774
-0.58,-0.27,4.58,0.09,-0.11,-0.11,1721207220784
-0.23,-0.65,8.04,0.08,0.09,-0.09,1721207220794
1.96,2.28,10.90,0.07,0.05,-0.29,1721207220804
-0.33,5.05,10.03,0.04,-0.24,-0.39,1721207220814
-3.53,-3.14,7.37,-0.13,-0.09,-0.35,1721207220824
-2.92,-3.71,15.16,-0.14,0.02,-0.13,1721207220834
-0.76,2.29,10.18,0.13,-0.12,0.11,1721207220844
1.50,-2.77,5.57,-0.09,-0.01,-0.01,1721207220854
3.17,0.74,12.06,0.16,0.06,-0.17,1721207220864
3.30,2.84,5.88,0.23,-0.07,-0.31,1721207220874
0.32,0.99,10.64,-0.07,0.01,-0.36,1721207220884
-0.36,2.70,15.39,0.01,0.05,-0.38,1721207220894
-1.03,-2.65,10.63,-0.19,-0.06,-0.30,1721207220904
-3.13,1.81,11.20,-0.04,-0.06,-0.20,1721207220914
-0.21,1.09,7.86,-0.09,0.10,-0.11,1721207220924
-0.88,-0.94,9.62,-0.17,-0.13,-0.10,1721207220934
-1.41,-0.19,10.39,-0.11,-0.02,-0.18,1721207220944
-0.58,-0.79,8.41,-0.14,-0.06,-0.19,1721207220954
-0.20,0.53,14.56,-0.13,0.05,-0.09,1721207220964
-0.13,1.59,11.12,0.05,-0.09,-0.09,1721207220974
-0.08,1.08,12.35,-0.12,0.07,-0.23,1721207220984
-0.89,1.70,13.33,0.03,-0.06,-0.28,1721207220994
-1.52,-1.78,8.14,-0.15,-0.05,-0.23,1721207221004
-2.02,2.48,16.09,-0.07,0.03,-0.09,1721207221014
-1.73,2.14,5.07,0.15,-0.13,-0.01,1721207221024
1.11,-1.95,1.18,-0.10,0.05,-0.04,1721207221034
2.69,-2.99,11.83,-0.17,0.10,-0.17,1721207221044
0.38,0.87,15.21,-0.16,-0.04,-0.38,1721207221054
-1.99,1.77,13.89,-0.15,-0.10,-0.36,1721207221064
-3.07,0.52,8.16,-0.08,-0.08,-0.13,1721207221074
-1.26,-3.34,8.66,-0.22,0.10,-0.01,1721207221084
0.80,0.53,14.24,-0.14,0.08,-0.09,1721207221094
0.26,4.49,11.66,0.01,-0.04,-0.21,1721207221104
-0.81,1.47,6.21,-0.06,-0.07,-0.24,1721207221114
-1.31,-1.47,6.20,-0.11,-0.04,-0.14,1721207221124
-0.29,-4.18,7.16,-0.20,0.07,-0.13,1721207221134
-0.17,-1.39,14.65,-0.16,-0.04,-0.19,1721207221144
-0.91,3.00,11.98,0.02,-0.08,-0.18,1721207221154
0.38,-1.87,7.94,-0.21,0.05,-0.13,1721207221164
0.79,0.23,11.45,0.03,-0.09,-0.06,1721207221179
0.62,-1.41,7.95,-0.01,0.03,-0.10,1721207221183
2.12,-4.35,11.45,-0.14,0.08,-0.16,1721207221193
-0.02,4.34,13.12,0.19,-0.07,-0.17,1721207221203
0.97,3.45,8.12,0.12,0.06,-0.22,1721207221213
1.01,1.14,14.47,-0.03,0.00,-0.18,1721207221223
-0.54,0.92,11.62,0.09,-0.02,-0.30,1721207221233
0.14,1.79,8.84,0.08,0.07,-0.28,1721207221243
-0.05,0.65,8.06,0.10,0.03,-0.17,1721207221253
0.46,0.23,10.09,0.11,0.08,-0.13,1721207221263
0.58,-4.84,13.49,-0.01,0.07,-0.16,1721207221273
-0.43,0.54,15.44,0.12,-0.00,-0.26,1721207221283
1.55,4.10,10.14,0.15,0.13,-0.13,1721207221293
0.75,1.51,10.13,0.05,0.05,-0.14,1721207221303
0.44,-4.47,9.59,0.19,0.05,-0.21,1721207221313
1.63,-1.67,7.44,0.26,0.14,-0.21,1721207221323
0.11,3.76,8.32,0.29,0.09,-0.27,1721207221333
0.71,-5.43,10.49,0.09,0.11,-0.23,1721207221343
-0.81,8.31,13.55,0.54,0.10,-0.07,1721207221353
2.07,2.14,0.21,0.35,0.22,-0.14,1721207221363
1.55,-3.86,12.74,-0.04,0.20,-0.31,1721207221373
-0.91,2.17,18.18,0.27,0.07,-0.45,1721207221383
-2.45,5.42,5.08,0.26,0.09,-0.30,1721207221393
-1.45,-2.58,5.77,-0.16,0.23,-0.15,1721207221403
0.33,-2.48,16.86,-0.03,0.23,-0.19,1721207221413
0.62,-3.97,5.30,0.06,0.00,-0.31,1721207221423
-0.51,-1.89,13.05,-0.23,0.38,-0.40,1721207221433
-0.77,1.71,15.06,0.15,0.08,-0.35,1721207221443
-1.76,2.11,4.93,0.09,0.09,-0.23,1721207221453
-1.27,-5.06,8.97,-0.23,0.19,-0.18,1721207221463
-0.71,0.55,20.24,0.09,0.20,-0.27,1721207221473
-0.31,9.08,8.23,0.26,0.13,-0.24,1721207221483
-1.39,3.03,-3.50,-0.06,0.04,-0.25,1721207221493
-0.32,0.28,11.45,-0.04,0.47,-0.27,1721207221503
1.18,-7.23,7.50,-0.12,0.02,-0.06,1721207221513
-1.16,-1.14,9.55,-0.25,-0.04,-0.20,1721207221523
0.48,1.51,15.22,-0.00,0.24,-0.39,1721207221533
-0.69,-5.80,7.36,-0.12,0.00,-0.23,1721207221543
-3.61,-3.41,13.24,-0.25,0.18,-0.10,1721207221553
0.96,2.88,21.09,-0.05,0.27,-0.07,1721207221563
4.12,10.32,11.75,0.19,0.17,0.05,1721207221573
3.85,1.79,1.92,-0.20,0.18,-0.26,1721207221583
-0.39,-4.31,10.16,-0.24,0.20,-0.57,1721207221593
-1.19,1.69,9.24,0.12,0.24,-0.44,1721207221603
-3.78,-2.01,5.28,-0.14,0.09,-0.18,1721207221613
-3.55,-0.23,12.74,-0.09,0.21,-0.07,1721207221623
-0.44,7.70,8.79,0.20,0.25,0.01,1721207221633
2.30,-2.56,7.97,-0.25,0.35,-0.04,1721207221643
1.74,-0.29,19.14,-0.18,0.19,-0.23,1721207221653
-0.26,1.71,10.18,0.08,0.06,-0.30,1721207221663
0.49,-0.00,9.33,-0.21,0.36,-0.24,1721207221673
-2.20,1.00,12.69,0.06,-0.05,-0.09,1721207221683
-1.67,-1.42,4.07,0.08,0.22,-0.01,1721207221693
1.23,-0.76,10.92,0.07,0.33,-0.08,1721207221703
0.34,2.80,6.13,0.26,0.09,-0.23,1721207221713
-0.47,-0.45,5.93,-0.01,0.31,-0.26,1721207221723
-3.68,2.54,13.34,-0.02,0.08,-0.18,1721207221733
-2.23,-6.90,9.79,-0.20,0.21,0.01,1721207221743
-0.15,-4.61,18.63,-0.17,0.26,0.07,1721207221753
0.85,4.10,9.56,0.14,0.07,-0.03,1721207221763
2.40,-2.61,7.21,-0.23,0.34,-0.24,1721207221773
-3.77,-0.65,9.38,0.02,-0.10,-0.30,1721207221783
-2.25,-5.49,10.64,-0.15,0.45,-0.13,1721207221793
-1.93,-3.15,22.55,-0.10,0.11,0.08,1721207221803
-0.60,2.22,10.79,0.09,0.08,0.08,1721207221813
0.93,5.60,11.21,0.04,0.31,-0.11,1721207221823
-0.78,1.96,12.01,0.13,-0.06,-0.12,1721207221833
-2.14,-1.68,7.54,0.14,0.10,-0.04,1721207221843
-1.69,4.43,11.72,0.27,0.19,0.01,1721207221853
-0.59,4.34,6.71,0.22,-0.01,0.04,1721207221863
-1.67,1.58,5.33,0.22,-0.02,0.02,1721207221873
-0.51,-0.42,9.01,0.23,0.12,0.04,1721207221883
0.52,-1.05,18.53,0.08,0.04,0.07,1721207221893
-0.45,6.94,14.05,0.37,-0.15,0.05,1721207221903
0.21,3.00,4.01,0.25,0.09,0.04,1721207221913
-0.85,-3.53,10.44,0.02,0.04,0.01,1721207221923
-1.45,0.50,10.99,0.46,-0.10,0.15,1721207221933
1.20,1.64,3.74,0.34,0.14,0.19,1721207221943
2.29,0.53,11.21,0.08,0.07,0.03,1721207221953
0.70,2.98,14.41,0.23,-0.11,-0.06,1721207221963
-0.89,4.70,1.88,0.37,-0.13,-0.07,1721207221973
-1.30,-4.07,2.04,-0.08,0.11,0.00,1721207221983
-3.23,0.22,12.80,-0.06,-0.13,0.10,1721207221993
0.12,0.88,8.82,0.18,0.06,0.20,1721207222003
1.07,-1.09,5.55,-0.11,-0.05,0.11,1721207222013
-0.81,-0.57,14.91,-0.22,-0.13,-0.00,1721207222023
-0.48,-1.35,12.45,0.08,-0.04,-0.00,1721207222033
-0.84,-1.68,8.31,-0.22,0.07,-0.07,1721207222043
-2.99,1.34,13.91,-0.18,-0.25,0.03,1721207222053
-2.95,-2.22,5.47,-0.13,-0.10,0.18,1721207222063
-0.92,-3.25,8.21,-0.25,0.07,0.20,1721207222073
2.76,-1.63,11.29,-0.13,-0.05,0.20,1721207222083
1.96,3.06,9.33,-0.15,-0.09,0.02,1721207222093
0.74,-1.73,9.90,-0.30,-0.15,-0.10,1721207222103
-0.30,-1.80,11.92,-0.21,-0.03,-0.09,1721207222113
-0.37,-2.75,7.92,-0.29,-0.11,0.00,1721207222123
-0.90,-1.42,14.34,-0.36,-0.07,0.09,1721207222133
0.26,3.73,15.07,-0.13,-0.05,0.09,1721207222143
1.27,1.94,7.89,-0.18,-0.13,0.05,1721207222153
-0.61,1.64,10.64,-0.30,-0.09,-0.08,1721207222163
-0.26,1.67,12.98,-0.19,-0.08,-0.03,1721207222173
0.07,-1.61,8.97,-0.22,-0.05,0.04,1721207222183
0.14,-1.44,11.41,-0.14,-0.08,0.03,1721207222193
0.23,-0.71,6.22,0.01,-0.17,0.02,1721207222203
2.67,-1.62,12.71,-0.13,0.13,-0.04,1721207222213
1.64,4.19,19.90,0.11,-0.07,-0.09,1721207222223
0.46,5.25,7.36,0.33,-0.17,-0.12,1721207222233
0.73,-2.15,1.65,0.08,0.08,-0.25,1721207222243
-1.86,-3.21,15.09,-0.03,-0.01,-0.26,1721207222253
-1.29,3.53,15.67,0.35,-0.07,-0.07,1721207222263
-0.35,5.47,3.34,0.34,-0.07,0.03,1721207222273
2.32,-2.22,6.02,0.01,0.11,0.09,1721207222283
2.80,-2.24,13.18,0.08,0.05,-0.17,1721207222293
1.63,-1.28,13.45,0.15,-0.08,-0.40,1721207222303
-1.68,-1.68,6.78,0.14,-0.13,-0.25,1721207222313
-3.10,4.07,13.65,0.04,0.15,-0.05,1721207222323
1.47,-2.74,14.19,-0.03,0.07,0.01,1721207222333
1.69,-3.96,11.85,0.02,-0.12,0.02,1721207222343
2.32,0.91,10.08,0.06,0.28,-0.25,1721207222353
0.38,3.42,10.22,0.16,-0.02,-0.25,1721207222363
-0.89,-2.74,4.20,0.06,0.05,-0.10,1721207222373
0.44,-4.80,11.48,0.04,0.20,-0.16,1721207222383
-0.18,-0.33,11.67,0.23,-0.00,-0.19,1721207222393
-1.68,6.92,6.78,0.19,0.06,-0.14,1721207222403
-0.61,-1.49,8.47,0.06,0.13,-0.07,1721207222413
-0.24,-2.99,9.26,0.17,0.09,-0.04,1721207222423
0.18,-2.63,12.41,0.01,0.18,-0.15,1721207222433
-0.86,4.42,17.12,0.14,-0.02,-0.22,1721207222443
-1.23,4.53,7.84,0.17,-0.00,-0.06,1721207222453
-0.00,-0.11,3.36,-0.01,0.11,0.03,1721207222463
1.89,-3.44,11.44,-0.21,0.21,-0.13,1721207222473
1.02,1.60,16.86,0.04,0.01,-0.34,1721207222483
-1.70,2.58,11.32,-0.11,0.06,-0.42,1721207222493
-3.76,2.58,13.37,0.01,-0.04,-0.07,1721207222503
-1.19,0.08,3.80,0.06,0.11,0.14,1721207222513
2.32,-1.23,11.33,-0.05,0.19,-0.00,1721207222523
2.26,3.70,9.61,0.23,-0.04,-0.18,1721207222533
0.79,4.07,5.40,0.11,0.09,-0.38,1721207222543
-3.30,-1.35,9.70,-0.05,-0.09,-0.25,1721207222553
-4.42,-2.09,9.37,-0.02,0.05,-0.05,1721207222563
0.25,0.07,11.05,-0.00,0.19,0.18,1721207222573
3.33,-1.53,5.03,-0.08,-0.04,0.12,1721207222583
2.45,0.80,11.89,-0.21,0.14,-0.25,1721207222593
0.54,1.37,11.77,0.04,-0.07,-0.39,1721207222603
-2.37,-3.81,9.79,-0.37,0.12,-0.25,1721207222613
-2.32,-1.36,18.30,-0.28,0.02,0.06,1721207222623
0.66,-4.76,7.34,-0.17,0.00,0.18,1721207222633
3.42,1.66,10.75,-0.16,0.28,-0.04,1721207222643
2.57,0.22,10.57,-0.01,0.05,-0.31,1721207222653
-1.71,-1.67,8.92,-0.11,0.02,-0.44,1721207222663
-3.30,-0.85,10.92,-0.03,0.08,-0.17,1721207222673
-1.59,3.25,11.68,-0.03,0.14,0.04,1721207222683
0.35,6.72,14.42,-0.00,0.09,0.08,1721207222693
0.41,1.53,8.29,-0.00,-0.03,-0.08,1721207222703
2.34,-1.93,16.80,-0.17,0.24,-0.25,1721207222713
-3.80,-0.79,-1.36,0.09,-0.37,-0.31,1721207222723
-1.41,4.98,11.93,-0.04,0.78,-0.25,1721207222733
0.28,-6.45,19.93,0.04,-0.41,0.14,1721207222743
-4.11,4.34,4.78,0.28,-0.23,0.20,1721207222753
5.75,0.53,11.93,0.13,0.60,0.07,1721207222763
3.98,1.48,18.02,-0.02,-0.14,-0.20,1721207222773
-0.58,7.38,10.75,0.30,-0.01,-0.39,1721207222783
-2.14,-2.28,3.71,0.19,-0.02,-0.41,1721207222793
-5.31,-4.06,5.20,0.14,0.04,-0.17,1721207222803
-2.25,-0.97,16.18,0.15,0.39,0.04,1721207222813
0.66,7.83,6.98,0.43,-0.01,0.08,1721207222823
2.27,3.38,1.82,0.18,0.19,-0.18,1721207222833
0.09,-8.62,10.17,-0.10,-0.00,-0.27,1721207222843
-3.54,0.01,11.45,0.22,-0.03,-0.27,1721207222853
1.18,-2.33,14.84,-0.08,0.39,-0.20,1721207222863
-0.63,5.42,17.23,0.21,-0.15,-0.07,1721207222873
-1.14,7.29,6.61,0.24,0.15,-0.12,1721207222883
-0.89,4.25,4.58,0.33,0.01,-0.14,1721207222893
-1.82,-5.49,-3.52,-0.00,-0.03,-0.05,1721207222903
0.19,-5.17,18.97,-0.26,0.50,-0.03,1721207222913
0.74,9.45,19.64,0.44,-0.12,-0.02,1721207222923
1.47,-0.63,-2.76,-0.02,-0.00,-0.06,1721207222933
-1.86,-2.91,13.01,-0.16,0.17,-0.15,1721207222943
-0.58,-1.13,11.91,0.11,0.06,-0.12,1721207222953
-0.44,2.54,11.69,-0.14,0.24,-0.06,1721207222963
-0.58,-0.03,12.44,-0.08,0.02,0.09,1721207222973
0.18,0.67,16.43,0.03,0.12,0.20,1721207222983
2.34,5.83,6.26,0.30,-0.11,0.11,1721207222993
0.44,0.21,0.34,-0.22,0.03,-0.14,1721207223003
-2.74,3.37,18.06,-0.10,-0.06,-0.16,1721207223013
-3.24,0.18,8.32,0.13,-0.09,0.06,1721207223023
-2.39,-1.96,5.31,-0.14,0.05,0.18,1721207223033
-0.36,-2.00,10.46,-0.18,0.03,0.15,1721207223043
1.41,-0.07,17.82,-0.11,0.08,0.05,1721207223053
0.65,7.44,9.95,0.22,-0.15,0.06,1721207223063
0.62,-0.75,3.48,-0.19,0.10,-0.02,1721207223073
-0.80,-3.64,13.73,-0.21,-0.13,0.06,1721207223083
-1.08,0.42,11.54,-0.13,-0.02,-0.07,1721207223093
-0.45,1.96,13.33,-0.16,0.02,-0.03,1721207223103
-1.99,2.70,12.28,-0.10,-0.09,0.08,1721207223113
0.88,-5.66,6.08,-0.21,-0.02,0.11,1721207223123
-3.00,5.64,12.24,0.39,0.14,-0.21,1721207223664
-1.76,0.40,3.80,0.22,0.13,-0.04,1721207223669
-1.24,2.53,4.46,0.10,0.36,-0.09,1721207223678
2.17,-4.67,9.25,-0.04,0.28,-0.14,1721207223688
-0.23,-4.86,15.39,-0.03,0.21,-0.29,1721207223697
-2.17,6.91,8.82,0.39,0.20,-0.26,1721207223707
0.01,3.62,1.07,-0.03,0.34,-0.10,1721207223716
-1.21,-4.16,12.85,-0.17,0.22,-0.11,1721207223726
-0.91,-1.73,9.80,0.24,0.10,-0.09,1721207223735
0.78,-6.11,8.40,-0.29,0.57,-0.26,1721207223745
-2.22,-0.20,19.68,-0.01,0.12,-0.18,1721207223754
-0.95,2.34,7.47,0.19,0.19,-0.01,1721207223764
-1.01,3.07,4.37,-0.04,0.22,0.06,1721207223773
-0.57,-1.26,6.88,-0.16,0.24,-0.23,1721207223783
-2.18,-6.39,12.42,-0.22,0.32,-0.15,1721207223793
-2.14,-4.01,17.05,-0.10,0.26,0.11,1721207223803
-0.38,5.24,5.95,0.11,0.08,0.24,1721207223812
2.38,0.99,10.08,-0.21,0.35,0.09,1721207223822
0.19,-0.48,17.48,-0.12,0.08,-0.04,1721207223831
-2.12,1.70,10.99,0.08,0.14,-0.11,1721207223841
-1.73,2.71,7.99,-0.03,0.16,0.01,1721207223850
-4.34,-0.43,2.41,-0.09,-0.02,0.12,1721207223860
-2.87,-1.55,11.52,-0.15,0.39,0.14,1721207223870
-0.11,4.13,14.14,0.15,-0.01,0.35,1721207223880
1.47,0.74,8.06,-0.03,0.05,0.30,1721207223890
1.72,0.76,16.35,-0.11,0.18,0.08,1721207223900
-1.54,3.51,2.82,0.07,-0.32,-0.01,1721207223910
-3.30,-2.55,8.03,-0.20,0.38,-0.01,1721207223920
-0.68,-1.91,21.68,0.07,0.09,0.29,1721207223930
-0.67,2.69,6.07,0.17,-0.24,0.42,1721207223940
0.62,4.88,6.35,0.08,0.19,0.25,1721207223950
2.54,2.56,9.42,0.05,0.01,0.03,1721207223960
-0.83,-2.16,12.66,-0.11,-0.12,0.07,1721207223970
-3.44,2.55,12.99,0.14,-0.14,0.29,1721207223980
0.56,2.78,8.18,-0.01,0.03,0.45,1721207223990
1.38,-0.14,11.15,-0.10,-0.15,0.33,1721207224000
0.74,0.03,9.88,-0.01,-0.11,0.11,1721207224010
-0.97,4.34,6.49,0.11,-0.17,0.11,1721207224020
-1.98,-1.86,6.72,-0.11,-0.15,0.19,1721207224030
-0.86,-1.48,16.35,0.00,0.04,0.27,1721207224040
0.55,1.36,11.34,0.12,-0.20,0.29,1721207224050
0.94,4.11,8.05,-0.01,-0.15,0.32,1721207224060
2.32,2.51,11.87,0.04,-0.08,0.22,1721207224070
1.41,1.65,8.31,0.10,-0.25,0.04,1721207224080
-2.16,-1.02,5.96,-0.05,-0.24,0.00,1721207224090
-2.91,-1.94,10.73,-0.10,-0.13,0.18,1721207224100
-2.07,-0.65,10.68,-0.03,-0.15,0.30,1721207224110
0.04,-1.06,8.51,0.03,-0.26,0.41,1721207224120
2.43,-0.98,6.13,0.04,-0.22,0.48,1721207224130
3.04,-0.63,9.81,-0.05,-0.18,0.18,1721207224140
2.03,-1.08,18.05,-0.09,-0.23,-0.03,1721207224150
-0.79,5.47,14.33,0.18,-0.38,0.02,1721207224160
-1.06,0.45,3.23,-0.01,-0.24,0.21,1721207224170
-2.06,-3.33,10.47,-0.09,-0.20,0.21,1721207224180
-1.22,-3.96,8.45,0.04,-0.26,0.15,1721207224190
-1.02,0.61,7.57,0.06,-0.28,0.34,1721207224200
3.23,3.33,11.31,0.10,-0.11,0.45,1721207224210
4.59,2.22,11.93,0.10,-0.32,0.24,1721207224220
3.34,-0.85,7.24,-0.02,-0.37,-0.01,1721207224230
-1.19,-5.21,12.10,-0.22,-0.33,-0.23,1721207224240
-3.46,3.25,17.98,0.07,-0.25,-0.04,1721207224250
-2.14,1.46,6.70,0.19,-0.27,0.31,1721207224260
1.88,-1.65,7.78,0.03,-0.17,0.45,1721207224270
4.71,5.74,11.11,0.19,-0.22,0.16,1721207224280
4.28,2.46,6.47,0.09,-0.30,-0.27,1721207224290
0.62,0.35,9.76,-0.01,-0.23,-0.29,1721207224300
-1.99,-1.23,11.06,-0.05,-0.28,-0.09,1721207224310
-0.59,-2.80,11.67,-0.09,-0.24,0.13,1721207224320
2.43,-0.51,11.57,-0.00,-0.17,0.14,1721207224330
4.07,1.86,8.69,0.01,-0.17,-0.11,1721207224340
2.32,2.11,9.24,-0.02,-0.16,-0.38,1721207224350
-0.48,1.27,10.28,0.04,-0.16,-0.46,1721207224360
-3.10,-1.58,8.81,-0.08,-0.19,-0.29,1721207224370
-3.09,1.43,14.83,-0.03,-0.09,-0.05,1721207224380
-0.44,1.20,4.18,-0.01,-0.21,-0.05,1721207224390
1.94,-4.41,7.29,-0.29,-0.06,-0.09,1721207224400
2.44,1.80,18.76,-0.02,-0.05,-0.39,1721207224410
1.85,2.55,4.18,0.14,-0.30,-0.42,1721207224420
0.09,-4.82,5.24,-0.38,0.03,-0.38,1721207224430
-2.21,0.17,23.52,-0.16,-0.11,-0.48,1721207224440
-2.06,-1.71,4.38,0.07,-0.23,-0.23,1721207224450
-0.01,-1.99,12.76,-0.39,0.18,-0.14,1721207224460
1.90,4.56,19.87,0.03,-0.14,-0.24,1721207224470
1.40,7.59,4.95,0.15,-0.07,-0.41,1721207224480
-0.47,2.64,6.61,-0.10,0.04,-0.54,1721207224490
-2.20,-3.34,8.52,-0.13,-0.10,-0.39,1721207224500
-1.94,2.70,15.85,-0.14,0.03,-0.15,1721207224510
0.95,-2.34,6.30,-0.08,-0.08,-0.02,1721207224520
4.71,-7.84,13.95,-0.34,0.31,-0.25,1721207224530
1.46,7.02,16.23,0.14,-0.16,-0.50,1721207224540
-0.77,0.89,3.66,0.12,0.05,-0.57,1721207224550
-2.73,5.45,18.80,0.04,0.09,-0.48,1721207224560
-3.45,6.93,8.11,0.36,-0.09,-0.27,1721207224570
-0.40,-5.72,0.74,-0.01,0.19,-0.02,1721207224580
0.79,0.48,12.66,0.04,0.16,-0.17,1721207224590
3.51,0.98,6.26,0.27,0.01,-0.37,1721207224600
0.50,0.94,6.39,0.12,0.20,-0.57,1721207224610
-3.15,-0.68,8.06,0.15,-0.00,-0.57,1721207224620
-4.75,-1.53,9.09,0.05,0.21,-0.29,1721207224630
-1.94,1.22,17.32,-0.03,0.16,0.03,1721207224640
1.23,3.74,11.70,0.07,0.12,0.07,1721207224650
2.69,-2.38,5.44,-0.06,0.09,-0.23,1721207224660
2.06,-1.55,22.65,-0.22,0.26,-0.53,1721207224670
-2.09,7.79,8.08,0.44,-0.19,-0.39,1721207224680
-2.78,-2.53,-10.57,0.04,0.21,-0.23,1721207224690
-2.34,-2.50,20.61,-0.28,0.39,-0.18,1721207224700
-0.81,9.11,9.20,0.44,-0.15,0.08,1721207224710
2.18,-13.86,4.17,-0.57,0.44,-0.16,1721207224720
0.25,0.61,18.63,-0.11,-0.40,-0.24,1721207224730
-0.50,-0.12,1.06,-0.00,0.29,-0.26,1721207224740
1.77,3.07,21.78,-0.08,0.38,-0.29,1721207224750
-2.69,3.67,1.38,0.39,-0.33,-0.14,1721207224760
-2.43,-11.72,0.70,-0.43,0.43,-0.17,1721207224770
-3.92,5.26,15.83,0.12,-0.13,-0.08,1721207224780
1.85,2.00,4.49,0.19,0.21,0.09,1721207224790
1.39,0.04,14.77,-0.23,0.24,-0.24,1721207224800
-1.54,5.23,9.77,0.24,-0.30,-0.19,1721207224810
-2.50,-2.81,3.66,-0.28,0.24,-0.06,1721207224820
-3.09,-1.17,20.22,-0.18,-0.04,0.00,1721207224830
-0.20,1.30,6.53,0.07,-0.06,0.07,1721207224840
1.20,-2.00,12.34,-0.28,0.21,-0.09,1721207224850
-1.42,1.35,17.25,0.01,-0.16,-0.19,1721207224860
-1.50,3.09,11.12,0.05,0.08,-0.06,1721207224870
-1.29,1.86,9.86,0.07,-0.03,0.15,1721207224880
0.36,1.71,7.69,0.11,-0.02,0.19,1721207224890
1.00,4.90,8.28,0.17,-0.11,0.06,1721207224900
2.10,1.16,7.46,0.18,-0.04,-0.08,1721207224910
0.45,-3.17,10.96,0.01,-0.00,-0.12,1721207224920
-2.93,3.31,10.29,0.12,-0.20,-0.10,1721207224930
-3.55,4.62,8.21,0.08,-0.07,0.06,1721207224940
-1.69,1.92,11.02,0.02,-0.13,0.27,1721207224950
-0.18,1.33,6.31,0.21,-0.23,0.26,1721207224960
2.16,-8.07,8.80,-0.29,0.03,0.16,1721207224970
-1.30,6.49,18.94,0.04,-0.39,0.06,1721207224980
1.23,3.82,8.42,0.15,-0.06,0.07,1721207224990
-0.67,1.12,5.89,0.05,-0.28,0.14,1721207225000
-1.06,-3.69,4.95,-0.07,-0.15,0.13,1721207225010
1.21,-0.27,14.69,-0.04,0.04,0.05,1721207225020
1.09,3.96,12.14,0.08,-0.30,0.07,1721207225030
-1.09,0.55,5.20,-0.00,-0.24,0.05,1721207225040
-0.23,-2.66,5.79,-0.09,-0.17,0.04,1721207225050
1.30,-0.99,17.65,-0.21,-0.05,-0.02,1721207225060
-0.06,5.55,16.16,0.13,-0.38,0.02,1721207225070
-0.48,-3.97,-3.51,-0.10,-0.33,-0.01,1721207225080
-1.47,-2.37,14.91,-0.26,0.07,0.04,1721207225090
1.33,-0.08,8.65,0.11,-0.35,-0.01,1721207225100
1.96,-2.43,12.36,-0.28,-0.03,-0.17,1721207225110
1.19,5.45,14.71,0.14,-0.27,-0.15,1721207225120
1.54,-1.33,0.45,-0.09,-0.11,-0.19,1721207225130
0.22,-1.36,15.22,-0.20,-0.10,-0.19,1721207225140
0.71,-5.21,9.39,-0.01,-0.26,-0.18,1721207225150
0.02,0.49,12.89,-0.03,0.02,-0.25,1721207225160
0.57,10.61,12.41,0.11,-0.15,-0.21,1721207225170
0.72,1.92,11.66,-0.30,-0.02,-0.31,1721207225180
-1.35,-5.10,15.93,-0.18,-0.24,-0.40,1721207225190
-1.14,-7.33,-1.20,0.08,-0.11,-0.29,1721207225200
0.28,-2.17,7.25,-0.16,0.18,-0.27,1721207225210
-0.54,4.34,27.39,0.02,0.01,-0.04,1721207225220
1.03,11.81,11.86,0.34,-0.22,-0.05,1721207225230
3.49,-4.80,0.27,-0.12,0.07,-0.36,1721207225240
0.29,-5.76,19.43,-0.31,0.07,-0.70,1721207225250
-2.77,6.03,16.99,0.16,-0.11,-0.52,1721207225260
-1.62,-0.27,4.46,0.01,0.05,-0.12,1721207225270
1.17,0.24,7.39,0.15,0.17,-0.00,1721207225280
4.98,0.06,7.87,0.15,0.21,-0.33,1721207225290
2.38,5.76,16.30,0.07,0.03,-0.64,1721207225300
-1.29,2.54,2.20,0.22,-0.08,-0.61,1721207225310
-1.24,-10.29,6.56,-0.24,0.41,-0.46,1721207225320
-2.29,2.70,26.84,0.17,0.13,-0.41,1721207225330
-1.49,2.37,11.09,0.19,0.04,-0.35,1721207225340
-0.36,5.40,11.71,0.06,0.25,-0.27,1721207225350
2.20,5.64,-0.40,0.40,0.22,-0.37,1721207225360
2.58,-9.52,-0.69,-0.13,0.35,-0.55,1721207225370
-4.68,-1.89,23.02,0.11,0.13,-0.86,1721207225380
-5.92,3.56,8.53,0.44,0.07,-0.44,1721207225390
-2.39,-0.78,6.02,-0.16,0.43,0.05,1721207225400
1.73,4.92,20.32,-0.02,0.30,-0.10,1721207225410
5.07,3.72,7.13,0.17,0.19,-0.30,1721207225420
3.42,-0.58,2.83,-0.13,0.35,-0.65,1721207225430
-1.31,-0.30,9.54,-0.10,0.31,-0.87,1721207225440
-5.00,-4.50,12.53,-0.15,0.30,-0.61,1721207225450
-5.62,4.14,13.07,0.15,0.25,-0.16,1721207225460
-0.52,0.46,3.57,-0.01,0.38,0.15,1721207225470
3.28,1.46,12.71,-0.04,0.44,-0.14,1721207225480
2.50,-2.02,7.77,-0.03,0.09,-0.48,1721207225490
-1.65,-0.68,15.21,-0.23,0.36,-0.67,1721207225500
-3.11,5.90,16.28,0.17,0.28,-0.42,1721207225510
-2.15,-4.23,3.04,-0.16,0.38,-0.09,1721207225520
-0.79,2.10,10.55,0.01,0.38,-0.08,1721207225530
2.09,3.79,4.63,0.06,0.25,-0.27,1721207225540
-0.48,-2.91,10.43,-0.23,0.35,-0.48,1721207225550
-2.87,-4.55,13.03,-0.07,0.33,-0.43,1721207225560
-3.99,1.19,15.08,-0.11,0.37,-0.16,1721207225570
-1.35,4.25,14.21,0.01,0.31,0.16,1721207225580
2.11,-2.46,8.10,-0.04,0.41,-0.01,1721207225590
3.02,-3.02,7.31,0.10,0.31,-0.23,1721207225600
-0.08,-0.61,1.70,0.15,0.22,-0.40,1721207225610
0.95,2.77,17.92,0.11,0.80,-0.44,1721207225620
-1.97,8.70,15.87,0.33,0.18,-0.33,1721207225630
-4.95,0.12,1.60,-0.03,0.24,-0.08,1721207225640
-0.02,-5.14,10.71,-0.08,0.57,0.28,1721207225650
2.68,-5.03,11.18,-0.14,0.32,0.12,1721207225660
0.31,2.38,10.97,0.22,-0.09,-0.50,1721207225675
1.59,4.28,10.08,0.36,0.25,-0.43,1721207225679
-4.71,-8.10,-1.69,-0.09,0.15,-0.11,1721207225689
-5.93,3.01,18.86,0.10,0.55,-0.06,1721207225699
-0.26,6.28,10.84,0.47,0.29,0.18,1721207225709
0.74,-3.10,5.80,-0.17,0.34,0.11,1721207225719
-0.92,-6.47,14.28,-0.05,0.15,-0.01,1721207225729
-1.41,0.49,8.29,0.28,0.35,-0.03,1721207225739
-0.94,7.80,2.49,0.20,0.35,-0.01,1721207225749
-2.25,2.42,6.50,-0.11,0.31,-0.07,1721207225759
-2.16,-7.32,10.68,-0.11,0.18,0.13,1721207225769
0.37,-8.60,14.80,-0.18,0.39,0.22,1721207225779
0.38,4.36,19.78,0.03,0.12,0.18,1721207225789
-0.23,6.94,11.01,0.04,0.11,-0.04,1721207225799
-2.19,-0.32,7.11,0.02,0.06,-0.07,1721207225809
-3.95,-3.94,5.43,-0.02,0.25,0.16,1721207225819
-0.35,-1.76,12.42,-0.14,0.38,0.33,1721207225829
3.68,8.92,13.97,0.34,0.12,0.39,1721207225839
2.86,3.21,-5.94,0.16,-0.07,0.17,1721207225849
3.41,-6.17,11.72,-0.36,0.48,0.03,1721207225859
0.49,7.75,22.82,0.19,0.01,0.07,1721207225869
-0.91,2.60,5.53,-0.16,0.06,0.03,1721207225879
-4.09,1.70,14.26,-0.25,0.03,0.12,1721207225889
-2.04,-1.70,9.22,-0.03,0.26,0.21,1721207225899
-0.17,-7.24,13.77,-0.33,0.17,0.36,1721207225909
0.53,5.50,13.92,0.25,-0.04,0.45,1721207225919
3.17,7.88,-0.46,0.14,0.09,0.23,1721207225929
1.55,1.20,11.09,-0.21,0.01,0.08,1721207225939
-0.34,-9.22,8.26,-0.14,-0.05,0.26,1721207225949
0.04,2.99,17.27,-0.06,0.38,0.07,1721207225959
0.59,6.30,11.24,0.06,-0.13,-0.09,1721207225969
-1.76,0.28,10.67,-0.29,0.08,0.06,1721207225979
-2.28,1.19,10.72,0.02,0.05,0.35,1721207225989
1.04,-3.74,3.71,-0.35,0.15,0.31,1721207225999
0.73,1.88,8.78,-0.11,-0.05,0.18,1721207226009
2.15,-4.41,4.95,-0.36,0.17,-0.16,1721207226019
-2.56,-4.63,25.57,-0.45,-0.20,0.13,1721207226029
-1.82,1.33,18.47,0.10,0.03,0.21,1721207226039
1.53,0.53,-0.62,-0.18,-0.00,0.24,1721207226049
-0.05,0.17,8.75,-0.43,0.04,0.07,1721207226059
0.99,0.29,10.97,0.11,0.08,-0.00,1721207226069
1.17,-0.86,7.12,-0.02,0.13,-0.02,1721207226079
-1.87,6.40,13.71,0.05,-0.14,0.28,1721207226089
0.04,-3.87,4.23,-0.25,0.00,0.27,1721207226099
0.78,4.44,17.67,-0.24,0.12,-0.03,1721207226109
1.04,2.20,10.97,0.02,-0.14,-0.06,1721207226119
-0.67,-9.44,6.17,-0.35,0.04,0.02,1721207226129
-3.18,-2.60,16.42,-0.04,0.00,-0.03,1721207226139
-1.16,3.65,13.74,0.15,-0.03,0.11,1721207226149
0.38,10.58,11.22,0.31,0.02,0.33,1721207226159
2.49,-0.22,6.01,0.18,0.03,0.38,1721207226169
2.84,-8.08,11.41,-0.04,0.10,0.06,1721207226179
1.06,6.32,17.07,0.35,-0.06,-0.26,1721207226189
-1.10,8.91,6.75,0.34,-0.21,-0.08,1721207226199
-0.67,3.67,4.69,0.11,0.10,0.13,1721207226209
1.15,-8.25,11.56,0.11,0.11,0.17,1721207226219
1.66,-1.54,5.77,0.40,-0.06,0.08,1721207226229
1.09,1.14,7.33,0.16,0.11,-0.06,1721207226239
-0.63,6.08,17.76,0.37,-0.02,0.05,1721207226249
0.28,5.50,6.54,0.34,0.05,0.24,1721207226259
2.78,-6.04,8.01,-0.10,0.20,0.12,1721207226269
1.93,-3.40,16.41,0.10,0.04,-0.17,1721207226279
-0.62,5.99,3.68,0.43,-0.05,-0.13,1721207226289
-0.97,-3.61,-0.77,0.09,0.15,0.10,1721207226299
0.98,-0.35,17.41,0.17,0.27,0.07,1721207226309
1.59,0.62,12.33,0.39,-0.03,-0.10,1721207226319
-1.36,4.26,4.54,0.10,0.03,-0.31,1721207226329
-3.80,1.63,7.91,-0.09,0.04,-0.08,1721207226339
-3.78,-4.55,18.18,-0.23,0.18,0.21,1721207226349
-0.60,-0.37,12.56,0.28,-0.06,0.38,1721207226359
3.37,6.87,3.07,0.12,0.18,0.30,1721207226369
4.83,4.91,2.82,-0.19,0.09,-0.03,1721207226379
2.54,-5.51,10.12,-0.40,0.13,-0.27,1721207226389
-2.26,-5.26,11.30,0.01,-0.07,-0.28,1721207226399
-4.42,-1.86,16.17,-0.17,0.08,0.03,1721207226409
-3.10,13.89,21.90,0.20,-0.06,0.31,1721207226419
0.26,3.44,-0.96,-0.09,-0.14,0.46,1721207226429
3.65,-7.72,7.29,-0.54,0.25,0.36,1721207226439
4.64,-3.94,9.47,-0.04,-0.11,0.04,1721207226449
2.98,-2.88,3.93,-0.16,-0.02,-0.19,1721207226459
-3.88,2.75,14.27,0.00,-0.18,-0.28,1721207226469
-4.52,1.33,3.15,0.14,-0.08,0.02,1721207226479
-0.98,-2.89,16.14,-0.57,0.29,0.47,1721207226489
2.89,8.16,19.60,0.01,-0.20,0.72,1721207226499
6.13,-12.11,-1.36,-0.31,-0.07,0.28,1721207226509
8.37,-3.34,19.78,-0.40,0.40,-0.37,1721207226519
1.79,0.66,24.91,-0.10,-0.39,-0.40,1721207226529
-7.02,9.33,6.81,-0.00,-0.27,-0.24,1721207226539
-5.53,9.28,-3.00,0.19,0.08,0.05,1721207226549
1.17,-10.49,7.94,-0.58,0.25,0.34,1721207226559
-0.87,-3.39,24.16,-0.22,-0.22,0.33,1721207226569
2.24,-2.32,7.41,0.31,0.01,0.10,1721207226579
3.83,0.29,6.90,-0.12,0.27,-0.16,1721207226589
-0.90,15.66,9.30,0.67,-0.29,-0.11,1721207226599
-0.98,2.91,-0.75,0.61,-0.15,0.06,1721207226609
0.58,3.98,21.13,-0.18,0.53,-0.01,1721207226619
-0.18,4.26,12.38,0.58,-0.40,-0.00,1721207226629
-1.50,-22.82,-8.66,-0.51,0.14,-0.03,1721207226639
-2.94,1.17,37.21,-0.17,0.17,-0.08,1721207226649
3.75,12.56,14.73,1.02,-0.27,-0.10,1721207226659
-1.78,-4.28,-19.61,0.15,0.01,-0.12,1721207226669
-4.07,1.18,18.28,-0.06,0.15,0.06,1721207226679
0.16,-5.61,18.29,-0.08,-0.10,0.06,1721207226689
0.36,0.01,16.63,-0.02,0.31,-0.30,1721207226699
-4.36,1.06,12.60,0.25,-0.40,-0.12,1721207226709
-5.34,1.38,9.18,0.01,0.13,0.15,1721207226719
1.20,8.36,8.69,0.37,-0.05,0.43,1721207226729
1.38,-3.83,-11.08,-0.04,-0.35,0.22,1721207226739
0.65,-11.61,4.38,-0.39,0.03,-0.12,1721207226749
0.59,0.65,16.45,0.12,0.26,-0.29,1721207226759
0.96,4.56,21.75,0.29,-0.05,-0.18,1721207226769
-3.02,9.19,12.48,0.22,-0.40,0.14,1721207226779
-3.27,6.39,-1.66,0.16,-0.20,0.37,1721207226789
3.64,-15.29,7.32,-0.62,0.20,0.44,1721207226799
2.24,0.31,23.53,0.03,-0.10,0.16,1721207226809
4.60,5.37,5.43,0.30,-0.31,-0.21,1721207226819
-0.71,5.34,6.14,-0.13,0.07,-0.52,1721207226829
-4.84,-3.57,9.70,-0.12,-0.23,-0.16,1721207226839
-6.73,-4.02,7.25,-0.22,-0.10,0.34,1721207226849
-3.19,3.84,14.66,-0.06,-0.08,0.52,1721207226859
3.38,1.92,15.86,-0.03,0.04,0.43,1721207226869
4.16,-0.48,18.01,-0.09,-0.22,0.07,1721207226879
-0.52,0.40,6.04,0.08,-0.48,-0.13,1721207226889
-0.71,7.19,1.10,-0.03,0.14,-0.09,1721207226899
1.96,-2.16,6.57,-0.05,0.02,0.13,1721207226909
-0.43,-4.37,5.04,0.13,-0.28,0.16,1721207226919
2.62,-2.85,8.10,-0.06,0.02,0.03,1721207226929
3.29,3.72,31.84,-0.34,0.09,-0.34,1721207226939
0.36,19.30,24.82,0.41,-0.43,-0.44,1721207226949
-4.64,-10.11,-14.89,-0.35,-0.46,-0.31,1721207226959
-5.98,-15.65,15.83,-0.87,0.60,-0.09,1721207226969
6.46,5.88,21.46,0.49,-0.04,0.26,1721207226979
-3.74,0.19,-10.17,0.42,-0.65,0.35,1721207226989
2.61,1.22,6.18,0.08,0.55,0.18,1721207226999
6.79,10.76,22.29,-0.06,-0.05,-0.02,1721207227009
2.33,-7.16,9.72,-0.26,-0.35,-0.51,1721207227019
-3.59,-7.83,8.43,-0.21,-0.14,-0.57,1721207227029
-3.98,6.06,6.30,0.22,-0.02,-0.30,1721207227039
-2.92,3.80,8.32,0.05,0.02,0.19,1721207227049
0.27,6.78,11.54,0.26,-0.06,0.34,1721207227059
2.93,-4.38,-1.85,0.04,-0.03,0.13,1721207227069
4.93,-8.83,17.75,-0.49,0.26,-0.34,1721207227079
-1.39,6.99,24.40,0.20,-0.41,-0.41,1721207227089
-3.26,-6.47,4.38,-0.01,-0.18,-0.17,1721207227099
-3.87,6.05,18.56,0.12,0.07,0.09,1721207227109
2.68,1.99,-1.21,0.49,-0.02,0.22,1721207227119
4.44,-2.09,5.38,-0.27,0.26,-0.12,1721207227129
-0.55,14.46,22.19,0.37,-0.26,-0.21,1721207227139
1.00,-11.06,-3.60,0.27,-0.18,-0.16,1721207227149
0.06,-5.62,18.36,-0.34,0.51,-0.30,1721207227159
-0.07,14.44,20.64,0.36,-0.22,-0.11,1721207227169
0.43,-3.02,-3.76,0.05,-0.06,0.03,1721207227179
-0.95,1.74,14.45,-0.05,0.28,-0.04,1721207227189
3.67,-5.98,5.78,0.07,0.09,-0.13,1721207227199
-0.19,-0.78,22.12,-0.27,0.14,-0.37,1721207227209
-2.70,7.58,16.96,0.22,-0.10,-0.30,1721207227219
0.25,-7.14,-1.43,-0.16,0.16,0.01,1721207227229
1.92,-0.08,6.50,0.01,0.12,0.10,1721207227239
2.95,-0.73,7.01,0.00,0.21,-0.18,1721207227249
-0.09,0.46,19.35,0.00,0.13,-0.50,1721207227259
-3.84,2.11,3.31,0.35,-0.14,-0.27,1721207227269
-4.25,-6.65,0.76,-0.42,0.31,0.04,1721207227279
-3.64,-0.41,30.53,-0.22,0.11,0.12,1721207227289
-0.81,9.44,3.28,0.63,-0.21,0.22,1721207227299
4.47,-4.07,-1.77,-0.66,0.47,0.08,1721207227309
-0.07,3.73,31.66,-0.28,-0.13,-0.22,1721207227319
-0.46,-3.77,2.23,0.03,-0.08,-0.22,1721207227329
-1.98,0.97,12.35,-0.50,0.38,-0.11,1721207227339
-0.62,6.57,15.55,0.05,-0.08,0.08,1721207227349
1.41,-1.96,10.05,-0.40,0.19,-0.08,1721207227359
0.16,11.00,21.72,0.04,-0.09,-0.09,1721207227369
1.01,2.47,-0.57,-0.00,0.02,-0.01,1721207227379
2.03,-1.87,9.00,-0.49,0.44,-0.07,1721207227389
1.01,-1.97,14.55,0.06,-0.11,-0.15,1721207227399
-0.95,-2.46,0.80,0.23,0.00,-0.27,1721207227409
-1.40,-1.24,8.24,0.03,0.22,-0.12,1721207227419
0.51,7.37,17.73,0.07,0.18,0.04,1721207227429
1.65,4.44,10.45,0.16,0.00,0.12,1721207227439
2.85,-7.48,5.25,-0.25,0.26,-0.13,1721207227449
2.25,-1.40,18.44,-0.19,0.19,-0.34,1721207227459
0.41,3.45,8.87,0.20,-0.01,-0.26,1721207227469
-0.16,0.61,2.04,-0.02,0.32,-0.34,1721207227479
-1.57,1.86,10.85,0.02,0.20,-0.27,1721207227489
-2.18,-1.16,4.69,0.11,0.16,-0.08,1721207227499
0.90,-5.08,14.45,-0.28,0.52,-0.04,1721207227509
1.67,5.89,25.46,-0.07,0.19,-0.12,1721207227519
0.06,7.83,15.10,0.10,0.06,-0.24,1721207227529
-1.05,-1.71,1.57,-0.02,0.12,-0.21,1721207227539
-2.31,-5.22,2.58,-0.07,0.29,-0.10,1721207227549
0.08,2.86,11.54,0.11,0.40,-0.05,1721207227559
-1.07,1.53,6.35,0.17,0.03,-0.18,1721207227569
-2.75,-4.45,7.32,-0.03,0.32,-0.20,1721207227579
-2.68,-2.03,10.66,0.04,0.25,0.03,1721207227589
-0.39,-1.08,15.45,-0.05,0.33,0.15,1721207227599
1.04,2.45,14.50,0.21,0.15,-0.01,1721207227609
0.99,-0.73,5.32,0.15,0.15,-0.17,1721207227619
-2.46,1.36,8.17,0.11,0.17,-0.24,1721207227629
-3.45,-11.31,4.16,-0.15,0.10,-0.15,1721207227639
-3.74,2.25,21.10,0.04,0.51,-0.03,1721207227649
-1.25,10.20,6.90,0.46,-0.08,0.05,1721207227659
-1.86,-4.98,6.79,-0.48,0.23,0.01,1721207227669
0.53,-6.17,18.92,0.19,-0.04,0.19,1721207227684
0.44,-3.56,8.20,0.27,0.12,0.24,1721207227688
1.70,3.59,3.44,0.08,0.19,0.14,1721207227698
0.66,5.58,15.13,0.09,0.15,-0.12,1721207227708
-2.40,10.77,13.92,0.53,-0.18,0.04,1721207227718
-0.28,-7.58,-1.16,0.12,0.12,0.17,1721207227728
1.43,3.22,20.23,-0.13,0.49,0.12,1721207227738
0.59,9.09,13.18,0.18,-0.33,0.10,1721207227748
-2.75,-2.13,1.84,-0.06,0.06,-0.04,1721207227758
-3.34,-4.24,1.90,0.14,-0.05,0.17,1721207227768
1.80,-12.15,16.07,-0.29,0.41,0.35,1721207227778
0.43,16.63,19.27,0.57,-0.27,0.31,1721207227788
0.55,1.68,-9.39,0.02,-0.16,0.09,1721207227798
-7.31,0.20,24.66,-0.33,0.41,0.08,1721207227808
-0.30,-9.16,13.03,0.19,-0.21,0.20,1721207227818
-0.38,-2.37,10.01,-0.29,0.22,0.03,1721207227828
-3.54,13.57,7.58,0.30,-0.46,0.12,1721207227838
-2.03,1.22,-6.09,-0.04,0.08,0.41,1721207227848
0.44,-12.43,1.77,-0.32,-0.23,0.77,1721207227858
4.11,-6.13,30.41,-0.37,0.30,0.45,1721207227868
3.99,11.11,22.65,0.27,-0.31,-0.12,1721207227878
-2.38,1.65,3.60,-0.40,-0.35,-0.41,1721207227888
-7.07,0.85,15.90,-0.31,-0.38,0.30,1721207227898
-1.65,-3.27,6.66,-0.04,-0.00,0.77,1721207227908
4.72,-0.69,7.72,-0.00,0.09,0.61,1721207227918
5.51,0.00,4.66,-0.10,-0.21,0.06,1721207227928
1.29,-0.60,13.01,-0.18,-0.20,-0.26,1721207227938
-3.00,2.29,9.69,0.24,-0.38,-0.06,1721207227948
-0.98,-6.27,7.50,-0.16,0.02,0.24,1721207227958
-0.02,5.37,19.60,0.11,-0.19,0.34,1721207227968
1.73,7.03,7.39,0.11,-0.21,0.09,1721207227978
1.07,1.49,9.01,-0.20,-0.06,-0.05,1721207227988
-1.13,-5.98,10.58,-0.10,-0.24,0.02,1721207227998
-2.50,-2.25,4.26,0.19,-0.26,0.09,1721207228008
0.01,-2.04,0.66,0.16,-0.16,0.19,1721207228018
0.57,-1.70,21.91,-0.27,0.01,0.04,1721207228028
0.46,16.22,29.22,0.32,-0.35,0.17,1721207228038
1.04,-5.29,-4.89,0.22,-0.43,0.14,1721207228048
4.53,-7.01,8.06,-0.48,0.41,-0.10,1721207228058
3.74,9.48,20.87,0.44,-0.43,0.06,1721207228068
-1.76,-2.75,-2.89,0.38,-0.46,0.16,1721207228078
2.70,1.18,7.91,0.10,0.33,0.12,1721207228088
5.46,4.89,11.72,0.25,-0.19,0.08,1721207228098
2.14,3.18,9.10,-0.09,-0.24,-0.17,1721207228108
0.23,-2.57,8.38,-0.07,-0.15,-0.21,1721207228118
1.02,-11.98,17.48,-0.27,0.12,-0.18,1721207228128
-0.52,4.82,21.78,0.45,-0.23,0.03,1721207228138
1.24,5.01,-2.18,0.26,-0.10,0.11,1721207228148
2.75,4.91,8.58,-0.11,0.14,0.01,1721207228158
3.34,-1.87,7.73,0.03,-0.05,-0.24,1721207228168
0.50,-4.13,11.94,-0.15,0.08,-0.40,1721207228178
-2.80,3.13,18.74,0.18,-0.13,-0.22,1721207228188
-1.77,-4.23,0.81,0.06,-0.07,0.13,1721207228198
1.65,-0.92,9.79,-0.18,0.26,0.14,1721207228208
3.69,6.23,16.56,0.06,-0.01,-0.16,1721207228218
2.54,5.27,9.14,0.14,0.00,-0.42,1721207228228
-0.33,-7.26,1.88,-0.39,0.07,-0.44,1721207228238
-4.62,-1.46,25.02,-0.38,0.03,-0.31,1721207228248
-2.14,7.79,20.57,0.26,0.05,-0.09,1721207228258
1.62,8.69,1.02,0.14,0.03,0.12,1721207228268
3.95,-9.11,-8.45,-0.27,0.12,-0.09,1721207228278
3.27,-5.14,19.50,-0.51,0.39,-0.64,1721207228288
1.52,12.72,21.86,0.23,-0.14,-0.68,1721207228298
-4.65,4.48,-1.07,0.31,-0.03,-0.43,1721207228308
-4.20,-5.18,3.00,-0.39,0.21,0.01,1721207228318
0.15,-9.76,26.16,-0.52,0.31,0.15,1721207228328
4.34,9.98,25.87,0.37,0.06,0.06,1721207228338
4.14,2.78,-11.38,0.36,-0.21,-0.30,1721207228348
2.04,-7.44,2.06,-0.70,0.59,-0.85,1721207228358
-9.28,-2.10,30.74,0.01,0.10,-0.52,1721207228368
-7.78,-3.20,13.96,0.35,-0.04,-0.14,1721207228378
-3.41,10.60,8.26,0.24,0.36,0.02,1721207228388
0.77,2.20,1.62,-0.01,0.13,-0.06,1721207228398
1.94,-10.79,14.07,-0.53,0.35,-0.10,1721207228408
1.14,1.16,26.65,0.13,0.08,-0.11,1721207228418
0.23,11.53,-11.45,0.61,-0.08,-0.29,1721207228428
1.33,-12.04,-7.24,-0.90,0.61,-0.56,1721207228438
-4.12,-10.57,35.09,0.24,-0.14,-0.36,1721207228448
-7.56,0.27,14.98,0.63,0.14,-0.02,1721207228458
0.93,1.71,2.18,-0.19,0.56,0.01,1721207228468
-1.00,4.16,11.64,0.01,-0.08,-0.10,1721207228478
-0.79,-2.77,4.59,0.05,0.28,-0.22,1721207228488
-0.12,-5.51,14.03,-0.01,0.28,-0.15,1721207228498
-2.53,-1.81,6.97,0.37,-0.04,-0.09,1721207228508
-2.09,5.26,8.41,0.13,0.41,-0.10,1721207228518
-2.54,11.03,8.87,0.24,-0.11,-0.05,1721207228528
-2.72,-12.49,8.26,-0.50,0.19,-0.11,1721207228538
-3.82,-10.06,26.63,-0.07,0.01,0.12,1721207228548
-2.38,-5.85,2.88,0.38,-0.09,0.29,1721207228558
0.76,2.33,10.35,-0.04,0.39,0.10,1721207228568
-0.25,8.54,14.50,0.31,-0.23,-0.10,1721207228578
-0.27,0.99,2.53,0.06,0.07,-0.12,1721207228588
-1.37,-4.01,11.53,-0.30,0.06,0.03,1721207228598
-3.34,-0.25,18.55,-0.00,-0.11,0.09,1721207228608
-4.01,6.30,2.31,0.24,-0.28,0.14,1721207228618
-1.49,-1.64,5.07,-0.17,0.16,0.08,1721207228628
-1.60,-4.74,16.02,-0.14,-0.16,0.16,1721207228638
-1.18,3.14,15.51,0.07,-0.11,0.29,1721207228648
0.31,7.04,5.53,0.19,-0.19,0.14,1721207228658
0.48,-1.09,12.55,-0.31,-0.02,0.01,1721207228668
-1.42,3.92,21.17,0.30,-0.43,0.22,1721207228678
1.52,-3.30,-3.68,0.15,-0.20,0.32,1721207228688
3.20,3.11,9.81,-0.20,0.11,0.13,1721207228698
1.63,13.30,10.77,0.52,-0.35,-0.02,1721207228708
1.90,-0.21,-6.93,-0.03,-0.11,0.08,1721207228718
3.56,-4.55,14.68,-0.26,0.26,0.14,1721207228728
1.11,0.53,17.01,0.13,-0.19,-0.04,1721207228738
-0.80,5.66,14.39,-0.07,-0.15,-0.02,1721207228748
-3.17,6.45,11.23,0.10,-0.33,0.08,1721207228758
-1.36,-4.33,10.91,-0.24,-0.05,0.21,1721207228768
-0.39,-1.63,13.30,0.08,-0.23,0.25,1721207228778
-0.36,-2.04,-3.33,0.02,-0.33,0.16,1721207228788
0.54,1.98,13.07,-0.16,0.07,0.14,1721207228798
2.46,7.22,18.87,0.29,-0.22,0.13,1721207228808
2.41,1.89,8.97,-0.05,-0.16,-0.10,1721207228818
-1.17,1.45,13.00,-0.11,-0.27,-0.31,1721207228828
-3.88,-2.54,0.68,-0.03,-0.28,-0.15,1721207228838
-4.47,-4.23,5.47,-0.16,-0.05,0.17,1721207228848
0.47,3.41,21.49,0.34,-0.07,0.36,1721207228858
5.13,0.96,2.43,0.30,-0.19,0.12,1721207228868
1.61,0.07,6.87,-0.42,-0.07,-0.40,1721207228878
-3.95,0.18,24.63,-0.08,-0.34,-0.33,1721207228888
-5.19,-6.79,11.09,0.24,-0.21,0.27,1721207228898
-0.19,3.98,8.30,0.32,-0.01,0.54,1721207228908
6.00,-0.80,6.34,-0.10,-0.09,0.29,1721207228918
2.13,0.18,6.07,0.16,-0.32,-0.23,1721207228928
3.25,-5.54,11.74,0.00,0.22,-0.38,1721207228938
-1.08,4.10,14.19,0.14,-0.35,0.19,1721207228948
-0.65,-1.64,13.82,-0.05,-0.14,0.26,1721207228958
4.59,-8.50,20.84,0.13,-0.06,-0.09,1721207228968
2.64,-0.47,-1.15,0.44,-0.51,-0.30,1721207228978
-2.32,9.15,5.16,-0.05,0.12,-0.10,1721207228988
1.15,-4.22,9.90,0.02,-0.00,0.25,1721207228998
4.65,-13.05,5.36,0.05,-0.06,0.17,1721207229008
4.58,-5.38,13.42,0.06,0.02,-0.27,1721207229018
0.83,14.44,26.16,0.52,-0.19,-0.29,1721207229028
-0.26,13.23,0.79,0.42,-0.11,0.05,1721207229038
5.52,-11.40,-7.72,-0.73,0.17,0.26,1721207229048
0.84,-19.09,31.58,-0.25,0.30,-0.42,1721207229058
-1.79,6.84,23.81,0.91,-0.32,-0.72,1721207229068
-5.23,8.59,-15.43,0.28,-0.05,0.02,1721207229078
0.06,1.84,-4.06,-0.50,0.39,0.61,1721207229088
9.81,-14.46,24.32,-0.53,0.48,-0.09,1721207229098
0.56,5.91,33.62,0.92,-0.52,-0.87,1721207229108
-6.68,1.91,-12.65,0.44,-0.18,-0.43,1721207229118
-6.52,6.86,4.77,-0.31,0.08,0.16,1721207229128
-1.56,0.37,14.65,0.23,0.15,0.22,1721207229138
2.02,0.17,-1.33,0.25,-0.10,0.11,1721207229148
3.63,1.75,0.39,-0.21,0.12,0.02,1721207229158
0.34,5.38,15.35,-0.09,-0.05,-0.35,1721207229168
0.84,-1.82,29.42,0.10,0.11,-0.58,1721207229178
-3.29,1.17,16.27,0.65,-0.37,-0.21,1721207229188
-1.71,6.52,-2.87,0.01,0.18,0.17,1721207229198
3.04,6.05,6.39,-0.24,0.16,0.02,1721207229208
5.34,-2.12,12.20,-0.27,0.13,-0.42,1721207229218
-0.01,1.61,9.75,0.37,-0.28,-0.44,1721207229228
-0.92,-0.37,-9.26,-0.18,0.12,-0.43,1721207229238
0.61,-5.44,23.29,-0.58,0.43,-0.26,1721207229248
-2.91,-0.56,20.74,0.32,-0.31,0.14,1721207229258
3.50,-3.34,-2.26,-0.05,0.18,0.25,1721207229268
6.96,-3.17,8.54,-0.07,0.26,-0.20,1721207229278
6.53,-3.21,8.28,0.06,-0.06,-0.62,1721207229288
0.88,7.70,19.32,0.12,0.32,-0.88,1721207229298
-2.70,8.01,1.34,0.06,-0.13,-0.51,1721207229308
-3.35,-9.52,6.00,-0.87,0.51,-0.33,1721207229318
-1.31,-9.25,26.27,-0.14,0.12,0.01,1721207229328
4.28,-3.90,14.65,0.22,0.26,-0.09,1721207229338
3.88,4.64,15.63,-0.01,0.31,-0.74,1721207229348
-2.35,4.18,9.93,0.05,0.09,-0.88,1721207229358
-4.57,-5.17,4.62,-0.15,0.40,-0.50,1721207229368
-4.23,-2.37,11.48,-0.01,0.30,-0.02,1721207229378
0.75,0.46,8.00,0.15,0.31,-0.06,1721207229388
-0.09,2.49,10.06,0.07,0.17,-0.40,1721207229398
-3.62,0.90,6.04,0.14,0.17,-0.58,1721207229408
-4.49,0.93,-0.02,0.08,0.36,-0.36,1721207229418
-2.99,-2.58,11.65,-0.29,0.56,-0.20,1721207229428
-4.05,1.68,24.67,-0.05,0.07,-0.03,1721207229438
-2.72,-8.01,17.52,0.14,0.09,-0.03,1721207229448
-1.71,5.49,16.78,0.44,0.23,-0.04,1721207229458
-1.27,4.83,-3.63,0.07,-0.04,-0.23,1721207229468
-2.38,-4.52,5.56,-0.42,0.43,-0.51,1721207229478
-3.77,2.24,20.75,0.22,-0.02,-0.23,1721207229488
-2.89,-1.07,-3.90,0.13,0.13,-0.01,1721207229498
-1.42,-1.67,9.18,-0.11,0.42,-0.04,1721207229508
-1.42,1.26,3.38,0.03,-0.16,-0.14,1721207229518
-0.32,-0.30,14.58,-0.24,0.57,-0.33,1721207229528
-2.22,5.48,29.63,0.28,0.08,-0.26,1721207229538
-3.38,8.03,0.32,0.34,-0.06,-0.03,1721207229548
-2.49,1.57,-2.23,-0.35,0.17,0.08,1721207229558
0.14,-5.61,10.02,-0.39,0.14,0.07,1721207229568
3.36,-7.93,20.60,-0.01,0.41,0.04,1721207229578
0.62,11.39,5.06,0.81,-0.14,0.02,1721207229588
4.91,-2.55,-2.09,-0.28,0.41,-0.15,1721207229598
-1.29,15.78,30.52,0.04,-0.16,-0.30,1721207229608
1.29,-3.03,-4.37,0.38,-0.03,-0.16,1721207229618
0.95,-5.60,23.12,-0.94,0.94,-0.30,1721207229628
-5.02,18.76,33.62,0.68,-0.29,-0.04,1721207229638
-5.84,-1.48,-23.57,0.27,-0.11,0.09,1721207229648
-5.97,1.66,3.16,-0.53,0.60,0.31,1721207229658
7.66,3.14,8.22,-0.14,0.18,0.58,1721207229668
8.18,-6.47,14.19,-0.18,0.25,0.39,1721207229678
4.58,10.74,27.61,0.57,-0.05,-0.23,1721207229693
5.40,14.01,15.49,0.54,0.13,-0.32,1721207229697
0.74,-3.56,2.12,-0.32,-0.03,-0.33,1721207229707
-7.33,3.04,12.29,0.00,0.15,-0.48,1721207229717
-7.32,-8.59,-8.89,-0.18,0.01,-0.15,1721207229727
-10.44,-6.20,22.84,-0.12,-0.00,0.59,1721207229737
-0.42,-4.11,6.35,0.52,0.31,0.74,1721207229747
6.83,-1.23,13.94,-0.38,0.42,0.14,1721207229757
0.55,11.05,28.30,0.24,-0.39,-0.13,1721207229767
-3.16,-14.54,-8.26,-0.07,-0.14,-0.03,1721207229777
-5.41,-8.93,16.81,-0.00,0.37,0.41,1721207229787
3.65,1.36,6.99,0.59,0.28,0.52,1721207229797
5.62,12.31,5.04,0.32,0.05,0.38,1721207229807
3.14,11.21,-0.85,-0.03,-0.22,0.20,1721207229817
3.91,-11.83,18.40,-0.89,0.49,-0.12,1721207229827
-2.01,-11.18,40.84,0.06,-0.36,-0.00,1721207229837
-4.50,-2.89,0.39,0.73,-0.15,0.15,1721207229847
0.01,8.98,-6.53,0.12,0.24,0.52,1721207229857
4.27,6.75,14.26,-0.21,0.29,0.71,1721207229867
7.19,-2.69,17.78,0.08,-0.08,0.30,1721207229877
5.54,-10.54,1.07,0.06,-0.20,-0.20,1721207229887
0.96,-13.58,6.02,-0.20,0.10,-0.13,1721207229897
-5.32,9.16,33.88,0.64,-0.03,0.17,1721207229907
0.31,16.76,-2.49,0.84,-0.21,0.60,1721207229917
8.92,4.25,-10.89,-0.62,0.69,0.43,1721207229927
5.51,-6.24,14.35,-0.43,-0.19,-0.17,1721207229937
-0.53,-15.07,12.44,-0.49,0.04,-0.58,1721207229947
-6.17,2.49,34.21,0.51,-0.17,0.00,1721207229957
-1.79,2.90,-0.31,0.62,0.09,0.85,1721207229967
4.79,2.06,6.38,-0.29,0.43,0.44,1721207229977
2.62,3.60,19.92,0.04,-0.32,-0.38,1721207229987
-4.86,0.11,7.39,0.00,-0.13,-0.32,1721207229997
-6.76,-7.28,13.93,0.11,0.04,0.40,1721207230007
-1.09,5.12,6.85,0.52,0.06,0.67,1721207230017
4.25,18.08,-8.97,0.36,-0.13,0.40,1721207230027
5.00,2.28,-30.85,-1.22,-0.16,0.17,1721207230037
2.53,-14.68,60.82,-1.06,1.05,-0.70,1721207230047
1.50,5.94,17.22,1.25,-0.67,-0.39,1721207230057
3.17,2.16,-22.79,-0.43,0.40,0.30,1721207230067
-10.40,1.30,16.34,0.18,-0.66,0.22,1721207230077
3.76,-12.96,-17.15,0.00,-0.80,-0.08,1721207230087
3.96,-6.38,31.02,-0.95,1.18,-0.47,1721207230097
1.99,5.39,28.60,0.35,-0.09,-0.20,1721207230107
0.53,-0.01,-12.84,-0.06,-0.36,0.06,1721207230117
5.72,-3.54,12.35,0.03,0.41,0.03,1721207230127
3.83,2.48,15.41,0.23,-0.12,-0.11,1721207230137
3.26,4.74,0.69,-0.21,0.14,-0.10,1721207230147
4.51,-11.00,21.77,-0.77,0.29,-0.26,1721207230157
2.11,6.91,36.24,0.59,-0.33,-0.08,1721207230167
3.52,0.69,-18.53,0.34,-0.25,-0.10,1721207230177
-0.45,7.22,4.34,-0.40,0.49,-0.63,1721207230187
6.14,-1.18,-5.35,-0.27,-0.02,-0.69,1721207230197
-8.64,1.84,29.60,-0.07,-0.41,-0.36,1721207230207
-7.49,13.14,13.94,0.71,0.22,-0.03,1721207230217
-1.37,-13.32,-20.34,-0.32,-0.16,0.16,1721207230227
-6.28,-9.12,22.74,-0.76,0.30,0.28,1721207230237
-0.26,15.30,18.86,0.16,-0.03,0.07,1721207230247
10.04,1.71,3.08,0.23,0.19,-0.18,1721207230257
4.45,-8.99,9.83,-0.32,-0.32,-0.31,1721207230267
-6.96,-3.55,24.04,-0.04,-0.07,-0.29,1721207230277
-3.07,0.42,8.77,0.33,-0.21,0.05,1721207230287
-1.40,-4.00,10.05,-0.15,-0.03,0.08,1721207230297
-3.05,6.13,17.15,0.24,-0.27,0.04,1721207230307
-0.64,2.91,-5.76,0.20,-0.32,0.17,1721207230317
0.93,-8.08,2.26,-0.65,-0.03,0.01,1721207230327
-1.49,-4.12,18.95,-0.09,-0.21,-0.28,1721207230337
-1.88,-1.55,21.29,0.19,-0.24,-0.17,1721207230347
-4.13,2.89,-4.56,0.39,-0.49,0.26,1721207230357
2.34,-2.75,1.51,-0.47,0.38,0.09,1721207230367
-11.52,19.66,32.53,0.03,-0.53,-0.36,1721207230377
0.53,-4.80,6.59,0.22,-0.50,-0.34,1721207230387
-4.01,-8.83,-2.94,-0.29,-0.10,-0.20,1721207230397
-3.90,0.25,8.49,-0.06,-0.27,0.14,1721207230407
-4.13,5.59,15.49,0.11,-0.38,0.30,1721207230417
1.41,7.59,7.89,0.30,-0.13,0.16,1721207230427
2.61,1.13,7.70,-0.26,-0.29,-0.09,1721207230437
-0.05,-1.60,15.92,-0.18,-0.34,-0.20,1721207230447
3.72,-3.10,23.49,-0.03,0.00,-0.07,1721207230457
0.89,12.57,16.76,0.64,-0.47,0.00,1721207230467
0.63,9.92,-13.54,0.42,-0.40,-0.04,1721207230477
2.38,0.46,-8.54,-0.51,0.03,-0.10,1721207230487
1.53,-2.34,9.93,-0.20,-0.18,-0.13,1721207230497
-1.71,-10.25,40.01,-0.43,0.09,-0.40,1721207230507
-4.23,6.58,24.01,0.94,-0.74,-0.20,1721207230517
-1.70,-0.36,-17.16,0.16,0.01,-0.03,1721207230527
-3.85,8.52,13.97,-0.28,-0.15,0.04,1721207230537
-1.74,-4.32,14.75,-0.11,-0.12,-0.05,1721207230547
1.24,-4.57,14.41,-0.07,0.16,-0.32,1721207230557
-1.48,-1.07,10.18,0.14,-0.42,-0.18,1721207230567
-1.68,6.87,10.87,0.12,-0.01,-0.14,1721207230577
0.51,5.44,3.57,0.08,-0.14,-0.12,1721207230587
0.10,-5.10,12.69,-0.58,0.12,-0.25,1721207230597
-1.76,-4.34,25.58,0.16,-0.28,-0.14,1721207230607
-1.18,-1.86,-1.80,0.34,-0.18,-0.04,1721207230617
-0.32,1.17,1.72,-0.26,0.06,0.07,1721207230627
-0.23,5.91,22.55,0.01,-0.07,0.07,1721207230637
1.63,1.20,8.68,0.08,-0.14,-0.12,1721207230647
2.38,-9.79,11.76,-0.37,-0.02,-0.09,1721207230657
0.36,-3.96,20.69,0.14,-0.11,-0.15,1721207230667
1.46,2.55,-1.01,0.38,-0.24,0.01,1721207230677
2.13,2.89,3.29,-0.25,0.18,0.10,1721207230687
2.82,-2.76,20.43,0.01,-0.03,0.01,1721207230697
2.67,-4.59,2.97,0.06,-0.11,-0.35,1721207230707
-1.47,-1.82,14.78,-0.16,-0.01,-0.35,1721207230717
-0.49,0.57,22.31,0.29,0.12,0.01,1721207230727
2.45,-2.77,3.82,0.21,0.05,0.16,1721207230737
3.39,-1.36,12.33,0.09,0.25,-0.19,1721207230747
0.25,6.22,6.54,0.29,-0.14,-0.37,1721207230757
-0.68,-2.21,6.43,-0.42,0.36,-0.27,1721207230767
-3.13,-5.29,29.00,0.02,0.02,0.06,1721207230777
-0.36,0.68,8.83,0.59,-0.06,0.30,1721207230787
6.13,5.24,-8.22,0.20,0.22,0.16,1721207230797
5.77,4.41,5.58,-0.35,0.18,-0.15,1721207230807
1.24,-0.38,19.07,-0.14,0.04,-0.49,1721207230817
-3.17,-3.28,14.93,0.21,0.07,-0.32,1721207230827
-1.06,-1.40,-5.95,0.12,-0.02,0.18,1721207230837
-2.26,0.72,18.80,-0.40,0.34,0.02,1721207230847
-1.66,13.35,21.61,0.63,-0.17,0.01,1721207230857
0.76,-2.01,-19.90,-0.16,-0.18,0.15,1721207230867
-0.29,-10.01,15.49,-0.85,0.49,0.06,1721207230877
-2.72,0.28,36.42,0.20,0.00,-0.09,1721207230887
-1.34,6.88,9.89,0.49,-0.25,-0.01,1721207230897
1.42,11.70,-4.13,0.05,0.03,0.33,1721207230907
6.45,-2.51,8.51,-0.71,0.38,0.05,1721207230917
1.98,-9.00,19.30,-0.32,-0.25,-0.35,1721207230927
-1.49,-10.87,19.42,-0.20,0.14,-0.34,1721207230937
-0.68,5.15,17.19,0.64,-0.10,0.02,1721207230947
2.62,11.93,-6.17,0.49,0.01,0.02,1721207230957
0.69,8.07,-7.29,-0.34,-0.04,-0.17,1721207230967
0.31,-7.39,18.31,-0.91,0.41,-0.35,1721207230977
0.82,-11.92,33.70,-0.25,-0.10,-0.03,1721207230987
1.75,0.30,12.29,0.62,-0.18,0.18,1721207230997
5.51,1.71,-7.54,0.23,0.12,-0.16,1721207231007
4.20,7.33,13.59,-0.17,0.32,-0.58,1721207231017
-0.68,3.81,15.08,-0.01,-0.23,-0.50,1721207231027
-2.04,-11.00,19.59,-0.50,0.32,-0.40,1721207231037
-0.85,4.32,29.12,0.34,0.01,-0.23,1721207231047
-2.51,7.29,-13.81,0.52,-0.32,-0.09,1721207231057
0.23,-2.19,-3.96,-0.48,0.68,-0.36,1721207231067
2.50,-7.22,12.16,0.15,-0.10,-0.41,1721207231077
-4.07,-7.72,21.54,-0.17,0.05,-0.52,1721207231087
-6.25,6.27,24.78,0.36,-0.09,-0.42,1721207231097
-2.38,-2.12,1.42,0.31,0.17,-0.27,1721207231107
-1.98,6.09,13.01,-0.10,0.46,-0.25,1721207231117
-0.54,1.90,6.79,0.24,-0.22,-0.13,1721207231127
-2.57,-10.81,-8.80,-0.19,0.19,-0.26,1721207231137
-1.48,-8.48,19.20,-0.30,0.43,-0.44,1721207231147
1.98,-0.36,26.34,0.28,-0.20,-0.18,1721207231157
-1.85,4.10,1.85,0.47,0.21,-0.25,1721207231167
-2.94,-2.42,-0.78,-0.16,0.01,-0.32,1721207231177
-5.50,2.97,27.72,-0.17,0.43,-0.43,1721207231187
-2.22,4.87,16.52,0.44,-0.08,-0.17,1721207231197
-2.31,-0.68,-1.31,-0.25,0.11,-0.07,1721207231207
-1.63,-2.92,4.24,-0.31,0.14,-0.23,1721207231217
-1.51,-1.53,7.60,-0.13,0.16,-0.28,1721207231227
-1.59,-4.88,6.81,-0.17,0.03,-0.15,1721207231237
0.06,0.57,25.21,0.05,0.36,-0.07,1721207231247
1.04,14.11,17.52,0.47,0.05,-0.21,1721207231257
-0.34,10.06,1.98,-0.02,0.06,-0.30,1721207231267
-2.32,-4.87,7.68,-0.53,0.10,-0.26,1721207231277
-1.91,2.81,12.81,0.27,0.02,0.06,1721207231287
2.08,0.07,-13.32,0.22,0.03,0.08,1721207231297
2.11,0.83,9.95,-0.55,0.52,-0.23,1721207231307
6.03,4.77,14.96,-0.16,-0.26,-0.31,1721207231317
-1.43,-7.48,31.39,-0.38,0.50,-0.40,1721207231327
-4.59,9.08,35.58,0.69,-0.21,-0.11,1721207231337
-7.58,6.46,-11.35,0.49,-0.13,0.11,1721207231347
-4.58,8.06,-6.49,-0.23,0.27,0.48,1721207231357
2.47,-7.74,-0.42,-0.29,0.18,0.51,1721207231367
7.23,-4.84,12.44,0.03,0.31,-0.03,1721207231377
4.82,2.37,16.90,0.21,-0.04,-0.43,1721207231387
-1.51,8.58,15.25,-0.01,0.04,-0.49,1721207231397
-5.32,-1.11,8.33,-0.21,-0.01,-0.25,1721207231407
-5.21,-10.18,13.22,-0.26,0.25,0.10,1721207231417
-3.76,1.59,6.68,0.40,0.02,0.32,1721207231427
1.61,-5.43,-6.10,-0.18,0.31,0.32,1721207231437
1.69,4.75,17.88,-0.04,0.11,0.08,1721207231447
3.21,-1.49,12.37,0.00,0.02,-0.14,1721207231457
-2.70,1.44,21.05,-0.13,0.04,-0.27,1721207231467
-0.81,-11.30,-0.23,-0.07,-0.08,0.08,1721207231477
-6.40,-1.68,9.35,0.05,0.33,0.09,1721207231487
1.67,3.03,5.11,0.37,0.03,0.39,1721207231497
6.18,0.41,10.46,-0.07,0.39,0.06,1721207231507
2.92,0.90,16.73,0.11,-0.15,-0.18,1721207231517
-1.43,-4.35,15.30,-0.20,0.10,-0.26,1721207231527
-2.32,6.48,20.54,0.46,-0.09,0.08,1721207231537
2.26,0.49,-10.30,0.35,0.09,0.45,1721207231547
6.12,-1.75,8.78,-0.28,0.56,0.10,1721207231557
7.01,8.76,11.02,0.38,-0.10,-0.26,1721207231567
1.32,-10.32,3.64,-0.22,0.14,-0.48,1721207231577
-4.39,2.06,33.44,0.21,-0.00,-0.10,1721207231587
-1.34,5.53,0.25,0.73,0.11,0.41,1721207231597
5.47,10.46,-0.75,-0.06,0.57,0.38,1721207231607
5.66,-1.14,6.94,-0.19,0.02,-0.06,1721207231617
1.60,-10.64,17.15,-0.22,0.32,-0.57,1721207231627
-2.77,0.28,15.35,0.43,0.09,-0.42,1721207231637
-3.76,-0.85,2.72,0.05,0.18,0.10,1721207231647
-1.30,7.68,8.35,0.21,0.27,0.29,1721207231657
3.19,-4.42,1.48,-0.16,0.17,0.06,1721207231667
-1.03,0.93,19.27,0.00,0.14,-0.23,1721207231677
-3.19,-1.97,2.06,0.17,0.04,-0.15,1721207231687
-3.10,9.17,17.51,0.05,0.20,0.31,1721207231702
0.03,5.80,10.68,0.22,0.03,0.37,1721207231706
4.96,-4.32,-8.15,-0.45,0.31,0.30,1721207231716
1.07,-5.14,33.13,-0.66,0.72,-0.27,1721207231726
1.64,3.87,29.53,0.31,-0.09,-0.45,1721207231736
0.79,4.91,2.30,0.24,0.23,-0.17,1721207231746
0.46,1.84,-2.06,-0.28,0.18,0.15,1721207231756
-1.01,2.26,15.50,-0.37,0.29,-0.27,1721207231766
-1.13,7.08,2.99,0.34,-0.11,-0.26,1721207231776
-1.30,-8.78,-1.49,-0.75,0.39,-0.03,1721207231786
-12.16,2.78,33.26,-0.15,-0.10,0.04,1721207231796
0.38,0.62,0.95,0.33,0.02,0.35,1721207231806
4.61,3.46,4.83,-0.33,0.53,0.18,1721207231816
5.51,1.30,16.57,-0.25,0.03,-0.09,1721207231826
2.73,-0.25,19.43,-0.10,0.21,-0.37,1721207231836
-0.18,-2.77,10.38,0.04,0.06,-0.30,1721207231846
-2.61,-6.94,4.39,-0.18,0.20,-0.22,1721207231856
-3.81,-1.98,13.03,-0.08,0.21,-0.02,1721207231866
-1.76,6.50,16.89,0.29,0.14,0.14,1721207231876
-0.64,7.93,8.09,0.29,-0.01,0.03,1721207231886
0.13,-4.05,6.71,-0.17,0.24,-0.14,1721207231896
-2.45,-2.31,20.52,-0.01,0.18,-0.13,1721207231906
-2.33,5.48,11.23,0.40,0.06,0.08,1721207231916
-2.50,1.87,-2.08,0.09,-0.03,0.12,1721207231926
-0.46,-10.36,12.56,-0.25,0.23,0.22,1721207231936
-0.39,-1.98,18.56,0.29,-0.17,0.28,1721207231946
0.83,-1.62,7.78,0.08,0.07,0.05,1721207231956
-2.14,4.96,18.18,0.25,-0.06,-0.23,1721207231966
-4.61,3.57,3.76,0.44,-0.29,0.02,1721207231976
-1.35,-0.57,0.87,-0.01,0.34,0.32,1721207231986
0.82,0.31,9.89,-0.04,-0.08,0.42,1721207231996
1.51,-2.57,10.06,-0.19,-0.02,0.14,1721207232006
-0.22,4.10,11.49,0.17,-0.24,-0.08,1721207232016
-0.81,-4.68,4.72,-0.24,-0.03,-0.04,1721207232026
-3.42,0.39,20.91,-0.04,-0.19,0.31,1721207232036
0.27,-4.51,9.96,0.10,-0.09,0.37,1721207232046
1.83,6.11,14.87,0.24,-0.09,0.10,1721207232056
1.12,6.90,2.61,0.33,-0.36,0.00,1721207232066
-0.76,4.98,2.12,-0.02,-0.03,-0.06,1721207232076
-0.64,-1.61,2.97,-0.08,-0.20,0.15,1721207232086
-1.93,-0.52,2.57,-0.30,-0.18,0.14,1721207232096
1.91,-0.90,30.17,-0.30,0.30,0.03,1721207232106
1.30,2.36,11.86,0.53,-0.66,0.04,1721207232116
1.03,-6.78,-0.26,-0.36,0.04,0.09,1721207232126
-6.88,14.38,32.63,0.12,-0.40,0.12,1721207232136
3.37,9.05,5.04,0.33,-0.28,0.17,1721207232146
3.11,-4.28,7.66,-0.48,0.04,-0.02,1721207232156
-0.47,-4.30,10.37,-0.02,-0.28,-0.15,1721207232166
-2.23,-0.05,-0.87,-0.06,-0.18,-0.10,1721207232176
-2.85,3.03,9.41,-0.09,-0.10,0.12,1721207232186
0.66,4.97,16.42,0.11,-0.01,0.26,1721207232196
2.78,0.42,4.57,-0.09,-0.14,0.04,1721207232206
1.55,-1.98,18.45,-0.51,0.05,-0.42,1721207232216
-2.38,-2.06,21.29,-0.12,-0.33,-0.35,1721207232226
-7.97,2.18,7.59,0.06,-0.19,-0.02,1721207232236
-2.90,-2.82,-0.03,-0.01,-0.12,0.52,1721207232246
3.84,0.38,3.50,-0.04,0.01,0.46,1721207232256
6.11,-3.69,16.26,-0.37,0.05,-0.17,1721207232266
-0.10,7.09,30.21,0.01,-0.33,-0.56,1721207232276
-3.27,4.00,0.42,0.40,-0.33,-0.16,1721207232286
-1.26,-1.93,-8.24,-0.20,0.13,0.09,1721207232296
0.12,-0.18,6.69,0.09,-0.18,0.16,1721207232306
5.84,0.46,10.63,-0.08,0.10,-0.15,1721207232316
1.71,4.48,20.94,0.06,-0.13,-0.23,1721207232326
-1.81,-2.77,-0.01,-0.05,-0.26,-0.19,1721207232336
-2.09,-6.50,16.09,-0.49,0.08,-0.15,1721207232346
-0.62,5.72,23.58,0.36,-0.09,0.06,1721207232356
1.50,-0.74,1.55,0.17,-0.08,0.11,1721207232366
1.09,5.17,7.57,0.19,0.01,-0.03,1721207232376
3.37,-5.46,0.44,-0.02,-0.01,-0.30,1721207232386
-2.76,-2.72,21.78,-0.26,-0.07,-0.36,1721207232396
-4.59,7.75,20.54,0.48,-0.13,-0.09,1721207232406
0.03,-1.35,-4.41,0.21,-0.05,0.36,1721207232416
3.45,-1.12,4.97,-0.11,0.19,0.30,1721207232426
5.14,-3.31,15.93,-0.04,0.02,-0.07,1721207232436
1.08,2.27,19.06,0.08,-0.11,-0.41,1721207232446
-1.47,1.02,8.86,0.32,-0.11,-0.09,1721207232456
0.94,-2.83,3.40,0.00,0.21,0.14,1721207232466
3.11,3.23,14.26,0.06,0.08,0.06,1721207232476
2.77,2.58,7.96,0.09,-0.04,-0.25,1721207232486
-0.40,-2.75,10.54,-0.07,0.18,-0.48,1721207232496
-3.00,2.55,12.94,0.18,-0.00,-0.11,1721207232506
-0.97,2.60,5.37,0.07,0.19,0.17,1721207232516
3.11,2.05,11.54,-0.10,0.24,0.05,1721207232526
3.17,2.88,12.13,0.14,0.08,-0.23,1721207232536
2.49,1.29,3.29,-0.04,0.17,-0.49,1721207232546
-2.46,2.36,9.92,-0.02,0.02,-0.37,1721207232556
-3.36,-3.92,7.36,-0.19,0.20,-0.23,1721207232566
-2.14,4.01,19.59,-0.03,0.16,-0.00,1721207232576
0.03,6.70,9.35,0.15,0.04,-0.03,1721207232586
1.38,4.21,7.59,-0.18,0.25,-0.15,1721207232596
0.22,-5.49,8.15,-0.34,0.07,-0.31,1721207232606
-0.63,-1.49,15.26,-0.20,0.20,-0.33,1721207232616
-0.85,3.75,10.65,0.07,0.06,-0.21,1721207232626
-2.42,2.10,5.84,-0.07,0.08,-0.11,1721207232636
-1.71,-7.20,5.58,-0.14,0.11,-0.06,1721207232646
1.07,-4.34,13.96,-0.08,0.25,0.01,1721207232656
3.23,6.34,15.76,0.16,0.20,-0.14,1721207232666
0.76,6.93,8.05,0.07,-0.04,-0.36,1721207232676
-2.38,-2.45,14.14,-0.21,0.21,-0.35,1721207232686
-4.24,2.15,5.15,0.39,-0.15,0.04,1721207232696
-0.05,-14.58,-6.08,-0.63,0.38,0.10,1721207232706
10.43,-3.82,29.70,0.07,0.77,-0.18,1721207232716
-0.94,0.90,12.78,0.46,-0.33,-0.42,1721207232726
-3.35,1.69,11.67,-0.27,0.51,-0.34,1721207232736
-2.18,9.15,5.48,0.37,-0.40,0.23,1721207232746
-0.06,-10.15,7.92,-0.48,0.39,0.25,1721207232756
-0.22,5.53,30.03,0.18,-0.17,0.10,1721207232766
1.45,4.34,-9.51,0.72,-0.40,-0.08,1721207232776
0.17,-6.82,-2.93,-0.47,0.45,-0.13,1721207232786
-7.76,5.44,28.67,-0.01,0.62,-0.19,1721207232796
-2.52,-3.85,3.74,0.41,-0.36,-0.13,1721207232806
0.70,-2.63,12.54,-0.22,0.52,-0.22,1721207232816
-1.32,11.27,17.66,0.50,-0.43,0.21,1721207232826
-1.05,-6.37,-2.89,-0.00,0.10,0.26,1721207232836
-2.49,1.59,21.70,0.11,0.44,0.07,1721207232846
1.85,3.88,3.75,0.48,-0.43,-0.07,1721207232856
-2.96,-5.62,-1.20,-0.26,0.05,-0.20,1721207232866
-4.31,1.97,30.10,-0.13,0.09,-0.13,1721207232876
-3.51,6.71,8.55,0.54,-0.37,0.08,1721207232886
-1.82,-6.95,2.16,-0.33,0.22,0.11,1721207232896
-2.46,1.44,13.41,0.27,-0.26,0.28,1721207232906
4.80,-0.04,-3.32,0.09,0.04,0.43,1721207232916
4.84,11.39,22.97,-0.05,0.31,0.06,1721207232926
3.76,6.68,3.98,0.43,-0.51,-0.19,1721207232936
1.39,-14.16,-1.47,-0.60,0.27,-0.57,1721207232946
0.60,-7.81,26.17,-0.14,0.04,-0.17,1721207232956
-6.96,6.95,10.97,0.39,-0.26,0.27,1721207232966
-0.81,3.13,0.18,-0.07,-0.00,0.52,1721207232976
4.49,-2.21,10.89,-0.20,0.03,0.27,1721207232986
3.89,-4.68,10.04,-0.23,-0.21,-0.15,1721207232996
-1.30,-2.59,20.12,-0.48,-0.08,-0.50,1721207233006
-5.15,6.03,19.03,0.10,-0.30,-0.15,1721207233016
-4.10,1.81,0.14,0.03,-0.20,0.42,1721207233026
0.48,-1.15,3.52,-0.04,0.04,0.52,1721207233036
6.61,-5.33,5.46,-0.34,0.12,0.08,1721207233046
1.82,-0.10,30.66,-0.56,-0.17,-0.51,1721207233056
-3.87,10.69,20.03,0.41,-0.50,-0.31,1721207233066
-2.64,-5.09,-15.89,0.07,-0.13,0.13,1721207233076
-1.49,-3.53,7.00,-0.26,0.16,0.33,1721207233086
6.85,-7.87,15.47,-0.29,0.03,0.13,1721207233096
2.65,4.92,19.85,0.11,-0.16,-0.15,1721207233106
0.19,0.55,4.96,0.06,-0.36,-0.17,1721207233116
-0.67,6.97,10.21,0.08,0.02,-0.08,1721207233126
3.62,-0.06,8.57,-0.06,0.02,-0.02,1721207233136
1.51,-3.94,15.26,-0.14,-0.02,-0.21,1721207233146
-2.13,0.09,5.75,0.17,-0.25,-0.22,1721207233156
-0.75,-2.83,14.09,-0.14,0.23,-0.19,1721207233166
-0.15,5.55,12.02,0.36,-0.24,0.25,1721207233176
2.40,-4.33,1.57,-0.21,0.24,0.14,1721207233186
-0.41,11.53,25.36,0.18,-0.22,-0.19,1721207233196
2.58,-3.64,3.16,0.31,-0.15,-0.14,1721207233206
1.63,-7.05,9.72,-0.23,0.35,-0.30,1721207233216
-1.74,11.09,16.04,0.35,-0.22,-0.06,1721207233226
-0.99,3.62,0.66,0.06,0.08,0.01,1721207233236
0.77,-1.43,10.69,0.16,0.00,0.10,1721207233246
4.10,-11.94,3.86,-0.03,0.13,-0.02,1721207233256
1.03,-0.42,21.93,-0.15,0.09,-0.31,1721207233266
0.25,14.11,14.81,0.48,-0.12,-0.18,1721207233276
0.94,1.56,-1.08,0.04,0.18,-0.18,1721207233286
0.57,-6.08,10.86,0.13,0.09,-0.15,1721207233296
0.79,2.10,5.60,0.15,0.20,-0.19,1721207233306
-0.60,7.62,10.69,-0.16,0.09,-0.25,1721207233316
-1.81,-5.47,20.75,-0.16,0.16,-0.35,1721207233326
-1.84,0.99,1.89,0.33,-0.09,-0.01,1721207233336
2.21,3.87,1.06,-0.22,0.49,0.01,1721207233346
2.89,0.85,17.99,-0.23,0.06,-0.26,1721207233356
0.44,-8.68,16.54,-0.37,0.12,-0.52,1721207233366
-2.76,3.84,14.77,0.12,0.04,-0.38,1721207233376
-1.39,3.34,-5.10,-0.03,0.14,-0.08,1721207233386
-0.83,-0.77,10.96,-0.20,0.29,-0.14,1721207233396
1.82,-1.54,16.52,-0.13,0.22,-0.31,1721207233406
-0.48,4.49,17.71,0.00,0.05,-0.35,1721207233416
-2.30,4.82,-2.49,0.12,-0.00,-0.22,1721207233426
-1.57,-10.75,5.42,-0.54,0.35,-0.20,1721207233436
0.19,-0.04,26.36,-0.05,0.22,-0.16,1721207233446
0.24,8.35,3.97,0.46,-0.10,-0.17,1721207233456
-0.31,-4.25,-4.67,-0.05,0.28,-0.33,1721207233466
-6.76,-0.87,24.18,-0.29,0.41,-0.44,1721207233476
-0.29,6.59,22.89,0.01,0.21,-0.39,1721207233486
-1.30,4.52,3.66,0.13,0.11,-0.16,1721207233496
-2.45,-5.84,-5.93,0.15,0.13,-0.12,1721207233506
0.55,-5.25,15.05,-0.18,0.50,-0.06,1721207233516
2.80,10.74,20.31,0.26,-0.12,0.08,1721207233526
0.41,-2.38,2.36,-0.09,0.17,-0.32,1721207233536
-4.19,-2.58,17.70,-0.18,0.32,-0.59,1721207233546
-4.21,2.55,13.50,0.25,0.06,-0.17,1721207233556
-3.36,1.89,5.60,0.15,0.26,0.20,1721207233566
0.30,3.14,8.80,0.25,0.28,0.03,1721207233576
1.19,-2.77,8.62,0.10,0.10,-0.26,1721207233586
-0.27,0.14,12.36,0.08,0.18,-0.19,1721207233596
-1.26,2.96,6.75,0.17,0.16,-0.22,1721207233606
0.23,1.87,15.15,-0.05,0.32,-0.16,1721207233616
-3.51,1.49,10.88,0.32,-0.08,0.01,1721207233626
-1.64,-6.85,2.74,-0.01,0.23,0.11,1721207233636
1.58,-1.76,7.97,0.01,0.03,-0.56,1721207234179
-1.68,1.02,11.53,-0.03,0.20,-0.54,1721207234185
-2.37,8.21,-3.33,0.62,0.01,-0.10,1721207234195
0.49,-15.60,-11.68,-0.60,0.38,0.00,1721207234205
-12.86,-12.58,34.07,-0.43,-0.07,-0.46,1721207234215
0.19,18.30,20.69,0.93,-0.26,-0.45,1721207234225
-1.61,-8.59,-22.07,-0.35,0.09,-0.07,1721207234235
-4.15,-8.82,20.84,-0.73,0.42,0.10,1721207234245
10.18,5.69,17.02,-0.03,0.62,-0.07,1721207234255
5.71,9.67,3.87,0.17,-0.03,-0.38,1721207234265
-2.97,5.08,0.01,0.09,-0.12,-0.70,1721207234275
-5.19,-4.02,10.26,-0.25,0.32,-0.51,1721207234285
-4.45,-1.38,16.73,-0.28,0.17,-0.11,1721207234295
0.37,-8.84,12.21,-0.59,0.26,0.11,1721207234305
1.02,4.30,14.09,0.03,0.07,-0.17,1721207234315
0.68,-7.87,-3.83,-0.21,-0.05,-0.30,1721207234325
1.33,-4.86,16.06,-0.21,0.48,-0.29,1721207234335
-1.89,6.28,14.18,0.21,0.10,-0.25,1721207234345
-0.64,-3.11,20.34,-0.71,0.35,-0.21,1721207234355
-1.50,9.90,25.15,0.20,-0.11,-0.06,1721207234365
-1.77,-5.35,-10.81,0.03,-0.17,0.11,1721207234375
-2.78,-4.60,4.78,-0.42,0.31,-0.04,1721207234385
-6.63,1.33,18.50,-0.05,0.10,-0.17,1721207234395
2.63,4.72,15.84,0.13,0.15,-0.35,1721207234405
-3.44,0.23,10.17,-0.25,-0.10,-0.39,1721207234415
-5.09,-5.18,25.45,-0.35,0.16,-0.06,1721207234425
-1.45,10.59,14.39,0.45,0.05,0.30,1721207234435
1.64,-0.41,-10.58,0.26,0.00,0.33,1721207234445
1.03,0.64,14.65,-0.12,0.26,-0.13,1721207234455
-2.50,10.81,15.35,0.35,-0.62,-0.06,1721207234465
2.00,-13.40,-2.00,-0.30,0.37,-0.12,1721207234475
-7.80,5.74,24.56,-0.11,-0.06,-0.19,1721207234485
-2.97,4.97,10.99,0.27,-0.04,-0.09,1721207234495
-2.43,-0.98,8.93,0.07,0.03,0.14,1721207234505
-0.12,-6.61,6.21,0.26,-0.06,0.39,1721207234515
4.69,2.68,6.77,0.25,0.27,0.27,1721207234525
4.90,7.54,11.50,0.16,-0.01,-0.22,1721207234535
1.46,2.14,13.79,0.21,-0.02,-0.51,1721207234545
-5.60,1.28,0.07,0.43,-0.29,-0.28,1721207234555
-5.94,-1.34,0.06,0.02,0.20,0.12,1721207234565
-4.33,5.50,21.40,-0.02,-0.04,0.38,1721207234575
-0.11,6.78,5.72,0.35,-0.40,0.34,1721207234585
4.06,-22.51,7.09,-0.56,0.26,0.14,1721207234595
2.51,9.46,14.64,0.44,-0.26,0.02,1721207234605
1.46,5.30,-2.40,0.10,-0.28,0.04,1721207234615
-0.17,2.48,18.50,-0.38,0.34,-0.09,1721207234625
1.52,-2.86,14.76,0.36,-0.26,-0.05,1721207234635
0.34,-5.51,0.05,-0.25,0.08,-0.05,1721207234645
1.36,12.24,4.89,0.09,-0.25,0.03,1721207234655
0.25,-1.15,5.85,-0.18,-0.04,0.06,1721207234665
-1.02,-1.69,10.29,0.08,-0.12,0.07,1721207234675
2.71,-5.52,-5.43,0.20,-0.09,0.14,1721207234685
1.57,1.00,15.88,-0.44,0.18,-0.16,1721207234695
-0.71,14.96,28.45,-0.03,-0.20,-0.02,1721207234705
-2.77,-10.74,5.80,-0.36,-0.27,-0.13,1721207234715
-2.94,8.10,7.88,0.29,-0.12,-0.00,1721207234725
4.11,-6.58,-17.69,0.11,-0.21,0.25,1721207234735
3.36,-19.37,37.55,-1.30,0.95,-0.30,1721207234745
-5.65,53.57,44.13,0.44,-0.52,-0.26,1721207234755
-6.37,-18.82,-22.44,0.95,-0.85,-0.16,1721207234765
7.80,4.11,-15.28,-1.27,0.91,-0.09,1721207234775
-3.94,14.35,26.30,-0.22,-0.45,-0.12,1721207234785
6.98,4.52,32.47,0.05,0.42,-0.21,1721207234795
6.51,8.48,-2.13,0.23,-0.08,0.09,1721207234805
-1.70,3.38,0.87,0.14,-0.06,-0.09,1721207234815
2.56,-9.98,20.83,-0.42,0.42,-0.57,1721207234825
-1.99,10.55,26.04,0.08,-0.22,-0.40,1721207234835
-1.50,-3.69,-8.39,0.33,-0.02,-0.14,1721207234845
-1.52,-8.29,10.82,-0.35,0.51,0.00,1721207234855
0.17,5.56,14.86,0.31,-0.13,0.21,1721207234865
3.30,0.13,7.46,0.06,0.07,-0.14,1721207234875
-1.27,8.33,14.13,0.24,-0.04,-0.21,1721207234885
2.41,-10.69,-0.37,0.08,0.22,-0.26,1721207234895
-1.87,0.55,14.70,0.24,0.19,-0.24,1721207234905
-1.27,7.27,7.16,0.43,0.02,-0.07,1721207234915
0.53,-8.05,6.18,-0.14,0.34,-0.05,1721207234925
0.57,5.63,17.08,0.38,-0.03,0.09,1721207234935
3.49,-1.65,-1.44,0.03,0.27,-0.06,1721207234945
0.43,-1.31,24.14,-0.36,0.29,-0.32,1721207234955
-1.41,1.99,19.91,0.27,0.00,-0.37,1721207234965
-1.57,5.08,-1.61,0.24,0.18,-0.02,1721207234975
-0.85,2.32,4.18,-0.10,0.27,0.05,1721207234985
-0.35,0.68,15.42,0.02,0.17,-0.20,1721207234995
-2.46,-2.49,6.99,0.13,0.02,-0.17,1721207235005
-3.00,-5.70,12.71,-0.15,0.27,0.07,1721207235015
-1.15,16.90,11.98,0.48,0.07,0.20,1721207235025
2.41,2.45,0.61,-0.19,0.11,0.14,1721207235035
0.56,-5.13,20.84,-0.31,0.04,-0.13,1721207235045
0.21,-0.18,6.60,0.21,-0.05,-0.00,1721207235055
1.68,-2.46,2.09,-0.37,0.34,0.00,1721207235065
-1.27,3.88,20.64,-0.15,-0.11,-0.15,1721207235075
-2.14,3.12,13.67,0.16,-0.04,-0.12,1721207235085
-2.09,1.64,-1.38,0.09,-0.06,0.11,1721207235095
-0.22,-7.64,2.99,-0.36,0.22,0.25,1721207235105
2.00,-3.44,23.97,-0.29,0.14,0.13,1721207235115
1.58,5.86,9.37,0.27,-0.20,-0.05,1721207235125
1.84,-5.68,-0.29,-0.26,0.09,-0.28,1721207235135
-1.62,7.58,7.87,0.31,-0.15,-0.14,1721207235145
-0.40,-6.05,2.25,-0.06,0.02,0.24,1721207235155
-2.09,0.35,24.54,-0.41,0.26,0.02,1721207235165
0.81,6.45,13.80,0.28,-0.27,-0.04,1721207235175
0.84,-11.57,-0.51,-0.34,0.05,-0.09,1721207235185
1.43,2.69,21.42,0.15,0.25,0.16,1721207235195
-0.11,2.62,10.57,0.09,-0.17,0.09,1721207235205
-0.94,-1.47,12.28,-0.24,0.01,-0.17,1721207235215
-1.37,4.97,12.58,0.27,-0.21,0.00,1721207235225
0.27,-3.26,4.82,-0.05,-0.03,0.12,1721207235235
-0.04,-0.76,12.67,0.01,-0.06,0.23,1721207235245
3.22,2.11,8.98,0.28,-0.02,-0.07,1721207235255
-0.61,4.79,5.41,0.26,-0.23,-0.27,1721207235265
-1.76,-2.49,8.14,0.10,-0.09,-0.19,1721207235275
-1.25,0.80,17.30,-0.06,0.20,-0.10,1721207235285
-0.84,6.37,14.19,0.18,-0.20,-0.15,1721207235295
-1.80,-5.09,9.65,-0.15,-0.08,-0.23,1721207235305
-3.10,-0.49,9.33,0.38,-0.27,0.02,1721207235315
0.37,-2.97,-5.73,0.25,-0.02,0.35,1721207235325
7.46,-1.33,24.80,-0.25,0.58,0.04,1721207235335
2.77,9.27,27.47,0.26,-0.39,-0.40,1721207235345
-2.74,-0.10,0.26,0.06,-0.37,-0.62,1721207235355
-6.14,-1.16,9.11,-0.19,0.07,-0.18,1721207235365
-3.22,-0.82,10.12,-0.05,-0.10,0.43,1721207235375
2.37,3.56,10.01,0.03,0.04,0.47,1721207235385
8.31,-2.21,7.61,0.01,-0.06,0.20,1721207235395
5.92,-2.43,10.23,-0.17,-0.09,-0.38,1721207235405
1.22,4.94,12.87,-0.02,-0.11,-0.60,1721207235415
-3.39,0.19,11.81,-0.27,-0.07,-0.44,1721207235425
-5.97,5.16,16.47,0.06,-0.16,-0.11,1721207235435
-2.68,0.22,-1.13,0.18,-0.09,0.27,1721207235445
1.78,-1.59,7.82,-0.15,0.27,0.21,1721207235455
4.19,-1.35,19.97,-0.23,-0.06,-0.10,1721207235465
-0.75,9.21,11.58,0.18,-0.29,-0.32,1721207235475
-2.41,-1.48,-0.97,-0.09,-0.09,-0.20,1721207235485
-4.00,-5.53,16.17,-0.32,0.02,0.03,1721207235495
0.47,3.16,14.66,0.10,-0.00,0.13,1721207235505
1.98,2.88,3.10,-0.06,-0.12,-0.07,1721207235515
1.50,0.15,10.58,-0.02,0.08,-0.18,1721207235525
0.07,5.70,13.59,0.15,-0.07,-0.21,1721207235535
-2.57,3.68,5.21,0.01,-0.21,-0.10,1721207235545
-1.40,-6.88,14.66,-0.35,0.13,-0.12,1721207235555
-3.40,-0.20,10.20,0.05,-0.27,0.07,1721207235565
-1.64,1.28,6.99,-0.20,0.11,-0.00,1721207235575
1.43,2.84,13.67,0.12,-0.20,0.25,1721207235585
3.96,-8.24,2.46,0.09,0.06,0.22,1721207235595
4.23,2.43,10.97,0.09,0.24,-0.24,1721207235605
1.81,1.53,19.26,-0.08,-0.18,-0.39,1721207235615
-2.77,6.19,17.37,0.01,-0.13,-0.20,1721207235625
-2.47,-2.57,0.08,0.07,-0.10,0.06,1721207235635
0.28,0.87,7.81,0.01,0.33,0.07,1721207235645
5.21,11.10,9.87,0.32,0.04,0.01,1721207235655
1.00,-18.35,7.03,-0.53,-0.18,-0.10,1721207235665
-3.51,5.94,25.86,-0.05,-0.02,-0.12,1721207235675
0.83,3.00,4.80,0.15,-0.13,0.08,1721207235685
3.68,-0.86,6.15,-0.32,0.20,0.09,1721207235695
2.53,11.74,15.26,0.22,-0.14,-0.10,1721207235705
1.19,-11.99,3.34,0.05,-0.10,-0.31,1721207235715
-2.58,4.57,12.81,0.14,0.17,-0.38,1721207235725
-2.02,3.87,8.01,0.23,-0.17,-0.13,1721207235735
-0.97,1.30,14.49,-0.09,0.18,-0.02,1721207235745
-0.68,7.98,8.73,0.38,-0.19,0.08,1721207235755
2.37,-14.77,3.91,-0.17,0.19,-0.01,1721207235765
-0.60,14.05,15.44,0.36,-0.07,-0.26,1721207235775
0.75,-8.92,4.65,-0.11,-0.12,-0.29,1721207235785
-2.38,11.16,20.73,0.26,0.12,-0.36,1721207235795
-0.73,5.01,-2.35,0.54,-0.16,-0.00,1721207235805
1.57,-20.47,12.71,-0.68,0.59,-0.00,1721207235815
2.32,27.29,16.70,0.66,-0.30,-0.11,1721207235825
0.58,-13.15,-11.56,-0.21,-0.14,-0.25,1721207235835
-7.42,-2.99,23.93,-0.10,0.15,-0.48,1721207235845
2.37,8.45,-1.92,0.75,-0.12,-0.12,1721207235855
3.22,-16.37,-3.35,-0.75,0.53,-0.06,1721207235865
-14.12,1.17,13.26,0.33,-0.92,-0.14,1721207235875
1.17,-13.13,-3.62,-0.03,-0.06,-0.24,1721207235885
0.68,9.91,19.01,-0.01,0.65,-0.43,1721207235895
-0.76,-1.58,-1.97,0.22,-0.29,-0.24,1721207235905
-0.50,-15.53,10.91,-0.85,0.80,-0.30,1721207235915
6.21,25.47,21.08,0.48,-0.10,-0.15,1721207235925
-1.04,-11.88,-2.92,-0.18,-0.16,-0.36,1721207235935
-5.87,3.19,14.13,-0.12,0.41,-0.52,1721207235945
0.50,-3.85,2.84,0.07,0.16,-0.10,1721207235955
0.23,-10.36,17.99,-0.84,0.48,-0.02,1721207235965
1.15,14.90,18.30,0.21,0.05,-0.15,1721207235975
1.64,-8.53,-6.99,0.05,-0.05,-0.41,1721207235985
-2.40,2.09,18.87,-0.14,0.58,-0.50,1721207235995
-0.99,1.98,13.44,0.09,-0.01,-0.31,1721207236005
-3.22,-2.60,13.10,-0.47,0.36,-0.25,1721207236015
-3.99,1.19,9.51,0.16,-0.02,-0.25,1721207236025
-0.74,-8.40,5.54,-0.13,0.38,-0.10,1721207236035
-2.08,10.45,13.20,0.36,0.20,-0.05,1721207236045
0.21,-5.02,2.16,0.16,0.09,-0.15,1721207236055
-1.41,0.77,20.78,-0.24,0.69,-0.40,1721207236065
-1.64,8.18,13.85,0.22,-0.10,-0.35,1721207236075
-1.62,-5.88,11.55,-0.39,0.31,-0.13,1721207236085
-1.79,3.14,21.28,0.10,-0.01,0.19,1721207236095
-0.18,-2.76,-4.69,0.39,-0.01,0.26,1721207236105
0.86,3.86,10.18,0.02,0.57,0.06,1721207236115
-2.31,2.60,16.28,0.20,-0.26,-0.06,1721207236125
1.43,-1.54,6.74,0.21,0.37,-0.18,1721207236135
-2.24,0.48,12.44,0.17,0.01,-0.03,1721207236145
-2.03,7.98,9.90,0.36,0.20,0.03,1721207236155
-0.80,7.41,7.52,0.36,0.14,0.09,1721207236165
-1.21,-6.31,1.50,0.17,-0.01,0.06,1721207236175
-2.96,5.04,14.00,0.15,0.26,-0.13,1721207236190
-1.54,3.30,11.23,0.17,-0.30,0.01,1721207236194
-1.15,-0.58,12.08,-0.14,0.41,-0.15,1721207236204
-3.45,10.03,18.93,0.27,-0.12,0.07,1721207236214
-2.85,-9.60,5.56,-0.14,0.12,0.19,1721207236224
-0.05,2.85,11.65,0.17,0.24,0.33,1721207236234
3.61,-0.57,4.85,-0.13,-0.05,0.20,1721207236244
0.31,4.89,16.85,0.04,0.08,-0.02,1721207236254
0.41,1.79,3.11,0.48,-0.24,0.00,1721207236264
-0.34,-4.71,-5.08,-0.07,0.17,0.04,1721207236274
0.35,-3.07,15.72,-0.46,0.19,-0.08,1721207236284
-2.52,4.74,26.35,0.01,-0.20,0.11,1721207236294
-2.43,0.14,5.46,-0.10,-0.21,0.36,1721207236304
1.55,-1.33,7.91,-0.07,0.06,0.53,1721207236314
4.23,3.63,8.02,-0.01,-0.02,0.34,1721207236324
4.12,0.08,8.21,-0.21,-0.08,0.05,1721207236334
0.15,-0.13,11.75,-0.27,-0.20,-0.17,1721207236344
-2.36,0.31,14.36,0.00,-0.21,0.00,1721207236354
-0.76,-0.40,0.84,0.06,-0.13,0.41,1721207236364
1.16,1.66,10.92,-0.15,0.16,0.25,1721207236374
1.70,3.89,14.42,-0.06,-0.12,0.05,1721207236384
-0.48,-2.24,16.66,-0.23,-0.13,-0.10,1721207236394
-0.19,0.41,10.17,0.18,-0.29,0.23,1721207236404
1.41,-1.41,1.15,0.00,0.04,0.30,1721207236414
0.17,0.64,13.74,-0.06,-0.10,0.15,1721207236424
1.32,3.80,12.60,0.22,-0.15,0.03,1721207236434
1.87,-0.42,10.40,0.06,-0.08,-0.04,1721207236444
-0.39,-2.08,7.80,0.03,-0.26,-0.06,1721207236454
-0.95,-0.83,10.68,0.11,0.01,-0.06,1721207236464
-0.12,-0.11,9.51,0.11,-0.15,0.07,1721207236474
-1.19,0.92,15.98,0.12,-0.13,0.11,1721207236484
1.58,7.56,8.01,0.54,-0.17,0.17,1721207236494
2.77,-11.14,-0.99,-0.35,0.01,-0.13,1721207236504
-2.45,2.78,28.04,0.06,-0.23,-0.39,1721207236514
-0.84,3.20,3.09,0.50,-0.33,-0.00,1721207236524
1.82,0.05,4.82,-0.13,0.36,0.13,1721207236534
0.90,4.69,20.28,0.25,-0.15,0.14,1721207236544
3.67,1.87,10.11,0.04,-0.07,-0.09,1721207236554
1.66,4.02,9.64,0.15,-0.12,-0.21,1721207236564
1.86,-9.41,3.16,-0.20,0.07,-0.20,1721207236574
-2.00,6.14,22.82,0.11,-0.03,-0.23,1721207236584
-1.66,4.77,-0.66,0.55,-0.26,-0.04,1721207236594
0.80,0.32,-1.88,-0.12,0.29,0.05,1721207236604
3.72,0.87,14.22,-0.21,0.08,-0.13,1721207236614
1.71,-5.25,17.11,-0.18,-0.04,-0.22,1721207236624
-1.04,1.17,24.19,0.15,-0.03,-0.11,1721207236634
1.59,5.37,-1.50,0.44,-0.11,0.08,1721207236644
5.15,0.30,4.08,-0.45,0.38,-0.25,1721207236654
1.11,3.61,22.89,-0.07,-0.17,-0.44,1721207236664
-2.74,-5.04,4.31,-0.08,-0.03,-0.44,1721207236674
-6.06,-4.53,18.81,-0.29,0.14,-0.22,1721207236684
-3.07,1.21,13.76,0.27,-0.06,0.04,1721207236694
0.69,4.54,0.60,0.02,0.07,0.30,1721207236704
3.33,4.59,11.14,-0.27,0.20,-0.03,1721207236714
1.26,0.55,10.85,-0.14,-0.21,-0.24,1721207236724
0.59,-9.86,8.65,-0.31,0.17,-0.32,1721207236734
-0.99,1.66,13.58,-0.05,-0.09,-0.00,1721207236744
0.42,6.13,5.09,-0.08,0.09,0.01,1721207236754
1.41,1.44,12.22,-0.19,0.05,-0.17,1721207236764
0.38,-6.79,6.14,-0.14,-0.06,-0.24,1721207236774
-2.10,0.83,16.22,-0.21,0.14,-0.17,1721207236784
-0.93,9.55,8.53,0.15,-0.05,-0.08,1721207236794
2.32,-0.36,10.28,-0.34,0.31,-0.08,1721207236804
-1.40,0.17,12.24,0.04,-0.33,-0.04,1721207236814
-0.51,-3.00,3.68,-0.13,0.21,-0.14,1721207236824
0.15,0.00,12.96,-0.08,0.06,-0.15,1721207236834
1.35,-1.13,10.05,0.00,0.15,-0.33,1721207236844
-2.37,5.15,17.89,0.10,-0.00,-0.41,1721207236854
-4.73,1.74,2.32,0.35,-0.13,-0.21,1721207236864
-2.31,-1.67,5.25,-0.03,0.29,0.12,1721207236874
-0.28,-1.42,15.93,0.02,-0.02,0.20,1721207236884
1.46,2.55,14.64,0.12,0.08,-0.17,1721207236894
0.67,3.39,2.20,0.23,-0.22,-0.32,1721207236904
-1.27,-12.48,4.96,-0.26,0.17,-0.28,1721207236914
-3.63,1.34,25.04,0.08,-0.09,-0.10,1721207236924
-1.55,10.14,8.00,0.38,-0.03,-0.07,1721207236934
0.00,-0.51,8.23,-0.06,0.14,-0.23,1721207236944
-1.39,-5.12,12.52,0.16,-0.07,-0.08,1721207236954
-0.25,-3.03,5.03,0.21,-0.01,0.01,1721207236964
-0.18,10.05,6.79,0.28,0.01,-0.08,1721207236974
-0.03,2.02,11.01,0.16,-0.06,-0.24,1721207236984
-2.94,-1.45,7.25,0.25,-0.16,-0.31,1721207236994
-1.97,-2.87,9.02,-0.12,0.18,-0.16,1721207237004
-3.04,6.97,20.31,-0.01,-0.20,0.08,1721207237014
-1.29,-2.62,9.53,-0.09,-0.12,0.08,1721207237024
-0.55,-3.34,8.38,0.12,-0.07,-0.00,1721207237034
1.71,-1.43,4.88,0.11,0.01,0.00,1721207237044
1.21,8.91,8.04,0.18,0.03,-0.11,1721207237054
1.31,0.74,6.30,-0.01,-0.09,-0.24,1721207237064
-2.37,-2.44,19.50,-0.07,0.02,-0.22,1721207237074
-4.07,7.46,5.69,0.47,-0.34,0.10,1721207237084
0.75,0.45,-0.04,-0.21,0.22,0.24,1721207237094
2.29,-0.78,17.86,-0.32,-0.09,0.14,1721207237104
3.80,-3.99,16.30,-0.07,-0.10,-0.19,1721207237114
-0.78,2.45,7.03,-0.02,-0.21,-0.38,1721207237124
-4.32,-1.53,2.98,-0.19,-0.12,-0.18,1721207237134
-2.71,-9.84,19.35,-0.47,0.23,-0.02,1721207237144
-0.78,11.26,21.34,0.41,-0.14,0.18,1721207237154
2.14,1.04,-8.22,-0.01,-0.10,0.14,1721207237164
0.43,-2.15,14.88,-0.25,0.09,-0.02,1721207237174
1.03,10.26,17.98,0.15,-0.10,-0.18,1721207237184
-0.08,-2.03,1.43,-0.24,-0.16,-0.19,1721207237194
-2.86,-4.99,12.26,-0.26,-0.02,-0.07,1721207237204
-1.51,-6.08,10.01,-0.20,-0.07,-0.04,1721207237214
1.41,-1.92,19.41,-0.30,0.01,0.23,1721207237224
0.85,6.99,9.88,0.28,-0.15,0.16,1721207237234
4.16,-6.06,1.08,-0.09,0.09,-0.12,1721207237244
-1.23,4.58,20.46,-0.01,-0.17,-0.27,1721207237254
-2.54,7.11,7.66,0.37,-0.06,-0.09,1721207237264
0.52,-2.35,3.55,0.07,0.05,0.17,1721207237274
0.18,0.31,6.11,0.15,-0.07,0.19,1721207237284
2.66,-0.26,7.94,0.03,0.10,-0.16,1721207237294
1.68,5.18,13.24,0.15,-0.07,-0.20,1721207237304
-0.13,-8.97,7.09,-0.34,-0.07,-0.26,1721207237314
-3.03,-3.65,28.71,-0.13,-0.06,-0.23,1721207237324
-2.00,3.11,4.44,0.44,-0.09,0.06,1721207237334
0.04,7.66,4.79,0.07,0.25,0.04,1721207237344
1.38,4.75,2.30,0.40,-0.14,0.06,1721207237354
2.94,-11.46,10.54,-0.27,0.25,-0.31,1721207237364
-1.71,14.77,20.75,0.62,-0.33,-0.24,1721207237374
0.76,-6.50,-14.71,-0.08,-0.07,0.08,1721207237384
-1.52,-9.54,28.25,-0.68,0.42,-0.26,1721207237394
-1.13,6.08,19.18,0.65,-0.16,-0.15,1721207237404
4.02,-3.08,-9.10,-0.05,0.17,0.02,1721207237414
-0.60,-4.73,16.36,-0.27,0.03,-0.14,1721207237424
-0.85,-1.24,15.04,0.13,0.05,-0.35,1721207237434
-1.91,4.76,13.24,0.06,0.01,-0.14,1721207237444
-0.08,3.48,8.26,0.18,-0.00,0.19,1721207237454
3.26,-0.74,-1.18,0.01,0.05,0.29,1721207237464
4.81,1.54,18.71,-0.27,0.36,-0.26,1721207237474
2.56,4.81,15.32,0.17,-0.16,-0.44,1721207237484
-0.90,-0.94,-1.00,-0.09,0.11,-0.27,1721207237494
-2.01,-4.14,13.33,-0.35,0.20,-0.09,1721207237504
0.25,1.69,23.30,-0.05,0.16,0.07,1721207237514
3.06,9.25,6.78,0.29,0.03,0.11,1721207237524
3.56,-0.86,-1.90,-0.18,0.21,-0.19,1721207237534
0.06,0.01,16.14,-0.14,0.12,-0.52,1721207237544
-1.73,4.97,7.35,0.23,0.04,-0.34,1721207237554
-0.56,-1.88,2.59,-0.28,0.31,-0.00,1721207237564
-0.05,-0.65,22.25,-0.14,0.17,0.02,1721207237574
1.17,1.17,1.24,0.23,-0.08,-0.10,1721207237584
3.89,-7.09,5.03,-0.43,0.51,-0.36,1721207237594
1.61,4.49,18.38,-0.08,-0.02,-0.46,1721207237604
-2.51,4.93,12.96,0.03,0.19,-0.45,1721207237614
-4.58,3.03,8.81,0.13,0.04,-0.28,1721207237624
-2.72,-9.91,5.49,-0.29,0.26,0.00,1721207237634
-0.71,0.16,18.70,-0.06,0.23,0.04,1721207237644
2.26,0.27,6.88,0.06,0.09,-0.18,1721207237654
1.42,0.37,10.80,-0.13,0.31,-0.54,1721207237664
-2.00,-0.66,11.31,0.22,-0.01,-0.31,1721207237674
-2.93,1.36,7.76,-0.06,0.33,-0.10,1721207237684
-1.83,7.03,18.13,0.06,0.08,0.06,1721207237694
0.43,-5.46,4.22,-0.07,-0.04,-0.03,1721207237704
1.15,-2.12,11.57,0.01,0.35,-0.23,1721207237714
0.20,-2.16,4.53,0.14,-0.10,-0.16,1721207237724
-2.36,-3.45,4.11,-0.13,0.27,-0.22,1721207237734
-0.74,0.34,23.06,-0.01,0.26,-0.30,1721207237744
-1.92,12.57,15.36,0.36,-0.04,-0.17,1721207237754
-3.01,-2.43,7.97,-0.09,0.13,-0.02,1721207237764
-2.02,-6.69,9.64,0.09,0.06,0.29,1721207237774
1.24,-1.48,5.20,0.10,0.14,0.24,1721207237784
3.63,5.17,10.35,0.28,0.19,-0.18,1721207237794
0.51,5.86,4.37,0.40,-0.09,-0.43,1721207237804
-1.86,-2.85,9.36,0.02,0.35,-0.35,1721207237814
-4.92,1.10,21.75,-0.14,0.13,-0.21,1721207237824
-6.27,0.88,11.23,0.03,-0.27,0.07,1721207237834
-1.90,-6.31,3.01,0.04,0.19,0.38,1721207237844
4.68,2.63,12.76,0.24,0.36,0.25,1721207237854
4.76,7.41,6.74,0.33,-0.17,-0.06,1721207237864
1.56,0.43,1.50,0.16,0.14,-0.41,1721207237874
-4.46,-4.60,13.01,-0.22,-0.00,-0.48,1721207237884
-6.84,4.95,23.32,0.17,0.02,-0.09,1721207237894
-1.56,1.85,-3.20,0.33,-0.10,0.61,1721207237904
4.97,-1.59,3.83,-0.15,0.38,0.51,1721207237914
7.52,2.39,14.37,-0.02,0.07,-0.08,1721207237924
3.74,1.10,9.70,-0.07,-0.07,-0.61,1721207237934
-4.37,-4.59,12.11,-0.19,-0.01,-0.63,1721207237944
-8.00,-2.91,13.79,-0.12,0.10,-0.07,1721207237954
-4.67,5.89,17.29,0.04,0.14,0.48,1721207237964
1.99,8.50,2.13,0.32,-0.04,0.60,1721207237974
5.48,-1.90,-0.32,-0.16,0.18,0.14,1721207237984
2.19,-3.36,17.92,-0.38,0.01,-0.31,1721207237994
-1.03,5.10,17.30,0.13,-0.04,-0.38,1721207238004
-3.31,-1.00,-0.76,-0.15,-0.15,-0.10,1721207238014
-4.60,-6.36,15.93,-0.37,0.18,0.23,1721207238024
0.58,6.63,19.23,0.10,0.04,0.36,1721207238034
3.93,3.79,6.72,-0.02,-0.00,0.16,1721207238044
1.89,-4.10,8.81,-0.20,-0.04,-0.23,1721207238054
-0.93,-5.53,10.39,-0.09,-0.05,-0.21,1721207238064
-3.04,0.42,11.37,-0.03,0.01,0.03,1721207238074
-1.10,8.93,7.66,0.36,-0.01,0.26,1721207238084
2.81,-1.59,-0.40,0.06,0.09,0.13,1721207238094
2.42,-4.87,16.29,-0.23,0.09,-0.17,1721207238104
-0.13,-0.24,13.05,-0.00,-0.04,-0.29,1721207238114
-3.73,-2.30,11.47,-0.26,0.03,-0.12,1721207238124
-1.68,-0.83,14.20,0.04,0.00,0.24,1721207238134
3.49,-4.92,6.64,0.00,0.16,0.26,1721207238144
3.46,4.81,10.51,0.13,0.11,-0.06,1721207238154
3.21,1.99,10.45,-0.04,0.17,-0.38,1721207238164
-2.29,0.05,17.98,-0.08,-0.16,-0.31,1721207238174
-3.94,2.47,8.82,0.19,0.07,-0.04,1721207238184
0.37,-3.28,3.72,-0.08,0.18,0.17,1721207238199
1.64,-4.90,8.34,-0.17,0.21,0.10,1721207238203
1.68,-1.42,18.51,-0.11,0.09,-0.22,1721207238213
0.77,3.93,8.82,0.19,-0.01,-0.21,1721207238223
0.45,-2.65,4.09,-0.09,0.25,-0.15,1721207238233
-1.90,3.98,20.82,0.14,0.05,-0.14,1721207238243
-1.73,6.06,4.05,0.30,-0.02,-0.08,1721207238253
0.66,0.26,8.71,-0.11,0.36,0.03,1721207238263
0.48,5.77,15.10,0.20,0.01,0.02,1721207238273
0.56,-4.38,2.23,-0.08,0.08,-0.12,1721207238283
-0.37,-1.79,10.26,-0.09,0.23,-0.24,1721207238293
-0.92,-3.04,13.39,-0.06,0.09,-0.16,1721207238303
-2.15,3.12,12.40,0.10,0.04,0.02,1721207238313
-0.84,-0.72,12.16,-0.14,0.20,-0.03,1721207238323
-0.53,7.40,14.55,0.27,-0.01,0.01,1721207238333
1.40,-2.54,1.04,-0.17,0.21,0.03,1721207238343
0.18,4.55,22.44,-0.06,0.15,-0.03,1721207238353
1.43,5.46,-0.06,0.20,-0.03,-0.10,1721207238363
2.31,-5.52,6.22,-0.35,0.45,-0.25,1721207238373
-0.47,-1.74,13.26,-0.02,-0.06,-0.28,1721207238383
-1.75,0.10,9.70,-0.24,0.26,-0.15,1721207238393
-1.79,0.76,22.97,-0.28,0.17,-0.10,1721207238403
-1.59,4.71,21.79,0.15,0.04,0.00,1721207238413
0.12,4.59,-4.05,0.09,0.03,0.16,1721207238423
1.80,-3.10,5.05,-0.28,0.32,0.08,1721207238433
3.94,3.97,16.90,0.17,0.20,-0.18,1721207238443
1.14,2.29,2.47,0.11,0.02,-0.39,1721207238453
-3.14,-3.59,7.42,-0.11,0.21,-0.34,1721207238463
-3.20,-4.57,12.95,-0.09,0.13,0.07,1721207238473
1.29,0.58,15.70,-0.17,0.30,0.18,1721207238483
3.80,4.09,19.61,-0.03,0.14,-0.02,1721207238493
0.70,0.19,3.75,0.21,-0.09,-0.29,1721207238503
-2.51,-3.79,0.96,0.08,0.23,-0.36,1721207238513
-3.31,1.63,10.50,0.08,0.20,-0.08,1721207238523
-1.14,9.81,15.63,0.14,0.25,0.07,1721207238533
0.38,-0.43,7.53,0.07,0.05,-0.02,1721207238543
0.91,-9.73,5.64,-0.18,0.17,-0.03,1721207238553
0.27,-1.18,10.73,-0.08,0.25,-0.02,1721207238563
1.55,0.78,14.68,-0.00,0.21,-0.19,1721207238573
-1.54,6.77,13.13,0.27,0.04,-0.36,1721207238583
-4.94,0.56,3.91,0.11,0.03,-0.21,1721207238593
-4.71,-3.26,12.56,-0.12,0.28,0.20,1721207238603
1.01,-0.42,12.75,0.12,0.22,0.38,1721207238613
3.80,1.72,5.60,-0.02,0.13,0.07,1721207238623
1.64,2.82,13.99,0.11,0.19,-0.35,1721207238633
-1.49,2.77,2.06,0.40,-0.12,-0.26,1721207238643
-3.34,-7.01,2.87,-0.16,0.23,-0.02,1721207238653
-1.78,-5.91,20.32,-0.37,0.16,0.14,1721207238663
-1.13,4.89,27.51,-0.15,0.15,-0.11,1721207238673
-3.30,8.00,0.82,0.56,-0.35,-0.06,1721207238683
-1.23,-5.90,-8.86,0.09,0.38,0.21,1721207238693
1.01,-1.94,20.21,-0.05,0.23,0.33,1721207238703
0.67,3.35,15.73,0.16,-0.41,0.30,1721207238713
-0.72,5.62,2.87,0.09,0.21,-0.23,1721207238723
-1.24,-6.58,13.56,-0.20,0.11,-0.23,1721207238733
-4.89,3.81,11.73,0.19,-0.12,0.10,1721207238743
-0.34,-1.83,5.90,-0.11,0.17,0.33,1721207238753
0.76,-0.27,20.10,-0.11,0.10,0.23,1721207238763
1.55,6.70,7.08,0.43,-0.14,0.06,1721207238773
2.14,-2.57,5.46,-0.14,0.25,-0.03,1721207238783
-2.15,5.69,17.76,0.14,-0.07,-0.09,1721207238793
-2.41,3.22,1.41,0.22,-0.11,-0.02,1721207238803
-3.51,-1.30,6.34,-0.11,0.14,0.13,1721207238813
-0.34,-2.82,12.98,-0.01,-0.03,0.36,1721207238823
0.84,3.68,12.70,0.06,0.01,0.37,1721207238833
2.28,-0.78,5.30,-0.12,-0.06,0.03,1721207238843
-0.57,-3.67,16.57,-0.35,0.02,-0.16,1721207238853
-4.13,2.70,15.61,0.05,-0.22,0.01,1721207238863
-2.64,-1.61,6.53,-0.15,0.11,0.27,1721207238873
-0.31,3.24,10.05,0.00,-0.09,0.32,1721207238883
4.67,-2.75,5.00,-0.03,-0.08,0.41,1721207238893
1.89,0.00,6.26,0.01,-0.09,0.03,1721207238903
-0.42,-0.73,10.34,0.10,-0.08,-0.13,1721207238913
-2.10,3.26,14.27,0.09,-0.04,0.09,1721207238923
-2.22,4.18,8.14,-0.04,-0.15,0.20,1721207238933
0.02,-4.97,12.51,-0.41,0.00,0.15,1721207238943
0.04,0.11,17.41,-0.13,-0.13,0.20,1721207238953
0.43,-2.49,6.45,-0.21,-0.19,0.28,1721207238963
0.89,-2.97,14.49,-0.13,0.02,0.18,1721207238973
2.98,2.61,7.24,0.20,-0.17,0.16,1721207238983
1.52,1.22,7.49,-0.09,-0.11,0.00,1721207238993
-0.19,7.01,14.72,0.15,-0.16,0.12,1721207239003
0.71,-1.40,5.48,0.07,-0.15,0.05,1721207239013
-0.15,-4.58,6.66,-0.01,-0.07,0.19,1721207239023
0.03,2.06,12.03,0.16,-0.06,0.13,1721207239033
1.15,3.33,9.30,0.10,-0.13,0.06,1721207239043
0.58,0.07,11.18,0.09,-0.08,0.05,1721207239053
2.24,-3.39,5.29,0.08,-0.04,-0.04,1721207239063
-0.28,-0.59,21.77,-0.18,-0.01,-0.18,1721207239073
-2.01,8.80,19.46,0.31,-0.25,0.14,1721207239083
1.11,-7.12,-3.29,-0.01,-0.00,0.40,1721207239093
3.17,-1.74,17.60,0.10,0.22,0.13,1721207239103
3.64,10.67,4.45,0.66,-0.32,0.01,1721207239113
4.92,-3.56,6.57,-0.12,0.34,-0.34,1721207239123
-1.48,7.85,23.59,0.47,-0.36,-0.32,1721207239133
-2.49,-2.95,-3.62,0.20,-0.08,-0.05,1721207239143
-1.89,-1.03,18.44,-0.18,0.21,-0.01,1721207239153
1.71,4.01,5.41,0.44,-0.16,0.11,1721207239163
3.15,-5.80,0.14,-0.08,0.21,-0.10,1721207239173
0.70,0.12,18.21,0.22,0.01,-0.25,1721207239183
-1.38,4.74,1.95,0.51,-0.10,-0.29,1721207239193
-2.02,2.14,8.60,-0.16,0.24,-0.23,1721207239203
-2.75,2.95,22.97,-0.09,-0.07,-0.11,1721207239213
-1.29,-1.33,9.79,0.03,-0.00,0.08,1721207239223
1.78,2.87,-0.03,0.01,0.07,0.09,1721207239233
4.25,3.69,4.94,-0.27,0.23,-0.16,1721207239243
1.73,-6.16,13.58,-0.42,0.05,-0.59,1721207239253
-4.25,-4.88,14.38,-0.11,-0.11,-0.48,1721207239263
-5.07,-1.82,9.24,-0.25,0.10,-0.04,1721207239273
-1.58,6.96,14.30,-0.15,0.06,0.25,1721207239283
3.99,4.66,9.53,-0.00,0.08,0.17,1721207239293
4.94,-0.53,3.20,-0.09,0.08,-0.16,1721207239303
2.32,-4.44,10.24,-0.36,0.15,-0.49,1721207239313
-1.16,3.13,16.50,-0.12,-0.04,-0.50,1721207239323
-3.70,3.86,4.33,-0.05,0.03,-0.22,1721207239333
-3.90,-4.26,4.51,-0.31,0.20,-0.04,1721207239343
-0.27,-6.50,19.73,-0.37,0.22,0.12,1721207239353
2.36,4.69,12.11,0.11,0.03,0.14,1721207239363
3.90,-5.20,5.13,-0.37,0.19,-0.08,1721207239373
-1.16,-1.36,22.64,-0.20,0.16,-0.55,1721207239383
-0.77,16.16,12.57,0.53,0.01,-0.33,1721207239393
-3.74,-1.64,-3.52,0.11,-0.11,-0.02,1721207239403
-4.36,-6.88,16.43,-0.30,0.37,0.08,1721207239413
1.82,3.10,19.92,0.06,0.17,0.15,1721207239423
1.07,5.58,5.11,-0.08,-0.13,-0.13,1721207239433
-2.56,-6.52,5.91,-0.15,-0.03,-0.27,1721207239443
-3.57,-6.45,11.61,-0.10,0.10,-0.09,1721207239453
-1.70,-1.32,16.65,-0.01,0.07,0.16,1721207239463
-0.70,1.68,14.08,0.09,-0.02,0.09,1721207239473
-0.60,7.76,9.84,0.21,-0.05,-0.05,1721207239483
-0.04,2.33,8.91,0.11,0.06,-0.05,1721207239493
-1.95,3.59,11.40,0.24,-0.10,-0.01,1721207239503
-1.13,-2.36,1.77,0.12,-0.16,0.14,1721207239513
-0.45,-0.22,11.84,-0.09,0.23,0.06,1721207239523
0.36,0.29,15.69,0.04,-0.30,-0.08,1721207239533
-0.72,-5.74,14.12,-0.15,0.07,-0.12,1721207239543
-2.56,2.57,10.85,0.20,-0.24,0.05,1721207239553
-0.87,-4.99,9.18,-0.25,0.07,0.08,1721207239563
