AccX,AccY,AccZ,GyrX,GyrY,GyrZ,Time
-1.89,0.68,11.53,-0.03,-0.27,0.24,1721206656137
-1.94,2.29,11.36,0.03,-0.35,0.18,1721206656142
-2.20,1.71,9.63,-0.05,-0.38,0.14,1721206656152
-2.69,-0.11,11.01,-0.05,-0.42,0.26,1721206656162
-1.53,3.61,11.33,0.10,-0.41,0.28,1721206656172
0.14,5.82,5.80,-0.08,-0.41,0.11,1721206656182
-1.74,1.73,9.17,-0.23,-0.48,-0.00,1721206656192
-3.06,-3.14,14.63,-0.09,-0.43,0.08,1721206656202
-4.06,2.42,8.49,0.11,-0.59,0.27,1721206656212
-1.54,2.36,5.15,-0.15,-0.41,0.45,1721206656222
1.92,-2.52,12.05,-0.13,-0.46,0.52,1721206656232
3.87,-3.65,8.73,-0.04,-0.56,0.42,1721206656242
4.22,2.64,11.21,0.09,-0.37,0.22,1721206656252
5.90,0.75,7.12,-0.04,-0.34,0.09,1721206656262
2.80,0.22,7.93,-0.00,-0.51,0.06,1721206656272
2.47,-2.46,10.64,-0.05,-0.25,0.06,1721206656282
3.24,0.67,13.98,0.04,-0.38,0.17,1721206656292
5.21,0.89,13.23,-0.00,-0.22,0.17,1721206656302
5.42,-1.74,8.86,-0.03,-0.38,-0.02,1721206656312
2.62,-0.21,7.01,-0.02,-0.34,-0.22,1721206656322
2.14,0.75,10.57,-0.05,-0.08,-0.19,1721206656332
1.42,-3.05,8.22,-0.09,-0.25,0.09,1721206656342
1.51,1.58,12.04,0.04,-0.12,0.02,1721206656352
4.87,-0.40,11.73,-0.01,-0.04,-0.24,1721206656362
2.33,-1.62,8.71,-0.09,-0.30,-0.24,1721206656372
0.86,-0.60,13.65,-0.01,-0.03,-0.14,1721206656382
3.63,-2.84,9.53,0.00,0.04,-0.14,1721206656392
2.04,-1.74,8.83,-0.09,-0.20,-0.21,1721206656402
1.17,1.93,13.78,0.06,0.04,-0.24,1721206656412
4.86,-0.68,12.95,0.04,0.19,-0.28,1721206656422
3.39,-1.54,6.77,-0.08,-0.16,-0.37,1721206656432
0.53,0.30,8.96,-0.07,0.01,-0.49,1721206656442
1.25,-0.06,13.07,0.13,0.25,-0.46,1721206656452
1.77,-2.68,6.03,-0.05,0.08,-0.44,1721206656462
-0.63,-0.90,11.55,-0.03,-0.08,-0.48,1721206656472
-1.39,0.43,12.78,0.13,0.21,-0.56,1721206656482
-0.21,0.50,12.20,0.01,0.22,-0.51,1721206656492
-1.39,0.85,8.56,-0.00,-0.06,-0.41,1721206656502
-1.78,-1.43,8.41,-0.15,0.10,-0.49,1721206656512
-2.31,-0.13,12.63,0.04,0.06,-0.46,1721206656522
-0.83,-2.91,8.33,-0.07,0.10,-0.30,1721206656532
0.22,2.02,16.01,0.15,0.10,-0.24,1721206656542
3.16,2.16,8.54,0.12,0.19,-0.50,1721206656552
-0.21,2.28,7.63,-0.03,-0.00,-0.76,1721206656562
-1.64,-1.57,7.74,0.06,0.06,-0.59,1721206656572
-1.40,0.89,10.26,0.01,0.22,-0.28,1721206656582
0.49,1.63,14.81,-0.01,0.19,-0.30,1721206656592
1.53,-2.83,9.37,0.03,-0.06,-0.44,1721206656602
-1.06,-1.10,7.40,0.05,-0.17,-0.61,1721206656612
-1.69,0.27,16.17,0.17,0.29,-0.71,1721206656622
0.06,0.22,9.58,0.22,0.20,-0.44,1721206656632
0.09,-1.01,9.41,-0.09,0.10,-0.17,1721206656642
0.55,-0.73,13.62,0.14,0.00,-0.29,1721206656652
1.27,1.79,-2.40,0.02,-0.06,-0.46,1721206656662
1.12,-2.44,11.68,-0.33,0.42,-0.60,1721206656672
-1.42,-4.79,19.11,0.17,0.01,-0.51,1721206656682
0.04,0.08,11.87,0.22,0.10,-0.23,1721206656692
3.12,3.02,10.97,0.17,0.36,-0.29,1721206656702
4.14,0.93,8.85,-0.01,0.15,-0.67,1721206656712
-0.54,-2.52,12.91,-0.01,-0.05,-0.76,1721206656722
-3.64,-1.74,8.01,0.10,0.08,-0.47,1721206656732
-2.71,0.75,6.57,-0.11,0.25,-0.37,1721206656742
-1.68,-1.26,11.48,-0.06,0.13,-0.52,1721206656752
-2.74,0.51,11.17,0.09,0.14,-0.54,1721206656762
-2.67,1.04,8.58,0.06,0.10,-0.34,1721206656772
-1.55,2.11,7.16,0.05,0.09,-0.29,1721206656782
0.11,-1.04,11.66,-0.18,0.24,-0.48,1721206656792
-1.13,-4.41,14.99,-0.07,-0.02,-0.46,1721206656802
-2.24,-0.02,14.98,0.06,0.13,-0.31,1721206656812
-0.48,1.08,4.11,-0.00,0.02,-0.28,1721206656822
-1.00,0.93,10.45,-0.16,0.13,-0.46,1721206656832
-1.33,-2.21,17.53,0.10,0.11,-0.49,1721206656842
-3.10,-2.21,2.07,-0.11,-0.14,-0.25,1721206656852
-5.55,3.43,9.76,-0.22,-0.14,-0.14,1721206656862
-3.21,-0.48,6.61,-0.12,-0.05,-0.14,1721206656872
-1.71,-1.08,14.40,-0.12,0.06,-0.18,1721206656882
-0.00,-0.19,13.04,0.11,-0.05,-0.11,1721206656892
1.26,-0.79,7.51,-0.09,-0.02,-0.06,1721206656902
-0.32,-1.20,9.93,-0.07,-0.16,-0.17,1721206656912
-2.67,-2.32,2.22,-0.19,-0.26,-0.19,1721206656922
-4.03,-0.25,13.04,-0.17,-0.13,-0.07,1721206656932
-0.98,-0.44,13.66,0.09,-0.07,0.11,1721206656942
2.08,0.22,18.50,0.08,0.07,0.09,1721206656952
3.11,1.75,5.72,0.17,-0.21,0.02,1721206656962
2.50,0.42,5.92,-0.27,0.01,-0.16,1721206656972
-0.48,1.35,9.04,0.05,-0.27,-0.26,1721206656982
-2.61,-3.19,-4.12,-0.45,-0.31,-0.15,1721206656992
-4.38,-1.23,18.32,-0.14,-0.24,0.14,1721206657002
-0.82,-1.24,9.06,0.16,-0.12,0.32,1721206657012
1.71,2.55,18.22,-0.02,0.11,0.27,1721206657022
4.19,2.21,7.01,0.07,-0.27,0.20,1721206657032
3.96,1.36,10.19,-0.29,0.03,-0.05,1721206657042
2.16,3.51,12.85,0.13,-0.27,-0.15,1721206657052
3.07,-1.02,5.65,-0.25,0.03,0.01,1721206657062
2.26,3.72,11.68,-0.02,-0.21,0.30,1721206657072
5.16,2.01,5.46,-0.15,0.12,0.06,1721206657082
3.64,5.09,15.35,0.05,-0.02,-0.27,1721206657092
2.14,1.53,8.29,0.01,-0.02,-0.23,1721206657102
0.53,2.38,13.86,-0.05,0.07,-0.02,1721206657112
0.83,1.39,3.42,-0.12,-0.09,0.08,1721206657122
1.88,2.52,20.99,-0.10,0.30,0.03,1721206657132
3.65,3.23,7.07,0.15,-0.11,0.04,1721206657142
3.34,3.64,17.48,-0.20,0.40,-0.15,1721206657152
3.01,4.61,13.33,0.34,-0.09,-0.13,1721206657162
5.66,0.50,5.93,-0.27,0.47,-0.01,1721206657172
4.02,5.61,18.39,0.31,0.09,-0.02,1721206657182
6.23,2.77,-2.49,0.02,0.33,-0.41,1721206657192
0.38,7.29,14.60,-0.11,0.24,-0.70,1721206657202
-2.83,0.38,10.92,0.03,0.23,-0.51,1721206657212
-4.89,2.36,10.15,-0.09,0.26,0.14,1721206657222
1.74,2.11,7.78,-0.02,0.37,0.47,1721206657232
9.26,1.27,10.69,-0.06,0.48,-0.04,1721206657242
7.78,0.81,12.56,0.08,0.18,-0.77,1721206657252
-0.06,-1.27,14.75,0.06,0.28,-1.02,1721206657262
-5.99,-0.39,11.32,0.23,0.27,-0.50,1721206657272
-4.16,0.49,4.89,-0.12,0.39,-0.01,1721206657282
-0.08,3.77,12.19,0.12,0.28,0.01,1721206657292
3.79,0.87,1.19,-0.11,0.39,-0.39,1721206657302
-0.02,-3.67,13.76,-0.22,0.30,-0.68,1721206657312
-4.27,-3.48,10.66,0.16,0.12,-0.51,1721206657322
-4.34,-3.77,12.24,-0.19,0.43,-0.21,1721206657332
-0.96,0.95,16.88,0.31,0.24,-0.03,1721206657342
4.24,-1.15,4.46,0.11,0.44,-0.22,1721206657352
2.82,1.70,10.97,0.15,0.19,-0.49,1721206657362
1.95,-5.52,1.79,-0.02,0.32,-0.55,1721206657372
-1.26,-1.87,13.52,-0.06,0.41,-0.61,1721206657382
-3.53,-2.16,8.86,0.17,0.26,-0.59,1721206657392
-5.68,2.06,11.79,0.03,0.30,-0.45,1721206657402
-5.03,-1.52,10.24,-0.01,0.22,-0.10,1721206657412
-2.23,0.06,14.82,0.07,0.35,0.01,1721206657422
1.16,-2.72,8.33,0.03,0.26,-0.17,1721206657432
-1.00,-1.84,9.98,-0.06,0.15,-0.40,1721206657442
-3.89,-2.01,9.76,0.11,0.15,-0.31,1721206657452
-2.73,-3.47,7.89,0.00,0.28,-0.07,1721206657462
-1.70,1.26,14.56,0.20,0.20,0.04,1721206657472
1.89,0.16,10.73,0.15,0.31,-0.13,1721206657482
1.03,0.14,8.77,0.13,0.04,-0.26,1721206657492
-0.97,-1.31,9.43,-0.04,0.25,-0.40,1721206657502
-3.34,-1.68,6.96,0.13,0.02,-0.32,1721206657512
-4.16,-0.86,6.85,-0.05,0.23,-0.14,1721206657522
-2.69,-1.54,10.38,0.03,0.18,0.05,1721206657532
-1.37,-3.87,10.01,-0.08,0.09,0.08,1721206657542
-2.62,4.30,17.08,0.35,0.11,-0.12,1721206657552
1.85,-0.86,2.42,0.04,0.20,-0.14,1721206657562
0.85,-4.19,17.33,-0.10,0.13,0.10,1721206657572
0.96,-6.79,4.74,0.03,-0.02,0.14,1721206657582
1.33,-1.02,15.29,0.02,0.28,-0.16,1721206657592
2.29,-1.27,10.88,0.23,0.06,-0.29,1721206657602
-0.25,3.02,12.80,0.07,0.27,-0.22,1721206657612
0.32,1.60,7.91,0.03,0.18,-0.08,1721206657622
1.78,-3.01,12.21,-0.12,0.37,-0.20,1721206657632
-1.89,1.74,6.42,0.22,-0.01,-0.34,1721206657642
-2.49,-1.42,9.73,-0.11,0.54,-0.27,1721206657652
-3.31,-2.28,20.02,0.10,0.19,-0.00,1721206657662
-1.89,-4.06,11.58,0.04,0.06,0.05,1721206657672
-2.49,3.24,9.05,0.16,0.01,0.03,1721206657682
1.99,-0.65,5.34,-0.09,0.42,0.01,1721206657692
1.58,1.22,10.43,0.02,0.04,-0.08,1721206657702
-0.34,-0.62,4.39,-0.14,0.04,-0.43,1721206657712
-4.26,0.56,15.46,-0.02,0.05,-0.43,1721206657722
-3.60,-4.60,9.13,-0.05,0.14,-0.00,1721206657732
-1.89,-0.35,13.57,-0.01,0.16,0.09,1721206657742
-0.71,1.60,7.24,0.10,-0.00,-0.25,1721206657752
-2.99,-1.90,6.97,-0.22,0.06,-0.49,1721206657762
-6.76,-3.85,17.07,0.11,-0.09,-0.23,1721206657772
-7.46,-0.21,8.73,0.11,-0.07,0.05,1721206657782
-3.95,3.53,16.53,0.07,0.11,0.15,1721206657792
-0.46,3.09,3.71,0.03,-0.20,0.07,1721206657802
-0.79,0.82,8.03,-0.30,0.01,-0.19,1721206657812
-3.45,1.17,15.91,0.12,-0.17,-0.37,1721206657822
-4.31,0.63,6.00,-0.08,-0.14,-0.17,1721206657832
-3.93,1.69,12.81,-0.09,-0.20,0.21,1721206657842
0.97,0.78,9.23,0.01,-0.13,0.23,1721206657852
2.94,4.26,11.52,0.02,-0.08,-0.18,1721206657862
0.71,3.26,6.09,-0.22,-0.26,-0.43,1721206657872
-3.99,4.33,16.86,0.01,-0.25,-0.29,1721206657882
-3.40,-0.47,4.16,-0.08,-0.19,-0.10,1721206657892
-2.92,1.02,16.41,-0.05,-0.09,-0.03,1721206657902
-1.00,1.91,3.10,-0.03,-0.35,0.05,1721206657912
-0.88,4.62,10.94,-0.20,-0.08,-0.03,1721206657922
0.43,0.83,10.42,-0.04,-0.25,-0.04,1721206657932
-0.29,1.58,13.29,-0.06,-0.18,-0.01,1721206657942
0.72,0.31,8.62,-0.05,-0.21,-0.02,1721206657952
0.96,1.23,15.17,0.06,-0.10,-0.08,1721206657962
2.03,-1.66,0.18,-0.09,-0.30,0.02,1721206657972
0.95,1.05,16.57,-0.01,-0.04,0.01,1721206657982
3.29,-2.66,10.22,0.08,-0.23,-0.10,1721206657992
-0.48,5.51,15.34,0.17,-0.27,-0.21,1721206658002
-0.41,-0.60,2.45,-0.05,-0.15,-0.12,1721206658012
-2.40,1.06,14.01,0.04,0.03,0.01,1721206658022
0.56,-3.32,1.77,0.05,-0.18,0.07,1721206658032
-1.32,1.13,14.12,0.03,-0.10,0.06,1721206658042
0.57,-1.77,12.48,0.08,-0.12,0.14,1721206658052
1.28,5.13,15.45,0.18,-0.06,0.14,1721206658062
3.10,1.31,0.47,-0.09,-0.21,0.14,1721206658072
1.41,3.00,12.48,-0.10,0.12,0.00,1721206658082
4.71,-5.59,1.00,-0.07,-0.08,0.01,1721206658092
1.94,0.33,14.99,-0.07,0.08,-0.09,1721206658102
2.65,-1.48,7.50,0.07,-0.09,-0.15,1721206658112
0.63,1.15,26.46,0.03,0.19,-0.20,1721206658122
1.45,-1.65,6.27,0.30,-0.23,-0.05,1721206658132
-0.17,-0.82,4.56,-0.11,-0.17,-0.19,1721206658147
1.56,-2.38,6.05,-0.07,-0.08,-0.25,1721206658151
-1.64,-6.33,13.59,-0.03,0.04,-0.25,1721206658161
-3.13,2.07,18.28,0.50,-0.02,-0.12,1721206658171
-1.39,4.96,-0.50,0.02,0.06,-0.04,1721206658181
-0.84,2.97,12.70,-0.27,0.18,-0.15,1721206658191
1.05,-9.47,14.73,-0.11,0.09,-0.28,1721206658201
-2.93,0.17,13.26,0.48,-0.16,-0.20,1721206658211
-1.47,3.93,-3.04,0.13,0.13,-0.08,1721206658221
-0.15,2.82,8.32,-0.19,0.21,-0.08,1721206658231
1.44,-5.10,15.10,-0.05,0.03,-0.23,1721206658241
-0.36,-2.55,14.86,0.23,-0.03,-0.30,1721206658251
-1.77,3.12,8.91,0.16,0.04,-0.31,1721206658261
-1.67,3.34,7.14,0.01,0.10,-0.28,1721206658271
-1.65,-5.10,9.29,-0.18,0.01,-0.13,1721206658281
-2.83,-0.47,4.82,0.15,-0.20,0.01,1721206658291
0.77,-0.28,5.09,-0.15,0.26,-0.18,1721206658301
0.43,-0.52,17.74,-0.01,0.04,-0.41,1721206658311
-2.17,-5.80,23.35,0.18,0.02,-0.35,1721206658321
-3.52,-0.79,6.29,0.41,-0.12,0.02,1721206658331
2.08,2.71,8.74,-0.05,0.37,-0.02,1721206658341
2.25,-1.30,1.88,-0.25,-0.26,-0.21,1721206658351
-2.47,-3.87,16.23,-0.30,0.01,-0.42,1721206658361
-3.11,-7.58,16.59,0.18,-0.11,-0.31,1721206658371
-4.47,2.71,8.50,0.38,-0.14,-0.09,1721206658381
-1.67,1.64,1.93,-0.10,0.06,0.10,1721206658391
0.42,1.45,3.13,-0.06,-0.15,0.24,1721206658401
4.71,-5.73,14.13,-0.21,0.41,-0.05,1721206658411
0.51,-7.72,18.51,0.05,-0.28,-0.20,1721206658421
-3.60,-0.30,13.43,0.19,-0.29,-0.00,1721206658431
-0.07,2.84,2.77,0.01,0.03,0.34,1721206658441
4.63,7.33,6.09,-0.04,0.17,0.18,1721206658451
7.87,-7.70,5.09,-0.52,0.19,-0.22,1721206658461
-1.00,-9.74,23.50,-0.04,-0.40,-0.29,1721206658471
-4.39,-4.44,18.36,0.30,-0.06,-0.07,1721206658481
-3.31,7.19,6.79,0.08,-0.01,0.34,1721206658491
-0.07,5.29,6.67,-0.28,0.09,0.50,1721206658501
2.70,-1.98,7.48,-0.33,0.02,0.32,1721206658511
1.54,-5.20,8.73,-0.24,-0.13,0.05,1721206658521
-1.11,0.35,16.18,0.05,0.02,-0.07,1721206658531
-2.14,1.56,2.82,-0.07,-0.13,0.23,1721206658541
-2.21,5.94,10.75,-0.17,-0.01,0.56,1721206658551
3.27,-0.59,8.34,-0.35,0.05,0.51,1721206658561
2.41,0.91,15.28,-0.17,-0.19,0.28,1721206658571
1.50,4.58,10.20,-0.13,-0.06,0.16,1721206658581
0.81,2.71,6.68,-0.33,-0.01,0.26,1721206658591
0.80,3.60,10.06,-0.29,-0.01,0.20,1721206658601
2.01,3.32,11.83,-0.22,0.02,0.11,1721206658611
1.89,4.03,13.61,-0.21,-0.03,0.11,1721206658621
2.19,5.39,12.94,-0.12,-0.01,0.15,1721206658631
3.48,1.09,8.61,-0.17,0.08,0.09,1721206658641
3.47,4.86,12.36,-0.09,0.11,-0.20,1721206658651
2.39,2.73,5.25,0.10,-0.08,-0.35,1721206658661
0.15,2.97,10.43,-0.00,0.11,-0.39,1721206658671
-1.07,4.79,11.63,0.24,-0.03,-0.28,1721206658681
0.13,-0.33,8.65,0.06,0.07,-0.10,1721206658691
0.99,3.31,15.28,0.06,0.13,-0.16,1721206658701
1.81,-0.08,7.08,0.13,-0.06,-0.32,1721206658711
1.35,-2.17,10.80,-0.11,0.26,-0.52,1721206658721
-1.13,-2.26,8.71,0.13,-0.10,-0.45,1721206658731
-2.01,-0.79,7.52,-0.09,0.25,-0.45,1721206658741
-1.11,0.39,12.92,0.06,-0.00,-0.30,1721206658751
-0.38,-3.60,3.37,0.11,0.05,-0.17,1721206658761
2.09,-3.86,8.24,-0.14,0.37,-0.35,1721206658771
0.98,-0.77,13.33,-0.02,-0.04,-0.50,1721206658781
0.20,0.97,12.60,-0.05,0.22,-0.48,1721206658791
-0.87,-0.75,12.21,-0.04,0.11,-0.35,1721206658801
0.12,-2.28,11.51,-0.26,0.30,-0.32,1721206658811
0.69,0.17,12.59,-0.11,0.13,-0.31,1721206658821
0.66,-0.90,6.17,-0.08,0.12,-0.37,1721206658831
-0.58,0.98,10.11,-0.14,0.28,-0.54,1721206658841
-2.18,0.88,10.06,-0.09,0.08,-0.53,1721206658851
-2.60,0.42,9.94,-0.17,0.26,-0.35,1721206658861
-1.49,-0.39,11.40,-0.07,0.20,-0.17,1721206658871
-0.47,-1.03,7.98,-0.03,0.23,-0.12,1721206658881
0.18,0.46,13.37,-0.09,0.31,-0.26,1721206658891
-0.82,5.83,13.72,0.12,0.11,-0.38,1721206658901
-0.20,-3.11,7.21,-0.05,0.20,-0.37,1721206658911
-1.07,-0.19,14.07,-0.01,0.33,-0.36,1721206658921
0.56,2.60,11.55,0.26,0.20,-0.31,1721206658931
-0.52,4.16,10.04,0.18,0.28,-0.36,1721206658941
-2.98,2.71,8.08,0.25,0.04,-0.36,1721206658951
-2.76,-1.81,6.52,0.09,0.28,-0.36,1721206658961
-3.01,-1.47,11.64,0.02,0.23,-0.29,1721206658971
-3.04,1.56,13.63,0.17,0.21,-0.21,1721206658981
-2.31,-0.48,9.50,0.10,0.13,-0.18,1721206658991
-1.63,-0.11,11.53,0.11,0.21,-0.17,1721206659001
-0.96,-1.26,9.37,0.12,0.10,-0.12,1721206659011
-1.15,1.69,12.98,0.03,0.18,-0.14,1721206659021
-1.66,2.61,8.90,0.26,-0.00,-0.16,1721206659031
-1.61,-3.61,6.89,-0.02,0.18,-0.16,1721206659041
-3.17,-1.52,9.14,0.13,-0.01,-0.03,1721206659051
-0.79,-2.84,7.97,0.01,0.22,0.02,1721206659061
-1.45,2.69,13.91,0.07,0.03,-0.05,1721206659071
-0.38,0.02,8.88,0.14,0.07,-0.04,1721206659081
-1.51,-1.34,8.83,0.01,0.06,0.04,1721206659091
-1.30,0.18,11.90,0.01,0.09,0.10,1721206659101
-0.92,0.28,9.09,0.02,-0.10,0.20,1721206659111
0.59,-1.66,9.73,-0.02,0.11,0.15,1721206659121
0.23,-1.25,7.64,0.13,-0.16,0.12,1721206659131
0.56,-2.63,9.43,-0.05,0.19,0.08,1721206659141
-0.10,2.58,14.07,0.13,-0.06,0.09,1721206659151
-0.03,1.57,6.71,0.01,-0.01,0.08,1721206659161
-0.80,-0.09,11.71,-0.09,-0.02,0.15,1721206659171
-0.09,-1.65,13.99,-0.05,0.04,0.17,1721206659181
-1.04,1.81,11.10,0.02,-0.14,0.16,1721206659191
-1.64,3.00,7.50,-0.08,-0.10,0.14,1721206659201
-2.56,0.96,5.24,-0.16,-0.13,0.23,1721206659211
-1.94,-2.58,7.59,-0.27,-0.02,0.33,1721206659221
0.52,-1.73,14.45,-0.19,0.00,0.38,1721206659231
1.37,1.04,11.94,-0.03,-0.16,0.35,1721206659241
1.16,1.14,9.18,-0.17,-0.08,0.19,1721206659251
0.47,2.66,14.47,-0.12,-0.12,0.25,1721206659261
1.40,-0.78,9.04,-0.03,-0.15,0.35,1721206659271
2.71,2.37,12.23,-0.06,0.03,0.24,1721206659281
2.78,1.88,7.95,0.01,-0.20,0.16,1721206659291
0.55,-0.70,8.96,-0.18,-0.03,0.00,1721206659301
-0.05,0.44,14.87,-0.04,-0.10,-0.02,1721206659311
-1.50,-1.19,6.60,0.03,-0.20,0.08,1721206659321
-0.31,1.66,10.26,-0.07,0.06,0.16,1721206659331
1.08,-0.55,7.94,0.02,-0.13,0.20,1721206659341
0.97,-0.33,10.86,-0.08,0.03,0.07,1721206659351
0.07,-0.58,8.81,0.07,-0.16,-0.00,1721206659361
-0.02,-2.40,10.43,-0.19,-0.00,0.01,1721206659371
-0.66,1.02,13.48,-0.06,-0.14,0.09,1721206659381
-0.85,0.19,7.77,-0.07,-0.11,0.08,1721206659391
0.38,-0.49,9.16,-0.05,-0.04,0.05,1721206659401
1.33,-2.24,9.10,-0.11,-0.04,0.06,1721206659411
-0.55,1.03,12.50,-0.15,-0.03,-0.01,1721206659421
-1.62,2.06,11.14,-0.07,-0.18,-0.06,1721206659431
-0.30,-1.16,7.22,-0.13,-0.08,0.07,1721206659441
0.26,0.92,12.02,-0.09,-0.04,0.09,1721206659451
1.19,-0.41,10.37,-0.04,-0.09,0.07,1721206659461
0.52,-0.32,12.58,-0.14,-0.05,0.01,1721206659471
-0.03,1.86,12.90,-0.08,-0.08,-0.06,1721206659481
-0.43,4.02,10.88,-0.00,-0.12,-0.14,1721206659491
0.87,-1.42,7.81,0.05,-0.08,-0.09,1721206659501
1.31,-3.05,9.35,0.06,-0.01,0.01,1721206659511
-0.60,0.67,9.30,0.22,-0.06,-0.05,1721206659521
-0.90,4.43,9.56,0.19,-0.07,-0.16,1721206659531
0.12,3.15,10.82,0.20,-0.12,-0.11,1721206659541
1.11,-0.14,10.45,0.10,-0.02,-0.05,1721206659551
0.20,-2.32,10.33,0.07,-0.04,-0.08,1721206659561
-0.13,-0.55,11.91,0.06,-0.02,-0.11,1721206659571
-0.26,-2.52,8.72,0.08,-0.13,-0.10,1721206659581
0.34,-1.44,9.42,0.13,0.00,-0.15,1721206659591
0.58,-0.50,10.76,0.22,-0.06,-0.13,1721206659601
0.16,1.86,11.04,0.18,0.01,-0.08,1721206659611
-0.40,1.67,9.83,0.17,-0.04,-0.07,1721206659621
-0.16,-1.47,9.23,0.04,0.02,-0.10,1721206659631
0.11,-0.89,11.29,0.08,-0.05,-0.13,1721206659641
0.85,-1.95,8.75,0.09,-0.03,-0.07,1721206659651
0.72,-1.58,10.70,0.08,-0.01,-0.04,1721206659661
1.12,-1.42,8.81,0.08,0.01,-0.11,1721206659671
0.89,3.89,10.67,0.13,-0.02,-0.17,1721206659681
0.27,0.41,8.05,0.05,-0.01,-0.19,1721206659691
-0.67,-2.98,11.18,-0.01,0.01,-0.18,1721206659701
0.17,-4.41,8.46,0.04,0.01,-0.06,1721206659711
0.27,2.40,11.89,0.04,0.06,-0.03,1721206659721
0.34,1.64,11.83,0.11,-0.03,-0.13,1721206659731
0.31,-1.02,10.40,0.08,-0.01,-0.16,1721206659741
-0.05,-2.90,11.51,-0.05,0.07,-0.14,1721206659751
-1.30,3.88,12.73,0.13,-0.03,-0.10,1721206659761
-0.48,-0.58,5.31,0.01,0.01,-0.07,1721206659771
-0.92,3.43,8.44,0.19,-0.02,-0.05,1721206659781
0.72,-3.17,3.76,0.00,0.09,-0.05,1721206659791
-0.67,-2.64,13.86,-0.23,0.03,-0.15,1721206659801
-1.90,3.74,18.92,0.06,-0.12,-0.08,1721206659811
-0.26,1.13,10.60,-0.04,0.02,0.09,1721206659821
0.85,2.59,9.27,0.00,-0.06,0.17,1721206659831
3.28,0.37,5.66,-0.15,0.11,-0.07,1721206659841
1.87,1.51,8.55,-0.00,-0.09,-0.25,1721206659851
-0.07,-0.79,6.45,-0.11,0.07,-0.32,1721206659861
-2.85,0.74,11.96,-0.04,-0.13,-0.11,1721206659871
-1.90,-0.25,9.71,-0.15,0.03,0.08,1721206659881
0.56,3.32,12.87,-0.06,-0.04,0.13,1721206659891
4.01,-0.86,10.76,-0.21,0.07,-0.01,1721206659901
3.75,0.76,11.09,-0.12,-0.02,-0.23,1721206659911
1.64,2.15,7.21,-0.07,0.03,-0.45,1721206659921
-2.37,1.42,7.43,-0.08,-0.09,-0.54,1721206659931
-3.60,-7.01,10.75,-0.33,0.02,-0.33,1721206659941
-3.24,1.65,18.88,-0.15,0.00,-0.04,1721206659951
-1.23,-0.91,7.98,-0.11,-0.05,0.08,1721206659961
0.39,0.64,6.52,-0.19,0.08,-0.08,1721206659971
3.55,-2.03,7.41,-0.13,0.11,-0.26,1721206659981
0.74,-3.97,9.70,-0.16,-0.07,-0.34,1721206659991
-0.91,0.57,12.71,-0.07,0.12,-0.33,1721206660001
-0.84,2.94,13.23,-0.12,0.04,-0.31,1721206660011
-0.90,2.86,13.70,-0.13,-0.07,-0.17,1721206660021
0.03,-2.08,7.41,-0.09,0.06,-0.14,1721206660031
1.44,-2.24,9.73,-0.21,0.07,-0.21,1721206660041
0.11,2.92,10.80,-0.01,-0.06,-0.34,1721206660051
0.38,1.24,10.82,-0.05,0.17,-0.38,1721206660061
-1.88,-0.54,9.37,-0.06,-0.10,-0.36,1721206660071
-1.68,-0.39,10.32,-0.12,0.10,-0.26,1721206660081
-0.56,0.96,13.16,0.05,0.06,-0.16,1721206660091
0.29,0.27,9.09,0.02,0.07,-0.19,1721206660101
-0.64,1.05,10.39,0.00,0.09,-0.39,1721206660111
0.40,0.56,9.87,0.07,0.08,-0.38,1721206660121
-1.21,-1.50,10.29,0.03,0.05,-0.27,1721206660131
-2.17,0.60,12.69,0.02,0.17,-0.22,1721206660141
-0.73,-0.33,10.83,0.08,0.18,-0.23,1721206660156
0.15,1.46,8.54,0.14,0.02,-0.23,1721206660160
0.48,-1.66,10.76,0.11,0.16,-0.26,1721206660170
-1.14,-5.59,10.92,-0.07,0.00,-0.25,1721206660180
-2.86,2.76,13.16,0.14,-0.04,-0.27,1721206660190
1.43,0.58,9.79,0.11,0.19,-0.18,1721206660200
-0.03,-1.28,10.54,0.08,0.03,-0.16,1721206660210
-0.32,-1.64,7.77,0.13,0.11,-0.29,1721206660220
0.59,0.95,9.64,0.16,0.12,-0.32,1721206660230
-0.41,0.35,11.06,0.13,0.10,-0.28,1721206660240
-2.38,-1.34,7.98,0.04,0.09,-0.33,1721206660250
-1.34,1.11,11.24,0.05,0.19,-0.27,1721206660260
-0.33,-2.13,11.91,0.01,0.07,-0.16,1721206660270
-0.60,0.57,12.28,0.07,0.12,-0.15,1721206660280
-0.41,1.25,9.13,0.05,0.08,-0.26,1721206660290
-0.36,1.32,8.72,0.08,0.00,-0.27,1721206660300
-0.97,-4.68,8.81,-0.10,0.15,-0.23,1721206660310
-2.79,0.59,15.75,0.06,0.03,-0.25,1721206660320
-1.40,0.56,7.56,0.15,-0.00,-0.16,1721206660330
-0.09,2.56,10.49,0.01,0.19,-0.12,1721206660340
0.20,0.61,9.24,0.06,-0.03,-0.21,1721206660350
-0.11,-1.84,11.08,-0.09,0.10,-0.25,1721206660360
-0.74,-0.47,11.61,0.09,-0.02,-0.17,1721206660370
-0.69,1.44,8.18,-0.04,0.11,-0.22,1721206660380
0.80,0.14,11.76,0.01,0.05,-0.14,1721206660390
1.00,-0.50,9.69,0.03,0.17,-0.14,1721206660400
0.70,1.96,10.77,0.01,0.14,-0.35,1721206660410
0.38,1.54,10.28,0.04,0.04,-0.28,1721206660420
-0.22,0.16,10.01,-0.04,0.22,-0.13,1721206660430
-2.14,1.93,9.49,0.01,0.01,-0.19,1721206660440
-1.32,1.76,7.54,-0.01,0.04,-0.14,1721206660450
-0.12,-0.29,11.13,-0.04,0.13,-0.04,1721206660460
-1.86,0.09,11.03,-0.01,0.04,-0.06,1721206660470
-2.56,1.07,10.23,-0.06,0.07,-0.11,1721206660480
-1.14,0.71,9.78,0.01,-0.02,0.01,1721206660490
-0.48,-0.34,9.07,0.03,0.08,0.12,1721206660500
-0.30,-0.93,9.87,-0.05,0.12,0.03,1721206660510
-0.90,1.10,11.26,-0.04,-0.05,-0.09,1721206660520
0.22,0.04,10.00,0.00,0.07,0.01,1721206660530
-1.00,-2.10,10.50,-0.13,0.06,0.02,1721206660540
-1.24,-0.61,12.50,-0.08,0.03,-0.01,1721206660550
0.52,-2.86,7.90,0.01,-0.07,0.08,1721206660560
1.19,-0.34,8.88,-0.03,0.15,0.07,1721206660570
0.89,-0.01,9.46,-0.04,0.04,-0.10,1721206660580
-0.43,-0.41,12.60,-0.06,-0.06,-0.10,1721206660590
-0.37,1.61,12.40,0.02,0.02,-0.04,1721206660600
-1.21,-1.13,8.97,-0.13,0.01,-0.04,1721206660610
-1.59,0.05,10.88,-0.08,-0.04,0.01,1721206660620
-0.92,-1.18,9.08,-0.01,0.04,0.02,1721206660630
-0.40,0.62,11.58,-0.03,0.04,0.00,1721206660640
0.02,4.84,10.91,0.09,-0.01,0.09,1721206660650
-0.12,2.35,8.82,-0.03,0.06,-0.05,1721206660660
0.42,-3.06,10.70,-0.09,-0.07,-0.07,1721206660670
-0.42,-0.29,11.80,-0.09,0.06,-0.00,1721206660680
-1.34,5.41,11.07,0.13,-0.08,-0.04,1721206660690
0.86,-2.54,5.01,0.09,-0.05,0.03,1721206660700
0.30,-2.09,9.78,0.12,0.00,0.02,1721206660710
0.67,-0.40,9.45,0.17,0.05,-0.13,1721206660720
-0.01,2.36,14.43,0.13,-0.03,-0.15,1721206660730
-1.36,0.98,10.62,0.28,-0.06,-0.03,1721206660740
-0.23,-0.43,8.02,0.16,-0.01,0.05,1721206660750
0.13,1.32,6.79,0.27,-0.04,0.07,1721206660760
1.15,-1.40,8.87,0.15,0.03,-0.02,1721206660770
1.12,-3.15,11.23,0.14,-0.00,-0.09,1721206660780
0.02,-0.11,9.47,0.20,-0.03,-0.10,1721206660790
0.03,2.46,9.25,0.23,0.01,-0.07,1721206660800
1.04,0.36,10.07,0.14,0.05,-0.01,1721206660810
1.06,0.32,9.20,0.14,0.03,-0.02,1721206660820
1.30,-1.81,10.42,0.03,0.05,-0.08,1721206660830
0.76,-2.83,10.93,0.08,-0.02,-0.09,1721206660840
1.11,0.08,12.07,0.03,0.09,-0.09,1721206660850
0.48,1.54,10.58,0.11,-0.01,-0.09,1721206660860
1.46,0.14,9.24,0.05,0.13,-0.03,1721206660870
1.93,-0.94,9.97,-0.00,0.15,-0.14,1721206660880
1.21,-1.05,12.15,-0.00,0.11,-0.26,1721206660890
-0.37,0.69,11.94,0.14,0.07,-0.20,1721206660900
-0.06,0.51,11.14,0.07,0.20,-0.19,1721206660910
-0.02,1.81,10.30,0.26,0.08,-0.09,1721206660920
1.34,-0.93,6.79,0.09,0.22,-0.16,1721206660930
0.35,3.64,11.09,0.17,0.15,-0.33,1721206660940
-1.49,0.15,8.42,0.08,0.11,-0.34,1721206660950
-2.69,-0.87,12.47,0.05,0.17,-0.20,1721206660960
-1.86,0.35,10.27,0.10,0.12,-0.07,1721206660970
-0.57,2.88,12.13,0.04,0.16,-0.08,1721206660980
0.12,0.80,8.58,0.05,0.04,-0.16,1721206660990
-0.18,3.44,9.22,0.00,0.12,-0.22,1721206661000
-0.32,0.46,6.89,0.03,0.08,-0.21,1721206661010
-1.79,1.12,7.52,-0.00,0.10,-0.20,1721206661020
-2.48,0.72,5.69,-0.11,0.01,-0.16,1721206661030
-1.33,-1.45,9.92,-0.18,0.11,-0.05,1721206661040
0.48,-2.35,11.71,-0.15,0.06,0.00,1721206661050
0.78,-0.15,12.66,-0.14,0.06,-0.10,1721206661060
2.09,0.25,10.69,-0.10,0.08,-0.20,1721206661070
-0.21,-0.17,9.47,-0.16,0.04,-0.26,1721206661080
-1.67,-0.76,9.02,-0.20,0.04,-0.17,1721206661090
-0.38,-2.52,12.87,-0.26,0.16,-0.07,1721206661100
-0.78,-1.28,12.41,-0.16,0.02,-0.06,1721206661110
-0.81,-0.24,9.49,-0.16,0.06,-0.09,1721206661120
0.16,0.75,9.63,-0.19,0.07,-0.04,1721206661130
0.32,-0.74,10.22,-0.25,0.06,-0.08,1721206661140
-0.92,-1.21,11.39,-0.24,-0.04,-0.08,1721206661150
-0.09,-0.77,10.58,-0.21,0.09,-0.03,1721206661160
-0.38,-0.82,11.88,-0.31,0.04,0.01,1721206661170
0.09,2.31,12.54,-0.15,0.05,-0.04,1721206661180
0.58,-3.86,6.90,-0.10,-0.04,0.05,1721206661190
0.06,1.63,8.57,-0.02,0.13,-0.03,1721206661200
1.10,0.97,10.54,0.02,0.06,-0.11,1721206661210
-0.56,1.17,13.03,-0.06,0.04,-0.09,1721206661220
-1.26,2.64,13.68,0.04,0.03,-0.11,1721206661230
-0.78,-1.11,9.58,0.02,0.02,-0.00,1721206661240
-0.62,1.92,12.51,0.07,0.00,0.12,1721206661250
0.97,2.54,13.22,0.04,0.10,-0.04,1721206661260
-1.10,1.74,11.09,0.20,-0.11,-0.14,1721206661270
-1.38,0.38,6.58,0.17,0.01,-0.08,1721206661280
-1.84,-1.27,9.19,0.18,-0.01,0.08,1721206661290
-1.13,2.78,11.68,0.28,0.06,0.12,1721206661300
-0.07,0.96,8.10,0.26,-0.15,0.07,1721206661310
0.75,-0.12,8.67,0.25,0.03,0.03,1721206661320
1.40,-1.85,12.16,0.11,0.03,-0.02,1721206661330
-0.33,3.88,13.73,0.19,-0.15,-0.12,1721206661340
-1.80,1.88,7.14,0.15,-0.07,-0.12,1721206661350
-1.66,-6.36,6.98,-0.04,-0.03,-0.02,1721206661360
-0.32,-3.12,10.70,0.05,0.01,0.08,1721206661370
1.12,-1.28,10.76,0.13,0.08,0.03,1721206661380
1.26,3.71,10.21,0.21,-0.05,-0.17,1721206661390
0.10,0.73,7.11,0.13,-0.05,-0.18,1721206661400
-2.96,-0.84,11.14,0.02,-0.06,-0.09,1721206661410
-0.44,-0.40,14.79,0.01,0.10,-0.00,1721206661420
0.99,0.78,10.25,0.11,-0.19,0.06,1721206661430
-0.33,2.06,7.23,0.04,-0.02,-0.14,1721206661440
-0.11,0.93,10.10,0.04,-0.05,-0.26,1721206661450
-2.10,0.26,7.62,0.13,-0.20,-0.11,1721206661460
-1.09,-0.76,7.89,-0.02,0.10,0.00,1721206661470
1.34,-1.60,14.94,-0.05,0.01,0.09,1721206661480
1.98,2.01,10.60,0.11,-0.14,-0.02,1721206661490
3.01,3.21,8.56,0.09,0.07,-0.20,1721206661500
0.83,0.50,7.96,0.06,-0.11,-0.31,1721206661510
-1.91,-0.36,9.68,-0.01,-0.01,-0.25,1721206661520
-1.15,0.11,11.06,0.07,0.01,-0.03,1721206661530
-0.05,2.25,9.68,-0.01,0.08,-0.03,1721206661540
0.78,2.04,9.87,-0.03,-0.05,-0.12,1721206661550
0.08,-0.12,9.33,0.01,0.00,-0.13,1721206661560
0.34,-4.10,7.42,-0.18,0.04,-0.16,1721206661570
-1.27,2.23,19.71,-0.07,0.04,-0.20,1721206661580
-0.98,1.54,15.39,0.10,-0.01,-0.11,1721206661590
-1.64,2.28,7.86,0.07,-0.09,-0.05,1721206661600
-0.25,1.65,3.83,-0.00,0.09,-0.02,1721206661610
0.44,-2.15,7.94,-0.13,0.07,-0.10,1721206661620
-1.39,-0.51,9.73,0.04,-0.11,-0.10,1721206661630
0.11,0.03,10.16,-0.01,0.11,-0.07,1721206661640
1.22,0.28,13.20,-0.04,0.02,-0.04,1721206661650
0.49,1.48,11.19,-0.08,-0.00,-0.16,1721206661660
0.76,-0.88,9.11,-0.13,0.05,-0.24,1721206661670
-2.06,-0.79,8.99,-0.06,-0.04,-0.25,1721206661680
-2.17,-3.69,8.95,-0.20,0.12,-0.09,1721206661690
-2.05,0.97,15.63,-0.07,0.02,0.01,1721206661700
1.04,-3.14,8.29,-0.13,-0.01,0.02,1721206661710
0.65,3.40,11.32,-0.10,0.02,-0.07,1721206661720
1.74,-0.54,8.52,-0.15,0.10,-0.21,1721206661730
-1.78,-0.89,11.43,-0.13,-0.06,-0.25,1721206661740
-1.79,-1.13,8.80,-0.05,0.12,-0.11,1721206661750
-1.63,-0.93,9.25,-0.16,0.05,-0.04,1721206661760
0.17,-0.59,11.81,-0.11,0.06,0.06,1721206661770
1.35,1.71,13.23,-0.05,0.07,-0.05,1721206661780
1.72,2.63,10.52,0.05,-0.01,-0.12,1721206661790
0.92,0.02,9.05,-0.08,0.13,-0.24,1721206661800
-1.41,-0.28,11.44,-0.04,-0.02,-0.29,1721206661810
-2.27,0.22,11.71,0.04,0.03,-0.12,1721206661820
-0.54,-0.32,8.40,0.02,0.09,0.04,1721206661830
1.02,-0.10,11.71,0.08,0.05,-0.02,1721206661840
2.31,-0.67,9.44,0.09,0.12,-0.13,1721206661850
1.42,0.44,11.10,0.11,0.06,-0.34,1721206661860
-0.60,0.06,9.45,0.15,0.10,-0.29,1721206661870
-1.83,0.40,9.00,0.10,0.08,-0.18,1721206661880
-1.24,-2.49,10.72,0.14,0.14,-0.07,1721206661890
0.89,-2.51,8.70,0.09,0.14,-0.04,1721206661900
1.27,1.27,12.25,0.09,0.12,-0.13,1721206661910
0.74,1.46,15.35,0.09,0.15,-0.24,1721206661920
0.01,0.39,10.32,0.13,0.05,-0.20,1721206661930
-0.72,-1.58,8.51,0.07,0.17,-0.11,1721206661940
0.03,-0.62,11.07,0.03,0.20,-0.09,1721206661950
0.02,1.46,12.45,0.16,0.12,-0.09,1721206661960
1.15,2.24,9.28,0.19,0.19,-0.04,1721206661970
0.90,-0.30,8.70,0.19,0.17,-0.11,1721206661980
0.22,1.49,10.69,0.16,0.14,-0.18,1721206661990
-1.07,0.17,9.78,0.15,0.14,-0.16,1721206662000
-1.89,1.15,10.70,0.13,0.18,-0.08,1721206662010
-1.48,-1.46,7.40,0.14,0.11,0.06,1721206662020
0.07,0.06,11.39,0.09,0.21,0.11,1721206662030
0.66,2.77,9.32,0.19,0.08,-0.04,1721206662040
0.44,0.95,9.53,0.02,0.19,-0.10,1721206662050
-1.00,0.69,9.60,0.03,0.09,-0.05,1721206662060
-0.22,-1.51,10.31,-0.03,0.18,0.02,1721206662070
0.59,0.05,9.37,0.05,0.16,-0.03,1721206662080
1.29,2.10,7.52,0.03,0.15,-0.17,1721206662090
-0.44,1.86,8.45,0.01,0.08,-0.21,1721206662100
-1.71,1.32,10.79,-0.05,0.17,-0.18,1721206662110
-1.97,-0.83,7.95,-0.03,0.01,-0.03,1721206662120
0.06,-0.92,8.96,-0.20,0.25,0.12,1721206662130
1.36,-2.19,10.30,-0.19,0.05,0.04,1721206662140
1.75,3.33,10.76,-0.05,0.16,-0.14,1721206662150
-1.83,-0.29,10.63,-0.23,0.33,-0.30,1721206662165
-4.35,0.26,13.25,-0.15,0.01,-0.15,1721206662169
-1.64,-0.78,8.72,-0.13,0.22,0.09,1721206662179
-0.51,0.03,12.79,-0.24,0.05,0.16,1721206662189
1.46,-0.53,10.56,-0.16,0.05,0.08,1721206662199
1.09,-2.20,8.34,-0.18,0.09,-0.08,1721206662209
0.05,-0.27,11.44,-0.22,0.07,-0.12,1721206662219
-0.76,0.77,13.69,-0.21,0.09,-0.05,1721206662229
-0.94,0.13,8.69,-0.06,0.01,0.02,1721206662239
-0.92,0.53,7.90,-0.08,0.08,0.13,1721206662249
-0.03,-1.09,8.12,-0.10,0.00,0.18,1721206662259
1.84,1.54,13.11,-0.08,0.23,0.06,1721206662269
0.87,1.12,11.63,-0.00,-0.11,-0.05,1721206662279
-1.43,1.55,7.48,0.06,0.01,-0.08,1721206662289
0.04,-0.11,9.48,0.05,0.19,0.04,1721206662299
-1.26,0.94,10.70,0.08,-0.06,0.10,1721206662309
0.16,0.67,10.76,0.11,0.21,0.04,1721206662319
-0.16,-0.76,11.92,0.09,-0.07,0.03,1721206662329
-1.30,1.54,13.13,0.05,0.13,-0.04,1721206662339
-0.82,-0.50,11.79,0.11,-0.00,0.01,1721206662349
-1.94,0.47,9.62,0.12,-0.01,0.08,1721206662359
-0.54,-0.81,10.43,0.12,0.06,0.11,1721206662369
-0.28,0.62,13.13,0.13,-0.00,0.10,1721206662379
-0.05,2.89,9.13,0.19,-0.12,0.01,1721206662389
-0.82,-2.16,9.04,0.02,0.00,0.00,1721206662399
-1.12,-1.93,10.55,0.07,-0.03,0.08,1721206662409
-0.26,0.97,8.79,0.27,0.01,0.14,1721206662419
0.81,-2.17,7.33,0.08,0.02,0.07,1721206662429
-0.78,1.30,13.29,0.09,-0.15,-0.07,1721206662439
0.93,1.31,14.01,0.20,0.13,-0.12,1721206662449
-2.35,-0.93,8.96,0.14,-0.31,-0.01,1721206662459
-3.26,1.10,4.77,0.20,-0.11,0.10,1721206662469
2.03,-1.12,9.43,0.15,0.15,0.18,1721206662479
0.51,0.16,9.86,0.06,-0.24,-0.01,1721206662489
-2.41,0.19,8.53,0.12,-0.11,-0.16,1721206662499
-2.17,-1.31,10.95,0.02,0.08,-0.08,1721206662509
-3.62,-0.80,10.31,0.10,-0.27,0.23,1721206662519
-0.17,-1.11,8.14,0.09,0.01,0.41,1721206662529
4.45,-0.49,9.58,0.17,-0.09,0.33,1721206662539
5.17,2.55,11.46,0.09,-0.05,-0.00,1721206662549
3.50,3.22,11.66,0.08,-0.15,-0.33,1721206662559
-0.54,1.10,8.95,0.02,-0.20,-0.34,1721206662569
-3.69,-0.78,9.18,-0.15,-0.01,-0.16,1721206662579
-2.98,-3.52,13.42,-0.10,-0.14,0.13,1721206662589
-0.29,-0.50,11.16,-0.01,-0.02,0.22,1721206662599
2.18,2.56,11.65,0.05,-0.08,0.03,1721206662609
0.17,4.33,9.24,0.02,-0.16,-0.09,1721206662619
-0.33,3.91,11.29,-0.04,-0.04,-0.07,1721206662629
-0.67,-0.41,10.25,-0.13,-0.10,-0.01,1721206662639
-0.99,2.76,10.90,-0.10,-0.12,0.03,1721206662649
-1.10,-2.80,6.39,-0.24,-0.13,0.03,1721206662659
-1.53,-1.08,11.64,-0.24,-0.09,0.03,1721206662669
1.30,-2.73,10.10,-0.07,-0.08,0.15,1721206662679
1.38,2.59,9.01,-0.02,-0.05,0.07,1721206662689
2.19,-2.63,10.48,-0.20,-0.03,-0.04,1721206662699
-0.74,2.66,15.37,-0.15,-0.16,-0.21,1721206662709
-1.24,-1.60,7.83,-0.08,-0.09,-0.17,1721206662719
-2.88,0.35,5.16,-0.17,-0.12,-0.09,1721206662729
-1.62,-2.66,9.31,-0.22,-0.04,0.06,1721206662739
-0.39,-3.63,7.87,-0.12,-0.09,0.13,1721206662749
0.28,-1.57,9.57,-0.17,-0.05,-0.06,1721206662759
0.78,-0.04,8.95,-0.08,-0.11,-0.15,1721206662769
-0.29,1.47,11.05,-0.07,-0.09,-0.14,1721206662779
-0.93,0.41,11.28,-0.12,-0.10,-0.04,1721206662789
-0.21,-0.91,12.10,-0.17,-0.02,0.03,1721206662799
1.20,-1.40,9.80,-0.15,-0.07,0.04,1721206662809
1.40,1.38,11.23,-0.14,-0.05,-0.08,1721206662819
1.40,0.19,10.78,-0.10,-0.08,-0.20,1721206662829
-0.21,-3.13,13.44,-0.23,-0.08,-0.19,1721206662839
-0.37,-0.00,16.18,-0.17,-0.04,-0.11,1721206662849
0.26,4.91,12.58,0.05,-0.09,-0.04,1721206662859
1.09,-0.92,9.63,-0.03,0.01,-0.12,1721206662869
0.06,5.97,14.38,0.26,-0.07,-0.06,1721206662879
1.71,-1.34,6.25,0.27,0.07,-0.04,1721206662889
2.20,0.58,11.73,0.16,0.02,-0.17,1721206662899
-0.04,2.47,11.22,0.38,-0.08,-0.20,1721206662909
0.83,-4.98,6.30,0.16,0.06,-0.16,1721206662919
0.17,3.40,15.65,0.35,0.06,-0.20,1721206662929
1.06,-0.50,9.49,0.40,0.00,-0.09,1721206662939
0.17,2.20,9.83,0.32,0.10,-0.10,1721206662949
0.75,2.16,11.19,0.31,0.12,-0.10,1721206662959
1.26,-1.07,6.44,0.27,0.05,-0.13,1721206662969
1.40,2.13,7.03,0.27,0.14,-0.13,1721206662979
1.76,0.86,7.21,0.18,0.12,-0.24,1721206662989
1.24,-3.73,9.65,0.01,0.10,-0.34,1721206662999
-0.34,-2.87,13.92,0.14,0.09,-0.30,1721206663009
-1.10,1.94,8.16,0.19,0.15,-0.28,1721206663019
-1.90,-0.18,8.91,0.06,0.09,-0.21,1721206663029
-1.97,2.28,9.61,0.08,0.14,-0.15,1721206663039
-0.59,-4.22,7.11,-0.08,0.14,-0.10,1721206663049
-0.29,-1.64,10.98,-0.16,0.14,-0.11,1721206663059
0.22,-0.31,13.27,-0.06,0.10,-0.20,1721206663069
0.12,2.44,9.41,-0.05,0.07,-0.28,1721206663079
-0.92,-1.22,6.07,-0.07,0.09,-0.24,1721206663089
-1.42,0.49,8.73,-0.24,0.16,-0.29,1721206663099
-1.08,-2.73,14.73,-0.23,0.09,-0.22,1721206663109
-0.99,6.62,11.34,0.03,0.05,-0.14,1721206663119
0.58,0.62,4.40,-0.20,0.12,-0.10,1721206663129
0.01,-0.23,8.69,-0.21,0.01,-0.19,1721206663139
-0.87,-2.72,9.99,-0.22,0.13,-0.22,1721206663149
-0.37,-2.99,12.99,-0.25,0.10,-0.24,1721206663159
-1.14,1.56,14.01,-0.14,0.03,-0.16,1721206663169
0.08,1.84,11.76,-0.14,0.12,-0.14,1721206663179
0.27,0.49,10.62,-0.20,0.07,-0.12,1721206663189
0.73,-0.52,12.49,-0.18,0.14,-0.12,1721206663199
1.68,0.47,10.26,-0.08,0.09,-0.18,1721206663209
-0.07,-0.91,7.47,-0.03,0.08,-0.26,1721206663219
-1.10,0.52,6.41,0.08,0.14,-0.29,1721206663229
-1.45,-1.94,14.48,-0.08,0.11,-0.18,1721206663239
-1.84,3.85,18.56,0.00,0.05,-0.18,1721206663249
-0.26,5.50,14.12,0.10,0.09,-0.05,1721206663259
1.16,4.94,8.30,0.08,0.10,-0.05,1721206663269
0.54,-2.00,5.96,0.10,0.04,-0.11,1721206663279
0.74,-1.56,7.90,0.14,0.23,-0.23,1721206663289
-1.25,-2.03,6.96,0.19,-0.04,-0.28,1721206663299
-1.34,0.71,9.90,0.18,0.15,-0.20,1721206663309
-1.97,2.06,14.14,0.16,0.10,-0.02,1721206663319
-1.88,4.29,12.25,0.21,0.07,0.01,1721206663329
-0.23,-3.18,6.87,0.20,0.08,0.05,1721206663339
1.04,-4.24,10.59,0.07,0.22,-0.05,1721206663349
1.00,-0.93,12.82,0.24,0.12,-0.20,1721206663359
-1.30,4.09,7.77,0.33,-0.03,-0.24,1721206663369
-0.99,-0.94,5.69,0.07,0.16,-0.23,1721206663379
-2.23,-6.21,13.28,-0.08,0.05,-0.04,1721206663389
0.13,-0.88,13.86,0.15,0.20,0.01,1721206663399
1.44,-0.15,9.58,0.11,0.08,-0.08,1721206663409
0.20,4.76,7.46,0.17,0.01,-0.25,1721206663419
-1.77,-1.03,0.91,0.11,-0.11,-0.17,1721206663429
-0.66,-4.30,8.77,-0.06,0.36,-0.06,1721206663439
0.29,-1.11,15.69,0.03,0.07,-0.02,1721206663449
-0.82,0.73,10.53,0.03,-0.01,-0.20,1721206663459
-1.09,0.94,10.35,-0.05,0.11,-0.37,1721206663469
-2.05,-0.75,14.35,0.03,0.09,-0.24,1721206663479
-2.71,2.66,13.67,0.15,0.03,-0.08,1721206663489
-1.98,2.54,10.06,0.06,-0.01,-0.02,1721206663499
-1.04,-0.72,9.36,0.12,-0.04,0.05,1721206663509
1.11,1.91,8.28,0.10,0.21,0.02,1721206663519
1.05,1.79,9.22,0.05,0.02,-0.12,1721206663529
-0.49,0.99,9.54,0.09,-0.02,-0.15,1721206663539
-0.83,0.74,8.13,0.14,0.07,-0.05,1721206663549
-0.41,3.69,10.41,0.07,0.09,0.01,1721206663559
-0.13,1.62,9.33,0.03,0.03,-0.05,1721206663569
0.23,-3.35,9.55,-0.11,0.07,-0.09,1721206663579
-0.85,-0.13,12.87,0.01,0.02,-0.10,1721206663589
-0.17,0.21,12.43,0.02,0.12,-0.02,1721206663599
-0.38,3.05,9.36,0.08,-0.02,0.01,1721206663609
0.51,-1.55,5.29,-0.06,0.09,-0.01,1721206663619
-0.57,-0.01,9.42,-0.13,0.07,-0.12,1721206663629
-1.90,-1.89,9.99,-0.09,-0.01,-0.04,1721206663639
-2.58,-0.22,9.52,-0.14,0.02,0.12,1721206663649
-1.36,0.53,10.67,-0.12,0.07,0.19,1721206663659
2.01,1.20,11.75,-0.20,0.12,0.12,1721206663669
1.47,0.91,7.99,-0.21,-0.11,0.01,1721206663679
-1.20,-7.42,10.37,-0.54,0.05,-0.12,1721206663689
-2.03,-3.32,17.74,-0.21,-0.04,0.01,1721206663699
-2.10,-0.10,8.25,-0.06,-0.03,0.16,1721206663709
-0.06,2.38,7.48,-0.20,0.08,0.23,1721206663719
0.98,1.33,9.78,-0.13,-0.06,0.13,1721206663729
2.51,-0.30,13.60,-0.15,0.11,-0.07,1721206663739
0.43,-2.15,12.73,-0.12,-0.09,-0.05,1721206663749
-1.98,0.42,11.14,-0.16,-0.01,0.02,1721206663759
-0.65,0.71,13.16,-0.06,0.07,0.14,1721206663769
1.81,1.88,10.09,0.07,-0.08,0.15,1721206663779
2.24,5.07,7.65,0.15,0.07,0.01,1721206663789
2.26,-0.62,10.30,-0.08,0.04,-0.19,1721206663799
-2.10,2.79,14.73,0.02,-0.07,-0.21,1721206663809
-1.16,-2.13,7.88,0.04,0.04,-0.06,1721206663819
-1.51,-1.75,9.13,0.00,-0.01,0.12,1721206663829
1.00,-0.63,8.59,0.08,0.09,0.20,1721206663839
0.97,-0.10,9.14,0.04,-0.04,-0.03,1721206663849
1.27,-1.45,13.83,0.06,0.04,-0.10,1721206663859
0.69,-3.29,11.14,0.01,0.04,-0.13,1721206663869
-1.11,3.65,17.60,0.11,0.10,-0.02,1721206663879
0.05,-2.97,4.86,0.17,-0.05,0.17,1721206663889
0.58,-1.24,6.75,0.11,0.13,0.10,1721206663899
2.93,0.89,10.18,0.18,0.16,-0.03,1721206663909
1.69,1.97,9.52,0.17,-0.02,-0.08,1721206663919
0.28,3.11,11.69,0.09,0.15,-0.13,1721206663929
0.07,1.68,9.25,0.12,0.08,-0.10,1721206663939
0.23,-5.02,6.39,-0.07,0.11,0.00,1721206663949
-0.40,-1.10,12.63,0.02,0.14,-0.05,1721206663959
-0.30,3.15,10.69,0.23,0.11,-0.11,1721206663969
-0.48,0.72,5.02,0.21,0.04,-0.07,1721206663979
-0.60,-3.04,9.85,-0.08,0.16,-0.05,1721206663989
-0.49,0.57,23.10,-0.06,0.14,-0.01,1721206663999
-0.13,2.21,16.00,0.16,0.06,-0.02,1721206664009
1.43,1.17,5.71,0.00,0.17,0.04,1721206664019
1.86,2.65,9.31,-0.01,0.15,-0.13,1721206664029
1.01,1.55,5.59,0.07,0.07,-0.28,1721206664039
-2.63,0.00,6.38,0.08,0.07,-0.28,1721206664049
-4.03,-1.13,10.01,-0.10,0.12,-0.09,1721206664059
-2.41,3.31,15.29,0.13,0.07,0.25,1721206664069
2.92,4.08,9.18,0.08,0.22,0.27,1721206664079
3.83,1.20,6.49,-0.08,0.02,0.04,1721206664089
3.67,0.56,10.37,-0.08,0.21,-0.35,1721206664099
0.52,0.80,5.62,0.03,0.00,-0.46,1721206664109
-3.44,-3.39,5.80,-0.24,0.13,-0.30,1721206664119
-3.74,-4.30,12.90,-0.19,0.08,0.06,1721206664129
-2.10,0.98,20.85,-0.17,0.25,0.15,1721206664139
-0.00,2.03,10.36,0.06,-0.12,0.14,1721206664149
0.74,3.56,-0.87,-0.09,0.11,0.06,1721206664159
1.29,-3.72,11.36,-0.32,0.36,-0.24,1721206664174
0.89,-2.84,14.08,-0.18,-0.09,-0.20,1721206664178
-1.06,-0.59,6.93,0.00,0.12,-0.31,1721206664188
-1.08,-3.47,10.35,-0.28,0.23,-0.24,1721206664198
-1.53,3.54,16.00,-0.10,-0.03,0.03,1721206664208
-0.36,3.28,12.32,-0.00,0.11,0.16,1721206664218
1.27,0.61,6.91,-0.05,0.11,-0.03,1721206664228
1.15,1.83,10.78,-0.03,0.23,-0.30,1721206664238
-0.72,-1.66,10.33,-0.08,-0.03,-0.27,1721206664248
-4.15,0.17,8.80,-0.12,-0.01,-0.10,1721206664258
-2.77,-2.79,12.75,-0.11,0.17,0.08,1721206664268
-1.84,-0.94,12.90,0.00,0.07,0.21,1721206664278
1.13,-2.03,10.70,0.05,0.23,0.19,1721206664288
1.87,-0.76,11.41,0.15,-0.03,0.06,1721206664298
1.42,2.59,13.44,0.14,0.15,-0.20,1721206664308
-0.44,2.22,11.93,0.25,-0.09,-0.18,1721206664318
-4.19,0.67,8.69,0.14,-0.01,-0.00,1721206664328
-2.13,-2.05,11.95,0.12,0.18,0.16,1721206664338
-0.75,-0.52,9.19,0.17,-0.05,0.26,1721206664348
1.20,-0.09,7.33,0.13,0.11,0.04,1721206664358
0.67,-1.64,10.90,0.15,-0.04,-0.14,1721206664368
-0.98,5.17,12.39,0.37,-0.03,-0.05,1721206664378
-2.15,-0.49,2.49,0.18,-0.10,0.11,1721206664388
-2.11,-0.09,7.24,0.05,0.14,0.18,1721206664398
2.43,-2.71,12.15,0.06,0.08,0.15,1721206664408
0.77,-0.78,13.72,0.08,-0.20,-0.00,1721206664418
-2.43,0.68,12.02,0.09,-0.04,-0.28,1721206664428
-4.76,1.59,10.20,0.22,-0.11,-0.13,1721206664438
-2.49,1.06,6.43,0.17,0.01,0.32,1721206664448
1.39,1.23,9.38,0.06,0.03,0.44,1721206664458
4.02,0.28,10.57,0.10,-0.04,0.22,1721206664468
4.27,0.40,9.22,0.04,-0.00,-0.20,1721206664478
-0.11,2.35,12.58,-0.01,-0.08,-0.40,1721206664488
-3.33,2.59,10.74,0.08,-0.12,-0.22,1721206664498
-4.63,0.69,4.48,0.06,-0.12,0.06,1721206664508
-1.80,-2.99,8.15,-0.07,0.07,0.24,1721206664518
1.51,0.34,15.01,0.07,0.03,0.20,1721206664528
2.70,5.49,12.35,0.14,-0.07,0.01,1721206664538
1.09,3.68,7.86,0.04,-0.13,-0.10,1721206664548
-0.98,-1.98,7.80,-0.16,-0.05,-0.05,1721206664558
-0.92,-0.91,10.56,-0.06,0.05,-0.04,1721206664568
-0.43,0.79,10.48,-0.13,-0.03,-0.06,1721206664578
-1.90,1.46,10.73,-0.11,-0.11,0.10,1721206664588
-0.74,-0.87,8.80,-0.11,0.03,0.12,1721206664598
0.20,-2.24,5.58,-0.17,-0.05,0.01,1721206664608
-0.77,-1.30,11.23,-0.22,-0.00,-0.05,1721206664618
-0.58,-2.53,11.85,-0.19,-0.05,-0.10,1721206664628
-0.63,-0.76,10.24,-0.04,-0.06,0.08,1721206664638
-0.44,1.20,8.07,-0.10,0.00,0.08,1721206664648
-1.05,2.80,12.66,-0.13,-0.02,0.02,1721206664658
-1.12,3.92,12.96,-0.16,-0.02,-0.03,1721206664668
-0.06,-3.44,8.95,-0.19,-0.11,0.04,1721206664678
0.72,-3.80,8.37,-0.10,-0.01,0.09,1721206664688
1.22,-3.02,8.35,0.00,-0.06,0.08,1721206664698
0.34,2.35,10.77,0.11,-0.02,0.05,1721206664708
1.87,7.91,9.68,0.17,0.02,-0.08,1721206664718
1.37,-1.09,9.40,-0.06,-0.09,-0.10,1721206664728
-0.92,-1.82,16.20,-0.11,0.02,-0.16,1721206664738
-0.85,-3.97,9.64,0.00,-0.07,0.00,1721206664748
-1.12,0.23,4.20,0.09,-0.00,0.08,1721206664758
1.92,-3.78,12.91,-0.01,0.09,0.15,1721206664768
2.91,2.25,15.47,0.21,0.01,0.14,1721206664778
3.22,1.70,10.92,0.16,0.04,-0.21,1721206664788
0.87,-2.62,11.04,0.04,-0.01,-0.35,1721206664798
-3.62,3.49,11.74,0.28,0.03,-0.16,1721206664808
-2.20,-0.10,3.60,0.21,0.09,0.22,1721206664818
1.44,3.11,8.63,0.31,0.17,0.32,1721206664828
4.61,0.40,7.34,0.13,0.18,0.04,1721206664838
3.88,-0.40,13.74,-0.01,0.06,-0.24,1721206664848
1.00,-0.31,14.29,0.06,0.09,-0.38,1721206664858
-1.44,-1.39,13.87,0.14,0.13,-0.32,1721206664868
-3.22,-1.85,8.68,0.30,-0.01,0.00,1721206664878
-0.94,7.52,9.94,0.39,0.27,0.07,1721206664888
2.49,1.57,4.07,0.19,0.17,-0.08,1721206664898
0.45,-5.81,9.45,-0.09,0.19,-0.29,1721206664908
-1.92,-0.99,18.92,0.09,0.12,-0.30,1721206664918
-2.04,7.66,11.02,0.38,0.10,-0.01,1721206664928
1.16,-1.36,9.17,0.01,0.28,0.07,1721206664938
1.34,0.77,8.49,0.18,0.04,-0.01,1721206664948
2.15,10.87,7.59,0.14,0.28,-0.32,1721206664958
0.81,-2.90,3.65,-0.29,0.11,-0.41,1721206664968
-5.07,-5.12,14.59,-0.08,0.12,-0.30,1721206664978
-2.74,-1.83,1.98,0.15,0.17,0.14,1721206664988
0.42,1.33,5.15,-0.12,0.25,0.23,1721206664998
4.33,1.85,10.82,-0.05,0.11,0.04,1721206665008
2.83,-0.92,7.68,-0.10,0.03,-0.28,1721206665018
0.21,-5.85,17.82,-0.40,0.26,-0.46,1721206665028
-2.66,-3.53,20.03,0.04,0.05,-0.22,1721206665038
-2.56,7.07,6.52,0.05,0.24,-0.02,1721206665048
-0.72,3.60,4.78,-0.28,0.15,-0.03,1721206665058
-2.09,-2.00,8.55,-0.16,0.03,-0.17,1721206665068
0.28,-10.07,10.26,-0.27,0.28,-0.08,1721206665078
-2.24,-2.44,16.70,-0.11,0.05,0.01,1721206665088
-2.70,8.34,9.75,0.23,0.21,-0.02,1721206665098
-2.74,2.01,1.41,-0.02,-0.10,0.00,1721206665108
-2.50,-0.80,11.46,-0.16,0.20,0.16,1721206665118
3.16,-1.68,12.95,0.00,0.17,0.23,1721206665128
1.84,-2.13,13.25,-0.22,0.00,0.06,1721206665138
-1.03,-2.38,20.56,-0.19,0.04,-0.26,1721206665148
-4.50,6.55,12.52,0.38,-0.26,-0.10,1721206665158
-3.92,-2.86,-4.58,0.12,0.07,0.29,1721206665168
-1.99,-5.84,9.83,-0.28,0.07,0.55,1721206665178
2.53,8.73,22.07,0.19,-0.22,0.49,1721206665188
1.84,3.17,1.43,0.33,-0.25,0.20,1721206665198
0.59,-15.41,-1.32,-0.30,0.06,-0.03,1721206665208
-0.91,-1.40,18.42,0.09,0.04,0.20,1721206665218
0.05,5.34,10.33,0.36,-0.31,0.44,1721206665228
-2.34,-4.32,2.83,-0.20,-0.16,0.33,1721206665238
2.33,-8.63,20.73,-0.09,0.26,0.34,1721206665248
4.41,6.76,18.33,0.41,-0.15,0.11,1721206665258
0.10,11.16,2.75,0.20,-0.36,-0.07,1721206665268
-4.81,1.40,0.35,0.00,-0.26,0.05,1721206665278
-1.94,-8.14,7.75,-0.22,0.12,0.34,1721206665288
1.74,-0.34,20.91,-0.01,-0.13,0.51,1721206665298
2.63,2.77,5.88,0.18,-0.31,0.25,1721206665308
1.79,0.70,6.52,-0.14,-0.04,-0.12,1721206665318
0.01,0.41,14.85,0.09,-0.29,0.00,1721206665328
-0.66,2.77,10.50,0.21,-0.10,0.17,1721206665338
0.64,2.42,10.53,0.02,-0.13,0.03,1721206665348
0.69,7.23,14.82,-0.09,-0.16,-0.17,1721206665358
-1.12,-6.51,9.68,-0.34,-0.16,-0.16,1721206665368
-2.67,-4.55,14.45,-0.11,-0.35,0.21,1721206665378
3.32,2.33,1.77,0.34,0.03,0.38,1721206665388
8.17,6.47,2.52,-0.07,0.11,0.09,1721206665398
6.26,1.33,13.52,-0.14,0.01,-0.66,1721206665408
-4.45,-0.51,9.47,0.08,-0.28,-0.96,1721206665418
-12.04,4.86,11.03,-0.01,-0.03,-0.43,1721206665428
-10.93,-3.12,7.46,-0.12,-0.11,0.48,1721206665438
-2.62,-3.58,9.71,-0.24,0.12,0.99,1721206665448
8.15,-5.61,14.02,-0.20,0.06,0.83,1721206665458
10.11,1.47,14.88,-0.02,0.02,0.10,1721206665468
9.41,8.05,10.97,0.14,-0.12,-0.56,1721206665478
2.05,1.84,6.95,-0.12,-0.21,-0.75,1721206665488
-3.95,1.42,14.47,-0.13,0.04,-0.71,1721206665498
-7.19,-6.27,4.70,-0.04,-0.18,-0.32,1721206665508
-7.43,-4.04,4.34,-0.17,-0.03,0.19,1721206665518
-1.38,-2.33,16.02,-0.16,0.16,0.42,1721206665528
1.97,3.49,16.48,0.08,-0.08,0.30,1721206665538
4.95,2.26,13.61,-0.07,0.11,-0.14,1721206665548
1.65,4.63,11.08,-0.03,-0.17,-0.43,1721206665558
-1.19,0.76,1.54,-0.06,-0.07,-0.41,1721206665568
-3.06,-10.88,7.16,-0.25,0.12,-0.13,1721206665578
-3.95,-0.57,14.86,0.22,-0.03,0.07,1721206665588
1.53,0.77,0.72,0.23,0.05,0.18,1721206665598
3.46,-3.11,7.26,-0.18,0.13,-0.02,1721206665608
0.88,3.51,27.92,0.02,0.03,-0.38,1721206665618
-1.39,8.47,12.59,0.51,-0.24,-0.34,1721206665628
0.79,-2.37,-7.38,0.03,0.15,-0.13,1721206665638
1.24,-2.77,12.66,-0.21,0.13,-0.14,1721206665648
-2.41,4.83,19.61,0.16,-0.04,-0.23,1721206665658
-1.55,1.48,7.49,-0.02,0.03,-0.08,1721206665668
0.25,-4.14,7.86,-0.15,0.02,0.06,1721206665678
0.96,-3.33,12.19,0.10,0.10,-0.05,1721206665688
0.83,5.63,8.51,0.34,0.12,-0.25,1721206665698
-2.11,8.64,6.45,0.29,0.03,-0.26,1721206665708
-0.57,-1.24,13.47,-0.08,0.12,0.02,1721206665718
1.90,-5.49,13.82,-0.08,0.13,0.12,1721206665728
1.89,-0.72,13.12,-0.02,0.12,-0.14,1721206665738
0.08,6.09,13.23,0.19,-0.01,-0.23,1721206665748
-0.14,1.46,1.64,0.21,0.07,-0.13,1721206665758
0.10,-8.60,6.86,-0.06,0.19,-0.11,1721206665768
-1.31,-1.60,14.39,0.13,0.01,-0.14,1721206665778
-2.30,5.35,3.15,0.27,0.00,-0.06,1721206665788
-0.44,1.64,7.26,-0.07,0.21,0.06,1721206665798
0.81,-1.85,11.48,0.11,0.08,0.13,1721206665808
-0.05,2.39,8.18,0.12,0.06,0.07,1721206665818
0.79,-6.66,6.97,-0.30,0.11,0.01,1721206665828
-0.05,-2.75,28.54,-0.34,0.13,-0.01,1721206665838
1.04,4.18,14.39,0.44,-0.02,0.26,1721206665848
4.25,-3.10,-5.47,0.01,0.17,0.21,1721206665858
2.91,1.86,9.77,-0.10,0.26,-0.21,1721206665868
-1.57,-3.52,6.96,-0.08,0.02,-0.40,1721206665878
-5.58,-5.40,15.07,-0.34,0.14,-0.37,1721206665888
-6.38,-2.55,21.53,0.02,-0.05,0.12,1721206665898
-1.87,5.49,11.45,0.25,0.13,0.57,1721206665908
5.26,7.36,7.17,0.03,0.24,0.35,1721206665918
4.73,-2.21,8.80,-0.42,-0.04,-0.10,1721206665928
0.11,1.46,21.21,-0.15,0.06,-0.58,1721206665938
-2.83,4.50,3.29,0.29,-0.09,-0.33,1721206665948
-5.44,-0.37,-1.52,-0.27,0.07,0.04,1721206665958
-4.41,0.00,18.49,-0.25,0.08,0.28,1721206665968
-0.18,1.38,6.79,0.19,-0.17,0.38,1721206665978
3.39,0.81,-3.39,-0.10,0.11,0.21,1721206665988
3.76,-6.56,21.93,-0.59,0.33,-0.14,1721206665998
1.69,7.24,36.27,0.00,-0.15,-0.21,1721206666008
-1.84,6.44,4.07,0.30,-0.28,-0.13,1721206666018
-1.72,-6.21,-4.70,-0.44,0.19,-0.07,1721206666028
-0.60,-0.35,20.39,-0.12,0.04,0.20,1721206666038
-0.18,-2.75,10.45,0.19,-0.06,0.16,1721206666048
0.68,5.56,7.99,0.13,0.10,-0.22,1721206666058
0.33,8.94,6.78,0.38,-0.02,-0.17,1721206666068
-0.80,-5.83,-1.16,-0.20,-0.06,0.22,1721206666078
1.55,-6.33,21.55,-0.49,0.28,0.24,1721206666088
5.71,5.02,23.42,0.18,0.01,-0.06,1721206666098
2.72,1.57,-0.45,0.05,-0.23,-0.42,1721206666108
-2.30,-2.81,5.15,-0.17,0.15,-0.50,1721206666118
-1.30,2.21,19.21,0.05,0.04,0.30,1721206666661
0.04,6.86,13.63,0.27,-0.04,0.36,1721206666667
2.27,1.85,-0.32,0.07,-0.05,0.23,1721206666676
0.31,-6.50,7.62,-0.33,0.02,0.01,1721206666686
-0.85,-0.49,20.06,-0.08,-0.09,-0.05,1721206666695
-1.89,1.86,8.49,0.17,-0.16,0.14,1721206666705
-1.57,2.98,2.16,0.03,0.01,0.22,1721206666714
0.86,-0.26,10.58,-0.16,0.04,0.26,1721206666724
1.64,-1.67,12.24,-0.11,-0.12,0.13,1721206666733
2.42,-4.45,17.45,-0.15,0.04,0.04,1721206666743
0.08,1.08,11.46,0.10,-0.19,-0.04,1721206666752
-1.23,1.52,3.79,0.08,-0.03,-0.02,1721206666762
-1.33,-0.84,9.89,0.10,-0.04,0.11,1721206666771
1.52,10.54,11.65,0.42,0.01,0.15,1721206666781
3.28,3.85,4.68,0.18,-0.07,0.14,1721206666790
1.24,-9.14,8.83,-0.20,-0.04,-0.00,1721206666800
0.53,-3.14,16.86,-0.02,-0.05,-0.07,1721206666809
-1.28,9.15,11.58,0.25,-0.14,-0.10,1721206666819
-0.99,2.68,3.40,-0.01,-0.10,-0.04,1721206666828
-0.63,-9.73,10.82,-0.31,-0.01,-0.01,1721206666838
-0.18,-1.61,22.36,0.07,0.04,-0.06,1721206666847
-0.64,5.83,9.90,0.30,-0.13,-0.07,1721206666857
-0.32,5.07,2.61,0.05,-0.04,0.10,1721206666866
2.00,-2.41,10.71,-0.11,0.10,0.23,1721206666876
2.31,-3.41,12.20,0.14,-0.03,-0.02,1721206666885
0.56,-5.15,10.22,-0.07,-0.05,-0.47,1721206666895
-3.20,5.47,18.81,0.15,-0.11,-0.34,1721206666904
-2.87,3.66,6.24,0.30,-0.03,0.15,1721206666914
-0.27,2.71,8.12,0.12,0.17,0.34,1721206666923
2.38,3.16,7.13,0.24,-0.05,0.19,1721206666933
5.59,-0.75,2.37,0.12,0.04,0.01,1721206666942
2.64,-5.17,2.02,-0.22,-0.00,-0.35,1721206666952
-1.42,-9.53,18.61,-0.35,0.06,-0.52,1721206666961
-5.03,-0.92,21.60,0.39,-0.20,0.06,1721206666971
-0.82,5.90,3.33,0.44,0.12,0.56,1721206666980
4.52,0.40,4.15,-0.11,0.22,0.11,1721206666990
1.71,-3.29,20.82,-0.16,-0.07,-0.44,1721206666999
-3.46,3.46,18.50,0.29,-0.04,-0.40,1721206667009
-4.39,4.11,1.79,0.26,-0.08,0.06,1721206667018
-1.70,0.83,4.81,-0.17,0.14,0.36,1721206667028
2.37,3.49,17.44,-0.11,0.12,0.19,1721206667037
3.78,-1.10,10.43,-0.04,-0.01,-0.06,1721206667047
2.25,-6.01,7.31,-0.30,0.04,-0.22,1721206667056
-0.51,3.94,12.34,-0.00,0.03,-0.13,1721206667066
-0.59,3.78,1.67,0.09,-0.04,-0.02,1721206667075
-1.01,2.93,9.07,-0.07,0.10,-0.09,1721206667085
-1.10,-0.02,7.26,0.07,-0.17,0.02,1721206667094
-0.36,-8.83,10.42,-0.44,0.14,0.09,1721206667104
0.09,3.08,29.13,-0.26,0.08,-0.01,1721206667113
1.32,12.36,15.85,0.29,-0.13,0.04,1721206667123
1.36,-1.61,-7.43,-0.02,-0.10,-0.11,1721206667132
-0.45,-3.86,0.31,-0.15,0.10,-0.23,1721206667142
1.92,-3.01,6.72,0.13,0.24,-0.19,1721206667152
1.12,0.23,11.37,-0.02,-0.09,-0.25,1721206667162
-4.12,-2.28,17.53,-0.21,-0.04,-0.43,1721206667172
-5.54,-1.30,14.15,-0.09,-0.06,-0.10,1721206667182
-1.50,-0.14,7.10,-0.20,0.05,0.29,1721206667192
3.96,2.92,12.79,-0.16,0.12,0.32,1721206667202
5.02,-6.61,9.06,-0.18,-0.08,-0.13,1721206667212
0.25,0.67,19.44,-0.16,0.10,-0.59,1721206667222
-3.31,5.12,12.74,0.18,-0.20,-0.47,1721206667232
-5.40,-2.09,0.88,-0.10,-0.06,0.11,1721206667242
-1.33,10.01,17.48,0.05,0.41,0.34,1721206667252
1.31,-0.24,7.32,0.26,-0.22,0.17,1721206667262
2.24,-7.91,1.41,-0.11,0.17,-0.12,1721206667272
3.54,5.05,11.83,0.13,0.10,-0.18,1721206667282
1.36,-4.48,12.55,-0.17,-0.11,-0.30,1721206667292
-4.36,6.88,19.32,0.09,-0.25,-0.35,1721206667302
-4.19,3.35,-1.09,0.51,-0.07,-0.04,1721206667312
-2.67,-11.39,-1.21,-0.08,0.21,0.33,1721206667322
5.24,5.52,10.90,0.06,0.20,0.27,1721206667332
5.43,6.16,14.06,0.33,0.01,-0.07,1721206667342
2.65,-3.03,8.75,-0.16,-0.01,-0.45,1721206667352
-6.33,0.73,7.67,0.21,-0.42,-0.26,1721206667362
-2.28,-4.93,-1.74,0.10,0.22,0.13,1721206667372
1.74,-3.62,21.75,-0.21,0.33,0.10,1721206667382
-1.07,6.66,17.86,0.47,-0.37,-0.06,1721206667392
-1.06,-1.78,-3.22,0.01,-0.00,-0.10,1721206667402
-0.96,-0.37,12.70,-0.14,0.19,0.09,1721206667412
0.77,-4.36,12.90,0.01,-0.27,0.22,1721206667422
3.22,0.67,18.59,-0.21,0.32,-0.15,1721206667432
-0.14,2.43,12.74,0.21,-0.32,-0.33,1721206667442
-3.35,-4.37,1.53,-0.20,-0.07,-0.17,1721206667452
-0.12,0.38,15.07,0.05,0.21,0.12,1721206667462
1.76,-1.40,6.26,0.13,-0.07,-0.02,1721206667472
-1.49,5.68,13.84,0.11,0.03,-0.30,1721206667482
-0.27,7.97,11.10,0.30,-0.02,-0.21,1721206667492
-1.35,-6.22,6.13,-0.29,-0.06,-0.09,1721206667502
-2.38,-0.68,20.41,-0.19,-0.02,-0.05,1721206667512
-0.70,5.22,6.25,0.29,-0.16,-0.09,1721206667522
-0.79,1.40,3.13,0.04,0.02,-0.16,1721206667532
0.09,1.35,14.01,0.15,-0.01,0.03,1721206667542
3.49,-1.88,10.02,0.15,0.11,0.11,1721206667552
2.09,7.06,10.70,0.13,0.04,-0.26,1721206667562
-0.18,-0.39,7.38,-0.10,-0.15,-0.42,1721206667572
-2.65,-3.42,14.97,-0.01,0.04,-0.19,1721206667582
-0.43,5.02,10.11,0.46,-0.00,0.11,1721206667592
0.81,-0.12,3.19,-0.18,0.09,-0.05,1721206667602
-1.08,3.42,25.27,-0.19,-0.01,-0.16,1721206667612
-0.73,3.17,11.33,0.25,-0.09,-0.29,1721206667622
-3.73,-0.64,-1.19,-0.04,-0.13,-0.17,1721206667632
-4.73,-0.32,4.88,0.04,0.12,0.22,1721206667642
1.35,-3.88,5.85,-0.07,0.12,0.31,1721206667652
2.03,6.56,18.17,0.14,-0.09,0.14,1721206667662
3.55,-2.50,11.33,0.02,-0.09,-0.01,1721206667672
1.72,-2.75,12.90,-0.08,0.01,-0.18,1721206667682
-0.79,7.98,10.32,0.16,-0.08,-0.30,1721206667692
-2.34,-2.76,5.45,-0.33,-0.03,-0.18,1721206667702
-4.17,-4.56,17.60,0.01,-0.06,0.05,1721206667712
0.11,1.44,7.15,0.13,0.16,0.14,1721206667722
0.67,0.75,8.12,-0.24,-0.05,0.09,1721206667732
1.00,-5.53,13.34,-0.27,-0.01,-0.04,1721206667742
1.53,3.58,13.04,0.14,-0.04,-0.17,1721206667752
0.43,-0.66,-3.68,0.13,-0.13,-0.19,1721206667762
-1.76,-7.81,14.63,-0.52,0.19,-0.03,1721206667772
-1.05,4.34,24.37,-0.02,-0.05,-0.10,1721206667782
0.09,2.66,5.20,0.10,-0.18,-0.10,1721206667792
-0.97,-0.02,7.49,-0.31,0.10,0.06,1721206667802
-1.11,-2.09,7.88,-0.01,-0.00,0.05,1721206667812
0.25,-2.22,1.70,-0.03,-0.02,-0.10,1721206667822
0.71,-3.12,13.22,-0.28,0.08,-0.18,1721206667832
-1.14,5.71,24.32,-0.00,-0.06,-0.07,1721206667842
-0.33,6.54,3.40,0.18,-0.12,0.06,1721206667852
1.30,-9.60,1.93,-0.53,0.18,-0.09,1721206667862
-0.93,1.49,24.26,-0.05,0.00,-0.20,1721206667872
0.71,3.70,4.46,0.43,-0.07,-0.18,1721206667882
0.15,-4.02,4.82,-0.26,0.15,-0.22,1721206667892
-3.06,7.47,27.97,0.02,-0.07,-0.03,1721206667902
0.74,6.39,7.51,0.43,0.03,0.02,1721206667912
1.89,-5.05,-6.50,-0.08,0.01,-0.07,1721206667922
-0.88,-5.16,12.84,-0.20,0.06,-0.29,1721206667932
0.49,4.00,13.55,0.57,-0.06,-0.24,1721206667942
0.64,-4.43,-1.82,0.19,-0.01,-0.05,1721206667952
-0.25,-0.17,23.43,-0.18,0.20,-0.06,1721206667962
0.41,9.20,22.24,0.27,-0.07,0.01,1721206667972
0.89,4.30,-1.05,0.16,-0.03,-0.05,1721206667982
2.51,-6.82,6.48,-0.19,0.27,-0.22,1721206667992
-0.36,-6.21,16.88,0.10,-0.00,-0.26,1721206668002
-3.37,2.01,12.08,0.21,0.08,-0.19,1721206668012
-1.35,9.46,10.85,0.15,0.11,0.04,1721206668022
1.93,7.05,7.97,0.14,0.08,0.23,1721206668032
4.64,-14.83,1.95,-0.22,0.22,0.02,1721206668042
1.52,-4.63,14.81,-0.09,0.15,-0.46,1721206668052
-2.67,5.86,10.63,0.33,-0.08,-0.42,1721206668062
-3.25,-0.91,5.61,0.05,0.15,-0.01,1721206668072
-1.42,-1.57,14.67,0.12,0.14,0.30,1721206668082
1.85,-1.47,13.64,0.08,0.20,0.11,1721206668092
1.52,5.96,10.38,0.18,0.02,-0.14,1721206668102
-1.12,7.83,-0.46,0.11,0.04,-0.18,1721206668112
-1.57,-6.73,0.79,-0.34,0.16,0.06,1721206668122
-0.79,-6.39,12.60,-0.15,0.10,0.17,1721206668132
1.72,-0.22,9.24,0.00,0.06,0.01,1721206668142
1.25,-0.45,18.78,-0.47,0.10,-0.26,1721206668152
-1.22,8.87,25.46,0.14,-0.04,-0.17,1721206668162
-0.99,3.46,-5.30,0.04,-0.09,0.06,1721206668172
1.12,-7.16,3.96,-0.81,0.38,0.03,1721206668182
-1.15,-11.61,35.27,-0.74,0.07,-0.26,1721206668192
-2.11,13.59,34.35,0.33,-0.19,-0.28,1721206668202
-2.69,13.61,-10.32,0.37,-0.26,0.03,1721206668212
0.22,-6.74,-6.68,-0.63,0.46,0.20,1721206668222
2.85,-11.93,14.04,-0.08,0.14,0.10,1721206668232
3.12,3.57,14.82,0.25,0.02,-0.15,1721206668242
-1.39,1.83,2.91,-0.07,-0.25,-0.29,1721206668252
-4.87,-0.73,10.26,-0.08,0.04,-0.20,1721206668262
-1.78,-1.51,11.44,0.05,0.06,0.30,1721206668272
2.63,0.81,16.83,-0.06,0.12,0.41,1721206668282
5.31,3.15,10.11,0.20,-0.08,0.06,1721206668292
3.83,-2.76,1.08,-0.04,-0.12,-0.31,1721206668302
-2.97,-5.32,13.66,-0.26,0.02,-0.36,1721206668312
-2.89,5.02,15.79,0.25,0.01,-0.17,1721206668322
-1.84,6.78,6.60,0.08,-0.14,0.19,1721206668332
-2.09,-2.27,17.61,-0.41,0.08,0.18,1721206668342
1.95,2.52,15.69,0.09,-0.13,0.27,1721206668352
3.95,3.11,-1.44,0.07,-0.04,0.25,1721206668362
4.04,-0.96,11.73,-0.40,0.21,-0.24,1721206668372
0.45,0.89,21.61,-0.14,-0.36,-0.44,1721206668382
-5.14,2.52,11.59,0.09,-0.02,-0.26,1721206668392
-2.25,3.51,6.14,0.15,0.01,0.15,1721206668402
-0.15,0.96,3.78,0.13,-0.02,0.40,1721206668412
3.90,0.96,12.24,0.06,0.22,0.15,1721206668422
3.05,-1.06,6.85,0.27,-0.31,-0.23,1721206668432
-1.08,-2.43,4.39,0.11,0.02,-0.37,1721206668442
-3.16,-0.97,13.32,-0.05,-0.04,-0.13,1721206668452
-1.64,-0.47,10.69,0.10,-0.01,0.08,1721206668462
0.50,-2.20,7.27,0.14,-0.02,0.05,1721206668472
0.15,-2.48,3.90,0.23,-0.13,-0.02,1721206668482
1.14,-1.58,6.86,0.03,0.05,-0.03,1721206668492
1.45,-2.08,24.25,-0.22,0.01,-0.19,1721206668502
-1.81,3.03,17.61,0.31,-0.27,-0.25,1721206668512
-1.71,0.03,-0.23,-0.01,-0.05,-0.12,1721206668522
-4.27,4.76,10.26,-0.23,-0.04,-0.04,1721206668532
0.66,-5.76,17.07,-0.24,0.06,0.01,1721206668542
0.45,-3.57,18.84,-0.10,-0.05,-0.09,1721206668552
-0.53,2.31,9.40,0.04,-0.15,-0.15,1721206668562
-1.51,1.68,7.40,-0.11,-0.22,-0.09,1721206668572
-2.22,7.20,12.19,0.27,-0.14,-0.01,1721206668582
2.04,0.77,11.37,0.24,0.01,0.01,1721206668592
-0.21,4.19,9.69,0.26,-0.36,-0.08,1721206668602
0.51,2.12,6.36,0.07,0.05,-0.30,1721206668612
0.57,1.11,16.64,-0.12,-0.01,-0.30,1721206668622
-2.80,2.40,7.95,0.32,-0.33,-0.14,1721206668632
-1.17,2.51,2.46,0.18,0.09,-0.03,1721206668642
0.24,-0.59,4.86,0.09,-0.15,0.04,1721206668652
2.04,-1.55,11.64,-0.18,0.09,-0.21,1721206668667
0.91,1.00,15.83,-0.12,-0.01,-0.28,1721206668671
-0.99,3.78,11.63,0.17,-0.15,-0.36,1721206668681
-2.19,-1.69,4.41,-0.05,-0.06,-0.21,1721206668691
-1.26,-3.73,17.62,-0.19,0.13,-0.06,1721206668701
-0.15,0.61,22.99,0.07,-0.05,-0.14,1721206668711
-0.38,1.97,7.78,0.19,-0.24,-0.29,1721206668721
-0.95,2.76,1.98,0.01,0.03,-0.27,1721206668731
-1.89,-0.04,-0.15,-0.08,-0.13,-0.10,1721206668741
-1.42,-2.23,4.32,-0.15,-0.00,-0.06,1721206668751
2.01,-5.33,10.30,-0.23,0.08,-0.18,1721206668761
0.91,-5.76,28.13,-0.37,0.04,-0.31,1721206668771
-1.91,9.33,24.78,0.40,-0.19,-0.37,1721206668781
-1.13,0.63,-3.10,-0.11,-0.08,-0.22,1721206668791
-2.54,2.32,7.50,-0.36,0.05,-0.03,1721206668801
0.80,-8.55,11.37,-0.50,0.22,-0.22,1721206668811
-1.39,-3.65,25.08,-0.14,-0.14,-0.32,1721206668821
-1.84,8.95,5.57,0.39,-0.12,-0.09,1721206668831
1.13,1.55,-6.96,-0.31,0.19,0.02,1721206668841
1.45,1.02,18.55,-0.11,0.12,-0.23,1721206668851
2.41,-1.66,11.41,0.20,-0.07,-0.50,1721206668861
-1.92,-5.48,6.39,-0.12,0.13,-0.68,1721206668871
-5.30,-2.29,16.15,-0.06,-0.02,-0.38,1721206668881
-4.09,8.28,15.26,0.17,0.14,-0.06,1721206668891
0.01,9.89,10.58,0.23,0.16,0.18,1721206668901
2.93,-0.83,4.85,-0.03,0.26,-0.14,1721206668911
1.22,-4.19,10.16,-0.09,0.08,-0.54,1721206668921
-1.67,2.33,10.00,0.19,0.03,-0.50,1721206668931
-2.01,0.73,5.45,0.18,0.09,-0.18,1721206668941
-0.67,-1.30,11.10,0.09,0.17,-0.05,1721206668951
2.12,-3.41,11.19,0.15,0.08,-0.12,1721206668961
0.91,3.39,14.42,0.19,0.19,-0.42,1721206668971
-0.25,0.95,8.90,0.18,0.07,-0.49,1721206668981
-1.92,-1.05,9.73,0.08,0.14,-0.29,1721206668991
-1.57,1.35,11.54,0.20,0.23,-0.07,1721206669001
0.21,-0.53,8.20,0.04,0.21,-0.16,1721206669011
1.43,-4.50,8.69,-0.01,0.12,-0.17,1721206669021
-0.18,-1.01,10.76,0.05,0.20,-0.21,1721206669031
-0.04,7.28,10.10,0.26,0.20,-0.23,1721206669041
1.97,5.85,0.85,0.20,0.22,-0.12,1721206669051
1.38,-12.23,0.70,-0.37,0.25,-0.26,1721206669061
-1.40,-9.29,27.42,-0.37,0.32,-0.47,1721206669071
-3.12,0.89,21.52,0.33,0.04,-0.19,1721206669081
-1.31,2.81,4.33,0.18,0.26,0.12,1721206669091
2.96,12.67,9.45,0.20,0.42,0.18,1721206669101
4.50,-2.73,0.12,-0.07,0.30,-0.15,1721206669111
1.49,-14.78,10.14,-0.46,0.39,-0.71,1721206669121
-4.85,13.66,25.23,0.27,0.11,-0.46,1721206669131
-5.52,7.57,1.96,0.18,0.20,0.08,1721206669141
-1.86,-7.25,3.58,-0.29,0.34,0.29,1721206669151
1.67,-11.12,10.48,-0.32,0.32,0.13,1721206669161
0.77,2.26,26.01,-0.15,0.23,-0.17,1721206669171
-2.48,10.14,14.17,0.36,-0.02,-0.18,1721206669181
-1.41,3.77,-3.13,0.12,0.29,0.19,1721206669191
1.33,-7.09,2.55,-0.31,0.30,0.38,1721206669201
0.68,-2.41,18.51,-0.25,0.27,0.03,1721206669211
1.02,4.51,23.27,0.13,0.11,-0.24,1721206669221
-2.26,3.56,5.82,0.17,-0.03,-0.13,1721206669231
-4.80,3.39,4.49,-0.02,0.19,0.17,1721206669241
0.47,6.73,8.04,0.12,0.24,0.36,1721206669251
3.18,2.64,4.36,-0.24,0.11,0.17,1721206669261
1.98,-13.26,22.44,-0.75,0.22,-0.20,1721206669271
-2.12,6.22,22.69,0.42,-0.13,-0.20,1721206669281
-2.70,4.09,-17.97,0.11,-0.11,0.11,1721206669291
-1.51,-11.06,18.38,-1.01,0.60,0.14,1721206669301
1.49,6.00,43.16,0.20,-0.10,0.36,1721206669311
0.43,5.36,-9.62,0.61,-0.32,0.34,1721206669321
2.04,-1.28,-0.88,-0.49,0.56,0.14,1721206669331
2.24,-4.39,16.22,-0.30,0.01,0.03,1721206669341
1.89,4.51,19.88,0.37,0.16,-0.17,1721206669351
-0.59,2.41,-0.41,0.16,-0.23,-0.09,1721206669361
-3.94,-4.62,6.00,-0.33,0.12,0.14,1721206669371
0.39,3.48,19.98,0.03,0.13,0.46,1721206669381
4.24,0.42,4.41,-0.05,0.02,0.29,1721206669391
3.31,-6.69,4.20,-0.24,0.08,-0.12,1721206669401
-0.05,2.16,9.32,0.08,0.00,-0.26,1721206669411
-0.66,0.81,10.10,-0.20,0.15,0.04,1721206669421
-0.62,-4.13,31.57,-0.42,0.23,0.04,1721206669431
0.61,7.72,16.87,0.43,-0.18,0.07,1721206669441
1.58,-1.34,-12.08,-0.01,0.13,0.12,1721206669451
1.69,0.16,15.74,-0.21,0.38,-0.20,1721206669461
4.46,10.01,20.06,0.37,-0.30,-0.28,1721206669471
-3.59,0.32,-2.56,0.12,0.03,-0.33,1721206669481
-5.37,-4.01,10.91,-0.29,0.34,-0.19,1721206669491
-2.14,2.09,16.45,0.19,0.02,0.20,1721206669501
1.19,2.85,-0.31,0.04,0.10,0.14,1721206669511
3.85,-7.67,15.78,-0.31,0.37,-0.17,1721206669521
2.67,-1.62,23.63,0.28,-0.14,-0.23,1721206669531
-2.25,3.72,2.90,0.13,-0.01,-0.40,1721206669541
-2.64,1.54,14.73,-0.18,0.38,-0.43,1721206669551
-3.49,-0.97,15.53,0.25,-0.07,-0.07,1721206669561
-1.30,3.24,-0.57,0.52,0.12,0.26,1721206669571
4.28,-6.00,7.96,-0.21,0.25,0.13,1721206669581
1.02,5.35,31.90,-0.05,-0.12,-0.28,1721206669591
-1.35,6.80,0.99,0.63,-0.10,-0.46,1721206669601
-1.50,-4.20,-3.98,-0.23,0.34,-0.35,1721206669611
-4.26,-6.75,10.85,0.30,-0.25,0.09,1721206669621
-1.96,-5.61,6.41,0.23,0.13,0.22,1721206669631
2.28,-0.11,13.95,-0.03,0.22,0.01,1721206669641
1.92,8.08,17.16,0.10,0.12,-0.29,1721206669651
-1.47,2.67,8.16,-0.03,-0.05,-0.27,1721206669661
-1.19,-7.09,7.32,-0.06,0.13,0.02,1721206669671
0.76,-3.10,10.94,0.04,0.21,0.11,1721206669681
2.23,1.34,12.76,0.10,0.07,-0.05,1721206669691
-0.28,4.92,9.28,0.23,-0.00,-0.18,1721206669701
-1.42,7.07,8.38,0.14,0.30,-0.25,1721206669711
-1.71,2.03,9.11,-0.01,0.07,-0.04,1721206669721
-2.81,-0.91,6.73,-0.06,0.09,0.12,1721206669731
0.23,-0.21,9.88,-0.13,0.29,0.08,1721206669741
0.15,-3.48,13.92,-0.12,0.00,0.02,1721206669751
-1.66,1.32,13.13,0.14,0.07,0.05,1721206669761
0.90,2.38,5.98,0.17,0.16,0.15,1721206669771
0.74,5.66,8.29,0.13,0.06,0.14,1721206669781
1.90,1.88,7.35,-0.09,0.21,-0.07,1721206669791
-0.32,-4.58,14.00,-0.21,0.08,-0.19,1721206669801
-4.78,-0.56,10.09,0.07,-0.05,-0.13,1721206669811
-4.70,-2.86,10.67,-0.33,0.21,0.07,1721206669821
-3.73,2.20,24.50,-0.03,0.01,0.36,1721206669831
-2.24,3.92,2.13,0.27,-0.15,0.46,1721206669841
1.61,-1.69,-1.52,-0.25,0.22,0.36,1721206669851
2.34,-7.72,5.81,-0.11,-0.03,0.25,1721206669861
2.78,-2.76,13.32,-0.17,0.07,0.03,1721206669871
-0.59,5.40,19.92,0.16,-0.17,0.09,1721206669881
-1.52,-6.87,-5.69,-0.04,-0.28,0.29,1721206669891
-1.04,-4.26,17.14,-0.63,0.44,0.22,1721206669901
1.52,13.16,26.50,0.16,-0.26,0.36,1721206669911
0.49,-4.01,-3.70,0.06,-0.27,0.36,1721206669921
-1.78,-4.55,9.38,-0.50,0.16,0.20,1721206669931
4.35,8.59,14.47,-0.01,-0.21,0.42,1721206669941
0.36,0.13,2.83,-0.13,-0.21,0.48,1721206669951
-1.29,-5.21,9.90,-0.36,-0.26,0.51,1721206669961
1.17,2.47,13.12,-0.04,-0.18,0.60,1721206669971
3.95,2.44,6.59,-0.03,-0.13,0.29,1721206669981
2.61,-4.87,11.26,-0.21,-0.35,0.18,1721206669991
-0.33,2.94,20.08,-0.02,-0.24,0.29,1721206670001
-0.57,8.09,13.72,0.13,-0.24,0.20,1721206670011
0.61,-0.33,4.61,0.06,-0.33,0.28,1721206670021
2.50,-4.79,7.28,-0.03,-0.10,0.35,1721206670031
1.82,7.25,13.98,0.20,-0.20,0.00,1721206670041
0.03,3.54,6.36,0.24,-0.42,-0.02,1721206670051
0.55,1.46,5.07,0.11,-0.18,0.14,1721206670061
2.61,-3.02,9.85,0.03,-0.07,0.04,1721206670071
0.54,-6.03,14.63,-0.05,-0.34,-0.09,1721206670081
-1.70,9.42,12.67,0.43,-0.26,-0.08,1721206670091
1.74,-8.75,-1.36,-0.07,-0.13,0.06,1721206670101
0.43,-8.81,27.93,-0.19,-0.17,-0.05,1721206670111
1.19,10.02,23.58,0.87,-0.29,-0.09,1721206670121
1.56,1.48,-11.64,0.20,-0.21,-0.04,1721206670131
-3.00,3.25,11.71,-0.09,0.00,-0.12,1721206670141
2.90,-6.03,12.92,0.16,-0.11,-0.25,1721206670151
0.36,-0.63,10.55,0.15,-0.07,-0.38,1721206670161
0.10,4.90,2.34,0.37,-0.16,-0.27,1721206670171
0.17,-10.41,4.11,-0.32,0.06,-0.33,1721206670181
-2.75,2.38,30.83,0.37,-0.12,-0.26,1721206670191
-0.62,7.20,0.95,0.81,-0.13,-0.06,1721206670201
0.95,-0.78,-3.05,-0.21,0.15,-0.15,1721206670211
0.27,-4.01,27.70,-0.20,0.03,-0.37,1721206670221
-1.28,0.40,15.79,0.41,-0.12,-0.37,1721206670231
-1.37,5.18,0.75,0.38,-0.05,-0.18,1721206670241
2.02,-1.08,0.74,0.08,0.19,-0.09,1721206670251
2.92,-2.12,14.37,-0.00,0.13,-0.35,1721206670261
-0.60,12.27,13.41,0.53,-0.14,-0.60,1721206670271
-1.54,1.37,-4.63,-0.03,0.04,-0.46,1721206670281
-2.56,-8.92,15.09,-0.48,0.20,-0.28,1721206670291
-0.90,2.71,16.41,0.18,0.05,-0.07,1721206670301
2.93,-4.27,8.12,-0.29,0.21,-0.16,1721206670311
-0.31,3.92,20.67,0.13,-0.06,-0.38,1721206670321
0.51,3.40,-0.08,0.30,0.07,-0.39,1721206670331
-0.07,-2.38,11.35,-0.59,0.32,-0.39,1721206670341
-1.64,12.21,11.71,0.46,-0.22,-0.09,1721206670351
4.75,-3.17,-8.75,-0.13,0.50,-0.37,1721206670361
-2.44,-9.28,9.47,-0.35,-0.19,-0.47,1721206670371
-6.48,0.33,24.52,-0.15,0.40,-0.44,1721206670381
-1.96,2.63,12.74,0.09,0.17,-0.32,1721206670391
-0.90,-0.12,1.26,-0.16,0.02,-0.08,1721206670401
0.17,3.20,14.84,-0.31,0.34,-0.17,1721206670411
0.52,4.20,6.96,0.18,0.05,-0.32,1721206670421
-2.11,-8.32,-10.58,-0.39,0.09,-0.47,1721206670431
-3.03,-10.86,29.91,-0.88,0.68,-0.57,1721206670441
4.65,17.36,24.59,0.31,0.02,-0.15,1721206670451
-3.55,-5.55,-12.36,-0.13,-0.08,0.08,1721206670461
-2.05,2.28,18.36,-0.47,0.67,-0.00,1721206670471
8.08,7.18,17.69,0.20,-0.18,0.18,1721206670481
1.14,-9.00,-4.00,-0.29,0.16,-0.14,1721206670491
1.06,2.42,20.48,-0.15,0.57,-0.40,1721206670501
-0.33,1.24,16.76,0.08,-0.15,-0.29,1721206670511
-7.20,3.12,9.15,-0.10,0.12,-0.19,1721206670521
-1.98,6.70,10.32,0.38,0.31,0.25,1721206670531
-0.34,-4.83,0.49,0.13,-0.02,0.40,1721206670541
1.58,-0.07,19.55,-0.08,0.59,0.01,1721206670551
4.09,8.12,14.43,0.38,-0.05,-0.17,1721206670561
-3.17,-0.28,-3.78,0.06,-0.12,-0.28,1721206670571
-5.17,-9.08,14.44,-0.09,0.47,-0.01,1721206670581
0.48,-1.64,19.95,0.32,0.26,0.33,1721206670591
-0.09,4.52,5.46,0.27,0.01,0.24,1721206670601
0.96,-0.33,10.01,-0.07,0.23,-0.07,1721206670611
1.64,0.52,18.16,0.14,0.04,-0.03,1721206670621
-0.74,-1.95,6.29,0.13,-0.01,0.04,1721206670631
-1.74,-3.49,9.06,-0.03,0.19,-0.02,1721206670641
-1.18,1.07,13.97,0.16,0.02,0.07,1721206670651
-1.49,3.26,5.91,0.16,0.03,0.09,1721206670661
0.45,-0.51,4.69,0.07,0.11,0.10,1721206670676
0.25,-3.20,6.78,-0.03,0.23,0.15,1721206670680
2.32,2.34,15.30,0.08,0.20,0.02,1721206670690
0.23,-0.97,7.69,0.00,-0.27,-0.05,1721206670700
-1.88,-0.43,12.16,-0.13,0.26,-0.19,1721206670710
-1.33,0.38,14.77,0.03,0.10,-0.08,1721206670720
-3.38,0.90,9.05,-0.02,-0.21,0.16,1721206670730
-1.58,0.89,13.59,-0.12,0.10,0.19,1721206670740
1.07,1.60,12.09,0.09,-0.09,0.17,1721206670750
1.58,0.01,5.06,0.00,-0.03,0.05,1721206670760
1.27,2.55,10.98,-0.05,0.15,-0.07,1721206670770
-0.53,3.88,13.01,0.11,-0.10,-0.05,1721206670780
-1.71,0.72,7.82,0.09,-0.09,0.16,1721206670790
0.54,5.21,12.55,0.04,0.15,0.17,1721206670800
3.26,2.34,12.58,-0.03,0.05,-0.00,1721206670810
1.14,0.31,8.93,-0.13,-0.11,-0.08,1721206670820
-0.47,4.81,10.60,0.04,0.03,-0.09,1721206670830
-0.54,-0.20,5.75,0.03,-0.05,0.04,1721206670840
0.07,-1.99,7.13,0.03,0.08,0.24,1721206670850
2.38,-2.43,9.45,-0.08,0.15,0.07,1721206670860
-0.30,6.13,16.43,0.01,-0.07,-0.21,1721206670870
-1.40,5.98,7.16,0.22,-0.06,-0.09,1721206670880
-0.85,-6.72,3.35,-0.32,0.07,0.11,1721206670890
-2.92,-1.82,18.07,-0.28,0.01,0.11,1721206670900
-1.15,-0.55,14.65,-0.20,-0.06,0.01,1721206670910
-2.51,-0.45,11.54,-0.16,-0.14,0.06,1721206670920
-1.36,3.61,-3.44,0.11,-0.07,0.21,1721206670930
2.88,-6.01,0.53,-0.42,0.18,0.33,1721206670940
-0.42,-4.21,21.60,-0.35,-0.10,0.04,1721206670950
0.93,2.94,19.69,-0.02,-0.06,-0.29,1721206670960
0.13,5.36,15.67,-0.28,-0.02,-0.15,1721206670970
-2.47,9.83,15.06,-0.22,-0.12,0.13,1721206670980
-0.36,-7.58,2.58,-0.28,0.01,0.15,1721206670990
0.28,-9.05,11.04,-0.41,0.11,-0.07,1721206671000
-1.47,11.39,14.33,0.24,-0.15,-0.04,1721206671010
1.40,6.51,-1.43,0.53,-0.01,0.09,1721206671020
2.40,-6.30,1.09,-0.01,0.04,0.08,1721206671030
-3.51,4.07,23.12,0.04,-0.05,-0.00,1721206671040
-0.08,6.34,15.55,0.27,-0.02,-0.16,1721206671050
0.07,-6.49,4.19,-0.11,-0.15,-0.29,1721206671060
-2.03,1.92,16.73,-0.11,-0.06,-0.02,1721206671070
-2.46,-1.21,8.07,0.17,-0.07,0.12,1721206671080
-0.23,-0.83,9.42,0.01,0.06,-0.03,1721206671090
2.25,2.47,14.92,0.19,-0.01,-0.01,1721206671100
-0.22,-1.49,4.23,0.13,-0.15,-0.07,1721206671110
-3.09,6.10,11.90,0.08,0.04,-0.19,1721206671120
0.29,1.33,7.72,0.24,-0.08,0.08,1721206671130
1.81,-13.20,7.38,-0.01,0.06,0.18,1721206671140
-0.13,-0.02,20.58,0.21,-0.03,-0.05,1721206671150
0.47,9.96,5.32,0.60,-0.15,-0.00,1721206671160
1.68,0.40,0.54,0.21,0.08,0.09,1721206671170
3.08,-0.82,17.96,0.16,0.17,-0.05,1721206671180
1.93,-0.80,9.22,0.32,-0.13,-0.15,1721206671190
-1.18,3.13,0.03,0.13,-0.03,-0.13,1721206671200
-0.64,-5.14,13.00,-0.46,0.18,-0.19,1721206671210
-2.00,2.91,31.59,0.23,-0.15,0.01,1721206671220
0.79,3.93,-4.27,0.61,-0.03,0.31,1721206671230
5.84,-3.46,0.35,-0.34,0.55,0.00,1721206671240
8.57,2.74,24.55,0.17,-0.15,-0.42,1721206671250
-2.18,2.15,10.63,0.47,-0.11,-0.32,1721206671260
-2.68,2.43,3.93,0.19,0.22,0.04,1721206671270
-0.94,1.96,6.59,0.14,0.04,0.15,1721206671280
1.78,2.02,11.68,0.08,0.10,0.00,1721206671290
2.49,-1.26,14.36,0.09,0.09,-0.28,1721206671300
-1.71,2.88,4.03,0.32,-0.06,-0.23,1721206671310
-1.97,2.75,-2.32,0.07,0.20,-0.11,1721206671320
0.23,-1.44,10.69,-0.16,0.11,-0.08,1721206671330
-0.87,1.69,15.72,0.11,-0.03,-0.07,1721206671340
-0.97,-0.46,3.70,-0.01,0.08,-0.09,1721206671350
-1.42,-2.50,4.46,-0.36,0.07,-0.15,1721206671360
-1.13,-0.97,22.60,-0.22,0.12,-0.06,1721206671370
1.35,1.94,11.93,0.18,0.07,-0.01,1721206671380
0.81,1.64,4.47,-0.08,0.04,-0.14,1721206671390
0.58,-4.58,9.36,-0.21,0.14,-0.17,1721206671400
0.05,-3.95,14.49,-0.14,0.11,-0.18,1721206671410
-1.57,13.27,12.46,0.18,0.02,-0.25,1721206671420
-0.21,0.08,2.36,-0.28,0.15,-0.20,1721206671430
-2.77,-7.52,15.06,-0.25,0.03,-0.12,1721206671440
-0.95,-1.13,11.06,-0.06,0.19,0.01,1721206671450
1.87,6.30,17.11,-0.22,0.31,-0.10,1721206671460
-0.17,7.26,12.57,0.08,-0.12,-0.30,1721206671470
-1.54,-7.71,-0.98,-0.09,0.11,-0.19,1721206671480
-2.54,-4.38,9.96,-0.09,0.26,-0.00,1721206671490
0.17,1.66,7.07,0.07,-0.02,0.03,1721206671500
-0.10,1.69,20.53,-0.38,0.24,-0.19,1721206671510
-0.64,4.75,14.62,0.16,-0.10,-0.00,1721206671520
-0.38,-10.01,-2.87,-0.13,0.12,0.05,1721206671530
0.16,0.40,14.78,0.02,0.36,0.09,1721206671540
1.16,5.94,9.61,0.27,-0.04,-0.07,1721206671550
-1.51,2.06,14.20,-0.07,0.20,-0.31,1721206671560
-4.05,3.55,3.94,0.49,-0.20,0.03,1721206671570
-2.28,-12.04,-8.48,-0.24,0.16,0.42,1721206671580
2.07,-8.76,27.82,-0.34,0.30,0.30,1721206671590
5.35,16.10,25.42,0.48,-0.09,0.05,1721206671600
-0.91,-1.59,-10.12,0.03,-0.30,-0.24,1721206671610
-3.70,-5.86,9.85,-0.30,0.28,-0.06,1721206671620
-3.24,-0.74,23.68,-0.12,0.21,0.21,1721206671630
0.98,8.82,18.04,0.07,-0.07,0.10,1721206671640
0.67,4.77,-1.05,0.27,-0.21,0.04,1721206671650
-0.08,-7.41,3.90,-0.28,0.20,0.07,1721206671660
-5.43,5.10,26.22,-0.07,-0.15,0.16,1721206671670
1.82,-1.78,12.16,0.04,0.06,0.13,1721206671680
1.44,-1.84,8.94,-0.04,-0.04,-0.05,1721206671690
-2.80,8.34,-4.58,0.51,-0.28,-0.04,1721206671700
2.17,-1.84,7.37,-0.09,0.45,0.05,1721206671710
3.55,6.70,22.50,0.06,-0.32,0.01,1721206671720
-1.65,-3.59,4.69,0.14,-0.14,0.00,1721206671730
-0.91,0.96,7.54,-0.25,0.25,-0.09,1721206671740
-3.13,2.03,8.11,0.02,-0.53,0.10,1721206671750
-1.33,-2.23,6.58,-0.06,0.23,0.19,1721206671760
0.90,-1.62,16.48,0.09,-0.01,0.17,1721206671770
0.57,0.65,14.85,0.07,-0.05,-0.03,1721206671780
0.62,5.18,10.65,0.10,-0.14,0.03,1721206671790
0.01,2.99,9.56,-0.10,-0.05,0.09,1721206671800
0.53,6.98,20.46,0.17,-0.03,0.06,1721206671810
0.87,4.75,-0.36,0.46,-0.34,0.08,1721206671820
-0.38,-10.36,-5.84,-0.24,-0.05,0.01,1721206671830
4.74,-8.95,19.42,-0.25,0.35,-0.11,1721206671840
-0.65,8.32,15.07,0.48,-0.24,0.04,1721206671850
0.09,2.13,-6.32,0.13,-0.14,0.16,1721206671860
2.90,2.41,12.63,0.01,0.24,0.06,1721206671870
4.16,-4.02,13.72,-0.06,-0.27,-0.06,1721206671880
-2.38,-4.26,21.23,-0.40,-0.01,-0.46,1721206671890
-5.16,12.42,16.91,0.31,-0.28,-0.33,1721206671900
-4.67,-0.40,-5.20,-0.09,-0.19,0.25,1721206671910
-0.53,-2.13,14.15,-0.18,0.14,0.58,1721206671920
3.55,-1.51,7.15,0.16,-0.09,0.15,1721206671930
3.85,0.78,8.47,-0.30,-0.02,-0.38,1721206671940
-2.01,6.59,20.51,-0.05,-0.28,-0.46,1721206671950
-6.47,1.23,4.86,0.17,-0.32,0.02,1721206671960
-3.04,-5.76,-2.34,-0.14,0.06,0.35,1721206671970
3.85,-6.67,17.42,-0.16,0.24,0.16,1721206671980
2.12,6.23,27.27,0.03,-0.26,-0.27,1721206671990
-1.41,5.28,6.85,0.15,-0.37,-0.23,1721206672000
-1.45,1.20,1.44,0.02,0.05,0.02,1721206672010
0.46,-7.74,3.57,-0.21,-0.06,0.10,1721206672020
-0.01,2.20,12.61,-0.07,-0.07,-0.12,1721206672030
0.07,-0.16,10.89,-0.06,-0.11,-0.19,1721206672040
-2.72,0.23,15.58,-0.08,-0.13,0.00,1721206672050
1.15,1.44,7.79,0.09,-0.12,0.23,1721206672060
3.65,-2.40,8.06,-0.35,0.06,-0.04,1721206672070
0.51,2.36,17.89,-0.08,-0.17,-0.40,1721206672080
-2.10,-3.90,7.37,-0.09,-0.22,-0.30,1721206672090
-3.39,-2.74,12.90,-0.17,-0.00,0.09,1721206672100
-1.54,4.27,9.35,0.08,-0.21,0.20,1721206672110
5.20,-0.41,11.28,-0.22,0.16,0.04,1721206672120
2.28,4.64,19.15,0.08,-0.12,-0.34,1721206672130
-1.15,-2.43,2.04,0.13,-0.17,-0.44,1721206672140
-3.84,-2.55,9.10,-0.11,0.05,-0.22,1721206672150
-2.14,3.98,16.27,0.18,-0.04,0.06,1721206672160
0.30,2.74,7.94,0.12,-0.05,0.16,1721206672170
2.20,-0.49,8.96,0.03,-0.03,0.02,1721206672180
2.51,-0.87,1.52,0.12,-0.11,-0.19,1721206672190
0.35,-3.81,10.26,-0.21,0.08,-0.37,1721206672200
-1.78,3.82,24.07,0.14,-0.02,-0.20,1721206672210
-2.11,2.59,6.90,0.29,-0.11,0.02,1721206672220
1.68,-1.84,5.40,-0.08,0.17,0.05,1721206672230
2.82,-0.48,16.44,-0.06,0.06,-0.15,1721206672240
0.42,3.95,11.71,0.13,-0.06,-0.38,1721206672250
-0.78,-2.49,3.42,0.07,-0.00,-0.19,1721206672260
-0.66,-0.82,9.28,0.04,0.14,-0.06,1721206672270
0.87,2.43,12.21,0.07,0.04,-0.14,1721206672280
0.57,1.18,12.79,-0.01,0.03,-0.14,1721206672290
-0.65,3.88,13.10,0.10,0.05,-0.21,1721206672300
0.37,3.41,3.99,0.16,0.04,-0.17,1721206672310
0.63,-3.15,4.29,-0.07,0.09,-0.13,1721206672320
-0.43,-4.28,14.30,-0.10,0.14,-0.31,1721206672330
-2.50,2.95,14.87,0.11,-0.09,-0.23,1721206672340
-1.71,4.67,10.37,0.07,0.08,-0.05,1721206672350
1.10,1.54,10.34,0.01,0.08,0.03,1721206672360
2.31,-2.86,9.02,-0.13,0.08,-0.15,1721206672370
0.64,-0.79,11.31,-0.08,0.03,-0.37,1721206672380
-1.97,2.13,9.59,-0.04,0.03,-0.39,1721206672390
-3.26,0.61,8.57,-0.04,0.02,-0.09,1721206672400
-1.90,1.31,7.26,0.04,0.04,0.07,1721206672410
1.91,-1.49,12.47,-0.11,0.18,0.01,1721206672420
2.31,5.21,10.99,0.07,-0.02,-0.20,1721206672430
0.82,3.53,2.85,-0.09,0.03,-0.36,1721206672440
-1.19,-6.77,13.53,-0.36,0.19,-0.40,1721206672450
-2.68,-1.20,19.00,0.03,0.01,-0.09,1721206672460
-0.31,2.93,6.28,0.04,0.06,-0.03,1721206672470
0.60,3.09,13.63,-0.19,0.15,-0.21,1721206672480
-0.37,1.25,15.66,0.02,0.02,-0.19,1721206672490
-0.72,5.30,5.92,0.18,0.06,-0.15,1721206672500
0.67,-0.64,2.75,-0.20,0.13,-0.12,1721206672510
0.01,-11.71,16.74,-0.44,0.10,-0.16,1721206672520
-0.03,6.67,17.70,0.23,-0.01,-0.19,1721206672530
0.45,3.58,-1.36,0.13,-0.01,-0.17,1721206672540
-1.97,-5.19,9.41,-0.13,0.14,-0.11,1721206672550
0.64,4.27,17.88,0.29,0.19,-0.20,1721206672560
1.15,6.78,7.74,0.24,0.12,-0.27,1721206672570
-1.12,1.56,8.75,-0.05,0.14,-0.31,1721206672580
-1.35,-3.38,11.33,0.03,0.11,-0.15,1721206672590
0.97,-0.00,6.17,0.14,0.26,-0.10,1721206672600
0.78,-3.06,12.18,-0.19,0.23,-0.30,1721206672610
-2.11,5.46,18.21,0.26,-0.07,-0.34,1721206672620
-1.79,6.82,0.21,0.31,0.14,-0.16,1721206672630
-1.06,-3.96,7.04,-0.19,0.30,-0.05,1721206672640
-0.41,-0.87,19.74,0.05,0.04,0.00,1721206672650
2.72,4.27,7.56,0.18,0.21,-0.22,1721206672660
-0.92,1.18,3.48,-0.04,0.04,-0.47,1721206672670
-4.12,-3.59,26.39,0.08,0.17,-0.09,1721206672685
-2.80,3.27,21.51,0.37,0.08,0.06,1721206672689
-1.41,7.23,-9.62,0.37,-0.02,0.10,1721206672699
1.21,-1.31,12.19,-0.27,0.57,-0.15,1721206672709
-2.14,5.01,22.79,0.20,-0.21,0.01,1721206672719
-0.53,-1.89,-5.69,0.12,0.07,-0.05,1721206672729
-0.17,-5.48,10.89,-0.45,0.55,-0.30,1721206672739
0.01,-1.52,21.42,-0.10,-0.17,-0.06,1721206672749
-2.19,0.80,8.44,0.20,0.03,0.05,1721206672759
-0.21,3.38,6.27,0.06,0.21,-0.03,1721206672769
0.69,3.87,12.45,0.05,0.11,-0.01,1721206672779
1.26,-4.01,6.22,-0.08,0.14,-0.13,1721206672789
-0.39,-5.42,13.62,-0.21,0.24,-0.26,1721206672799
-2.91,4.81,11.35,0.16,-0.04,-0.14,1721206672809
-2.66,-0.40,10.11,-0.11,0.22,0.01,1721206672819
-1.05,0.90,14.21,0.16,-0.02,0.25,1721206672829
2.98,2.34,9.65,0.03,0.23,0.14,1721206672839
0.63,5.04,8.45,0.10,-0.13,-0.20,1721206672849
-1.60,1.97,-2.10,0.25,-0.03,-0.22,1721206672859
-0.24,-2.69,11.92,-0.11,0.46,-0.06,1721206672869
-0.96,1.32,16.95,0.12,-0.24,0.20,1721206672879
-1.21,-0.85,6.51,-0.03,0.08,0.13,1721206672889
1.47,1.97,15.69,-0.03,0.21,0.04,1721206672899
1.89,1.46,10.08,0.14,-0.02,0.01,1721206672909
0.55,2.76,9.18,0.06,0.05,-0.01,1721206672919
-0.29,2.99,5.46,0.26,-0.03,-0.07,1721206672929
-0.71,-1.16,3.25,0.00,0.13,-0.08,1721206672939
-1.55,-4.64,19.48,-0.34,0.21,-0.08,1721206672949
-2.12,7.97,23.17,0.30,-0.06,0.01,1721206672959
-0.20,3.18,-6.08,0.21,-0.08,0.16,1721206672969
1.30,-4.54,10.38,-0.33,0.32,0.16,1721206672979
1.77,2.01,15.70,0.09,-0.15,0.05,1721206672989
-0.33,4.46,2.17,0.12,-0.02,-0.07,1721206672999
0.09,0.01,9.05,-0.11,0.17,-0.08,1721206673009
-1.53,-3.32,10.34,-0.05,-0.16,0.18,1721206673019
-2.14,1.29,12.14,-0.08,0.04,0.14,1721206673029
0.52,-1.25,9.04,-0.05,-0.05,0.09,1721206673039
-1.11,-0.77,11.24,-0.13,0.01,-0.01,1721206673049
-1.23,-3.50,14.71,-0.20,0.01,0.10,1721206673059
-0.70,4.87,20.68,0.06,-0.04,0.28,1721206673069
2.16,8.52,3.80,0.24,-0.05,0.15,1721206673079
1.55,-6.00,-1.56,-0.30,-0.08,-0.00,1721206673089
-3.64,-5.51,15.58,-0.19,-0.01,-0.01,1721206673099
-1.63,4.04,14.63,0.17,-0.03,-0.01,1721206673109
-1.40,-1.17,2.13,-0.17,-0.25,0.15,1721206673119
-0.61,-4.00,15.04,-0.28,0.06,0.18,1721206673129
0.55,6.69,18.68,0.02,-0.03,0.03,1721206673139
-0.43,5.62,4.63,0.03,-0.32,-0.01,1721206673149
0.11,-4.90,7.42,-0.14,0.09,0.03,1721206673159
-1.21,-5.13,15.79,-0.10,-0.03,-0.03,1721206673169
-2.52,4.04,8.58,0.19,-0.29,0.12,1721206673179
2.23,-1.83,5.92,-0.11,0.10,0.17,1721206673189
0.93,1.14,19.67,0.03,-0.15,0.07,1721206673199
0.14,9.84,4.53,0.44,-0.14,-0.03,1721206673209
2.24,-4.97,1.22,-0.21,0.12,-0.15,1721206673219
-1.39,-1.18,21.32,-0.01,-0.21,-0.03,1721206673229
-0.35,1.90,3.71,0.25,-0.12,0.06,1721206673239
0.90,-3.03,7.61,-0.12,0.07,0.03,1721206673249
2.24,1.13,20.87,0.10,-0.02,-0.03,1721206673259
2.19,8.34,8.79,0.36,-0.12,-0.22,1721206673269
0.15,-2.58,2.65,-0.14,-0.03,-0.29,1721206673279
-3.07,-1.11,16.06,-0.04,0.01,-0.23,1721206673289
-2.19,-0.27,7.96,0.25,-0.07,0.05,1721206673299
0.48,-3.30,1.43,-0.07,0.02,0.21,1721206673309
3.05,-0.32,22.87,-0.14,0.21,-0.09,1721206673319
1.57,5.68,16.78,0.25,-0.25,-0.22,1721206673329
2.61,2.11,2.01,0.02,0.16,-0.20,1721206673339
1.66,0.17,8.30,-0.00,0.09,-0.29,1721206673349
-0.96,0.99,10.82,0.06,0.10,-0.41,1721206673359
-1.56,-1.66,10.78,0.12,0.10,-0.20,1721206673369
0.56,-1.84,9.67,0.04,0.17,-0.03,1721206673379
0.96,5.81,12.28,0.13,0.08,-0.15,1721206673389
1.51,2.96,10.68,0.04,0.15,-0.38,1721206673399
-0.25,-1.96,9.52,0.05,0.08,-0.32,1721206673409
-2.92,-1.10,7.02,0.02,0.16,-0.30,1721206673419
-2.68,0.34,12.20,0.02,0.21,-0.16,1721206673429
-0.82,-0.11,8.01,0.07,0.06,-0.01,1721206673439
0.27,1.86,13.15,0.02,0.19,-0.10,1721206673449
1.08,3.30,4.57,0.18,0.02,-0.13,1721206673459
1.32,-1.25,4.46,-0.11,0.19,-0.22,1721206673469
-0.80,0.90,14.89,-0.20,0.11,-0.38,1721206673479
-3.11,-1.80,12.18,-0.05,0.05,-0.18,1721206673489
-2.72,0.38,8.62,-0.08,0.23,-0.08,1721206673499
-0.23,-0.20,10.36,-0.11,0.13,0.12,1721206673509
1.03,0.91,14.23,-0.14,0.15,0.04,1721206673519
1.07,3.74,14.64,-0.00,0.07,-0.18,1721206673529
-0.46,3.34,5.03,-0.03,-0.06,-0.11,1721206673539
-1.76,-0.04,7.11,-0.23,0.17,-0.06,1721206673549
-0.25,-1.87,14.82,-0.21,0.08,0.04,1721206673559
0.63,2.46,13.55,-0.07,0.06,0.04,1721206673569
-0.30,2.81,12.13,-0.09,0.12,-0.16,1721206673579
-0.65,-0.69,8.64,-0.07,-0.03,-0.06,1721206673589
-1.16,-3.10,4.79,-0.01,-0.02,0.17,1721206673599
0.18,5.85,10.61,0.13,0.23,0.02,1721206673609
0.22,2.64,9.78,0.03,-0.07,-0.11,1721206673619
-2.94,-1.29,11.69,-0.11,-0.05,-0.06,1721206673629
-1.85,1.42,8.38,0.02,0.02,0.27,1721206673639
2.73,-1.72,5.40,-0.32,0.17,0.28,1721206673649
3.50,-2.34,19.31,-0.32,0.02,-0.12,1721206673659
-0.37,7.23,9.07,0.32,-0.19,-0.39,1721206673669
-2.43,-5.40,-2.82,-0.15,-0.05,-0.17,1721206673679
-5.03,-7.38,14.80,-0.28,0.04,0.15,1721206673689
-0.40,6.73,20.20,0.19,0.14,0.26,1721206673699
2.16,2.54,4.07,-0.06,-0.06,-0.05,1721206673709
0.47,-4.13,8.69,-0.19,-0.00,-0.25,1721206673719
0.02,-1.25,15.10,0.06,0.09,-0.11,1721206673729
-0.48,4.08,10.66,0.07,-0.03,-0.01,1721206673739
-1.17,0.16,9.60,-0.07,-0.08,-0.10,1721206673749
-1.09,1.64,11.66,0.10,0.07,-0.05,1721206673759
0.60,1.17,5.85,0.13,0.07,0.03,1721206673769
-0.06,-1.55,10.18,-0.10,-0.07,0.00,1721206673779
-1.33,1.04,13.94,0.05,-0.02,-0.16,1721206673789
-1.17,-2.11,9.80,0.03,0.01,-0.17,1721206673799
-1.73,-4.84,10.80,-0.02,-0.14,0.04,1721206673809
-0.35,5.13,13.62,0.20,0.13,0.13,1721206673819
1.02,5.67,10.41,0.29,-0.02,-0.05,1721206673829
-0.41,-3.50,5.63,0.11,-0.13,-0.14,1721206673839
0.64,-0.61,11.43,0.18,0.24,-0.14,1721206673849
-0.05,0.59,10.22,0.16,-0.08,-0.01,1721206673859
-3.39,2.18,6.53,0.11,-0.28,-0.08,1721206673869
-0.06,-1.55,10.67,0.11,0.26,-0.09,1721206673879
0.12,-1.22,7.86,0.18,-0.15,-0.02,1721206673889
0.00,-3.53,8.86,-0.06,0.10,0.00,1721206673899
1.24,5.23,16.25,0.12,0.10,-0.13,1721206673909
0.91,5.34,10.65,0.09,-0.06,-0.29,1721206673919
-1.64,-3.99,8.93,-0.04,-0.09,-0.25,1721206673929
-2.07,-3.14,8.73,0.11,0.06,-0.02,1721206673939
-1.02,-0.05,7.22,0.01,-0.06,0.08,1721206673949
-0.63,5.36,12.66,0.10,0.05,-0.07,1721206673959
2.04,4.70,11.49,0.28,0.09,-0.17,1721206673969
0.31,5.87,4.38,0.28,-0.11,-0.10,1721206673979
0.71,-1.63,3.02,-0.06,0.15,-0.13,1721206673989
1.48,-4.16,16.95,-0.30,0.20,-0.17,1721206673999
0.36,2.77,17.84,0.16,-0.13,-0.23,1721206674009
-0.54,1.75,3.36,0.13,-0.06,-0.21,1721206674019
-1.87,0.20,7.69,-0.08,0.05,-0.08,1721206674029
0.28,1.79,13.79,0.04,0.09,-0.09,1721206674039
0.86,0.87,12.95,0.01,0.12,-0.18,1721206674049
-1.00,0.68,9.76,-0.08,0.07,-0.29,1721206674059
-2.15,-1.69,10.24,-0.04,-0.01,-0.13,1721206674069
-2.17,-2.30,5.91,-0.01,-0.02,0.05,1721206674079
-0.76,-1.04,15.22,-0.09,0.21,0.01,1721206674089
0.44,1.37,12.66,0.13,-0.06,-0.10,1721206674099
-1.68,4.45,5.89,0.06,0.02,-0.21,1721206674109
-1.24,-1.64,5.27,-0.08,0.10,-0.13,1721206674119
-2.06,-3.48,11.92,-0.16,0.07,-0.01,1721206674129
-0.79,1.97,13.78,-0.02,0.06,0.00,1721206674139
-0.13,-0.50,11.17,-0.14,-0.04,0.02,1721206674149
-1.35,1.12,14.85,-0.19,-0.01,-0.02,1721206674159
0.34,1.64,8.76,-0.10,-0.07,0.04,1721206674169
1.07,0.19,6.97,-0.19,0.09,0.03,1721206674179
0.14,0.79,9.87,-0.07,0.10,-0.15,1721206674189
-0.78,-4.01,9.76,-0.12,-0.04,-0.16,1721206674199
-1.98,0.87,12.01,0.01,-0.02,0.07,1721206674209
-0.05,2.39,12.50,-0.08,0.04,0.08,1721206674219
0.60,6.97,14.04,0.04,-0.08,0.11,1721206674229
2.30,0.83,6.70,0.01,0.04,0.01,1721206674239
-0.33,-2.56,9.51,-0.15,0.01,-0.24,1721206674249
-2.37,0.10,9.26,0.15,-0.11,-0.25,1721206674259
-0.99,0.51,5.60,0.08,0.04,0.12,1721206674269
-1.20,4.28,13.93,0.07,0.03,0.22,1721206674279
1.64,5.97,11.98,0.25,-0.02,0.13,1721206674289
3.96,-4.68,-0.33,-0.00,-0.08,-0.03,1721206674299
0.11,-7.75,8.42,-0.27,0.09,-0.29,1721206674309
-2.36,3.72,23.95,0.11,0.02,-0.36,1721206674319
-4.01,-2.03,6.81,0.09,-0.18,-0.01,1721206674329
-2.39,1.24,6.66,0.02,0.07,0.18,1721206674339
3.35,1.19,11.94,0.15,0.18,0.17,1721206674349
2.77,-1.75,10.86,-0.03,-0.02,-0.06,1721206674359
-0.76,2.67,11.67,0.01,0.02,-0.29,1721206674369
-1.84,-0.79,5.28,0.08,-0.07,-0.12,1721206674379
-0.28,-3.76,6.84,-0.10,0.07,0.13,1721206674389
0.34,-2.03,15.89,-0.03,0.09,0.02,1721206674399
-0.33,-0.06,10.29,0.02,-0.11,-0.09,1721206674409
-0.10,2.34,12.93,-0.02,0.02,-0.04,1721206674419
1.48,0.92,8.77,0.11,0.04,0.12,1721206674429
1.28,0.58,6.80,0.06,0.06,0.03,1721206674439
1.53,0.80,8.91,-0.04,0.03,-0.15,1721206674449
-0.11,-5.42,14.36,-0.19,0.04,-0.14,1721206674459
-1.26,1.88,18.01,0.14,-0.01,0.04,1721206674469
1.81,2.80,6.85,0.19,0.12,0.13,1721206674479
2.66,3.68,10.47,0.14,0.10,-0.03,1721206674489
1.05,6.82,11.89,0.26,0.04,-0.34,1721206674499
-1.41,-3.27,2.82,0.12,0.00,-0.33,1721206674509
-3.70,-2.18,7.07,0.08,0.08,-0.12,1721206674519
-1.76,0.10,13.30,-0.00,0.18,0.06,1721206674529
-0.87,4.00,16.97,0.12,-0.03,0.14,1721206674539
1.51,3.74,8.77,0.23,0.06,0.09,1721206674549
3.40,-2.18,6.09,-0.02,0.13,-0.14,1721206674559
1.57,0.40,12.63,0.01,0.06,-0.30,1721206674569
-1.29,3.78,8.75,0.12,0.10,-0.42,1721206674579
-3.90,1.15,5.78,0.08,0.06,-0.23,1721206674589
-4.19,-3.83,6.68,-0.04,0.01,0.14,1721206674599
-0.10,-0.62,13.22,0.02,0.19,0.22,1721206674609
4.12,3.13,13.17,0.01,0.13,0.01,1721206674619
2.95,4.20,11.78,-0.05,-0.06,-0.23,1721206674629
1.26,0.97,7.33,0.00,0.11,-0.34,1721206674639
-0.47,-1.64,2.98,0.00,0.06,-0.25,1721206674649
-2.21,-3.98,3.62,-0.20,0.03,-0.14,1721206674659
-1.69,-5.55,17.85,-0.25,0.18,-0.15,1721206674669
-1.60,3.93,20.77,0.17,-0.02,-0.07,1721206674679
0.23,5.29,0.74,-0.10,0.20,0.07,1721206674694
0.93,3.28,3.83,-0.22,0.16,0.10,1721206674698
2.73,-2.95,12.85,-0.31,0.11,-0.05,1721206674708
1.63,-6.28,15.90,-0.33,0.08,-0.34,1721206674718
-1.49,0.38,12.33,-0.02,-0.06,-0.36,1721206674728
-3.87,-0.27,6.13,-0.21,0.05,-0.10,1721206674738
-3.69,2.29,12.30,0.01,0.02,0.20,1721206674748
1.01,4.95,7.45,0.14,0.20,0.27,1721206674758
3.35,0.85,8.77,-0.14,0.08,0.01,1721206674768
0.16,-3.28,11.36,-0.14,-0.07,-0.21,1721206674778
0.42,-0.74,11.21,-0.06,0.15,-0.10,1721206674788
1.26,4.25,11.76,0.05,0.09,0.02,1721206674798
-1.51,3.08,9.45,0.06,-0.05,-0.12,1721206674808
-0.79,-1.86,10.01,-0.05,0.06,-0.05,1721206674818
-0.70,0.46,12.22,0.06,0.04,0.09,1721206674828
-0.59,4.90,9.12,0.03,0.13,-0.04,1721206674838
0.60,0.16,9.90,-0.05,0.01,-0.13,1721206674848
-0.75,-6.63,8.83,0.00,-0.02,0.04,1721206674858
-1.87,-0.06,11.95,0.05,0.16,-0.03,1721206674868
0.98,1.96,15.28,0.08,0.05,-0.01,1721206674878
1.21,3.52,16.25,0.11,0.03,0.13,1721206674888
-0.29,8.21,6.12,0.31,-0.10,-0.08,1721206674898
-0.42,-4.13,0.32,0.12,-0.00,-0.22,1721206674908
0.04,-8.69,6.32,-0.06,0.11,-0.06,1721206674918
-0.82,3.62,15.55,0.19,0.03,-0.03,1721206674928
-1.79,10.10,10.51,0.14,-0.03,-0.21,1721206674938
-2.05,-2.91,8.66,-0.05,-0.02,-0.05,1721206674948
-1.72,-7.67,8.77,-0.09,0.09,0.13,1721206674958
0.78,1.23,11.31,0.08,0.06,0.17,1721206674968
2.64,0.89,10.57,-0.06,0.02,-0.05,1721206674978
-0.83,0.79,15.40,-0.00,-0.10,-0.33,1721206674988
-2.82,0.61,3.82,0.24,-0.17,-0.07,1721206674998
-0.87,-3.10,9.12,-0.19,0.22,0.09,1721206675008
-0.18,5.59,20.01,0.06,-0.12,0.07,1721206675018
0.57,6.56,4.41,0.25,-0.10,-0.10,1721206675028
0.05,-3.27,1.91,-0.02,-0.02,-0.14,1721206675038
-0.84,-3.24,7.90,-0.08,-0.03,-0.12,1721206675048
-1.35,2.93,13.66,0.12,0.04,0.04,1721206675058
-0.30,2.32,8.63,0.03,-0.14,0.10,1721206675068
0.59,0.31,13.15,-0.00,0.04,-0.02,1721206675078
1.67,-0.47,8.02,0.19,-0.11,-0.03,1721206675088
0.88,3.18,2.27,-0.00,0.02,-0.06,1721206675098
1.25,-4.20,23.54,-0.41,0.31,-0.34,1721206675108
-2.36,4.00,25.26,0.20,-0.28,-0.28,1721206675118
-3.89,3.62,-7.35,0.17,-0.21,0.08,1721206675128
0.37,-8.28,10.24,-0.53,0.40,0.21,1721206675138
5.52,10.17,26.12,0.18,-0.05,0.18,1721206675148
3.42,8.96,-5.30,0.59,-0.32,0.08,1721206675158
1.14,-7.31,-2.79,-0.25,0.21,-0.18,1721206675168
-2.94,-0.25,19.34,-0.02,-0.12,-0.26,1721206675178
-2.09,2.30,12.38,0.15,-0.21,-0.05,1721206675188
-3.99,0.52,10.15,-0.22,0.07,-0.02,1721206675198
-0.88,2.09,12.65,0.09,-0.02,0.08,1721206675208
-0.03,-4.21,4.85,-0.16,-0.04,0.21,1721206675218
0.89,1.49,11.12,0.01,0.07,0.06,1721206675228
2.71,-1.08,5.94,0.06,-0.07,-0.05,1721206675238
0.20,-0.09,10.46,-0.03,-0.09,-0.13,1721206675248
-0.19,-0.45,13.06,-0.00,0.01,-0.04,1721206675258
-1.70,1.95,9.87,-0.05,-0.13,-0.08,1721206675268
-0.92,-1.56,11.23,-0.22,0.03,-0.06,1721206675278
-1.26,-0.37,14.30,-0.14,-0.01,-0.09,1721206675288
-2.17,0.77,10.47,0.03,-0.09,0.02,1721206675298
-0.58,1.59,6.28,0.02,-0.05,0.14,1721206675308
2.25,0.42,7.03,-0.02,0.01,0.16,1721206675318
1.31,0.46,9.60,-0.05,-0.10,-0.00,1721206675328
1.14,5.65,10.88,0.04,-0.04,-0.23,1721206675338
0.58,-2.47,5.81,-0.14,-0.15,-0.14,1721206675348
-3.63,-5.30,14.92,-0.33,-0.08,0.03,1721206675358
-0.99,1.05,14.32,-0.02,-0.09,0.07,1721206675368
2.17,0.25,10.34,-0.04,-0.02,0.14,1721206675378
1.60,2.11,11.15,0.09,-0.11,0.08,1721206675388
2.97,4.44,7.55,0.27,0.04,-0.10,1721206675398
1.42,4.12,9.45,0.11,-0.04,-0.21,1721206675408
-1.17,4.80,10.67,0.17,-0.07,-0.21,1721206675418
-0.26,-3.96,4.93,0.02,-0.07,-0.08,1721206675428
-0.73,-1.93,10.58,-0.08,0.00,-0.05,1721206675438
-0.99,-0.94,14.11,0.01,-0.07,-0.05,1721206675448
0.85,3.59,12.39,0.16,-0.01,-0.10,1721206675458
1.68,1.40,7.14,0.12,-0.03,-0.03,1721206675468
-0.66,-3.80,8.10,-0.01,0.02,-0.22,1721206675478
-1.05,-1.33,14.00,0.04,-0.01,-0.27,1721206675488
-0.75,4.23,14.97,0.08,-0.03,-0.05,1721206675498
-0.13,-2.19,9.44,0.06,-0.00,0.16,1721206675508
1.51,-3.83,8.88,0.02,0.08,-0.02,1721206675518
3.27,0.81,9.63,0.13,-0.01,-0.28,1721206675528
0.83,4.39,10.25,0.14,0.05,-0.38,1721206675538
-2.04,9.82,12.39,0.29,0.06,-0.22,1721206675548
-1.18,-0.65,-1.28,0.10,-0.02,-0.01,1721206675558
0.72,-12.08,6.53,-0.38,0.21,-0.07,1721206675568
0.60,1.55,19.85,0.03,0.07,-0.31,1721206675578
-1.22,-0.49,7.84,-0.00,-0.03,-0.22,1721206675588
-2.09,0.37,14.43,0.10,0.14,-0.07,1721206675598
0.72,-0.65,5.16,0.27,0.06,0.06,1721206675608
0.78,4.75,14.35,-0.01,0.18,-0.22,1721206675618
-0.59,5.96,11.85,0.08,-0.04,-0.37,1721206675628
-2.95,-3.93,9.12,-0.23,0.08,-0.19,1721206675638
-2.42,-0.51,12.61,0.18,0.11,0.17,1721206675648
2.35,1.71,-1.35,0.05,0.13,0.12,1721206675658
2.86,-0.69,14.78,-0.30,0.20,-0.34,1721206675668
-0.03,5.14,21.64,0.16,-0.07,-0.45,1721206675678
-2.44,5.86,0.26,0.16,-0.02,-0.22,1721206675688
-2.58,-3.70,3.91,-0.25,0.19,-0.08,1721206675698
-0.16,-0.26,14.73,-0.10,0.14,-0.02,1721206675708
0.57,1.25,13.24,-0.13,0.04,-0.10,1721206675718
-0.17,-4.92,19.40,-0.27,0.04,-0.15,1721206675728
-1.56,1.09,9.27,0.18,-0.17,-0.04,1721206675738
1.69,5.26,2.97,-0.07,0.34,-0.06,1721206675748
2.60,0.33,14.47,-0.02,0.05,-0.19,1721206675758
-0.20,3.52,8.43,0.28,-0.09,-0.26,1721206675768
-1.38,0.36,1.80,0.12,0.20,-0.26,1721206675778
-1.74,-3.66,8.88,-0.10,0.12,-0.04,1721206675788
0.60,-2.64,15.10,-0.22,0.09,0.01,1721206675798
2.46,3.51,20.99,-0.09,0.09,-0.09,1721206675808
0.03,3.98,2.18,0.17,-0.20,-0.24,1721206675818
-0.42,-5.77,2.25,-0.24,0.35,-0.32,1721206675828
-2.57,-1.72,17.50,-0.10,0.04,-0.09,1721206675838
-1.49,1.28,13.88,0.04,0.11,-0.03,1721206675848
-0.56,1.82,12.08,-0.07,0.13,-0.22,1721206675858
-0.75,-0.23,9.19,0.08,0.07,-0.08,1721206675868
-0.03,-1.27,7.48,-0.02,0.11,0.12,1721206675878
1.64,-0.34,12.17,-0.06,0.15,-0.06,1721206675888
2.40,1.72,13.77,0.10,0.11,-0.31,1721206675898
-1.05,4.22,8.05,0.18,0.04,-0.36,1721206675908
-4.87,1.57,6.49,0.10,0.06,-0.17,1721206675918
-1.32,-2.16,8.55,0.05,0.20,0.15,1721206675928
2.07,0.79,9.71,0.14,0.15,0.08,1721206675938
0.92,1.17,8.50,0.02,0.01,-0.22,1721206675948
-1.34,-1.90,9.70,-0.05,0.05,-0.33,1721206675958
-1.81,1.96,14.98,0.05,0.13,-0.10,1721206675968
-1.68,-0.81,9.61,-0.04,0.07,0.08,1721206675978
0.40,-3.82,12.88,-0.02,0.20,0.09,1721206675988
1.16,4.73,8.18,0.27,-0.12,-0.01,1721206675998
0.32,2.03,5.76,0.04,0.23,-0.18,1721206676008
0.95,-1.96,15.01,-0.02,0.12,-0.18,1721206676018
-1.41,-1.57,7.70,0.12,-0.10,-0.09,1721206676028
-2.44,-0.30,7.08,-0.04,0.24,-0.06,1721206676038
0.10,0.79,14.99,0.01,0.15,-0.04,1721206676048
-0.50,3.12,8.07,0.25,-0.12,-0.02,1721206676058
-0.36,-1.25,2.57,0.06,0.19,-0.11,1721206676068
0.30,-6.19,10.80,-0.17,0.13,-0.10,1721206676078
-0.73,1.04,18.05,-0.01,0.05,-0.13,1721206676088
-1.35,4.65,7.57,0.14,-0.04,-0.11,1721206676098
-1.42,0.33,5.94,-0.03,0.08,-0.03,1721206676108
-1.18,0.48,13.08,-0.01,0.09,0.01,1721206676118
-0.52,-0.74,8.00,0.02,-0.01,0.01,1721206676128
0.19,-2.21,9.47,-0.16,0.12,-0.04,1721206676138
-1.58,1.03,14.96,-0.11,-0.05,-0.18,1721206676148
-1.30,3.99,9.76,0.24,-0.06,0.12,1721206676158
2.33,-0.40,4.58,0.04,0.25,0.15,1721206676168
0.89,4.51,15.07,0.05,-0.04,-0.16,1721206676178
-0.23,1.30,11.76,0.05,0.04,-0.21,1721206676188
-0.88,-0.78,11.28,-0.05,0.03,-0.01,1721206676198
-1.51,0.95,8.81,0.07,-0.06,0.04,1721206676208
-0.89,1.27,5.22,0.12,0.02,0.09,1721206676218
0.48,0.31,11.85,0.06,0.20,0.04,1721206676228
0.10,1.82,13.50,0.17,-0.01,-0.04,1721206676238
-1.17,0.61,5.37,0.11,-0.08,-0.01,1721206676248
-0.51,0.50,11.09,-0.08,0.17,0.12,1721206676258
0.28,3.12,15.83,0.09,0.02,0.16,1721206676268
2.09,-0.16,8.84,0.06,-0.03,0.06,1721206676278
0.64,-2.83,9.42,-0.07,-0.07,-0.03,1721206676288
-2.16,3.27,13.21,0.09,-0.04,-0.05,1721206676298
-0.92,1.81,5.93,0.08,-0.02,0.02,1721206676308
-0.63,-1.43,7.17,-0.01,-0.05,0.16,1721206676318
0.35,2.15,11.53,0.09,0.07,0.08,1721206676328
0.93,5.91,5.64,0.27,-0.03,0.07,1721206676338
1.39,-4.89,8.12,-0.39,0.11,-0.15,1721206676348
-2.05,-2.43,22.46,-0.15,-0.26,-0.06,1721206676358
-3.07,1.70,5.04,0.12,-0.03,0.15,1721206676368
-0.52,0.15,7.23,-0.11,0.15,0.29,1721206676378
1.64,-0.72,8.36,0.01,-0.21,0.20,1721206676388
3.61,0.51,14.27,-0.11,0.13,-0.10,1721206676398
-0.31,4.45,14.49,0.06,-0.17,-0.28,1721206676408
-2.72,0.69,2.72,-0.04,-0.09,-0.17,1721206676418
-1.99,-3.15,14.71,-0.30,0.07,0.14,1721206676428
-1.65,0.92,13.93,0.00,-0.15,0.25,1721206676438
2.00,-0.94,3.11,0.00,-0.00,0.14,1721206676448
2.71,3.36,8.64,0.00,0.04,-0.02,1721206676458
0.32,5.96,12.47,0.02,-0.09,-0.11,1721206676468
0.15,1.00,9.85,-0.01,-0.03,-0.08,1721206676478
0.37,-0.23,6.49,-0.06,0.04,-0.08,1721206676488
-1.42,-3.57,9.49,-0.23,-0.12,-0.06,1721206676498
-0.41,-6.20,16.38,-0.23,-0.02,0.10,1721206676508
0.60,2.24,16.20,0.02,0.02,0.04,1721206676518
0.77,5.81,7.30,0.11,-0.17,-0.01,1721206676528
1.43,3.08,8.20,0.01,0.02,-0.13,1721206676538
0.28,-2.85,7.73,-0.01,-0.05,-0.19,1721206676548
-2.70,-0.78,10.79,-0.03,-0.04,-0.12,1721206676558
-0.96,-1.27,8.43,-0.02,-0.02,0.13,1721206676568
1.83,-1.36,11.33,-0.01,0.03,0.09,1721206676578
2.96,0.98,10.92,0.08,-0.05,-0.03,1721206676588
1.75,-1.90,9.93,-0.15,-0.02,-0.26,1721206676598
-1.10,8.32,16.55,0.31,0.04,-0.28,1721206676608
-1.62,-3.35,0.68,0.09,0.03,-0.24,1721206676618
-4.68,-5.79,18.50,-0.12,-0.31,-0.01,1721206677145
-2.89,-2.66,22.83,0.04,0.06,-0.07,1721206677150
-1.34,2.73,7.34,0.05,-0.13,0.10,1721206677160
1.21,-2.79,12.04,-0.22,0.29,0.07,1721206677170
0.84,5.82,11.72,0.15,-0.06,-0.11,1721206677180
1.36,-3.52,3.83,-0.13,0.07,-0.11,1721206677190
-1.98,-2.57,16.90,-0.20,-0.06,-0.18,1721206677200
-2.12,3.59,13.52,0.10,-0.00,-0.09,1721206677210
-0.96,1.57,6.50,-0.13,0.15,-0.02,1721206677220
-0.30,3.68,15.49,0.02,0.06,-0.00,1721206677230
2.38,3.07,11.45,0.22,0.09,0.18,1721206677240
1.73,-0.17,4.50,0.03,-0.10,0.08,1721206677250
0.46,0.47,11.99,-0.07,0.00,-0.25,1721206677260
0.51,0.05,16.28,0.01,0.02,-0.21,1721206677270
-2.60,0.71,7.98,0.14,-0.14,-0.07,1721206677280
-3.17,5.34,2.31,0.31,0.06,0.05,1721206677290
0.43,1.16,8.62,0.15,0.15,0.11,1721206677300
1.83,-0.38,15.99,0.19,0.03,0.11,1721206677310
1.12,1.39,7.19,0.19,-0.08,-0.06,1721206677320
-0.75,1.70,12.16,-0.09,0.07,-0.18,1721206677330
-2.06,3.34,15.14,0.12,-0.12,-0.07,1721206677340
-1.87,1.48,5.61,0.15,-0.10,0.19,1721206677350
0.16,-3.08,5.88,0.03,0.08,0.16,1721206677360
2.07,-2.81,9.65,0.01,0.03,-0.03,1721206677370
0.48,4.93,14.06,0.12,-0.07,-0.19,1721206677380
-1.57,2.05,9.88,0.09,-0.07,-0.08,1721206677390
-1.41,-2.53,9.97,-0.02,-0.07,0.07,1721206677400
0.28,-2.60,7.71,0.09,-0.07,0.15,1721206677410
0.91,-3.98,8.64,-0.23,0.01,-0.02,1721206677420
-0.70,1.69,16.03,0.03,-0.11,-0.10,1721206677430
-1.49,5.40,7.54,0.22,-0.09,-0.03,1721206677440
1.81,-0.82,4.12,-0.03,0.01,0.15,1721206677450
0.67,-3.88,7.55,-0.07,-0.08,0.07,1721206677460
-0.90,2.59,12.27,-0.13,0.08,-0.26,1721206677470
-1.47,0.58,11.41,-0.15,-0.17,-0.20,1721206677480
-2.67,-4.10,10.26,-0.22,-0.09,0.13,1721206677490
-0.97,-2.45,13.39,-0.14,0.02,0.17,1721206677500
2.23,-0.83,5.51,-0.10,-0.13,0.13,1721206677510
1.99,-1.87,11.03,-0.23,0.05,-0.11,1721206677520
-0.06,5.94,17.65,0.20,-0.10,-0.21,1721206677530
0.28,1.26,2.77,0.16,-0.17,0.08,1721206677540
-0.12,-2.54,8.09,-0.25,0.14,-0.05,1721206677550
-0.20,1.59,18.46,-0.07,-0.09,-0.19,1721206677560
-0.31,5.18,11.69,0.13,-0.18,-0.06,1721206677570
-0.01,1.44,4.39,0.04,0.01,0.07,1721206677580
0.16,-0.01,10.04,0.08,0.05,-0.07,1721206677590
0.60,-0.05,5.77,0.14,-0.10,-0.18,1721206677600
-1.28,-3.28,8.80,-0.10,-0.01,-0.24,1721206677610
-1.83,3.38,20.40,0.14,-0.02,-0.02,1721206677620
1.03,1.50,6.37,0.20,-0.01,0.17,1721206677630
2.61,-0.91,9.39,-0.02,0.05,-0.01,1721206677640
2.24,1.81,18.10,0.02,0.01,-0.30,1721206677650
-0.80,1.61,10.41,0.05,-0.12,-0.40,1721206677660
-2.07,-3.82,7.99,0.03,0.04,-0.14,1721206677670
-0.56,0.35,7.36,0.19,0.08,0.09,1721206677680
1.79,3.45,6.50,0.21,0.07,0.00,1721206677690
2.47,5.93,9.17,0.21,0.03,-0.20,1721206677700
2.52,-3.47,9.68,-0.05,0.12,-0.33,1721206677710
-0.65,-3.51,9.50,0.05,-0.06,-0.34,1721206677720
-1.57,0.75,8.44,-0.05,0.18,-0.29,1721206677730
-1.89,1.34,13.50,0.04,0.07,-0.13,1721206677740
-0.90,-4.25,9.46,-0.02,0.04,0.00,1721206677750
2.64,1.50,16.39,0.10,0.27,-0.06,1721206677760
3.78,0.98,5.42,0.11,0.04,-0.33,1721206677770
-1.16,-1.22,8.95,-0.16,0.15,-0.57,1721206677780
-3.93,5.21,14.76,0.24,0.04,-0.33,1721206677790
-2.54,0.20,2.67,0.06,0.14,0.04,1721206677800
0.05,-5.69,12.62,-0.18,0.23,0.03,1721206677810
2.22,1.87,15.64,0.04,0.13,-0.15,1721206677820
1.78,7.45,11.55,-0.01,0.11,-0.32,1721206677830
-0.26,6.36,9.54,0.09,0.12,-0.29,1721206677840
-0.87,-4.46,3.00,-0.05,0.16,-0.24,1721206677850
-1.89,-4.30,4.85,-0.07,0.12,-0.19,1721206677860
-1.53,-1.53,13.98,-0.19,0.22,-0.26,1721206677870
-1.97,3.38,20.58,0.07,0.11,-0.19,1721206677880
-1.86,7.14,5.86,0.32,0.03,0.03,1721206677890
1.27,4.49,5.81,-0.04,0.30,0.00,1721206677900
2.87,-4.19,14.51,-0.23,0.07,-0.12,1721206677910
2.22,-3.19,14.28,-0.04,0.13,-0.33,1721206677920
-0.28,3.56,6.11,0.05,0.11,-0.48,1721206677930
-3.89,2.49,12.63,0.02,0.07,-0.37,1721206677940
-5.28,6.06,5.62,0.32,0.04,0.08,1721206677950
-0.70,-10.00,-2.85,-0.20,0.21,0.23,1721206677960
1.03,-6.84,22.97,-0.43,0.46,0.03,1721206677970
1.87,4.89,18.76,0.25,-0.13,-0.09,1721206677980
1.71,0.54,-4.65,0.01,0.15,-0.33,1721206677990
-1.99,-3.02,12.50,-0.10,0.18,-0.31,1721206678000
-2.44,-1.49,12.94,0.13,0.06,0.05,1721206678010
-0.54,-1.68,11.03,-0.16,0.28,0.07,1721206678020
1.54,4.31,10.69,0.03,0.09,-0.04,1721206678030
0.49,3.21,5.49,-0.07,0.05,-0.06,1721206678040
-0.32,-4.39,10.49,-0.20,0.20,-0.15,1721206678050
1.01,-2.84,7.69,0.07,0.12,-0.07,1721206678060
0.08,1.49,9.59,-0.22,0.25,-0.15,1721206678070
-1.77,2.86,20.25,-0.22,0.05,-0.21,1721206678080
-2.05,3.46,11.21,0.13,-0.01,0.05,1721206678090
0.81,-2.37,0.47,0.03,0.25,0.27,1721206678100
2.34,-4.51,11.46,-0.17,0.28,0.00,1721206678110
1.87,2.12,21.74,0.04,0.08,-0.29,1721206678120
-2.86,7.43,8.84,0.28,-0.09,-0.24,1721206678130
-3.40,0.65,6.97,0.04,0.24,-0.00,1721206678140
-0.53,1.20,15.34,0.16,0.11,0.24,1721206678150
1.94,1.03,4.78,0.26,0.06,0.20,1721206678160
1.17,-0.94,4.40,0.03,0.10,-0.16,1721206678170
-0.22,-3.22,12.65,-0.01,0.15,-0.37,1721206678180
-2.72,-0.65,14.16,0.19,0.01,-0.09,1721206678190
-3.82,3.46,7.15,0.16,0.04,0.17,1721206678200
0.52,-2.03,14.79,-0.17,0.31,0.14,1721206678210
1.67,-0.11,17.13,0.21,-0.03,0.05,1721206678220
1.14,3.92,-1.85,0.32,0.02,0.01,1721206678230
0.18,-7.73,4.45,-0.32,0.15,-0.07,1721206678240
0.19,4.32,26.06,0.05,-0.04,-0.12,1721206678250
-1.59,7.58,7.18,0.45,-0.11,-0.02,1721206678260
-1.09,-6.41,-1.59,-0.27,0.07,0.09,1721206678270
-3.99,-6.42,14.74,-0.11,0.17,0.16,1721206678280
2.41,5.57,8.47,0.25,0.04,0.08,1721206678290
1.04,6.79,0.22,0.07,-0.17,-0.16,1721206678300
-1.50,-7.07,7.45,-0.25,0.16,-0.24,1721206678310
-2.95,-4.24,21.96,-0.09,0.12,-0.02,1721206678320
-0.96,2.95,9.61,0.04,-0.09,0.25,1721206678330
0.37,1.16,7.35,-0.21,0.12,0.08,1721206678340
2.47,-1.16,14.52,0.05,0.04,0.05,1721206678350
2.76,4.17,4.19,0.32,-0.05,0.08,1721206678360
2.30,-2.50,5.60,-0.20,0.20,-0.19,1721206678370
-1.32,2.55,24.21,-0.06,-0.08,-0.32,1721206678380
-3.40,3.62,11.49,0.10,-0.07,-0.10,1721206678390
-4.02,2.50,6.15,-0.12,0.02,0.13,1721206678400
-1.01,0.71,10.20,0.02,0.04,0.29,1721206678410
3.66,-1.51,8.90,-0.03,0.13,0.14,1721206678420
1.19,2.55,11.88,-0.02,-0.13,-0.13,1721206678430
-1.40,3.71,13.25,0.08,0.01,-0.17,1721206678440
-0.77,2.26,4.95,0.23,-0.02,0.08,1721206678450
-0.65,0.74,-0.22,0.06,-0.07,0.15,1721206678460
0.87,-5.11,16.05,-0.32,0.28,-0.06,1721206678470
0.07,-0.16,23.18,0.19,-0.17,-0.12,1721206678480
-2.92,4.47,0.30,0.19,-0.09,-0.13,1721206678490
-2.51,-1.15,6.67,-0.14,0.14,0.09,1721206678500
0.54,-1.06,16.14,0.07,0.04,0.31,1721206678510
3.03,2.32,9.83,0.10,0.11,0.05,1721206678520
0.31,-0.74,4.21,-0.04,-0.16,-0.17,1721206678530
-2.83,-2.27,12.16,-0.24,-0.04,-0.10,1721206678540
-1.63,1.86,15.23,0.00,0.00,0.11,1721206678550
-0.45,-1.29,4.43,-0.08,-0.08,0.15,1721206678560
1.15,-0.80,17.68,-0.24,0.13,0.11,1721206678570
0.86,7.52,9.98,0.23,-0.25,-0.03,1721206678580
0.13,-1.65,-3.14,-0.04,0.00,-0.08,1721206678590
-2.80,-6.80,18.60,-0.41,0.06,0.00,1721206678600
-1.42,7.66,21.45,0.15,-0.11,0.12,1721206678610
-0.27,2.98,-5.52,0.16,-0.21,0.13,1721206678620
1.12,-10.65,8.82,-0.43,0.21,0.02,1721206678630
4.98,4.03,21.18,0.04,-0.08,0.01,1721206678640
-0.40,8.55,1.02,0.39,-0.18,0.07,1721206678650
0.01,-2.09,2.87,-0.10,0.10,-0.03,1721206678660
2.80,-1.43,17.87,-0.05,-0.11,-0.00,1721206678670
1.07,2.22,7.77,0.20,-0.12,0.11,1721206678680
0.82,-2.89,3.79,-0.11,0.05,0.00,1721206678690
-1.04,-1.50,18.16,-0.09,-0.10,-0.08,1721206678700
0.47,4.19,11.61,0.30,-0.05,0.05,1721206678710
1.31,1.31,4.15,0.09,0.00,0.06,1721206678720
0.42,3.33,11.12,0.10,-0.02,-0.10,1721206678730
0.61,0.51,8.58,0.04,-0.08,-0.05,1721206678740
-1.02,-2.19,12.27,-0.08,-0.01,-0.10,1721206678750
-0.15,-2.33,11.05,0.01,-0.05,-0.00,1721206678760
0.34,1.05,12.72,0.02,-0.02,0.13,1721206678770
0.24,3.52,8.00,0.15,-0.10,-0.01,1721206678780
0.77,0.18,10.57,0.01,0.01,-0.12,1721206678790
0.19,0.39,11.92,0.22,-0.07,0.06,1721206678800
0.33,2.55,5.43,0.15,0.06,-0.05,1721206678810
0.40,3.27,10.07,0.10,-0.02,-0.06,1721206678820
0.56,-2.09,11.70,0.02,-0.03,0.05,1721206678830
1.44,-0.40,12.33,0.07,0.03,-0.04,1721206678840
1.03,4.83,6.63,0.25,-0.10,-0.06,1721206678850
1.98,-0.22,7.05,-0.02,0.13,-0.09,1721206678860
-0.11,-2.43,11.77,0.03,-0.04,-0.26,1721206678870
-2.32,1.49,8.05,0.16,0.00,-0.21,1721206678880
-1.57,-1.72,7.09,-0.02,0.07,-0.04,1721206678890
-1.27,-1.36,15.25,-0.01,-0.02,0.03,1721206678900
-0.51,4.28,15.64,0.10,0.03,-0.05,1721206678910
0.36,0.97,9.23,0.01,-0.02,0.04,1721206678920
1.24,0.59,8.37,0.04,0.04,-0.02,1721206678930
2.21,0.30,4.65,-0.03,0.10,-0.19,1721206678940
-0.18,-2.01,8.66,-0.13,-0.01,-0.33,1721206678950
-2.65,0.73,14.19,0.08,-0.03,-0.21,1721206678960
-2.22,2.83,8.01,0.11,-0.01,0.02,1721206678970
-0.28,4.30,5.60,0.01,-0.04,0.18,1721206678980
2.77,-4.24,8.86,-0.38,0.10,-0.04,1721206678990
3.10,-1.21,20.90,-0.12,0.05,-0.30,1721206679000
-0.30,4.77,3.71,0.19,-0.27,-0.29,1721206679010
-1.49,-2.06,7.47,-0.37,0.30,-0.28,1721206679020
-1.56,1.41,21.10,0.04,-0.08,-0.06,1721206679030
-0.70,1.20,2.73,0.03,-0.08,0.13,1721206679040
1.18,-0.83,9.97,-0.26,0.16,-0.02,1721206679050
2.90,-0.12,14.39,0.04,-0.01,-0.14,1721206679060
1.13,4.45,5.23,0.11,0.00,-0.22,1721206679070
-1.11,-2.16,6.78,-0.14,0.02,-0.28,1721206679080
-2.24,-2.59,16.62,-0.14,-0.02,-0.18,1721206679090
-0.93,5.48,14.26,0.06,0.02,0.03,1721206679100
-0.82,1.72,4.66,-0.10,-0.07,-0.00,1721206679110
0.28,-4.00,10.14,-0.17,0.09,-0.07,1721206679120
0.71,-1.52,9.10,0.02,-0.06,-0.08,1721206679130
-1.75,2.73,6.81,0.01,-0.04,-0.19,1721206679140
-2.57,1.14,14.65,-0.02,-0.00,0.01,1721206679155
-0.06,-2.62,14.33,-0.01,-0.06,0.12,1721206679159
1.05,4.73,8.24,0.16,0.08,0.14,1721206679169
2.59,-1.48,7.00,-0.11,0.14,-0.09,1721206679179
1.67,-0.78,17.79,-0.07,-0.09,-0.21,1721206679189
-0.25,7.25,11.66,0.20,-0.03,-0.34,1721206679199
-2.09,-2.31,3.72,-0.08,0.01,-0.26,1721206679209
-1.52,-3.84,16.51,-0.19,0.07,0.01,1721206679219
-0.33,5.71,11.29,0.21,-0.01,0.08,1721206679229
0.85,-1.18,2.80,-0.06,0.03,-0.18,1721206679239
-0.86,-2.28,16.29,-0.12,0.07,-0.23,1721206679249
-1.25,1.49,11.78,0.17,0.09,-0.16,1721206679259
0.45,2.05,11.35,-0.05,0.14,-0.09,1721206679269
-0.25,2.26,13.13,0.13,-0.11,-0.06,1721206679279
-0.64,-1.00,4.54,0.14,0.06,-0.06,1721206679289
0.78,-2.25,6.07,0.13,0.10,-0.14,1721206679299
1.60,-1.05,12.86,0.07,0.13,-0.21,1721206679309
-0.69,7.65,13.75,0.25,0.03,-0.31,1721206679319
-1.61,2.96,4.58,0.18,0.04,-0.29,1721206679329
-1.84,-7.13,7.28,-0.07,0.11,-0.17,1721206679339
-0.63,1.21,17.90,0.09,0.19,-0.04,1721206679349
0.60,5.85,8.02,0.25,-0.03,-0.07,1721206679359
-0.95,-1.96,6.79,-0.17,0.06,-0.24,1721206679369
-0.98,-3.12,21.54,-0.08,0.08,-0.24,1721206679379
-0.55,2.14,5.48,0.27,-0.13,-0.06,1721206679389
-0.96,-2.74,6.12,-0.22,0.22,-0.14,1721206679399
-1.09,3.79,19.50,0.12,0.01,-0.06,1721206679409
0.66,0.12,3.85,0.24,-0.01,0.01,1721206679419
0.91,2.79,8.96,0.12,0.27,-0.19,1721206679429
1.87,4.09,9.13,0.20,0.07,-0.26,1721206679439
-0.28,-2.13,11.37,-0.18,0.10,-0.24,1721206679449
-2.56,3.83,14.98,0.22,-0.06,-0.14,1721206679459
-1.12,0.18,0.67,0.11,0.08,-0.01,1721206679469
0.24,-2.44,11.45,-0.12,0.24,-0.02,1721206679479
0.74,1.38,14.67,0.05,0.06,-0.08,1721206679489
-1.21,3.41,9.31,0.03,0.02,-0.15,1721206679499
-1.17,1.80,11.90,0.08,0.18,-0.01,1721206679509
1.48,1.54,8.75,0.09,0.16,0.05,1721206679519
1.04,-3.85,8.57,-0.14,0.04,-0.04,1721206679529
-0.37,-1.32,17.95,-0.12,0.14,-0.19,1721206679539
-1.43,6.12,10.81,0.27,0.03,-0.19,1721206679549
-1.89,1.49,0.63,0.05,0.05,-0.03,1721206679559
-1.71,-4.75,7.69,-0.01,0.12,0.06,1721206679569
0.17,-2.69,9.43,0.07,0.16,-0.03,1721206679579
-1.47,7.03,11.43,0.14,0.05,-0.14,1721206679589
-2.54,0.50,8.02,-0.07,-0.04,0.01,1721206679599
-1.67,-3.59,14.50,-0.15,0.04,0.24,1721206679609
1.05,-0.21,13.50,-0.14,0.15,0.05,1721206679619
0.31,1.33,7.63,-0.21,-0.11,-0.18,1721206679629
-3.11,-1.31,9.04,-0.26,-0.02,-0.08,1721206679639
-1.70,-1.54,10.24,-0.03,0.18,0.20,1721206679649
1.50,-2.75,6.91,-0.04,0.02,0.40,1721206679659
2.05,0.36,8.83,-0.08,-0.00,0.08,1721206679669
1.74,3.06,18.28,-0.15,0.04,-0.26,1721206679679
-1.48,6.44,15.67,0.01,-0.18,-0.22,1721206679689
-3.19,-2.19,3.43,-0.07,-0.04,0.06,1721206679699
-2.22,-2.97,9.90,-0.12,0.12,0.23,1721206679709
-0.85,5.15,10.78,0.05,-0.06,0.22,1721206679719
1.67,4.82,12.62,-0.02,-0.01,0.14,1721206679729
1.59,0.50,8.01,0.07,-0.13,0.20,1721206679739
1.06,-1.19,1.98,-0.03,0.03,0.05,1721206679749
1.82,-0.22,11.75,-0.19,0.08,-0.18,1721206679759
-0.96,-0.20,20.57,-0.09,-0.10,-0.10,1721206679769
-3.70,-0.40,9.00,0.12,-0.14,0.14,1721206679779
-0.38,-5.88,4.83,-0.09,0.02,0.24,1721206679789
1.73,1.58,17.58,0.03,0.03,0.18,1721206679799
1.38,8.39,12.67,0.29,-0.16,-0.05,1721206679809
0.12,4.31,3.05,0.10,-0.14,0.00,1721206679819
0.62,-2.05,8.34,-0.04,0.06,0.04,1721206679829
-0.26,-4.27,9.37,-0.05,-0.15,-0.08,1721206679839
-1.59,2.27,9.92,0.07,-0.12,-0.11,1721206679849
-0.93,-0.17,9.08,-0.03,-0.02,0.19,1721206679859
0.65,0.80,12.45,0.08,-0.13,0.23,1721206679869
3.82,1.73,6.84,0.15,-0.01,0.06,1721206679879
2.90,0.54,11.27,-0.18,0.03,-0.22,1721206679889
-1.16,-1.68,18.98,-0.20,-0.12,-0.39,1721206679899
-2.91,-0.68,11.63,0.02,-0.09,-0.04,1721206679909
0.95,-0.89,7.95,0.00,0.11,0.27,1721206679919
4.28,-0.88,12.97,0.03,0.05,0.05,1721206679929
3.69,6.43,14.06,0.22,-0.01,-0.34,1721206679939
0.72,5.29,6.96,0.21,-0.06,-0.40,1721206679949
-2.38,2.95,5.22,0.19,0.02,-0.29,1721206679959
-2.12,0.13,6.62,0.09,0.10,-0.15,1721206679969
-1.43,-1.82,10.33,-0.03,0.04,-0.06,1721206679979
-1.21,-0.23,12.04,0.03,0.01,-0.05,1721206679989
0.73,-0.58,12.00,0.01,0.08,-0.01,1721206679999
2.36,2.74,10.22,0.14,0.02,-0.01,1721206680009
2.75,2.27,7.13,0.06,0.10,-0.25,1721206680019
0.45,1.19,12.00,-0.04,0.05,-0.42,1721206680029
-2.41,1.63,9.81,0.06,0.01,-0.38,1721206680039
-2.77,-3.83,7.08,-0.17,0.08,-0.18,1721206680049
-1.92,-2.01,15.92,-0.16,0.13,-0.07,1721206680059
-0.15,4.80,13.71,0.09,-0.01,-0.05,1721206680069
1.49,0.23,6.15,-0.01,0.06,-0.15,1721206680079
1.17,2.18,7.84,0.10,0.06,-0.21,1721206680089
0.52,2.64,3.98,0.04,0.09,-0.33,1721206680099
-1.43,-1.53,9.68,-0.18,0.07,-0.31,1721206680109
-2.19,-0.64,13.77,-0.08,0.08,-0.16,1721206680119
-0.79,1.02,10.35,-0.13,0.08,-0.05,1721206680129
0.52,-2.35,10.40,-0.18,0.04,-0.09,1721206680139
1.93,-4.16,12.45,-0.18,0.22,-0.22,1721206680149
-0.34,-1.12,11.85,-0.06,0.01,-0.37,1721206680159
-2.46,5.80,10.99,0.07,-0.02,-0.32,1721206680169
-2.26,3.88,8.96,0.06,0.21,-0.09,1721206680179
-0.84,-5.64,8.69,-0.23,0.15,0.08,1721206680189
2.07,-0.92,13.57,-0.05,0.14,0.02,1721206680199
3.91,1.44,7.76,-0.04,0.11,-0.20,1721206680209
-0.25,1.64,12.41,-0.09,0.11,-0.54,1721206680219
-2.51,5.27,11.74,0.17,0.07,-0.37,1721206680229
-3.70,-3.59,3.90,-0.10,0.10,-0.00,1721206680239
-1.74,-0.33,14.73,-0.04,0.26,0.07,1721206680249
2.49,4.76,6.17,0.23,0.03,0.05,1721206680259
1.68,-2.54,6.22,-0.16,0.23,-0.24,1721206680269
-2.26,-1.25,18.20,0.01,-0.03,-0.31,1721206680279
-2.16,-0.49,6.63,0.15,0.06,-0.08,1721206680289
-0.58,0.25,14.96,-0.15,0.41,-0.02,1721206680299
-0.22,5.28,17.28,0.18,0.02,-0.10,1721206680309
0.32,4.21,4.59,0.22,0.01,-0.07,1721206680319
-0.50,1.81,2.11,0.25,0.16,-0.10,1721206680329
-0.87,-9.59,5.54,-0.09,0.18,-0.14,1721206680339
-2.51,-0.71,20.16,0.04,0.04,-0.12,1721206680349
-2.23,7.20,7.33,0.40,-0.02,-0.06,1721206680359
-1.49,-3.16,3.56,-0.06,0.22,-0.00,1721206680369
-0.27,-2.44,17.32,0.09,0.03,0.17,1721206680379
3.07,4.39,11.03,0.21,0.24,-0.00,1721206680389
1.07,1.40,9.43,-0.09,0.01,-0.39,1721206680399
-3.64,-2.32,11.14,-0.04,-0.12,-0.27,1721206680409
-3.35,-3.04,7.81,0.00,0.20,0.10,1721206680419
-0.90,-3.46,13.99,-0.07,0.13,0.21,1721206680429
1.85,3.83,13.31,0.23,0.05,0.19,1721206680439
1.88,3.21,0.75,0.14,0.03,-0.02,1721206680449
0.30,-2.22,6.04,-0.07,0.10,-0.22,1721206680459
0.40,-4.11,14.38,0.01,0.08,-0.04,1721206680469
-0.34,3.77,9.06,0.17,0.01,0.05,1721206680479
0.30,2.43,6.80,-0.02,0.18,-0.16,1721206680489
-0.91,-3.61,14.81,-0.16,0.02,-0.00,1721206680499
-1.61,0.79,11.53,0.15,-0.05,0.11,1721206680509
1.73,0.34,2.05,0.04,0.17,0.06,1721206680519
1.41,-0.66,14.64,-0.20,0.12,-0.16,1721206680529
-0.99,3.46,17.25,0.10,-0.05,-0.17,1721206680539
-2.06,0.60,4.38,-0.01,-0.05,-0.04,1721206680549
-2.54,-1.24,10.88,-0.16,0.15,0.05,1721206680559
-0.32,0.51,17.43,-0.05,0.18,-0.01,1721206680569
0.68,5.50,12.33,0.10,0.01,0.06,1721206680579
0.15,1.11,5.48,-0.03,-0.05,0.07,1721206680589
-0.37,0.59,12.75,-0.00,0.15,-0.05,1721206680599
0.87,3.94,7.36,0.21,-0.03,-0.00,1721206680609
-0.61,-1.81,3.89,-0.11,-0.04,-0.02,1721206680619
-1.68,0.35,16.92,-0.01,0.13,0.00,1721206680629
-0.74,2.27,4.93,0.24,-0.09,0.17,1721206680639
-0.05,-0.72,7.43,-0.20,0.21,0.14,1721206680649
1.47,-0.07,19.96,-0.06,0.07,0.05,1721206680659
0.61,-1.16,8.72,-0.03,-0.17,0.00,1721206680669
-1.62,0.60,10.19,-0.17,0.07,-0.01,1721206680679
-0.57,-1.00,5.56,0.04,-0.04,0.16,1721206680689
-0.19,-3.05,3.42,-0.13,0.02,0.17,1721206680699
0.89,0.81,11.89,-0.10,0.07,0.10,1721206680709
0.97,1.42,11.57,-0.06,-0.03,-0.02,1721206680719
0.28,0.23,12.42,-0.28,0.06,-0.12,1721206680729
-1.95,-0.65,12.97,-0.24,-0.11,-0.08,1721206680739
-2.53,-1.50,7.99,-0.23,-0.02,0.02,1721206680749
-1.83,-4.10,11.11,-0.24,0.04,0.16,1721206680759
-0.81,-0.68,12.02,-0.07,-0.05,0.29,1721206680769
2.05,1.42,13.56,-0.09,0.03,0.25,1721206680779
3.27,4.82,14.05,-0.02,-0.02,0.12,1721206680789
1.64,2.97,6.25,0.05,-0.10,-0.13,1721206680799
0.49,-4.08,8.33,-0.07,0.02,-0.15,1721206680809
-1.17,-1.81,16.61,0.10,-0.02,0.03,1721206680819
-1.41,3.72,10.80,0.20,-0.07,0.12,1721206680829
1.92,4.66,10.02,0.26,0.08,0.11,1721206680839
2.53,-0.95,8.92,0.22,-0.05,0.06,1721206680849
-0.40,1.73,7.82,0.29,-0.11,-0.11,1721206680859
0.24,1.03,6.29,0.32,0.11,-0.16,1721206680869
-0.80,-3.75,9.84,0.07,-0.01,-0.06,1721206680879
-2.47,1.90,18.96,0.09,-0.06,0.01,1721206680889
0.11,0.67,12.92,0.11,-0.02,0.14,1721206680899
2.28,-3.84,8.96,0.05,0.03,0.15,1721206680909
0.58,1.30,9.44,0.21,-0.02,-0.14,1721206680919
-0.55,1.48,6.40,0.31,-0.05,-0.14,1721206680929
-0.22,-1.42,5.36,0.15,-0.02,0.06,1721206680939
-0.06,-1.14,14.74,0.08,0.07,0.05,1721206680949
0.52,3.27,8.62,0.31,-0.11,0.04,1721206680959
1.61,-1.28,3.11,-0.06,0.04,0.06,1721206680969
1.31,1.48,15.56,0.06,0.05,-0.10,1721206680979
0.73,0.23,3.53,0.30,-0.06,-0.11,1721206680989
0.54,-4.17,3.79,-0.18,0.16,-0.09,1721206680999
-0.21,3.73,21.55,-0.02,0.02,-0.22,1721206681009
-0.87,1.86,10.79,0.16,-0.07,-0.20,1721206681019
-1.29,-0.87,5.52,-0.04,0.12,-0.04,1721206681029
-0.56,-3.47,7.86,-0.13,0.07,-0.11,1721206681039
-1.02,-0.37,15.56,-0.03,0.05,-0.19,1721206681049
-1.27,-1.45,11.22,-0.04,0.02,-0.08,1721206681059
-1.94,0.36,12.38,0.07,-0.03,-0.02,1721206681069
0.71,5.84,8.71,0.19,0.07,0.12,1721206681079
3.38,2.24,4.51,-0.08,0.16,-0.08,1721206681089
1.17,0.79,12.04,-0.09,0.01,-0.36,1721206681099
-2.41,2.48,11.53,-0.05,0.03,-0.32,1721206681109
-4.08,-1.38,8.63,-0.15,0.06,-0.04,1721206681119
-1.98,-0.50,11.91,-0.14,0.09,0.14,1721206681129
1.77,2.90,9.81,-0.08,0.04,0.18,1721206681139
2.74,-0.17,11.39,-0.22,0.08,-0.12,1721206681149
-0.82,1.95,7.92,0.01,-0.03,-0.20,1721206681164
-1.46,2.08,5.20,-0.05,0.04,-0.14,1721206681168
-1.46,-2.24,13.47,-0.33,0.12,-0.01,1721206681178
-0.11,-0.96,14.69,-0.07,-0.02,0.10,1721206681188
1.72,4.52,7.58,0.01,0.07,0.07,1721206681198
1.94,2.82,6.02,-0.09,-0.01,-0.16,1721206681208
-0.42,-3.88,8.67,-0.15,-0.03,-0.18,1721206681218
-1.96,0.91,14.59,-0.05,0.12,-0.15,1721206681228
-1.49,0.42,7.73,-0.02,-0.03,-0.05,1721206681238
-1.81,0.06,9.84,-0.16,0.05,0.02,1721206681248
-0.49,0.33,11.04,0.03,0.05,0.08,1721206681258
1.48,-2.99,8.00,-0.15,0.00,0.02,1721206681268
0.66,2.10,16.47,-0.10,-0.00,-0.13,1721206681278
-0.57,2.91,15.13,-0.01,-0.01,-0.17,1721206681288
-2.29,0.05,8.38,-0.06,-0.02,-0.13,1721206681298
-2.08,-3.73,8.63,-0.07,0.01,0.08,1721206681308
-0.22,-2.63,12.24,-0.04,0.00,0.20,1721206681318
2.42,4.68,9.10,0.26,-0.03,0.11,1721206681328
1.62,-1.84,3.58,0.01,-0.08,-0.04,1721206681338
-2.16,2.22,17.85,-0.03,-0.03,-0.12,1721206681348
0.99,6.27,12.53,0.35,0.01,-0.01,1721206681358
0.30,0.07,5.51,-0.00,-0.04,0.07,1721206681368
-2.65,-1.81,10.80,0.01,-0.19,0.05,1721206681378
0.87,-2.04,6.78,0.24,0.04,0.15,1721206681388
0.35,-2.63,3.79,0.07,-0.16,0.08,1721206681398
-1.87,1.73,11.06,0.06,-0.07,-0.07,1721206681408
1.21,1.78,11.60,0.15,-0.00,0.10,1721206681418
0.08,-1.78,8.20,0.05,-0.15,0.09,1721206681428
-0.16,-2.27,10.37,-0.03,0.01,-0.06,1721206681438
2.53,2.83,13.80,0.01,0.10,-0.08,1721206681448
-0.98,0.02,10.15,0.12,-0.31,-0.10,1721206681458
-3.00,-2.67,7.91,-0.08,-0.05,-0.04,1721206681468
0.04,0.59,14.52,0.11,0.03,0.14,1721206681478
2.72,6.29,8.86,0.22,-0.03,0.06,1721206681488
2.11,1.04,4.39,0.01,-0.18,-0.21,1721206681498
0.01,-2.39,11.66,-0.07,0.02,-0.31,1721206681508
-2.59,2.24,13.19,0.11,-0.07,-0.23,1721206681518
-1.84,1.72,10.69,0.04,-0.02,0.02,1721206681528
-1.11,-0.88,13.76,-0.13,-0.12,0.13,1721206681538
0.75,-0.61,11.82,0.09,-0.26,0.04,1721206681548
1.78,-2.59,2.47,0.13,-0.07,-0.05,1721206681558
0.71,4.16,3.52,0.11,-0.05,-0.19,1721206681568
0.65,-2.71,15.54,-0.15,0.11,-0.25,1721206681578
-0.04,4.09,20.58,0.30,-0.16,-0.15,1721206681588
0.30,4.58,-1.31,0.19,-0.12,-0.08,1721206681598
1.85,-3.94,10.91,-0.29,0.24,-0.17,1721206681608
0.82,2.07,19.96,0.15,-0.16,-0.18,1721206681618
-0.05,5.96,1.41,0.18,-0.15,-0.15,1721206681628
0.09,-5.94,5.16,-0.22,0.08,-0.20,1721206681638
-1.23,-2.78,18.00,-0.00,-0.06,-0.15,1721206681648
-0.11,4.97,7.37,0.13,-0.04,-0.12,1721206681658
0.42,3.52,10.81,-0.16,0.05,-0.17,1721206681668
-0.67,2.65,12.40,0.08,-0.10,-0.11,1721206681678
0.58,-7.17,8.50,-0.28,0.12,-0.19,1721206681688
-0.57,-0.40,20.40,-0.11,-0.09,-0.19,1721206681698
-1.07,5.39,11.54,0.06,-0.03,-0.20,1721206681708
-0.65,7.62,8.61,0.09,0.07,-0.10,1721206681718
-0.62,2.70,2.14,0.24,-0.12,0.03,1721206681728
0.56,-6.51,3.31,-0.09,0.18,-0.17,1721206681738
-0.72,-2.50,13.86,-0.05,-0.02,-0.23,1721206681748
-2.83,2.51,7.82,-0.03,-0.15,-0.13,1721206681758
-0.64,-3.17,14.53,-0.25,0.15,0.08,1721206681768
3.28,0.51,15.06,0.20,-0.03,0.16,1721206681778
3.66,3.78,4.24,0.04,0.05,-0.19,1721206681788
1.14,-0.35,14.88,-0.24,0.13,-0.59,1721206681798
-4.45,-2.94,14.61,-0.09,-0.14,-0.45,1721206681808
-6.44,-0.28,5.24,0.03,-0.04,-0.03,1721206681818
-0.06,0.85,5.71,0.03,0.17,0.34,1721206681828
3.53,-2.70,11.86,-0.16,0.06,0.13,1721206681838
0.75,5.50,18.63,-0.08,-0.11,-0.34,1721206681848
0.07,-1.75,3.81,-0.02,-0.13,-0.35,1721206681858
-3.20,-7.81,5.46,-0.26,0.10,-0.21,1721206681868
-2.94,0.24,14.16,0.04,0.04,0.05,1721206681878
-0.20,1.76,7.71,0.09,-0.00,0.28,1721206681888
2.43,-3.40,9.95,-0.04,0.09,0.08,1721206681898
4.36,3.40,14.54,0.11,0.06,-0.19,1721206681908
0.53,7.83,9.06,0.03,-0.07,-0.26,1721206681918
-2.88,0.10,11.26,-0.21,0.06,-0.25,1721206681928
-1.62,-0.44,12.08,0.09,0.02,0.03,1721206681938
0.87,-4.32,4.66,-0.12,0.11,0.15,1721206681948
0.81,-3.13,14.94,-0.20,-0.03,-0.03,1721206681958
1.05,3.51,12.25,0.08,0.02,-0.17,1721206681968
1.15,7.11,11.79,0.12,0.04,-0.07,1721206681978
1.23,-0.77,1.73,0.20,-0.01,-0.04,1721206681988
1.47,-7.29,7.35,-0.17,0.33,-0.27,1721206681998
-2.29,6.43,24.37,0.01,-0.12,-0.40,1721206682008
-3.04,4.04,9.67,0.09,-0.04,-0.06,1721206682018
0.25,-3.51,6.70,-0.03,0.18,0.24,1721206682028
4.00,2.86,4.97,0.21,0.17,0.02,1721206682038
3.59,-1.30,7.73,-0.09,0.10,-0.46,1721206682048
-1.71,1.65,15.13,0.13,-0.00,-0.55,1721206682058
-4.56,6.50,2.39,0.29,0.11,-0.18,1721206682068
-1.26,-6.95,5.55,-0.29,0.25,0.16,1721206682078
1.15,-3.61,24.77,-0.16,0.17,0.03,1721206682088
2.29,8.92,8.83,0.27,0.01,-0.17,1721206682098
1.87,-6.87,2.18,-0.37,0.16,-0.27,1721206682108
-0.74,-3.04,22.25,-0.09,0.14,-0.32,1721206682118
-0.57,8.60,3.57,0.36,0.08,-0.21,1721206682128
-0.74,-1.12,-0.84,-0.26,0.25,-0.21,1721206682138
-2.32,-4.58,25.31,-0.24,0.19,-0.25,1721206682148
-1.37,5.83,9.02,0.29,0.07,-0.10,1721206682158
0.90,-1.78,-2.46,-0.40,0.29,0.04,1721206682168
0.02,1.33,26.88,-0.33,0.13,-0.19,1721206682178
-0.06,4.89,10.05,0.10,-0.08,-0.20,1721206682188
-0.28,-2.57,-3.19,-0.33,0.26,-0.16,1721206682198
-2.43,-3.56,18.79,-0.41,0.14,-0.20,1721206682208
-1.45,3.49,13.45,0.01,0.05,-0.06,1721206682218
0.85,0.92,-0.64,-0.06,0.25,0.09,1721206682228
0.65,-5.20,16.14,-0.28,0.22,-0.17,1721206682238
0.33,8.66,16.64,0.23,0.00,-0.10,1721206682248
1.26,0.12,-1.01,-0.04,0.16,-0.00,1721206682258
0.22,-3.04,18.59,-0.43,0.28,-0.27,1721206682268
0.65,9.40,18.07,0.04,0.04,-0.22,1721206682278
-0.24,1.72,0.86,0.01,0.15,-0.19,1721206682288
-2.38,-4.38,13.76,-0.23,0.24,-0.23,1721206682298
-1.22,0.60,11.61,0.12,0.18,-0.03,1721206682308
-1.12,1.57,7.08,-0.05,0.26,-0.10,1721206682318
-1.20,-0.45,12.80,0.11,0.05,0.11,1721206682328
0.20,-1.86,6.62,0.10,0.18,0.18,1721206682338
0.57,-1.38,13.55,-0.05,0.14,-0.14,1721206682348
1.15,3.93,14.05,0.28,0.04,0.03,1721206682358
-0.24,0.21,2.65,0.14,0.04,0.05,1721206682368
-1.23,1.10,17.56,-0.10,0.17,-0.08,1721206682378
-0.16,8.64,13.35,0.38,-0.01,-0.06,1721206682388
-0.62,-6.03,-4.74,0.15,0.03,-0.03,1721206682398
-2.14,-9.67,11.75,-0.17,0.26,-0.01,1721206682408
-2.76,11.09,21.60,0.36,0.07,0.13,1721206682418
-1.62,4.38,1.99,0.23,-0.07,0.08,1721206682428
-1.05,-10.81,7.45,-0.07,0.07,0.14,1721206682438
2.03,-3.13,14.62,0.10,0.16,0.34,1721206682448
2.64,4.11,12.26,-0.01,0.04,0.07,1721206682458
0.78,1.75,16.48,-0.12,-0.10,-0.19,1721206682468
-2.05,2.06,8.22,0.24,-0.07,-0.13,1721206682478
-2.54,-2.21,5.08,0.07,0.09,0.11,1721206682488
-1.20,-0.38,13.64,0.02,-0.02,0.27,1721206682498
1.48,2.69,11.14,0.08,0.02,0.27,1721206682508
1.72,3.01,8.90,0.14,-0.02,0.00,1721206682518
0.12,-2.48,2.63,0.21,-0.24,-0.04,1721206682528
-1.56,-3.59,5.68,0.01,0.08,0.10,1721206682538
0.04,-0.60,18.94,-0.08,0.12,0.12,1721206682548
0.34,3.10,12.89,0.15,-0.24,0.09,1721206682558
0.15,0.10,1.66,0.10,-0.09,0.11,1721206682568
1.89,1.26,8.00,0.13,0.07,0.10,1721206682578
2.07,-2.60,10.38,-0.04,-0.20,0.07,1721206682588
-0.30,-2.28,18.81,-0.12,-0.05,-0.13,1721206682598
