AccX,AccY,AccZ,GyrX,GyrY,GyrZ,Time
0.14,1.16,10.31,0.14,0.03,-0.54,1721206844139
-0.18,-0.44,9.77,0.12,0.09,-0.61,1721206844144
-0.72,0.79,9.83,0.07,0.15,-0.62,1721206844154
-1.37,0.92,10.76,0.10,0.04,-0.56,1721206844164
-1.96,0.31,10.65,0.03,0.05,-0.47,1721206844174
-1.82,0.81,10.57,0.12,0.03,-0.42,1721206844184
-1.00,-1.25,6.74,0.09,0.00,-0.45,1721206844194
-0.59,-0.49,10.17,0.01,0.19,-0.60,1721206844204
-1.35,0.54,10.47,0.11,0.09,-0.64,1721206844214
-0.80,1.15,9.22,-0.01,0.23,-0.67,1721206844224
-1.36,1.86,11.91,-0.06,0.09,-0.53,1721206844234
-2.69,1.25,11.58,-0.19,0.04,-0.43,1721206844244
-2.68,1.77,11.65,-0.09,0.01,-0.31,1721206844254
0.30,0.52,8.34,-0.14,0.04,-0.19,1721206844264
0.28,2.19,10.15,-0.18,0.05,-0.26,1721206844274
-0.14,0.87,7.04,-0.13,-0.04,-0.37,1721206844284
-0.16,-1.14,8.91,-0.24,0.17,-0.36,1721206844294
-1.27,-0.90,10.77,-0.21,0.01,-0.31,1721206844304
-0.36,-2.04,9.79,-0.24,0.11,-0.25,1721206844314
0.45,-0.63,11.21,-0.25,0.12,-0.25,1721206844324
0.22,-1.55,9.19,-0.23,0.05,-0.25,1721206844334
-1.42,-2.87,9.24,-0.33,0.11,-0.25,1721206844344
-3.02,-3.36,10.87,-0.29,-0.05,-0.19,1721206844354
-1.54,-1.67,9.47,-0.22,0.10,-0.11,1721206844364
-0.38,-5.63,9.92,-0.31,0.00,0.03,1721206844374
-2.16,-0.13,11.89,-0.31,0.09,-0.07,1721206844384
-0.90,0.63,10.54,-0.29,0.07,-0.21,1721206844394
-1.19,-3.35,10.33,-0.31,-0.16,-0.09,1721206844404
-0.84,0.11,11.27,-0.22,0.11,-0.07,1721206844414
-0.01,-1.28,8.49,-0.15,0.08,-0.06,1721206844424
-3.01,1.66,10.70,-0.16,-0.14,-0.12,1721206844434
0.10,-0.36,14.02,-0.08,0.07,0.03,1721206844444
2.21,-3.28,12.17,-0.05,0.04,0.17,1721206844454
0.17,2.12,10.82,0.03,0.14,0.00,1721206844464
0.60,6.17,10.75,0.18,0.10,-0.27,1721206844474
1.66,-2.67,9.52,0.13,-0.12,-0.18,1721206844484
2.70,-1.64,10.53,0.20,0.18,-0.10,1721206844494
1.71,-0.22,10.20,0.29,0.03,-0.10,1721206844504
-2.09,2.27,10.96,0.27,0.05,-0.25,1721206844514
-0.49,1.92,10.76,0.28,0.09,-0.26,1721206844524
2.29,-5.98,7.77,0.23,0.08,-0.05,1721206844534
-0.61,2.47,12.09,0.18,0.25,-0.13,1721206844544
0.30,1.81,10.51,0.28,0.07,-0.22,1721206844554
-1.05,-0.65,9.52,0.20,0.01,-0.18,1721206844564
-0.07,0.11,9.89,0.25,0.13,-0.02,1721206844574
2.45,-2.44,9.31,0.18,0.18,0.04,1721206844584
1.90,1.60,12.65,0.19,0.15,-0.07,1721206844594
1.80,0.56,10.50,0.29,0.18,-0.15,1721206844604
0.50,0.28,9.58,0.28,0.18,-0.18,1721206844614
-0.96,-1.24,10.08,0.20,0.13,-0.16,1721206844624
-1.52,2.78,12.32,0.22,0.17,-0.08,1721206844634
0.34,3.24,8.09,0.24,0.14,0.04,1721206844644
1.94,-0.69,8.21,0.07,0.21,0.08,1721206844654
2.34,0.16,13.77,0.09,0.26,-0.11,1721206844664
1.70,1.24,7.74,0.19,0.10,-0.23,1721206844674
-0.48,-0.02,8.45,0.00,0.28,-0.30,1721206844684
-2.48,2.93,12.53,0.20,0.19,-0.23,1721206844694
-1.51,-1.87,4.37,0.07,0.20,-0.11,1721206844704
-1.63,0.13,11.08,-0.02,0.23,-0.09,1721206844714
0.23,-0.35,10.96,0.02,0.22,-0.09,1721206844724
-0.23,2.04,11.70,-0.02,0.14,-0.14,1721206844734
0.02,-0.03,8.68,-0.02,0.10,-0.13,1721206844744
0.21,-1.82,8.93,-0.16,0.26,-0.22,1721206844754
-0.90,-0.27,11.49,-0.11,0.15,-0.25,1721206844764
-1.75,1.11,9.04,-0.08,0.15,-0.25,1721206844774
-0.23,-1.96,9.08,-0.18,0.19,-0.16,1721206844784
0.32,-1.89,12.02,-0.13,0.20,-0.12,1721206844794
-1.40,-1.84,10.27,-0.08,0.09,-0.20,1721206844804
-1.81,-1.07,9.60,-0.13,0.18,-0.26,1721206844814
-0.84,-1.43,9.91,-0.08,0.10,-0.07,1721206844824
-1.55,-0.55,9.58,-0.13,0.19,-0.00,1721206844834
-0.83,-2.39,10.70,-0.18,0.20,-0.08,1721206844844
0.28,-1.18,12.03,-0.07,0.06,0.00,1721206844854
0.85,1.25,11.21,-0.09,0.22,0.05,1721206844864
-0.13,0.51,9.73,-0.09,0.09,-0.07,1721206844874
-0.77,-1.98,7.51,-0.01,-0.00,0.03,1721206844884
0.68,-3.36,10.79,-0.09,0.33,0.06,1721206844894
-1.10,0.51,10.74,0.07,0.02,0.11,1721206844904
0.15,-3.57,6.04,-0.01,0.07,0.14,1721206844914
-0.50,1.38,15.04,-0.03,0.28,0.06,1721206844924
-0.84,-2.29,10.47,0.05,-0.02,0.03,1721206844934
-1.41,-4.15,10.02,-0.09,0.09,0.17,1721206844944
-1.41,-0.70,12.49,0.08,0.16,0.10,1721206844954
-0.65,-0.20,10.22,-0.03,0.04,0.05,1721206844964
-1.82,-0.77,11.86,0.03,-0.11,0.20,1721206844974
-2.07,0.62,10.42,0.10,0.08,0.15,1721206844984
-0.20,1.07,13.13,0.05,0.10,0.19,1721206844994
0.57,3.09,9.37,0.11,-0.08,0.24,1721206845004
-0.40,-0.41,11.45,-0.05,0.04,-0.03,1721206845014
-2.01,5.89,9.78,0.38,-0.24,-0.01,1721206845024
-0.13,-6.11,3.45,-0.02,0.04,0.13,1721206845034
-4.05,1.71,17.34,0.13,-0.17,0.20,1721206845044
-1.59,5.34,0.30,0.49,-0.22,0.19,1721206845054
2.82,-3.21,10.69,-0.31,0.44,0.01,1721206845064
-4.95,10.08,21.17,0.36,-0.81,0.10,1721206845074
-3.63,-5.18,-5.20,0.10,-0.18,0.11,1721206845084
-2.04,0.64,20.25,-0.24,0.41,0.22,1721206845094
-2.08,4.94,13.61,0.33,-0.57,0.43,1721206845104
-0.84,-1.47,1.80,-0.21,-0.01,0.44,1721206845114
0.11,0.96,13.19,0.02,-0.35,0.45,1721206845124
2.21,0.33,4.36,0.02,-0.13,0.34,1721206845134
0.88,-0.32,11.38,-0.19,-0.10,0.20,1721206845144
-0.20,1.16,12.08,0.05,-0.32,0.26,1721206845154
0.49,-2.12,8.43,-0.11,-0.20,0.42,1721206845164
0.44,-1.30,13.75,-0.09,-0.19,0.34,1721206845174
2.96,-3.10,9.54,-0.07,-0.26,0.34,1721206845184
0.32,-0.57,12.91,-0.16,-0.20,0.14,1721206845194
0.38,0.49,11.27,0.02,-0.26,0.06,1721206845204
1.91,0.02,8.35,-0.09,-0.14,0.17,1721206845214
-0.53,-0.94,11.20,-0.07,-0.29,0.13,1721206845224
1.71,-1.62,9.53,-0.09,-0.10,0.05,1721206845234
1.15,1.54,11.33,-0.03,-0.14,0.04,1721206845244
0.03,-3.34,7.75,-0.03,-0.24,0.02,1721206845254
1.57,-1.49,10.00,-0.03,-0.00,0.08,1721206845264
1.12,3.39,11.85,0.08,-0.06,-0.13,1721206845274
1.53,-3.15,9.31,-0.02,-0.21,-0.06,1721206845284
-1.18,-5.12,10.80,-0.10,-0.09,-0.11,1721206845294
-0.35,-3.52,13.14,-0.04,-0.02,-0.22,1721206845304
0.24,-0.60,11.01,0.01,-0.15,-0.18,1721206845314
-1.24,-0.28,11.38,0.07,-0.18,-0.11,1721206845324
2.40,1.81,9.44,0.17,-0.01,-0.14,1721206845334
3.64,0.10,11.39,0.10,0.03,-0.16,1721206845344
2.17,2.06,11.06,0.18,-0.03,-0.20,1721206845354
1.44,-1.48,9.21,0.05,0.09,-0.28,1721206845364
-1.08,-1.09,12.60,0.08,-0.03,-0.33,1721206845374
-0.50,-0.70,8.93,0.10,0.00,-0.15,1721206845384
-0.44,1.48,10.49,0.16,-0.03,-0.17,1721206845394
2.95,2.35,8.37,0.25,0.11,-0.23,1721206845404
1.86,-0.56,8.91,0.21,0.03,-0.38,1721206845414
-1.06,1.57,12.57,0.26,0.12,-0.47,1721206845424
-2.81,0.15,10.28,0.26,-0.01,-0.31,1721206845434
-1.14,3.18,12.29,0.19,0.19,-0.05,1721206845444
2.84,2.36,8.75,0.20,0.12,-0.04,1721206845454
4.70,0.20,10.92,0.07,0.20,-0.28,1721206845464
3.77,3.25,8.22,0.26,0.05,-0.52,1721206845474
2.97,1.70,4.98,0.09,0.27,-0.68,1721206845484
-2.04,1.87,6.39,0.05,0.04,-0.64,1721206845494
-3.24,-2.63,7.23,-0.12,0.29,-0.51,1721206845504
-1.80,-1.42,13.52,-0.06,0.23,-0.24,1721206845514
0.02,-0.62,12.69,-0.13,0.30,-0.32,1721206845524
0.27,1.44,12.96,0.00,0.12,-0.51,1721206845534
-0.87,2.40,10.76,-0.10,0.26,-0.57,1721206845544
-1.60,1.43,9.86,-0.07,0.18,-0.43,1721206845554
-2.00,-2.88,11.26,-0.32,0.24,-0.40,1721206845564
-1.12,0.49,13.81,0.07,0.11,-0.28,1721206845574
0.24,-2.46,4.11,-0.12,0.25,-0.31,1721206845584
2.11,2.23,16.73,-0.08,0.50,-0.40,1721206845594
-0.95,1.82,1.67,0.17,0.02,-0.48,1721206845604
-0.90,-7.33,9.24,-0.42,0.47,-0.49,1721206845614
-3.48,-4.41,18.93,0.02,-0.14,-0.26,1721206845624
-0.90,-2.81,4.58,-0.12,0.47,-0.31,1721206845634
-1.38,-2.36,17.11,-0.21,0.31,-0.47,1721206845644
-2.94,-1.31,13.01,0.08,0.05,-0.42,1721206845654
-4.26,-7.28,7.52,-0.09,0.21,-0.27,1721206845664
-1.95,-2.83,16.72,-0.01,0.46,-0.04,1721206845674
-0.45,-1.90,8.02,0.02,0.10,-0.06,1721206845684
-3.28,0.35,7.76,-0.07,0.03,-0.21,1721206845694
-2.30,-2.75,6.35,0.11,-0.06,-0.18,1721206845704
-4.20,-5.67,10.70,-0.16,0.23,-0.10,1721206845714
-3.46,0.54,14.83,0.01,0.07,0.10,1721206845724
-0.59,-0.10,5.79,0.03,0.09,0.23,1721206845734
0.64,3.06,10.77,0.00,0.06,0.16,1721206845744
0.52,1.08,6.73,0.14,-0.03,-0.02,1721206845754
-0.58,1.06,12.13,-0.08,0.20,-0.07,1721206845764
-0.63,4.12,14.97,0.12,-0.06,0.07,1721206845774
-1.45,1.78,6.96,0.07,-0.02,0.23,1721206845784
2.22,2.75,11.13,0.12,0.19,0.32,1721206845794
4.05,2.95,6.73,0.13,-0.05,0.05,1721206845804
2.73,1.79,11.34,-0.11,0.11,-0.26,1721206845814
-1.52,1.43,17.20,0.01,-0.08,-0.35,1721206845824
-6.65,-1.39,10.07,0.00,-0.14,-0.23,1721206845834
-8.98,-0.44,9.74,0.00,-0.06,0.19,1721206845844
-4.63,0.77,7.24,0.02,-0.03,0.48,1721206845854
-0.52,1.51,10.93,-0.02,0.02,0.43,1721206845864
2.39,0.70,12.18,0.03,-0.00,0.30,1721206845874
2.55,-0.29,9.89,-0.05,-0.14,0.23,1721206845884
-0.62,2.78,9.01,0.03,-0.21,0.16,1721206845894
2.04,-1.32,8.98,-0.14,0.06,0.25,1721206845904
1.38,-2.32,12.99,-0.06,-0.13,0.15,1721206845914
1.24,0.32,10.66,0.01,-0.04,0.04,1721206845924
-1.05,-4.04,9.27,-0.05,-0.14,0.09,1721206845934
-3.36,-2.04,8.96,0.05,-0.12,0.21,1721206845944
-0.31,-2.23,9.24,-0.01,0.02,0.31,1721206845954
0.44,0.80,11.15,0.13,-0.18,0.22,1721206845964
3.42,-0.99,8.84,0.03,0.04,0.14,1721206845974
0.23,-3.15,10.72,0.00,-0.21,0.17,1721206845984
-3.07,-0.13,10.56,0.04,-0.08,0.14,1721206845994
0.72,1.98,12.21,0.05,0.02,0.23,1721206846004
2.22,0.29,11.69,0.10,-0.17,0.25,1721206846014
2.84,-3.29,8.50,-0.01,-0.03,0.17,1721206846024
0.51,-3.56,8.86,-0.03,-0.23,0.03,1721206846034
-1.15,1.56,11.74,0.07,0.04,-0.04,1721206846044
1.20,-2.91,9.53,0.10,-0.15,0.15,1721206846054
0.94,1.02,12.31,0.12,-0.03,0.19,1721206846064
2.42,1.09,9.47,0.15,-0.02,0.13,1721206846074
1.56,0.17,12.08,0.15,-0.09,0.11,1721206846084
1.47,9.44,10.34,0.34,0.16,0.00,1721206846094
3.20,-9.19,-0.77,0.12,-0.11,0.13,1721206846104
4.61,7.98,11.69,0.14,0.04,0.25,1721206846114
7.25,-1.06,9.01,0.11,0.16,-0.03,1721206846124
3.14,2.38,14.06,0.05,-0.05,-0.39,1721206846134
0.18,-4.01,9.93,-0.08,0.21,-0.37,1721206846149
-1.15,-1.60,11.73,-0.10,0.19,-0.46,1721206846153
-2.95,3.65,14.79,0.21,0.03,-0.37,1721206846163
-2.32,-0.68,5.37,-0.06,0.11,-0.14,1721206846173
-1.41,4.67,10.03,0.07,0.14,-0.04,1721206846183
1.71,1.82,6.00,-0.07,0.17,-0.16,1721206846193
1.53,1.03,8.03,-0.11,0.08,-0.45,1721206846203
-1.67,-1.52,10.08,-0.18,0.10,-0.59,1721206846213
-4.96,0.11,14.69,-0.10,0.06,-0.39,1721206846223
-4.38,-0.29,11.62,-0.08,0.08,-0.05,1721206846233
-0.04,2.85,9.31,-0.02,0.17,0.04,1721206846243
3.53,-3.18,9.03,-0.25,0.15,-0.10,1721206846253
2.40,0.01,14.48,-0.01,0.10,-0.39,1721206846263
2.35,-0.95,10.31,-0.05,0.23,-0.57,1721206846273
-0.89,1.18,11.80,0.01,0.05,-0.44,1721206846283
-2.54,0.38,8.61,0.05,0.16,-0.27,1721206846293
-1.75,0.27,11.54,0.01,0.22,-0.12,1721206846303
-0.45,-0.04,8.65,-0.00,0.07,-0.05,1721206846313
0.95,-1.89,10.11,-0.07,0.23,-0.21,1721206846323
0.08,-1.05,9.53,-0.01,0.14,-0.28,1721206846333
-0.63,-3.24,11.70,-0.10,0.26,-0.24,1721206846343
-2.39,-1.79,12.03,0.14,0.01,-0.03,1721206846353
-0.64,2.13,8.82,0.06,0.30,0.08,1721206846363
0.61,5.67,11.02,0.08,0.07,-0.00,1721206846373
1.71,0.36,9.42,-0.02,0.15,-0.08,1721206846383
1.16,-2.27,9.77,-0.10,0.18,-0.19,1721206846393
-1.93,-1.64,9.26,0.01,0.09,-0.26,1721206846403
-2.57,0.36,9.99,0.04,0.19,-0.14,1721206846413
-2.69,1.15,9.46,0.05,0.10,0.00,1721206846423
-1.20,0.12,10.38,-0.09,0.17,0.03,1721206846433
-0.58,-1.50,17.41,-0.08,0.16,-0.01,1721206846443
-0.95,-0.31,10.92,0.04,0.04,-0.12,1721206846453
-0.71,1.93,8.98,0.06,0.16,-0.06,1721206846463
-2.09,2.37,10.86,0.15,-0.01,0.02,1721206846473
-2.52,2.51,7.16,0.12,0.03,0.14,1721206846483
-0.45,2.23,9.36,0.07,0.09,0.22,1721206846493
1.02,-1.19,7.56,0.07,-0.08,0.21,1721206846503
1.75,-2.24,10.28,-0.05,0.17,0.08,1721206846513
-0.71,2.37,9.50,0.24,-0.06,-0.00,1721206846523
-1.25,-2.67,3.36,-0.04,0.02,0.08,1721206846533
-1.50,-3.27,12.14,-0.07,0.15,0.19,1721206846543
3.59,-1.74,16.29,0.07,0.20,0.20,1721206846553
2.68,0.06,10.16,0.02,-0.13,-0.01,1721206846563
-1.13,5.87,10.69,0.15,0.16,-0.37,1721206846573
-1.79,-1.92,5.70,0.04,-0.09,-0.18,1721206846583
-5.35,-1.91,5.41,-0.07,0.06,0.15,1721206846593
-0.28,-0.57,11.17,-0.04,0.23,0.31,1721206846603
0.72,-1.88,12.66,-0.15,-0.06,0.20,1721206846613
1.22,3.30,14.86,0.04,0.10,-0.05,1721206846623
2.14,-0.51,11.08,-0.05,-0.04,-0.07,1721206846633
-2.66,1.98,10.14,-0.02,-0.14,-0.11,1721206846643
-0.76,0.23,9.50,-0.00,0.13,-0.01,1721206846653
-0.62,-0.29,12.56,0.01,-0.05,0.10,1721206846663
-0.37,2.19,8.18,0.16,-0.05,0.04,1721206846673
1.19,2.11,9.38,0.07,0.09,-0.07,1721206846683
-1.03,1.63,11.55,0.05,-0.07,-0.08,1721206846693
-2.03,1.23,10.65,0.01,0.00,-0.05,1721206846703
0.24,0.77,14.28,0.03,-0.00,0.11,1721206846713
0.94,0.13,12.11,0.08,-0.05,0.10,1721206846723
1.43,0.59,10.47,0.07,0.01,-0.03,1721206846733
1.36,1.41,9.88,0.04,-0.04,-0.09,1721206846743
-0.05,3.13,11.00,0.14,0.02,-0.08,1721206846753
-0.89,-0.04,6.00,0.07,-0.01,-0.06,1721206846763
-1.97,2.05,7.63,0.06,0.01,-0.02,1721206846773
-0.20,-2.67,8.63,-0.05,0.04,0.08,1721206846783
-1.51,2.55,16.83,-0.00,0.01,0.09,1721206846793
-0.74,1.54,6.19,0.16,-0.20,0.17,1721206846803
0.50,0.71,8.68,-0.12,0.16,0.07,1721206846813
-1.08,-1.54,8.88,0.01,-0.21,0.02,1721206846823
-2.27,-1.61,9.54,-0.28,0.05,0.02,1721206846833
-2.04,1.13,14.64,-0.02,-0.07,0.13,1721206846843
-1.03,-4.00,6.97,-0.18,-0.08,0.24,1721206846853
0.26,-1.77,11.23,-0.13,-0.04,0.28,1721206846863
3.10,-1.00,9.69,-0.08,-0.06,0.19,1721206846873
2.11,1.62,14.71,-0.16,-0.01,-0.05,1721206846883
-0.86,0.85,8.85,0.00,-0.27,-0.07,1721206846893
-0.79,1.65,4.78,-0.19,0.05,0.02,1721206846903
-0.65,-4.38,8.24,-0.25,-0.12,0.19,1721206846913
-0.29,-2.38,10.29,-0.24,-0.01,0.13,1721206846923
0.83,-1.25,12.72,-0.19,-0.10,-0.01,1721206846933
0.54,-0.55,11.79,-0.15,-0.08,0.04,1721206846943
-0.00,0.38,8.63,-0.18,-0.02,0.01,1721206846953
0.41,2.40,11.56,-0.13,-0.06,0.04,1721206846963
-0.39,0.44,7.74,-0.13,-0.10,0.01,1721206846973
0.38,0.83,10.28,-0.17,0.10,-0.11,1721206846983
2.06,-0.91,11.75,-0.10,-0.06,-0.03,1721206846993
-0.09,1.43,12.16,-0.10,-0.04,-0.05,1721206847003
1.10,2.13,12.75,-0.07,0.01,-0.04,1721206847013
1.32,1.67,10.05,0.01,0.03,-0.05,1721206847023
0.42,1.30,9.77,0.02,-0.03,-0.16,1721206847033
-0.34,-0.10,9.52,0.11,-0.08,-0.12,1721206847043
0.36,-2.00,10.19,-0.04,0.16,-0.19,1721206847053
-0.94,4.54,14.20,0.23,-0.08,-0.11,1721206847063
-0.10,-2.19,6.36,0.05,0.06,-0.07,1721206847073
-0.13,-2.11,10.49,0.08,0.11,-0.11,1721206847083
1.30,0.50,8.94,0.23,0.08,-0.07,1721206847093
0.99,-1.04,11.67,0.13,0.05,-0.10,1721206847103
0.80,0.08,10.37,0.19,0.10,-0.19,1721206847113
0.85,1.13,11.57,0.20,0.12,-0.31,1721206847123
-0.85,-3.13,8.05,0.14,-0.03,-0.18,1721206847133
-1.17,2.67,13.88,0.06,0.29,-0.14,1721206847143
0.44,0.54,12.27,0.20,0.02,-0.07,1721206847153
1.98,-1.20,6.93,0.12,0.21,-0.12,1721206847163
2.72,-3.39,7.56,0.10,0.18,-0.22,1721206847173
-0.34,0.08,10.73,0.06,0.22,-0.41,1721206847183
-2.01,2.27,13.30,0.18,0.10,-0.36,1721206847193
-1.56,-0.02,9.86,0.21,0.20,-0.14,1721206847203
-1.26,-0.60,9.85,0.16,0.17,-0.16,1721206847213
-0.55,-0.08,9.95,0.11,0.21,-0.16,1721206847223
-1.58,2.31,13.36,0.14,0.18,-0.20,1721206847233
-1.07,0.68,8.25,0.17,0.15,-0.14,1721206847243
-0.90,-1.93,8.18,0.11,0.20,-0.08,1721206847253
0.06,-1.71,9.72,0.05,0.19,-0.05,1721206847263
-0.01,3.17,12.70,0.11,0.20,-0.15,1721206847273
-0.08,3.12,8.83,0.14,0.14,-0.12,1721206847283
-0.90,2.03,7.78,0.01,0.21,-0.14,1721206847293
-1.06,-0.23,9.46,-0.05,0.14,-0.05,1721206847303
-1.14,0.65,12.41,-0.09,0.19,0.01,1721206847313
-0.52,2.54,10.22,0.02,0.07,0.02,1721206847323
0.16,1.29,6.99,-0.04,0.15,0.02,1721206847333
-0.83,-0.77,7.60,-0.06,0.10,-0.03,1721206847343
-2.38,-0.25,9.10,-0.05,0.09,-0.01,1721206847353
-1.62,0.09,12.13,-0.15,0.10,0.16,1721206847363
0.34,2.23,13.47,-0.02,0.06,0.31,1721206847373
2.58,-0.52,9.70,-0.20,0.11,0.14,1721206847383
0.44,0.62,10.68,-0.10,-0.09,0.02,1721206847393
2.08,-2.08,6.89,-0.20,0.18,-0.00,1721206847403
-0.49,1.14,10.70,-0.09,-0.10,0.03,1721206847413
-0.51,-2.19,3.76,-0.10,0.10,-0.05,1721206847423
-2.98,-1.24,11.46,-0.16,0.09,-0.07,1721206847433
-2.54,0.03,11.36,-0.12,0.05,0.08,1721206847443
-0.27,2.25,12.23,-0.14,0.14,0.26,1721206847453
2.27,-1.94,6.94,-0.14,-0.02,0.27,1721206847463
3.60,-3.28,11.72,-0.35,0.29,-0.06,1721206847473
1.54,2.12,14.15,0.01,-0.08,-0.28,1721206847483
-1.17,3.42,6.72,0.05,0.08,-0.25,1721206847493
-2.49,-0.73,10.06,-0.15,0.10,-0.10,1721206847503
-1.80,1.34,13.95,-0.04,0.07,0.10,1721206847513
0.69,1.69,11.73,-0.04,0.11,0.08,1721206847523
0.10,1.37,10.85,-0.02,0.03,-0.08,1721206847533
0.13,-1.00,7.29,0.00,0.10,-0.12,1721206847543
-2.30,-0.17,11.09,-0.00,0.10,-0.09,1721206847553
-1.89,-0.24,10.73,0.17,0.03,0.07,1721206847563
-0.78,3.65,11.56,0.16,0.17,0.14,1721206847573
0.51,0.34,8.39,0.12,-0.07,0.13,1721206847583
1.36,0.13,10.62,0.11,0.19,0.04,1721206847593
1.25,-0.60,10.47,0.13,0.06,-0.08,1721206847603
-1.04,3.24,12.79,0.07,0.06,-0.08,1721206847613
-1.97,0.85,11.48,0.16,0.03,0.00,1721206847623
-2.75,0.64,9.38,0.13,-0.03,0.16,1721206847633
-0.40,-2.47,8.53,0.09,0.12,0.24,1721206847643
-0.05,-0.13,10.05,0.14,0.02,0.18,1721206847653
1.05,0.02,11.04,0.12,0.04,0.04,1721206847663
-0.32,-0.18,9.76,0.18,-0.06,0.02,1721206847673
-0.99,-1.29,11.85,0.08,0.10,0.02,1721206847683
-2.50,2.86,8.70,0.24,-0.20,0.18,1721206847693
-0.11,-0.47,7.18,0.06,0.19,0.15,1721206847703
-0.39,-1.69,8.70,0.08,-0.18,0.16,1721206847713
-1.29,-3.33,8.58,0.01,0.07,0.10,1721206847723
-0.07,1.02,14.75,0.12,0.02,0.08,1721206847733
0.01,3.15,10.98,0.10,-0.09,0.09,1721206847743
-1.96,2.27,9.29,0.08,-0.10,0.04,1721206847753
-1.65,-1.93,7.88,0.02,-0.05,0.13,1721206847763
-0.12,0.21,12.08,0.01,-0.02,0.24,1721206847773
1.71,0.12,9.33,0.05,-0.10,0.17,1721206847783
0.39,1.22,8.08,0.07,-0.13,0.01,1721206847793
0.51,0.77,8.88,0.04,0.02,0.01,1721206847803
0.09,1.73,11.71,0.07,-0.14,0.11,1721206847813
0.44,-1.03,6.40,0.04,-0.11,0.17,1721206847823
1.69,0.88,10.94,-0.02,0.10,0.04,1721206847833
1.39,0.53,10.80,-0.01,-0.19,-0.01,1721206847843
-0.88,2.82,18.42,-0.08,0.04,-0.03,1721206847853
-1.99,-3.41,9.36,0.06,-0.25,0.06,1721206847863
-2.06,2.01,9.71,-0.08,0.17,0.09,1721206847873
0.04,0.47,9.94,-0.02,-0.13,0.24,1721206847883
-0.34,3.83,12.31,-0.07,-0.09,0.22,1721206847893
1.14,-1.58,8.26,0.12,-0.16,0.18,1721206847903
0.76,-3.29,5.57,-0.03,-0.03,0.05,1721206847913
-0.40,0.22,11.64,-0.03,-0.10,0.05,1721206847923
0.20,1.96,12.88,-0.05,-0.04,0.15,1721206847933
1.07,3.15,11.36,0.14,-0.07,0.15,1721206847943
3.15,-2.77,2.28,-0.03,-0.02,0.00,1721206847953
1.09,-2.24,8.17,-0.19,0.01,-0.18,1721206847963
-0.27,-2.49,16.00,-0.28,0.06,-0.26,1721206847973
-2.45,2.70,20.07,-0.03,-0.11,-0.09,1721206847983
-1.14,-1.67,6.00,-0.01,-0.10,0.09,1721206847993
0.22,-1.82,5.16,-0.13,0.01,0.05,1721206848003
2.96,-0.75,9.57,-0.23,0.19,-0.14,1721206848013
-0.14,7.44,13.79,-0.03,-0.07,-0.28,1721206848023
-1.64,-3.33,2.96,-0.13,-0.05,-0.31,1721206848033
-1.88,-5.88,11.23,-0.24,0.20,-0.14,1721206848043
-1.72,2.98,8.30,-0.03,-0.08,-0.05,1721206848053
1.65,3.83,8.48,-0.18,0.27,-0.01,1721206848063
3.24,-2.36,13.07,-0.21,-0.00,-0.20,1721206848073
-0.09,-1.07,14.73,-0.14,-0.08,-0.33,1721206848083
-1.11,-3.23,8.24,-0.02,0.00,-0.19,1721206848093
-2.51,2.73,10.28,-0.16,0.25,-0.21,1721206848103
-1.52,-1.84,14.22,-0.16,-0.00,-0.11,1721206848113
-0.45,3.41,14.45,0.14,0.05,0.09,1721206848123
2.00,-1.02,3.47,0.18,0.05,-0.00,1721206848133
1.51,1.56,7.79,0.09,0.21,-0.17,1721206848143
-1.27,6.04,15.58,0.20,0.14,-0.27,1721206848158
-2.11,7.36,15.00,0.23,-0.05,-0.18,1721206848162
-1.42,1.42,7.21,0.18,0.08,0.03,1721206848172
1.58,-4.44,9.15,-0.02,0.23,0.04,1721206848182
1.24,-1.97,12.81,0.08,0.05,-0.07,1721206848192
0.38,2.35,11.39,0.18,0.18,-0.17,1721206848202
0.02,0.52,10.44,0.27,0.11,-0.15,1721206848212
-0.36,2.85,8.97,0.38,0.11,-0.03,1721206848222
-0.70,-1.16,9.56,0.16,0.17,-0.05,1721206848232
-2.30,0.88,18.34,0.05,0.05,-0.04,1721206848242
-1.09,3.33,12.19,0.38,0.09,0.24,1721206848252
2.95,1.16,3.89,0.30,0.29,0.15,1721206848262
1.83,0.28,6.65,0.27,0.05,-0.06,1721206848272
0.15,-0.45,11.69,0.13,0.22,-0.30,1721206848282
-3.02,4.10,16.23,0.34,0.05,-0.16,1721206848292
-4.05,-1.67,6.29,0.17,0.01,0.17,1721206848302
-2.27,1.32,9.57,0.18,0.18,0.33,1721206848312
1.62,-0.28,7.81,0.17,0.19,0.24,1721206848322
1.22,3.66,7.34,0.22,-0.01,0.09,1721206848332
0.78,0.06,4.64,0.00,0.15,-0.04,1721206848342
-1.86,-1.45,12.44,-0.11,0.02,-0.05,1721206848352
-2.29,-1.71,8.24,-0.02,-0.04,0.15,1721206848362
-0.90,5.36,1.48,0.12,0.08,0.31,1721206848372
3.34,-5.22,7.02,-0.48,0.19,0.08,1721206848382
-0.56,-7.06,27.41,-0.30,-0.23,-0.10,1721206848392
-2.82,-2.04,12.39,0.35,-0.07,0.04,1721206848402
0.32,9.02,6.09,0.04,0.30,0.08,1721206848412
1.16,-1.07,0.64,-0.29,-0.28,0.18,1721206848422
-0.63,0.09,14.25,-0.29,0.29,0.05,1721206848432
2.60,-6.95,13.15,-0.05,0.00,-0.03,1721206848442
-1.44,4.46,4.88,-0.02,-0.05,-0.05,1721206848452
1.03,-1.20,9.30,-0.42,0.19,0.01,1721206848462
-0.95,-2.48,19.71,-0.24,-0.28,0.28,1721206848472
-1.14,5.29,5.32,0.16,-0.11,0.25,1721206848482
1.65,1.69,4.96,-0.23,0.13,0.07,1721206848492
-0.75,-4.25,14.07,-0.46,-0.12,0.02,1721206848502
0.15,-3.22,21.47,-0.24,0.07,0.13,1721206848512
-0.38,3.16,9.38,0.03,-0.17,0.17,1721206848522
-0.35,6.00,4.69,-0.03,0.12,-0.05,1721206848532
-1.49,-3.30,11.62,-0.15,-0.16,0.11,1721206848542
-0.94,-2.90,17.61,-0.07,0.00,0.37,1721206848552
1.14,3.24,12.53,0.11,-0.10,0.37,1721206848562
1.71,5.72,6.17,0.12,-0.03,0.04,1721206848572
2.29,1.19,10.32,0.07,-0.06,-0.00,1721206848582
0.40,-0.42,13.66,0.15,-0.09,0.11,1721206848592
-0.38,-0.54,8.24,0.12,-0.12,0.09,1721206848602
0.88,2.35,10.89,0.09,0.11,0.05,1721206848612
0.93,0.27,8.09,0.11,-0.15,0.02,1721206848622
-0.79,0.46,9.48,0.11,-0.05,0.01,1721206848632
-0.70,-3.41,6.65,0.21,-0.13,0.06,1721206848642
0.36,-2.88,11.27,0.03,0.11,0.03,1721206848652
0.37,1.24,13.53,0.13,-0.15,0.04,1721206848662
1.04,3.22,13.66,0.06,-0.02,-0.03,1721206848672
-0.16,0.68,6.64,0.16,-0.27,-0.11,1721206848682
-2.09,2.14,4.34,0.13,-0.01,-0.10,1721206848692
0.58,-7.98,9.54,-0.25,0.01,0.06,1721206848702
-1.13,-3.51,21.44,-0.18,-0.22,0.08,1721206848712
-0.24,5.65,10.66,0.22,-0.16,-0.11,1721206848722
-0.77,7.85,1.81,0.10,-0.04,-0.22,1721206848732
-1.58,-8.15,7.08,-0.29,-0.08,-0.07,1721206848742
-1.64,-7.33,19.34,-0.18,-0.13,0.09,1721206848752
1.25,7.76,12.32,0.20,-0.12,0.07,1721206848762
3.32,5.75,7.03,-0.02,0.04,-0.23,1721206848772
-1.20,-0.72,9.81,-0.02,-0.26,-0.31,1721206848782
-4.38,1.50,6.43,0.15,-0.13,-0.14,1721206848792
-0.71,-5.71,10.37,-0.23,0.09,0.15,1721206848802
1.71,2.04,21.45,-0.00,-0.06,0.20,1721206848812
3.28,2.94,6.74,0.19,-0.26,-0.06,1721206848822
1.74,5.18,3.64,0.16,-0.01,-0.36,1721206848832
0.93,-4.21,8.86,0.05,0.03,-0.35,1721206848842
-2.53,-0.40,15.44,0.04,-0.13,-0.10,1721206848852
-2.19,7.69,10.27,0.20,-0.14,0.04,1721206848862
0.41,3.86,5.13,-0.01,0.03,-0.14,1721206848872
0.14,-3.01,9.10,-0.08,-0.05,-0.22,1721206848882
-1.69,-3.11,7.48,-0.07,-0.12,-0.12,1721206848892
-2.43,0.85,11.67,-0.09,0.01,-0.08,1721206848902
-0.04,1.23,17.14,-0.03,0.07,0.02,1721206848912
0.87,3.18,9.07,0.17,-0.26,0.13,1721206848922
1.56,4.49,2.25,-0.09,0.06,-0.11,1721206848932
2.75,-5.87,17.35,-0.46,0.10,-0.36,1721206848942
-1.09,0.40,22.68,0.06,-0.19,-0.35,1721206848952
-4.07,-0.83,-0.54,0.00,-0.25,-0.17,1721206848962
-3.11,3.46,2.94,-0.11,0.11,-0.02,1721206848972
3.87,-3.28,13.86,-0.05,0.26,-0.01,1721206848982
0.37,0.36,13.61,-0.01,-0.22,-0.22,1721206848992
-1.65,-3.31,11.91,-0.29,-0.07,-0.28,1721206849002
-2.15,5.97,17.68,0.00,-0.00,-0.20,1721206849012
0.29,2.77,4.86,0.01,-0.08,-0.00,1721206849022
0.04,-2.20,2.94,-0.08,-0.04,-0.12,1721206849032
0.72,-8.05,10.52,-0.18,0.20,-0.20,1721206849042
-1.50,4.69,13.67,0.07,-0.06,-0.22,1721206849052
-0.93,-0.81,4.70,-0.11,-0.08,-0.05,1721206849062
-0.41,-1.30,9.95,-0.13,-0.03,-0.04,1721206849072
3.60,-5.24,15.15,-0.07,0.24,-0.19,1721206849082
0.34,0.57,13.45,0.14,-0.10,-0.30,1721206849092
-1.46,3.47,8.50,0.06,0.13,-0.30,1721206849102
-1.44,4.39,13.07,0.12,-0.03,-0.11,1721206849112
-0.50,2.33,7.36,0.14,0.08,-0.03,1721206849122
1.76,-4.83,7.31,-0.06,0.05,-0.06,1721206849132
0.31,-3.41,13.30,-0.13,0.06,-0.25,1721206849142
-1.18,6.54,17.21,0.02,0.17,-0.28,1721206849152
-1.23,-1.31,5.80,0.11,-0.13,-0.13,1721206849162
-0.79,-4.95,5.76,0.02,0.17,0.01,1721206849172
0.45,7.61,13.44,0.24,0.25,-0.18,1721206849182
0.23,3.42,12.03,0.14,-0.04,-0.13,1721206849192
-1.45,-0.14,9.44,0.04,0.02,-0.06,1721206849202
-0.31,-1.97,9.06,-0.01,0.13,-0.09,1721206849212
0.72,-2.77,13.24,-0.13,0.12,-0.09,1721206849222
-0.36,4.80,12.92,0.14,0.01,-0.04,1721206849232
1.07,2.36,7.25,0.17,0.21,-0.13,1721206849242
0.35,-2.98,6.71,0.06,0.03,-0.09,1721206849252
-0.39,-0.82,13.13,0.07,0.17,-0.14,1721206849262
-0.28,4.36,8.39,0.19,0.02,-0.10,1721206849272
-0.71,3.51,6.75,0.12,0.11,-0.01,1721206849282
-0.13,-1.88,5.29,0.09,0.09,-0.11,1721206849292
0.22,-3.62,9.20,0.03,0.15,-0.16,1721206849302
-1.36,6.34,11.83,0.09,0.00,-0.17,1721206849312
-2.51,1.47,7.48,-0.04,0.05,-0.09,1721206849322
-1.84,-4.13,10.30,-0.22,0.13,-0.01,1721206849332
-0.06,-0.79,18.59,-0.07,0.10,0.07,1721206849342
0.93,1.42,8.41,-0.01,-0.10,0.12,1721206849352
2.37,1.06,11.07,-0.27,0.34,-0.24,1721206849362
0.03,2.27,11.97,-0.04,-0.17,-0.27,1721206849372
-2.65,-0.78,-2.61,-0.12,-0.06,0.02,1721206849382
1.47,-6.45,11.84,-0.33,0.53,-0.06,1721206849392
0.04,-0.22,20.79,-0.06,-0.15,-0.05,1721206849402
-2.00,3.44,10.67,-0.16,-0.03,0.00,1721206849412
0.03,6.04,16.45,-0.07,0.14,0.07,1721206849422
3.54,3.70,10.39,-0.04,0.06,-0.03,1721206849432
-0.07,-0.89,7.37,-0.17,-0.17,-0.06,1721206849442
-1.00,-0.10,15.24,-0.08,0.14,-0.15,1721206849452
0.05,3.83,7.81,0.12,0.02,-0.26,1721206849462
-1.63,0.01,7.56,0.00,0.05,-0.03,1721206849472
-0.72,-0.56,7.89,0.02,0.11,0.06,1721206849482
0.05,-0.36,13.10,-0.02,0.07,0.07,1721206849492
1.49,3.34,8.72,0.17,-0.04,0.08,1721206849502
3.34,-0.95,2.29,0.09,0.14,-0.12,1721206849512
0.40,-5.43,7.99,-0.22,-0.03,-0.20,1721206849522
-2.66,2.98,22.09,0.07,0.05,-0.27,1721206849532
-2.04,3.34,13.25,0.10,0.01,-0.06,1721206849542
-2.29,-2.32,7.86,-0.05,0.04,0.17,1721206849552
2.44,-4.39,7.19,-0.09,0.18,0.17,1721206849562
3.24,0.72,13.88,0.01,0.11,-0.17,1721206849572
-0.48,1.45,6.64,0.19,-0.10,-0.43,1721206849582
-4.77,-1.98,10.57,0.06,0.18,-0.22,1721206849592
-5.32,-0.15,8.78,0.09,-0.16,0.34,1721206849602
0.13,6.31,5.75,0.15,0.22,0.50,1721206849612
8.35,-4.31,7.75,-0.22,0.16,0.10,1721206849622
1.38,-4.17,12.70,-0.23,-0.29,-0.44,1721206849632
-1.95,-0.34,12.56,0.03,0.21,-0.68,1721206849642
-4.81,0.08,10.73,-0.04,-0.01,-0.31,1721206849652
-5.20,0.81,9.16,-0.05,0.04,0.20,1721206849662
-0.37,2.43,10.13,0.04,0.12,0.18,1721206849672
2.45,0.53,8.99,0.02,-0.03,0.03,1721206849682
3.36,-0.25,9.67,-0.04,0.12,-0.17,1721206849692
0.92,-6.05,13.08,-0.25,0.02,-0.35,1721206849702
-2.48,4.54,14.92,0.11,-0.04,-0.28,1721206849712
-1.36,8.65,8.31,0.25,0.08,-0.13,1721206849722
-3.00,0.84,3.45,0.17,-0.19,0.06,1721206849732
-1.66,-7.87,12.31,-0.11,0.29,0.01,1721206849742
1.22,8.14,20.44,0.30,0.05,-0.08,1721206849752
1.69,7.37,3.64,0.22,-0.17,-0.12,1721206849762
-2.60,5.65,8.21,0.09,0.12,-0.29,1721206849772
-1.67,-0.81,8.44,0.33,-0.16,-0.00,1721206849782
-0.46,-3.97,4.10,0.10,0.14,0.14,1721206849792
0.70,-1.35,8.81,-0.05,-0.01,0.02,1721206849802
1.81,-0.13,15.84,-0.02,0.14,-0.19,1721206849812
-0.06,1.74,12.04,0.23,-0.11,-0.18,1721206849822
-2.48,3.28,4.73,0.22,0.04,-0.08,1721206849832
-0.86,-2.26,9.94,-0.04,0.15,0.03,1721206849842
0.11,0.93,16.43,-0.00,-0.01,0.08,1721206849852
1.29,2.17,10.38,0.10,0.02,-0.04,1721206849862
0.30,-0.70,7.17,0.03,-0.03,-0.11,1721206849872
-0.93,-1.92,3.71,0.10,-0.06,-0.03,1721206849882
0.95,2.11,11.39,0.01,0.29,-0.10,1721206849892
0.48,4.90,18.05,0.03,-0.09,-0.12,1721206849902
-2.45,3.12,4.22,0.09,-0.25,-0.07,1721206849912
-0.45,-3.70,1.94,-0.06,0.25,0.03,1721206849922
-0.99,-4.56,8.04,-0.35,-0.02,-0.03,1721206849932
-1.30,-1.32,16.24,-0.09,-0.02,-0.06,1721206849942
0.43,2.54,8.53,0.21,0.04,0.02,1721206849952
1.63,7.07,8.58,-0.01,0.18,-0.05,1721206849962
2.07,-0.59,9.95,-0.25,-0.02,-0.11,1721206849972
1.33,-10.59,21.83,-0.57,0.13,-0.30,1721206849982
-2.10,0.33,16.80,0.08,-0.19,-0.24,1721206849992
-0.84,3.59,5.48,-0.14,0.37,-0.25,1721206850002
-0.57,-2.30,12.29,-0.07,-0.09,-0.03,1721206850012
0.28,3.76,8.66,0.16,-0.00,0.02,1721206850022
3.47,1.06,7.80,0.00,0.28,-0.31,1721206850032
-0.98,-3.04,13.13,-0.11,0.02,-0.53,1721206850042
-5.71,3.30,12.05,0.05,-0.01,-0.38,1721206850052
-4.09,1.72,12.29,0.04,0.20,0.10,1721206850062
-0.95,-3.42,8.99,0.09,0.10,0.24,1721206850072
0.40,0.82,3.42,0.10,0.04,0.07,1721206850082
4.16,-3.12,5.61,-0.02,0.23,-0.16,1721206850092
1.62,-2.09,11.34,-0.03,0.10,-0.35,1721206850102
-2.59,-1.51,12.05,0.05,0.01,-0.25,1721206850112
-2.60,4.89,13.93,0.18,0.22,-0.04,1721206850122
1.43,0.66,8.38,0.05,0.16,0.14,1721206850132
0.87,1.03,6.23,-0.01,-0.01,0.06,1721206850142
2.05,-2.89,11.06,-0.15,0.37,-0.20,1721206850152
-1.09,-1.57,7.78,0.04,0.14,-0.15,1721206850167
-1.31,-4.03,6.64,-0.10,0.12,-0.09,1721206850171
-2.30,2.99,16.11,-0.05,0.15,-0.02,1721206850181
-0.06,2.10,14.47,0.03,0.22,0.04,1721206850191
0.06,1.61,7.55,0.11,0.05,0.11,1721206850201
0.41,5.11,8.48,0.21,0.29,0.01,1721206850211
1.12,-2.29,5.36,0.06,0.17,-0.09,1721206850221
-3.73,-0.98,14.37,0.02,0.03,-0.14,1721206850231
-3.96,3.56,8.42,0.31,0.03,0.23,1721206850241
-0.05,3.96,7.79,0.08,0.27,0.50,1721206850251
2.85,-1.25,14.36,0.08,0.07,0.24,1721206850261
1.25,-3.26,11.60,0.07,-0.09,-0.01,1721206850271
-2.80,1.60,14.65,0.11,-0.01,0.05,1721206850281
-2.87,7.58,11.92,0.32,0.07,0.22,1721206850291
-0.39,-0.62,2.81,0.16,-0.07,0.43,1721206850301
-0.86,1.99,1.42,0.22,-0.03,0.32,1721206850311
3.69,-3.96,10.34,-0.05,0.30,0.18,1721206850321
0.30,1.66,20.25,0.12,-0.23,0.20,1721206850331
-1.20,1.08,3.83,0.11,-0.16,0.22,1721206850341
-1.05,3.09,11.06,0.02,0.07,0.21,1721206850351
2.12,-0.93,9.81,-0.02,-0.05,0.21,1721206850361
0.91,-0.10,9.75,0.00,-0.13,0.25,1721206850371
0.74,-2.75,6.72,-0.09,0.01,0.07,1721206850381
-1.23,-0.98,15.29,-0.03,-0.03,-0.01,1721206850391
0.34,-0.58,10.61,0.09,-0.03,0.20,1721206850401
-0.01,2.56,7.19,0.12,-0.10,0.32,1721206850411
2.29,0.94,9.53,-0.07,0.09,0.14,1721206850421
2.05,5.89,13.05,0.16,-0.14,-0.01,1721206850431
3.47,-0.32,3.95,0.00,-0.03,-0.09,1721206850441
-0.48,-2.07,10.64,-0.22,-0.09,-0.16,1721206850451
-1.72,-0.12,13.79,-0.06,-0.01,-0.15,1721206850461
-1.24,1.95,8.81,0.06,-0.01,-0.06,1721206850471
-0.18,1.50,7.39,-0.08,0.04,0.02,1721206850481
-0.39,-0.91,11.94,-0.08,-0.11,0.02,1721206850491
0.85,-4.10,15.96,-0.16,0.11,-0.06,1721206850501
-0.12,1.92,9.41,0.05,-0.17,-0.01,1721206850511
0.32,6.56,12.54,0.01,0.25,-0.12,1721206850521
2.48,-1.58,8.09,0.07,-0.09,-0.12,1721206850531
-0.69,-0.47,7.18,-0.00,-0.06,-0.13,1721206850541
2.05,-0.58,10.61,-0.02,0.23,-0.18,1721206850551
1.72,-0.90,16.93,-0.07,-0.04,-0.16,1721206850561
-0.60,0.59,12.27,0.06,-0.05,-0.21,1721206850571
0.48,1.84,7.45,0.16,0.16,-0.14,1721206850581
0.03,0.08,7.01,0.03,0.04,-0.19,1721206850591
-0.92,4.18,10.74,0.19,0.00,-0.24,1721206850601
0.05,2.71,3.08,0.13,0.11,-0.27,1721206850611
-1.58,-2.65,-4.69,-0.10,-0.04,-0.24,1721206850621
-0.10,-10.83,14.40,-0.54,0.50,-0.24,1721206850631
-0.95,0.43,31.35,0.03,-0.01,-0.22,1721206850641
-0.72,-0.40,2.63,0.14,-0.17,-0.13,1721206850651
-1.09,3.88,6.43,-0.09,0.38,-0.24,1721206850661
0.71,-0.32,14.81,-0.06,0.19,-0.22,1721206850671
-1.89,1.03,14.58,-0.10,-0.05,-0.12,1721206850681
-1.28,0.72,13.00,-0.03,0.15,-0.08,1721206850691
-0.45,-2.01,7.48,-0.05,-0.01,-0.05,1721206850701
-0.85,6.75,10.62,0.09,0.21,-0.15,1721206850711
2.85,3.25,10.72,0.00,0.29,-0.21,1721206850721
-0.52,1.20,15.71,-0.04,0.03,-0.14,1721206850731
-1.51,-2.86,9.87,-0.08,0.05,-0.11,1721206850741
-0.15,3.40,11.72,0.04,0.19,-0.08,1721206850751
1.21,-0.68,7.20,-0.02,0.11,-0.17,1721206850761
-2.63,0.82,7.58,0.14,-0.02,-0.27,1721206850771
-1.03,3.43,8.00,0.26,0.35,-0.15,1721206850781
-1.54,2.99,5.22,0.07,0.01,-0.05,1721206850791
-2.43,-5.55,11.29,-0.17,0.17,-0.06,1721206850801
-0.18,0.83,21.15,0.10,0.28,-0.06,1721206850811
0.04,8.24,12.97,0.16,-0.01,-0.07,1721206850821
-1.87,0.26,4.24,0.03,-0.00,0.02,1721206850831
-0.59,-3.29,8.22,0.10,0.32,0.00,1721206850841
-0.57,1.35,2.96,0.17,-0.13,0.12,1721206850851
0.07,5.75,10.34,-0.02,0.27,0.00,1721206850861
-0.18,1.54,13.65,0.21,-0.08,-0.08,1721206850871
-0.24,-3.50,3.30,0.06,0.18,-0.02,1721206850881
-1.61,-3.68,6.89,-0.28,0.05,0.05,1721206850891
-2.73,2.90,19.92,-0.16,-0.05,0.10,1721206850901
-0.56,4.51,10.88,0.25,0.04,0.06,1721206850911
0.04,-4.35,2.84,-0.09,-0.03,0.05,1721206850921
-2.27,-10.04,17.14,-0.54,0.09,0.10,1721206850931
-0.91,9.19,27.53,0.24,-0.02,0.10,1721206850941
1.56,8.13,-2.44,0.29,-0.25,0.16,1721206850951
-2.56,-0.54,1.37,-0.15,0.11,0.12,1721206850961
-1.36,-1.54,12.46,0.15,0.09,0.03,1721206850971
0.50,-5.35,9.61,-0.19,-0.09,0.18,1721206850981
-4.95,3.37,16.49,-0.21,-0.28,0.22,1721206850991
-3.01,2.63,7.33,0.15,-0.04,0.40,1721206851001
2.86,-0.81,4.72,0.14,-0.05,0.52,1721206851011
1.93,-6.30,4.27,-0.11,-0.20,0.36,1721206851021
0.13,1.83,19.27,-0.05,-0.00,0.13,1721206851031
-0.27,5.75,8.55,0.28,-0.27,0.12,1721206851041
-0.00,-0.92,0.05,-0.04,-0.05,0.40,1721206851051
0.69,-5.48,11.40,-0.24,-0.10,0.48,1721206851061
2.82,-3.55,22.93,-0.07,-0.09,0.29,1721206851071
2.41,-0.12,7.05,0.18,-0.31,0.06,1721206851081
1.29,3.08,2.04,-0.01,0.14,-0.13,1721206851091
0.08,-2.64,12.17,-0.12,-0.16,0.16,1721206851101
-0.65,1.11,14.53,0.06,-0.20,0.31,1721206851111
3.18,-1.61,9.29,-0.06,0.09,0.04,1721206851121
2.16,2.33,9.96,0.02,-0.17,-0.14,1721206851131
1.83,1.38,6.22,-0.11,0.06,-0.19,1721206851141
-0.38,-2.00,11.58,-0.08,-0.10,-0.05,1721206851151
-1.02,2.45,11.84,0.01,0.05,-0.04,1721206851161
0.40,-1.28,8.93,-0.04,-0.07,0.08,1721206851171
1.08,-0.42,15.26,-0.19,0.11,0.06,1721206851181
1.41,2.51,11.43,-0.04,-0.10,-0.19,1721206851191
0.01,1.93,5.64,0.02,-0.03,-0.20,1721206851201
0.60,-1.83,9.88,0.01,0.18,-0.16,1721206851211
-1.19,-1.99,12.87,0.17,-0.09,-0.13,1721206851221
-2.46,6.90,11.85,0.24,-0.04,-0.10,1721206851231
-1.10,7.74,9.73,0.21,-0.06,0.05,1721206851241
0.66,-2.10,10.37,-0.10,0.05,0.08,1721206851251
1.44,-3.11,13.98,0.05,-0.02,-0.00,1721206851261
1.65,2.32,8.50,0.07,-0.03,-0.14,1721206851271
-0.34,2.38,8.48,0.07,-0.01,-0.19,1721206851281
-1.82,0.46,8.61,0.12,-0.02,-0.11,1721206851291
-2.71,0.56,7.13,0.13,-0.05,0.14,1721206851301
-0.64,1.65,10.72,0.01,0.10,0.11,1721206851311
1.55,-2.25,10.88,-0.04,-0.08,0.13,1721206851321
1.74,3.45,11.48,0.02,0.01,-0.04,1721206851331
1.96,-0.75,7.63,-0.00,-0.01,-0.11,1721206851341
-0.14,-4.26,9.65,-0.07,-0.01,-0.14,1721206851351
-0.06,1.95,12.04,0.13,0.04,-0.12,1721206851361
-1.60,2.88,6.95,-0.03,-0.11,-0.14,1721206851371
-1.81,-1.25,13.73,-0.19,0.01,0.01,1721206851381
0.65,1.35,16.22,0.12,0.05,0.07,1721206851391
2.91,1.55,5.15,-0.08,0.07,-0.08,1721206851401
0.85,-0.80,9.35,-0.06,-0.08,-0.19,1721206851411
0.69,0.71,4.85,0.20,0.12,-0.30,1721206851421
-1.10,-5.20,1.32,-0.09,-0.01,-0.26,1721206851431
-4.38,4.72,17.61,-0.03,0.02,-0.23,1721206851441
0.73,3.37,13.86,0.12,0.14,-0.01,1721206851451
3.02,-4.74,9.41,-0.19,0.10,0.02,1721206851461
3.56,-1.49,12.49,-0.12,0.10,-0.23,1721206851471
2.12,8.41,11.50,0.22,0.11,-0.64,1721206851481
-0.72,-5.23,5.07,-0.12,0.05,-0.69,1721206851491
-6.80,-2.27,14.84,0.07,-0.03,-0.35,1721206851501
-5.48,3.76,10.63,0.09,0.18,-0.04,1721206851511
-2.08,3.77,11.10,-0.05,0.06,0.06,1721206851521
0.80,-7.10,8.77,0.02,-0.03,0.13,1721206851531
3.12,-3.87,10.49,0.01,0.26,-0.11,1721206851541
-0.62,6.95,7.00,0.25,-0.15,-0.33,1721206851551
-1.61,1.76,11.31,-0.04,0.21,-0.32,1721206851561
-3.95,-6.57,18.09,-0.07,-0.18,0.12,1721206851571
-3.60,-0.45,12.43,0.07,-0.03,0.31,1721206851581
1.69,4.43,7.02,0.11,0.06,0.19,1721206851591
2.54,-3.28,9.34,-0.19,-0.11,0.10,1721206851601
-0.30,0.92,9.86,0.18,-0.15,-0.02,1721206851611
0.69,0.59,2.93,0.16,0.04,-0.11,1721206851621
-5.05,-0.55,4.56,-0.05,-0.34,0.10,1721206851631
-2.45,-1.24,15.68,-0.18,0.22,0.29,1721206851641
2.56,1.86,18.12,0.12,-0.05,0.35,1721206851651
3.95,3.72,2.43,0.17,-0.11,0.12,1721206851661
2.76,-6.00,7.41,-0.30,-0.10,-0.12,1721206851671
-1.78,2.28,23.73,0.00,-0.25,-0.04,1721206851681
-1.13,7.01,3.85,0.40,-0.19,0.05,1721206851691
-1.03,-1.73,-1.17,-0.16,-0.11,-0.03,1721206851701
-2.79,-5.01,21.50,-0.42,0.02,-0.07,1721206851711
-1.13,8.48,22.06,0.33,-0.16,-0.00,1721206851721
1.44,7.04,-2.26,0.20,-0.12,0.02,1721206851731
-1.33,-3.86,1.61,-0.24,-0.11,-0.03,1721206851741
-0.56,-4.47,17.92,-0.10,0.10,-0.08,1721206851751
1.52,5.95,12.88,0.30,-0.19,-0.02,1721206851761
0.58,3.08,-2.09,0.09,-0.18,-0.04,1721206851771
1.31,-2.57,15.55,-0.23,0.26,-0.15,1721206851781
1.03,3.06,25.19,0.16,-0.21,-0.25,1721206851791
-2.73,5.33,5.05,0.18,-0.30,-0.25,1721206851801
-1.66,2.68,3.98,-0.08,0.14,-0.13,1721206851811
-0.83,-4.58,12.51,-0.12,-0.09,0.03,1721206851821
0.20,-1.66,8.60,0.06,-0.10,-0.06,1721206851831
2.57,1.36,11.33,-0.12,0.05,-0.08,1721206851841
2.30,8.88,14.25,0.11,-0.18,-0.18,1721206851851
2.53,3.95,8.85,-0.10,0.07,-0.36,1721206851861
-1.79,-8.29,8.04,-0.34,-0.18,-0.43,1721206851871
-3.71,-3.51,16.19,-0.21,0.07,-0.30,1721206851881
-3.53,-1.17,3.20,0.01,-0.24,-0.02,1721206851891
-2.28,-0.68,2.40,-0.10,0.15,0.02,1721206851901
4.10,-3.26,15.75,-0.13,0.11,0.02,1721206851911
2.82,2.17,18.44,0.01,-0.08,-0.06,1721206851921
1.07,2.58,10.23,-0.10,-0.06,-0.32,1721206851931
-0.56,0.22,7.99,-0.04,-0.13,-0.43,1721206851941
1.58,-0.23,10.36,0.01,0.30,-0.14,1721206851951
-0.63,-2.08,4.66,-0.03,-0.11,-0.08,1721206851961
-1.57,-0.32,8.05,-0.15,0.01,-0.18,1721206851971
1.18,-0.45,9.97,-0.13,0.09,-0.19,1721206851981
-0.52,-2.69,11.34,-0.19,0.04,-0.27,1721206851991
-0.11,-3.51,12.19,-0.17,0.06,-0.23,1721206852001
-0.99,0.04,12.72,-0.03,0.02,-0.26,1721206852011
-0.11,7.79,11.45,0.13,0.11,-0.15,1721206852021
-1.42,-0.89,4.79,-0.23,-0.02,-0.12,1721206852031
-4.37,-9.25,18.08,-0.56,0.06,-0.22,1721206852041
-2.07,1.52,26.65,-0.11,-0.02,-0.07,1721206852051
0.91,7.35,9.79,0.18,-0.07,0.33,1721206852061
3.83,10.24,7.90,0.12,0.34,-0.00,1721206852071
1.57,2.65,10.46,0.20,-0.19,-0.29,1721206852081
-2.36,-7.65,4.71,0.10,0.01,-0.23,1721206852091
-3.26,-1.90,8.89,0.10,0.11,0.06,1721206852101
-1.59,5.83,10.28,0.26,-0.07,0.33,1721206852111
1.27,2.78,6.57,0.27,0.04,0.23,1721206852121
2.52,-1.57,7.67,0.26,-0.05,0.09,1721206852131
1.40,3.07,9.20,0.25,-0.07,-0.07,1721206852141
0.47,0.89,11.99,0.06,0.05,-0.19,1721206852151
-3.21,1.57,12.12,0.20,-0.23,-0.11,1721206852161
-2.05,-3.18,8.78,-0.02,0.02,0.23,1721206852176
-1.74,-4.47,12.50,0.01,-0.03,0.24,1721206852180
1.66,3.56,11.88,0.27,-0.07,0.21,1721206852190
2.44,5.46,3.81,0.03,-0.09,-0.02,1721206852200
-0.89,-0.59,9.52,-0.10,-0.16,-0.11,1721206852210
-0.82,-6.37,16.16,-0.24,0.01,0.02,1721206852220
0.43,5.99,16.52,0.22,-0.17,0.25,1721206852230
3.81,-0.84,-6.14,-0.13,-0.19,0.21,1721206852240
2.53,4.89,15.40,-0.23,0.35,-0.25,1721206852250
0.39,-1.71,18.67,-0.06,-0.29,-0.35,1721206852260
-4.58,-2.43,20.14,-0.28,-0.38,-0.01,1721206852270
-2.90,4.19,8.16,0.04,-0.11,0.22,1721206852280
2.74,3.45,5.06,-0.07,0.05,0.22,1721206852290
3.27,-1.03,6.63,-0.12,-0.31,-0.08,1721206852300
-0.86,1.62,9.58,0.11,-0.24,-0.27,1721206852310
-1.66,-4.21,3.60,-0.01,-0.18,0.00,1721206852320
-0.89,-3.56,11.05,-0.30,-0.06,0.18,1721206852330
1.76,3.08,15.50,-0.14,-0.25,0.20,1721206852340
4.87,5.28,8.14,0.03,-0.18,-0.07,1721206852350
4.62,-7.55,3.25,-0.21,-0.26,-0.30,1721206852360
-2.40,-2.56,8.10,-0.16,-0.17,-0.37,1721206852370
-1.46,-1.37,13.96,-0.21,0.11,-0.28,1721206852380
-1.35,1.52,16.33,-0.12,-0.30,-0.11,1721206852390
0.25,1.84,6.00,-0.05,-0.12,-0.09,1721206852400
1.96,-6.69,9.36,-0.22,-0.06,-0.03,1721206852410
1.53,0.63,16.73,-0.09,0.03,-0.25,1721206852420
2.17,11.44,11.85,0.09,-0.16,-0.48,1721206852430
0.00,-2.35,6.11,-0.27,-0.23,-0.56,1721206852440
-4.12,-6.96,16.83,-0.30,-0.20,-0.31,1721206852450
-1.32,-1.34,12.24,-0.04,-0.01,-0.04,1721206852460
1.38,2.54,10.32,-0.15,0.02,-0.15,1721206852470
2.18,3.16,13.16,0.02,-0.09,-0.42,1721206852480
1.30,3.94,9.58,0.25,-0.08,-0.58,1721206852490
-1.18,1.80,13.82,0.07,0.06,-0.57,1721206852500
-2.42,7.35,13.95,0.25,-0.12,-0.30,1721206852510
1.04,-4.75,7.76,0.02,0.10,-0.16,1721206852520
2.00,2.24,13.28,0.09,0.01,-0.50,1721206852530
1.60,8.65,7.46,0.43,-0.04,-0.77,1721206852540
-0.58,-3.51,4.81,0.12,0.10,-0.80,1721206852550
-5.41,6.38,13.22,0.30,-0.02,-0.51,1721206852560
-1.07,-1.50,5.97,-0.02,0.25,-0.31,1721206852570
2.11,-0.82,15.35,0.01,0.20,-0.27,1721206852580
4.48,-0.05,7.85,0.18,0.12,-0.56,1721206852590
0.83,0.68,1.88,0.04,0.08,-0.84,1721206852600
-1.01,2.46,8.31,0.16,0.36,-0.77,1721206852610
-0.82,-3.52,8.82,-0.23,0.28,-0.62,1721206852620
-2.66,2.96,23.03,-0.05,0.10,-0.48,1721206852630
-0.76,3.11,9.04,0.17,0.24,-0.57,1721206852640
-1.24,-4.64,4.97,-0.30,0.22,-0.69,1721206852650
-3.96,5.53,10.92,0.08,0.17,-0.61,1721206852660
-1.86,-3.33,-2.06,-0.21,0.31,-0.45,1721206852670
-4.35,-1.90,9.83,-0.24,0.26,-0.42,1721206852680
-0.42,-4.50,10.21,-0.12,0.39,-0.34,1721206852690
-0.06,-1.57,23.89,-0.27,0.29,-0.34,1721206852700
-1.76,6.11,16.94,0.14,-0.03,-0.32,1721206852710
0.41,-4.40,-5.91,-0.28,0.26,-0.45,1721206852720
0.34,-0.17,18.92,-0.31,0.66,-0.50,1721206852730
-3.26,-1.50,14.80,0.04,0.13,-0.40,1721206852740
-6.26,-1.35,10.93,-0.37,0.27,-0.34,1721206852750
-1.30,2.26,17.49,-0.03,0.37,-0.08,1721206852760
2.72,0.59,4.10,0.06,0.19,0.17,1721206852770
2.37,-0.30,5.97,-0.17,0.53,-0.28,1721206852780
-1.08,-0.54,11.09,0.10,-0.00,-0.48,1721206852790
-2.26,-1.05,6.89,0.14,0.36,-0.23,1721206852800
-1.71,-1.18,8.77,0.15,0.36,-0.02,1721206852810
-1.91,0.28,13.23,0.00,0.29,-0.00,1721206852820
0.61,4.81,17.36,0.17,0.30,0.03,1721206852830
1.82,1.85,6.73,0.26,0.17,-0.02,1721206852840
0.39,-1.06,7.53,0.10,0.38,-0.29,1721206852850
-1.86,2.86,15.34,0.12,0.22,-0.33,1721206852860
-3.95,4.20,6.79,0.20,0.15,-0.13,1721206852870
-2.52,-6.33,0.95,-0.06,0.35,0.24,1721206852880
-1.24,-8.28,12.22,-0.14,0.34,0.17,1721206852890
1.53,2.70,16.55,0.34,0.15,0.09,1721206852900
2.94,1.43,5.17,0.29,0.16,0.04,1721206852910
-1.71,4.06,10.28,0.08,0.13,-0.03,1721206852920
-1.14,-0.20,11.71,0.05,0.22,-0.00,1721206852930
-1.42,-4.47,12.33,-0.05,0.13,0.08,1721206852940
-1.78,0.33,10.98,0.17,0.15,0.19,1721206852950
1.02,3.64,9.11,0.13,0.28,0.24,1721206852960
1.38,7.75,10.82,0.21,0.12,0.19,1721206852970
1.52,-4.85,2.46,-0.07,0.15,0.02,1721206852980
-1.46,-7.11,11.34,-0.13,0.17,-0.05,1721206852990
-1.88,7.20,12.48,0.32,0.10,0.19,1721206853000
-1.04,6.20,2.40,0.26,0.07,0.33,1721206853010
-0.46,-0.36,5.63,0.05,0.11,0.23,1721206853020
0.66,-2.99,10.10,-0.16,0.07,0.18,1721206853030
-0.11,-1.18,21.20,-0.30,0.02,0.18,1721206853040
-0.98,-0.03,18.14,0.01,-0.03,0.25,1721206853050
0.92,-0.08,8.67,0.07,0.06,0.23,1721206853060
2.03,6.46,9.25,0.21,0.02,0.18,1721206853070
0.46,5.23,-0.69,0.06,-0.17,0.07,1721206853080
-2.10,-6.54,8.92,-0.39,0.13,-0.06,1721206853090
-2.83,-0.80,17.95,0.09,-0.09,0.20,1721206853100
-0.47,11.66,5.41,0.17,0.00,0.50,1721206853110
3.38,-0.48,5.18,-0.30,0.00,0.44,1721206853120
4.55,-8.17,12.57,-0.36,-0.04,0.12,1721206853130
3.86,-2.03,14.01,-0.11,0.02,-0.07,1721206853140
1.77,-0.69,13.92,-0.30,-0.06,-0.12,1721206853150
-2.53,6.95,19.52,-0.04,-0.13,-0.15,1721206853160
-3.19,1.92,1.68,0.04,-0.21,0.14,1721206853170
0.52,-13.05,1.44,-0.39,0.19,0.42,1721206853180
5.13,-4.80,18.84,-0.25,0.18,0.20,1721206853190
4.53,15.60,14.96,0.22,-0.18,-0.27,1721206853200
1.12,1.54,3.82,-0.13,0.01,-0.62,1721206853210
-4.59,-9.57,16.09,-0.27,-0.13,-0.27,1721206853220
-2.04,-1.35,14.60,0.12,0.19,0.24,1721206853230
3.41,7.28,6.69,0.02,0.16,0.21,1721206853240
2.23,12.42,8.23,0.15,-0.07,-0.35,1721206853250
2.37,-4.08,8.45,-0.10,0.10,-0.65,1721206853260
-3.36,-13.20,18.24,-0.24,-0.03,-0.35,1721206853270
-4.56,10.20,9.42,0.37,0.05,0.13,1721206853280
1.86,-6.90,-7.13,-0.31,0.14,0.14,1721206853290
-0.95,-9.27,32.42,-0.33,0.57,-0.36,1721206853300
2.81,9.44,21.65,0.78,-0.13,-0.53,1721206853310
-0.89,-0.92,-11.52,0.10,0.05,-0.37,1721206853320
-3.70,-1.03,18.24,-0.06,0.35,-0.09,1721206853330
2.01,-0.73,25.84,0.27,0.25,-0.16,1721206853340
0.69,3.79,5.72,0.23,-0.07,-0.40,1721206853350
-1.60,0.57,5.88,0.21,0.22,-0.46,1721206853360
-2.62,-1.23,7.45,0.13,0.07,-0.10,1721206853370
-2.43,1.66,7.56,0.10,0.16,-0.11,1721206853380
0.20,0.64,7.36,0.06,0.23,-0.34,1721206853390
-1.54,1.54,10.08,0.11,0.15,-0.44,1721206853400
-1.45,-2.98,4.91,0.04,0.18,-0.04,1721206853410
2.02,0.17,16.02,-0.18,0.50,0.02,1721206853420
0.74,3.87,13.82,-0.08,-0.17,-0.29,1721206853430
-1.19,-5.75,12.29,-0.28,0.35,-0.58,1721206853440
-2.46,-3.89,20.44,0.12,0.21,-0.33,1721206853450
-2.59,5.16,6.91,0.18,0.15,0.01,1721206853460
-1.12,8.17,10.74,-0.02,0.31,-0.04,1721206853470
0.39,-1.19,7.76,0.08,0.03,-0.05,1721206853480
-0.93,-1.24,5.71,-0.01,0.17,-0.07,1721206853490
-2.40,0.94,8.17,-0.04,0.02,0.01,1721206853500
-2.28,1.87,13.50,-0.07,0.26,0.12,1721206853510
-0.04,3.56,12.62,0.08,0.11,0.17,1721206853520
-0.71,2.29,3.62,0.02,-0.07,0.10,1721206853530
0.08,-2.92,10.95,-0.24,0.28,0.12,1721206853540
0.56,0.10,19.69,-0.10,-0.04,0.20,1721206853550
-0.47,2.24,6.77,0.10,-0.11,0.21,1721206853560
-0.75,-1.89,1.28,-0.07,0.10,0.12,1721206853570
-1.47,-2.01,14.28,-0.16,0.13,0.16,1721206853580
-1.16,5.12,19.60,0.03,0.06,0.18,1721206853590
-1.11,4.06,7.75,0.08,-0.17,0.19,1721206853600
0.61,-3.72,9.08,-0.29,0.14,0.21,1721206853610
0.79,-5.36,22.97,-0.24,-0.06,0.32,1721206853620
-1.69,3.42,8.70,0.23,-0.27,0.22,1721206853630
-0.31,3.52,-6.72,0.11,0.14,0.10,1721206853640
2.13,-7.66,14.40,-0.32,0.17,0.17,1721206853650
1.34,8.61,26.10,0.23,-0.15,0.18,1721206853660
1.17,9.40,-0.20,0.28,-0.29,0.18,1721206853670
1.03,-11.98,-0.10,-0.36,0.19,0.02,1721206853680
1.83,-16.67,18.31,-0.26,0.10,-0.11,1721206853690
-2.45,4.96,12.06,0.37,-0.34,-0.11,1721206853700
-1.41,8.35,7.71,0.10,0.26,0.11,1721206853710
-0.84,5.88,14.55,0.07,-0.13,0.46,1721206853720
1.64,-3.96,9.33,-0.19,-0.01,0.18,1721206853730
5.11,-7.24,15.57,-0.24,0.14,-0.21,1721206853740
1.46,6.60,8.50,0.19,-0.22,-0.35,1721206853750
-1.45,-0.54,2.75,-0.09,0.11,-0.04,1721206853760
-3.19,-4.83,11.82,0.01,0.00,0.15,1721206853770
0.20,2.26,7.69,0.06,0.09,0.08,1721206853780
3.69,2.77,13.24,-0.19,0.10,-0.03,1721206853790
2.31,-0.17,17.54,-0.11,-0.03,-0.15,1721206853800
-0.55,-1.14,9.65,-0.01,0.04,-0.25,1721206853810
-3.09,5.32,8.05,0.17,0.08,-0.20,1721206853820
-1.20,-6.59,7.11,-0.07,0.11,0.02,1721206853830
-1.60,1.03,12.94,0.05,0.00,0.20,1721206853840
1.02,5.44,10.63,0.13,0.14,0.11,1721206853850
1.84,-9.68,17.08,-0.45,0.15,-0.04,1721206853860
0.12,23.74,19.94,0.84,-0.21,-0.07,1721206853870
3.85,-16.04,-20.96,0.16,-0.07,-0.05,1721206853880
-5.47,11.91,18.84,-0.12,0.70,-0.80,1721206853890
9.82,4.43,20.38,-0.04,0.62,-0.44,1721206853900
-3.12,0.05,6.65,0.21,-0.58,0.48,1721206853910
-2.39,1.91,-0.41,0.09,0.20,0.41,1721206853920
6.55,0.79,18.55,-0.12,0.35,0.02,1721206853930
4.21,7.27,11.90,0.22,-0.16,-0.30,1721206853940
1.53,-5.62,3.34,-0.01,0.31,-0.44,1721206853950
-3.54,-5.42,8.96,0.03,-0.05,-0.20,1721206853960
-2.98,4.63,12.93,0.04,0.29,-0.07,1721206853970
0.52,2.84,17.82,0.02,0.20,0.04,1721206853980
-0.32,7.94,10.05,0.24,-0.05,0.19,1721206853990
3.54,-8.31,2.34,-0.31,0.29,-0.03,1721206854000
0.03,5.93,17.65,0.17,-0.02,-0.22,1721206854010
2.26,-3.55,0.79,-0.06,0.27,-0.33,1721206854020
-4.22,6.70,10.59,-0.14,-0.24,-0.02,1721206854030
-0.65,5.53,14.55,0.08,0.49,0.02,1721206854040
0.28,-1.48,8.70,-0.07,-0.08,0.14,1721206854050
-1.20,-2.26,6.19,-0.30,0.04,0.18,1721206854060
4.54,-10.39,14.54,-0.33,0.41,-0.10,1721206854070
0.50,10.24,17.25,0.25,-0.17,-0.25,1721206854080
-2.10,6.78,0.13,0.25,0.10,-0.28,1721206854090
-6.23,-11.75,9.02,-0.30,-0.03,0.17,1721206854100
-4.01,1.01,19.35,0.11,0.17,0.48,1721206854110
5.10,4.45,6.53,0.01,0.13,0.47,1721206854120
-6.55,-4.78,0.14,0.16,-0.61,0.34,1721206854651
0.28,-6.01,2.66,-0.15,0.04,0.32,1721206854655
-5.67,3.71,19.47,-0.12,-0.19,0.37,1721206854664
3.83,0.45,4.13,0.33,-0.02,0.50,1721206854674
5.50,-2.66,1.08,-0.07,0.18,0.32,1721206854683
2.44,1.38,23.70,0.09,-0.09,-0.12,1721206854693
-0.68,18.15,9.00,0.69,-0.29,-0.14,1721206854702
0.87,-12.32,-15.32,-0.16,-0.02,0.18,1721206854712
-3.29,-15.11,19.09,-0.79,0.19,0.24,1721206854722
-2.09,12.59,40.81,0.12,0.19,0.11,1721206854732
2.13,3.72,1.21,0.35,-0.28,0.42,1721206854742
2.65,-1.88,1.44,-0.14,0.22,0.24,1721206854752
3.18,5.43,16.17,0.15,-0.06,-0.13,1721206854762
-1.30,8.38,10.79,0.13,-0.14,-0.22,1721206854772
-3.43,-5.22,5.73,-0.04,-0.02,0.03,1721206854782
-1.93,-6.70,11.76,-0.01,0.02,0.32,1721206854792
0.31,8.56,9.21,0.34,-0.07,0.33,1721206854802
4.38,1.63,10.54,-0.10,0.09,0.11,1721206854812
0.49,7.36,14.20,0.18,-0.32,-0.01,1721206854822
2.61,-1.24,7.15,0.06,0.19,-0.07,1721206854832
0.50,-0.96,12.17,0.09,-0.15,-0.03,1721206854842
0.73,-1.16,-0.23,-0.01,-0.08,0.09,1721206854852
1.08,-4.04,14.77,-0.24,0.17,-0.11,1721206854862
-1.18,7.37,14.12,0.42,-0.19,-0.14,1721206854872
-0.13,-1.96,-0.90,-0.02,0.02,-0.05,1721206854882
-3.17,-4.90,16.68,-0.37,-0.08,-0.02,1721206854892
2.03,6.55,21.52,0.04,0.23,0.10,1721206854902
4.20,2.90,1.35,0.09,-0.15,0.10,1721206854912
2.83,-1.05,8.20,-0.13,0.31,-0.25,1721206854922
1.15,-2.58,15.46,0.04,-0.13,-0.48,1721206854932
-4.79,2.36,4.65,0.03,-0.24,-0.19,1721206854942
-2.83,-5.96,12.30,-0.48,0.30,-0.02,1721206854952
-0.86,3.95,23.56,-0.03,-0.06,0.09,1721206854962
0.92,14.17,4.13,0.35,0.05,0.04,1721206854972
1.37,-11.62,-1.68,-0.25,-0.15,-0.03,1721206854982
-3.56,-2.33,19.74,-0.14,0.33,-0.23,1721206854992
0.88,6.10,12.00,0.22,0.03,-0.13,1721206855002
-3.64,0.35,7.00,-0.23,-0.01,-0.11,1721206855012
-3.59,-7.09,19.24,-0.13,0.06,0.15,1721206855022
2.06,1.15,8.92,0.29,-0.18,0.37,1721206855032
4.88,1.32,-0.75,0.04,0.02,0.17,1721206855042
3.75,7.03,14.99,0.04,0.30,-0.19,1721206855052
0.06,-0.83,13.75,0.08,-0.15,-0.49,1721206855062
-6.63,-9.86,6.42,-0.16,-0.34,-0.19,1721206855072
-4.34,-0.50,8.98,0.08,0.11,0.31,1721206855082
4.04,1.51,19.54,-0.09,0.32,0.39,1721206855092
-0.36,7.06,9.41,0.16,-0.58,0.08,1721206855102
0.16,-2.67,-0.48,-0.00,0.08,-0.20,1721206855112
-0.06,-10.47,14.61,-0.39,0.03,-0.06,1721206855122
-1.05,4.19,20.31,-0.00,-0.06,0.11,1721206855132
0.21,3.01,6.57,-0.01,-0.11,0.02,1721206855142
-3.38,-1.07,4.47,-0.02,-0.26,-0.08,1721206855152
0.37,-0.40,11.58,0.05,0.16,0.03,1721206855162
2.59,3.34,15.86,-0.01,-0.11,0.19,1721206855172
0.14,2.17,10.93,-0.07,-0.21,-0.05,1721206855182
-2.31,-1.60,8.58,-0.08,-0.08,-0.33,1721206855192
-2.48,3.49,20.25,0.07,-0.02,-0.07,1721206855202
-4.36,5.35,-0.43,0.31,-0.51,0.21,1721206855212
2.97,2.34,10.71,0.02,0.54,0.25,1721206855222
3.39,-3.49,14.79,0.12,-0.67,0.27,1721206855232
1.07,5.30,3.08,0.23,0.00,-0.22,1721206855242
3.81,4.55,13.27,0.25,0.16,-0.40,1721206855252
-1.92,-0.18,9.94,0.11,-0.39,-0.19,1721206855262
-5.13,0.01,6.48,0.14,-0.14,-0.00,1721206855272
-1.30,-2.02,8.56,-0.05,0.13,0.04,1721206855282
-1.52,0.96,13.91,-0.11,-0.21,-0.08,1721206855292
-0.39,2.12,17.91,0.03,-0.00,-0.12,1721206855302
-0.93,4.84,1.19,0.22,-0.46,0.00,1721206855312
1.82,-3.94,6.85,-0.28,0.31,0.06,1721206855322
-0.15,1.42,14.23,0.01,-0.43,0.05,1721206855332
0.42,3.74,2.52,-0.03,-0.02,-0.12,1721206855342
-0.91,-5.88,10.87,-0.29,-0.17,-0.15,1721206855352
-3.57,-0.83,15.39,0.07,-0.28,-0.01,1721206855362
1.47,-1.50,8.40,-0.05,0.03,0.16,1721206855372
-0.59,6.57,8.86,-0.00,-0.29,0.03,1721206855382
0.43,4.31,9.57,-0.10,0.08,-0.23,1721206855392
0.99,-6.64,13.41,-0.13,-0.26,-0.02,1721206855402
-0.48,0.52,7.46,0.04,-0.08,0.07,1721206855412
0.82,7.70,9.67,-0.01,0.18,-0.07,1721206855422
-0.68,-3.86,7.44,-0.24,-0.38,-0.09,1721206855432
-1.79,-3.63,18.16,-0.24,0.07,-0.18,1721206855442
1.90,-1.47,11.82,0.08,-0.20,-0.02,1721206855452
0.46,0.76,6.86,-0.13,-0.01,-0.01,1721206855462
-1.15,3.24,16.29,-0.01,0.00,0.00,1721206855472
-0.05,3.14,9.23,0.17,-0.15,-0.00,1721206855482
2.82,-7.46,7.13,-0.02,0.02,-0.05,1721206855492
0.74,1.05,16.07,0.13,-0.07,-0.14,1721206855502
0.78,4.77,10.49,0.23,-0.04,-0.22,1721206855512
0.54,4.70,10.15,0.21,-0.02,-0.17,1721206855522
1.67,0.11,8.97,0.24,0.04,-0.11,1721206855532
2.20,-8.49,6.73,0.09,0.03,-0.09,1721206855542
-1.92,3.22,6.25,0.27,0.01,-0.28,1721206855552
-0.99,1.77,4.30,0.24,0.09,-0.30,1721206855562
-0.49,-1.06,11.89,0.09,0.04,-0.04,1721206855572
0.82,5.03,18.77,0.22,0.14,0.06,1721206855582
2.08,-0.15,-0.16,0.19,-0.09,-0.15,1721206855592
0.76,-7.32,3.48,-0.52,0.21,-0.37,1721206855602
-1.90,-3.03,31.42,-0.22,-0.05,-0.38,1721206855612
-2.21,5.24,5.51,0.52,-0.09,-0.08,1721206855622
2.40,-2.19,-3.81,-0.02,0.34,0.10,1721206855632
1.73,1.57,14.00,-0.04,-0.06,-0.19,1721206855642
1.24,-0.70,15.75,0.05,0.21,-0.50,1721206855652
-3.36,9.22,12.07,0.31,-0.07,-0.35,1721206855662
-3.26,5.21,-0.80,0.15,0.12,0.01,1721206855672
0.78,-8.97,10.93,-0.35,0.25,0.08,1721206855682
1.25,2.78,17.47,0.05,-0.04,-0.04,1721206855692
3.67,0.61,7.02,-0.25,0.20,-0.25,1721206855702
-0.28,5.43,18.27,-0.12,-0.03,-0.39,1721206855712
-1.66,-0.06,5.14,0.13,0.05,-0.33,1721206855722
-2.81,-3.12,2.45,-0.11,0.17,-0.22,1721206855732
-2.43,4.80,16.16,-0.00,0.19,-0.03,1721206855742
-0.08,1.26,9.19,-0.02,0.00,0.02,1721206855752
-0.20,2.27,17.28,-0.19,0.13,-0.12,1721206855762
1.43,-0.09,12.09,0.06,0.01,-0.12,1721206855772
0.93,-5.10,3.30,-0.22,0.12,-0.08,1721206855782
0.78,0.35,15.69,-0.10,0.22,-0.23,1721206855792
0.37,5.60,7.77,0.23,-0.15,-0.22,1721206855802
-1.95,3.56,8.67,0.03,0.32,-0.29,1721206855812
-3.13,-3.68,13.59,-0.06,0.04,-0.04,1721206855822
-2.50,0.68,5.70,0.15,-0.03,0.33,1721206855832
5.10,-2.12,2.85,-0.26,0.32,0.19,1721206855842
4.21,-1.10,20.04,-0.18,-0.12,-0.26,1721206855852
-0.34,6.01,10.09,0.35,-0.03,-0.60,1721206855862
-4.24,-5.47,2.18,-0.24,0.09,-0.37,1721206855872
-5.62,-2.47,14.12,-0.20,0.02,0.23,1721206855882
2.41,0.15,16.02,-0.10,0.35,0.31,1721206855892
2.21,4.16,12.59,0.05,-0.16,-0.12,1721206855902
0.48,1.51,2.95,0.17,0.06,-0.41,1721206855912
-1.89,-11.09,4.07,-0.26,0.03,-0.24,1721206855922
-3.99,2.79,20.90,-0.09,0.15,0.00,1721206855932
0.06,4.89,14.56,0.04,0.08,-0.02,1721206855942
-0.75,-5.20,9.32,-0.12,-0.06,-0.16,1721206855952
-1.09,-3.55,7.45,0.25,0.02,0.03,1721206855962
0.98,7.98,-2.32,0.34,0.01,0.08,1721206855972
4.60,4.33,17.46,-0.12,0.58,-0.27,1721206855982
-0.11,4.02,19.35,0.19,-0.39,-0.40,1721206855992
-4.59,-7.12,1.36,-0.10,-0.06,-0.23,1721206856002
-3.18,-6.65,13.10,-0.19,0.29,0.07,1721206856012
-0.35,9.97,11.24,0.21,0.05,0.04,1721206856022
3.99,4.16,6.88,0.04,0.17,-0.16,1721206856032
-1.52,-3.34,7.41,0.14,-0.31,-0.25,1721206856042
-4.68,-4.17,11.30,-0.05,0.14,-0.29,1721206856052
-2.61,2.98,15.08,0.00,-0.02,0.04,1721206856062
0.07,7.95,8.48,0.12,0.12,0.09,1721206856072
2.74,-4.21,9.72,-0.06,-0.01,-0.06,1721206856082
-0.31,1.79,12.59,0.24,-0.11,-0.07,1721206856092
2.60,5.97,4.16,0.36,0.15,-0.07,1721206856102
2.01,-2.68,7.23,-0.20,0.05,-0.17,1721206856112
-1.73,-2.81,19.89,-0.10,-0.15,-0.25,1721206856122
-1.88,2.70,5.13,0.45,-0.10,-0.07,1721206856132
-1.51,0.18,-4.95,0.09,0.06,-0.02,1721206856142
-1.70,1.25,15.20,-0.11,0.27,-0.09,1721206856152
-1.49,0.81,12.76,0.05,-0.20,-0.01,1721206856162
-1.19,-6.70,18.60,-0.41,0.17,-0.08,1721206856172
-1.56,3.24,18.22,0.13,-0.18,0.03,1721206856182
-1.08,7.14,-1.17,-0.01,-0.04,0.08,1721206856192
-1.03,0.56,11.33,-0.30,0.15,-0.03,1721206856202
-0.84,-0.09,12.46,0.04,-0.19,0.02,1721206856212
-0.05,-2.22,5.17,-0.15,0.03,0.14,1721206856222
-1.61,-2.27,11.26,-0.28,-0.15,0.14,1721206856232
-0.11,4.13,16.62,-0.07,-0.05,0.18,1721206856242
2.48,4.09,6.68,0.09,-0.22,0.17,1721206856252
1.01,-11.09,-2.93,-0.23,-0.18,-0.02,1721206856262
0.93,-9.39,19.30,-0.32,0.39,-0.24,1721206856272
-3.65,10.56,24.39,0.06,-0.31,-0.17,1721206856282
-2.40,6.71,8.01,0.06,-0.21,0.28,1721206856292
0.68,-1.81,1.86,0.03,-0.05,0.40,1721206856302
3.44,-9.86,1.37,-0.15,-0.00,0.13,1721206856312
1.60,2.38,16.48,-0.01,0.04,-0.18,1721206856322
1.45,3.20,9.89,0.18,-0.16,-0.07,1721206856332
-2.33,-3.69,10.73,-0.24,-0.21,0.00,1721206856342
1.20,1.02,13.55,0.06,-0.07,0.15,1721206856352
6.15,-4.54,1.02,-0.20,0.04,0.03,1721206856362
2.49,-1.03,17.31,-0.23,0.10,-0.26,1721206856372
-0.80,1.41,15.46,0.13,-0.08,-0.43,1721206856382
-3.11,-4.99,5.72,-0.04,-0.14,-0.16,1721206856392
-1.14,2.64,12.51,0.05,0.17,0.06,1721206856402
2.32,2.79,9.11,0.04,0.05,0.13,1721206856412
0.76,3.88,14.36,-0.12,0.03,-0.12,1721206856422
1.49,-4.10,12.96,-0.08,0.02,-0.20,1721206856432
1.44,6.16,7.62,0.37,0.14,-0.20,1721206856442
1.45,-13.69,-1.78,-0.27,0.01,-0.20,1721206856452
-3.90,9.46,25.51,0.10,0.01,-0.25,1721206856462
1.68,5.18,9.59,0.49,0.07,0.04,1721206856472
2.39,-4.16,4.12,-0.05,0.13,0.05,1721206856482
2.49,2.23,9.02,0.20,0.11,-0.30,1721206856492
2.04,-1.89,10.85,-0.07,0.19,-0.60,1721206856502
-4.32,5.45,17.62,0.18,-0.11,-0.44,1721206856512
-4.01,-1.21,4.72,0.30,0.18,-0.14,1721206856522
-1.52,-4.62,6.70,0.12,0.17,0.19,1721206856532
1.70,7.82,18.05,0.13,0.29,0.01,1721206856542
4.02,3.47,9.98,0.08,0.02,-0.25,1721206856552
0.30,-2.40,5.61,-0.04,0.08,-0.44,1721206856562
-0.27,-1.05,8.69,0.14,0.28,-0.40,1721206856572
-2.47,2.51,6.07,0.11,0.02,-0.21,1721206856582
-3.10,-1.66,9.83,-0.16,0.18,-0.17,1721206856592
-0.81,-2.47,17.51,-0.03,0.16,-0.03,1721206856602
0.60,8.41,11.97,0.18,0.08,0.02,1721206856612
2.39,0.41,2.59,-0.16,0.13,-0.11,1721206856622
0.35,-4.58,10.24,-0.20,0.15,-0.29,1721206856632
0.71,1.02,11.34,0.04,0.15,-0.28,1721206856642
-2.66,1.05,11.68,-0.16,0.11,-0.18,1721206856657
-2.50,1.10,14.55,-0.18,0.17,-0.09,1721206856661
-3.79,-0.32,8.26,-0.09,-0.07,-0.06,1721206856671
0.63,-1.63,5.24,-0.29,0.35,-0.09,1721206856681
2.25,-4.36,17.23,-0.25,0.13,0.05,1721206856691
-0.52,4.91,7.59,0.15,0.01,-0.20,1721206856701
0.35,-6.25,5.13,-0.21,0.17,-0.42,1721206856711
-4.74,-1.34,14.52,-0.05,-0.08,-0.20,1721206856721
-3.24,0.52,13.37,-0.06,0.27,0.13,1721206856731
0.23,4.72,12.30,0.08,0.06,0.24,1721206856741
2.45,-0.40,1.93,0.08,-0.04,0.08,1721206856751
0.66,-0.35,10.91,-0.17,0.18,-0.28,1721206856761
-0.86,-1.48,13.95,0.02,-0.02,-0.26,1721206856771
-2.56,-6.99,5.18,-0.18,-0.03,-0.09,1721206856781
-3.61,-1.93,12.28,-0.06,0.14,-0.01,1721206856791
-0.09,7.75,18.36,0.16,0.24,0.07,1721206856801
-0.45,3.69,8.67,0.13,-0.26,0.14,1721206856811
2.20,-1.07,6.11,-0.10,0.21,0.08,1721206856821
3.21,-6.33,12.52,-0.17,-0.05,-0.12,1721206856831
-1.82,5.41,11.87,0.03,-0.05,-0.28,1721206856841
-1.33,1.20,12.86,0.04,0.18,-0.31,1721206856851
-4.20,-2.03,9.23,0.12,-0.36,0.06,1721206856861
-2.33,0.58,8.38,0.13,0.27,0.21,1721206856871
3.32,1.79,13.72,0.13,0.07,0.12,1721206856881
-0.73,4.15,7.22,0.23,-0.24,-0.16,1721206856891
-0.17,0.28,10.39,0.19,0.19,-0.28,1721206856901
-2.35,4.79,10.06,0.35,-0.26,0.02,1721206856911
-0.94,0.40,4.63,0.16,0.11,0.19,1721206856921
1.01,-3.65,13.07,-0.09,0.06,0.11,1721206856931
1.32,4.64,15.95,0.24,-0.09,-0.08,1721206856941
2.15,3.51,3.73,0.31,-0.13,-0.06,1721206856951
-0.12,-0.43,5.92,0.01,0.07,-0.12,1721206856961
-0.42,-0.85,16.97,0.08,0.03,-0.13,1721206856971
-0.80,2.99,7.34,0.22,-0.13,-0.02,1721206856981
0.85,-1.78,9.38,-0.12,0.16,-0.07,1721206856991
-1.38,1.81,17.64,0.10,-0.17,-0.14,1721206857001
-0.41,-2.52,4.98,0.08,-0.12,0.09,1721206857011
0.09,-0.05,12.34,-0.08,0.20,-0.07,1721206857021
-1.04,8.64,9.81,0.31,-0.17,-0.34,1721206857031
-1.12,0.49,2.71,-0.05,0.00,-0.17,1721206857041
-3.23,-3.00,14.70,-0.07,-0.14,0.17,1721206857051
0.34,3.84,6.23,0.18,0.08,0.09,1721206857061
1.84,-3.17,2.35,-0.36,-0.05,-0.16,1721206857071
-1.06,-0.24,16.14,-0.22,-0.07,-0.17,1721206857081
0.53,-2.83,10.91,-0.07,0.04,-0.05,1721206857091
-0.96,-2.58,11.97,-0.19,-0.10,-0.02,1721206857101
0.29,4.23,11.85,-0.05,0.04,-0.02,1721206857111
2.42,6.87,9.64,-0.05,-0.01,-0.07,1721206857121
0.62,-5.64,7.52,-0.28,0.00,-0.21,1721206857131
-4.24,-8.00,11.82,-0.19,-0.02,-0.34,1721206857141
-1.90,0.83,8.98,0.07,0.02,0.04,1721206857151
-1.06,0.57,11.11,-0.13,0.13,0.15,1721206857161
1.72,3.16,14.84,0.06,0.05,0.15,1721206857171
3.90,-0.30,12.58,-0.06,0.03,-0.15,1721206857181
-0.07,0.13,9.02,-0.01,-0.22,-0.21,1721206857191
-0.99,1.46,3.88,0.05,0.22,-0.29,1721206857201
-2.04,0.32,10.62,0.05,0.07,-0.12,1721206857211
-1.79,1.47,11.38,0.13,-0.15,0.21,1721206857221
1.25,-2.22,10.16,-0.11,0.22,0.20,1721206857231
1.81,-0.78,18.48,-0.16,0.04,-0.07,1721206857241
0.66,4.86,10.30,0.07,-0.17,-0.13,1721206857251
1.20,-2.60,6.53,-0.08,0.17,-0.09,1721206857261
-1.30,0.35,11.43,0.22,-0.05,-0.05,1721206857271
0.27,2.41,5.41,0.26,0.17,0.03,1721206857281
1.36,-1.60,10.65,-0.07,0.12,0.01,1721206857291
0.26,2.79,24.77,-0.02,0.05,-0.08,1721206857301
0.93,8.69,7.72,0.32,-0.09,-0.06,1721206857311
1.74,-8.22,-3.93,-0.04,0.09,-0.03,1721206857321
0.76,0.20,12.48,0.07,0.29,-0.28,1721206857331
-0.44,0.39,6.95,0.25,-0.10,-0.33,1721206857341
-4.52,-0.98,5.80,-0.03,0.02,0.01,1721206857351
-1.70,0.72,11.03,0.12,0.17,0.26,1721206857361
4.02,-0.44,9.88,-0.01,0.24,0.21,1721206857371
4.02,3.51,11.91,0.05,-0.00,-0.08,1721206857381
3.42,-0.56,7.99,-0.02,0.12,-0.37,1721206857391
-1.47,-0.47,13.88,-0.13,0.04,-0.44,1721206857401
-3.68,-2.68,12.84,-0.16,0.05,-0.14,1721206857411
-1.66,5.03,14.61,0.03,0.17,0.03,1721206857421
3.01,5.28,6.13,0.10,0.16,0.07,1721206857431
1.68,0.78,6.05,-0.09,0.11,-0.24,1721206857441
-1.46,-0.15,11.90,-0.02,0.05,-0.40,1721206857451
-1.98,0.96,8.53,0.03,0.08,-0.22,1721206857461
-2.67,-2.20,6.73,-0.11,0.03,0.07,1721206857471
-1.25,-0.61,15.86,-0.16,0.26,0.02,1721206857481
1.87,4.20,15.55,0.06,-0.01,-0.04,1721206857491
1.03,6.26,3.80,0.14,0.03,-0.18,1721206857501
-0.79,-2.80,10.17,-0.15,0.28,-0.30,1721206857511
-3.00,-1.49,12.68,0.07,-0.12,-0.10,1721206857521
-0.22,1.82,9.63,0.08,0.24,0.08,1721206857531
0.98,-5.08,10.35,-0.03,-0.07,0.14,1721206857541
-1.96,4.25,12.30,0.10,-0.02,-0.03,1721206857551
0.80,1.08,6.91,0.11,0.15,-0.12,1721206857561
-0.11,-2.36,7.11,-0.03,-0.11,-0.10,1721206857571
-0.11,0.51,10.62,0.06,0.18,0.01,1721206857581
0.94,-2.09,8.25,0.04,0.09,-0.08,1721206857591
-1.14,0.03,11.97,-0.01,-0.03,-0.09,1721206857601
0.55,-1.46,12.23,-0.01,0.18,-0.05,1721206857611
0.03,2.84,13.47,-0.02,-0.03,0.05,1721206857621
-0.85,3.42,8.28,0.05,-0.03,-0.13,1721206857631
0.38,-5.33,8.77,-0.15,0.02,-0.08,1721206857641
-0.96,-1.55,12.69,0.06,-0.04,-0.01,1721206857651
-0.92,2.49,5.29,0.06,-0.01,-0.08,1721206857661
-2.33,0.45,8.62,-0.04,-0.02,-0.14,1721206857671
-0.73,-2.79,16.53,-0.09,0.18,-0.00,1721206857681
-0.94,4.28,15.13,0.09,-0.00,-0.04,1721206857691
-0.08,3.62,6.13,0.05,-0.03,-0.04,1721206857701
0.56,-0.90,10.56,-0.03,0.07,-0.05,1721206857711
-0.74,0.28,10.15,0.11,-0.16,-0.01,1721206857721
-0.72,1.80,8.28,0.10,0.04,-0.07,1721206857731
-0.58,-1.88,7.84,0.07,-0.12,-0.03,1721206857741
-0.18,2.84,14.07,0.06,0.11,-0.02,1721206857751
0.45,4.83,12.82,0.15,-0.10,-0.09,1721206857761
-1.19,1.66,5.56,0.07,-0.15,-0.10,1721206857771
0.58,-5.34,10.35,-0.05,0.18,-0.04,1721206857781
-0.32,-2.08,12.20,0.02,-0.18,-0.00,1721206857791
0.80,7.48,9.66,0.26,0.07,-0.01,1721206857801
4.20,0.95,11.48,-0.03,0.08,-0.15,1721206857811
-1.87,4.14,8.22,0.24,-0.56,-0.11,1721206857821
-0.82,-1.14,1.10,0.04,0.27,-0.17,1721206857831
-2.35,-1.81,14.65,-0.22,-0.06,-0.09,1721206857841
-3.13,2.81,13.45,0.04,-0.20,0.00,1721206857851
-0.25,-2.09,6.46,-0.13,0.04,0.08,1721206857861
0.22,2.33,9.79,0.07,-0.06,0.04,1721206857871
4.17,1.79,6.47,-0.05,0.23,-0.09,1721206857881
0.73,-2.00,14.08,-0.30,-0.12,-0.32,1721206857891
-3.68,4.02,15.46,0.05,-0.18,-0.21,1721206857901
-1.41,1.62,8.91,-0.06,0.10,0.02,1721206857911
0.65,-2.00,9.00,-0.15,-0.16,0.23,1721206857921
1.10,-1.06,11.54,-0.20,0.09,-0.07,1721206857931
-0.03,-0.03,14.45,-0.16,-0.10,-0.25,1721206857941
-3.28,2.69,9.86,-0.02,-0.17,-0.20,1721206857951
-1.12,-3.07,7.63,0.02,0.06,0.08,1721206857961
-0.19,-2.34,6.82,-0.07,-0.04,0.13,1721206857971
-0.40,4.08,13.31,-0.00,0.06,0.00,1721206857981
2.47,2.07,9.17,0.05,-0.04,-0.00,1721206857991
-0.04,-2.05,7.01,-0.05,-0.06,-0.11,1721206858001
-0.17,-3.24,10.61,-0.11,0.05,-0.14,1721206858011
0.34,2.80,11.56,-0.03,-0.06,0.01,1721206858021
2.09,-2.68,14.09,-0.21,0.12,0.01,1721206858031
-0.45,-2.38,10.22,0.03,-0.28,-0.01,1721206858041
0.78,-0.01,5.37,0.03,0.29,-0.06,1721206858051
2.11,-1.81,12.40,-0.11,0.06,-0.16,1721206858061
-1.19,2.90,13.60,0.02,-0.12,-0.12,1721206858071
-1.20,1.09,8.29,-0.03,0.14,-0.10,1721206858081
0.96,-3.78,12.59,-0.11,0.07,-0.03,1721206858091
0.50,-0.41,12.77,-0.03,-0.01,0.02,1721206858101
0.23,3.35,8.28,0.01,0.03,-0.08,1721206858111
0.63,2.47,10.42,0.01,0.08,-0.26,1721206858121
0.29,0.47,12.41,0.06,0.04,-0.22,1721206858131
-1.61,0.94,9.18,0.08,0.05,-0.09,1721206858141
-2.13,2.53,6.93,0.11,0.06,-0.07,1721206858151
0.98,-0.35,9.81,0.01,0.19,0.01,1721206858161
0.56,-0.46,17.51,0.09,0.01,-0.04,1721206858171
-0.54,3.01,7.86,0.28,-0.06,-0.11,1721206858181
0.09,-1.79,4.92,0.02,0.13,-0.12,1721206858191
-1.28,0.81,18.26,-0.05,-0.00,-0.09,1721206858201
-0.45,5.73,12.78,0.21,0.03,-0.05,1721206858211
0.82,2.20,4.81,0.18,0.11,-0.03,1721206858221
0.57,-0.54,5.76,0.15,0.11,-0.08,1721206858231
-0.02,1.62,9.98,0.07,0.12,-0.19,1721206858241
0.55,1.21,7.59,-0.01,0.06,-0.16,1721206858251
-0.32,-4.53,7.44,-0.02,-0.01,-0.11,1721206858261
0.08,2.65,13.47,0.15,0.23,-0.19,1721206858271
0.16,5.95,8.84,0.15,0.05,-0.18,1721206858281
-1.75,1.75,10.43,-0.14,0.01,-0.16,1721206858291
-0.23,-0.07,16.17,-0.16,0.18,-0.18,1721206858301
0.60,-0.13,10.26,-0.08,0.05,-0.08,1721206858311
-1.39,-0.58,6.39,-0.15,0.01,-0.15,1721206858321
0.45,-0.07,11.17,-0.04,0.24,-0.26,1721206858331
0.15,-0.64,8.91,0.10,-0.02,-0.18,1721206858341
-2.20,0.73,10.99,-0.05,0.10,-0.04,1721206858351
-0.23,5.01,13.20,0.07,0.16,-0.04,1721206858361
2.86,1.79,5.50,-0.02,0.06,-0.02,1721206858371
4.14,-0.96,10.81,-0.10,0.23,-0.18,1721206858381
2.25,-3.42,9.83,-0.00,0.03,-0.37,1721206858391
-3.98,-2.31,11.14,-0.09,0.08,-0.54,1721206858401
-4.69,0.77,12.61,0.06,0.08,-0.26,1721206858411
-2.61,-1.27,8.64,0.04,0.16,0.19,1721206858421
-0.20,2.55,14.76,-0.07,0.21,0.06,1721206858431
1.83,2.04,4.87,0.20,-0.15,0.08,1721206858441
6.36,-1.12,4.87,-0.00,0.38,-0.15,1721206858451
2.29,-8.18,12.41,-0.19,-0.06,-0.43,1721206858461
-7.03,0.56,10.12,-0.00,-0.08,-0.45,1721206858471
-3.44,-1.87,10.22,-0.02,0.37,-0.08,1721206858481
-0.15,0.81,13.43,0.06,0.08,0.25,1721206858491
0.78,5.55,9.87,0.14,0.13,0.15,1721206858501
1.91,-1.02,7.11,0.01,0.08,-0.17,1721206858511
-0.02,-0.97,6.96,0.04,0.05,-0.29,1721206858521
-1.39,-2.15,7.30,0.04,0.19,-0.22,1721206858531
-3.81,1.76,16.16,-0.00,0.05,-0.04,1721206858541
-2.53,5.64,14.04,0.15,0.03,0.11,1721206858551
-0.03,-1.30,7.14,-0.05,0.10,0.10,1721206858561
1.05,2.55,13.30,0.03,0.22,-0.02,1721206858571
1.16,0.08,10.56,-0.07,0.01,-0.13,1721206858581
-3.26,1.46,8.94,0.05,-0.24,-0.13,1721206858591
-0.17,-1.84,7.34,0.21,0.24,0.04,1721206858601
0.35,-1.19,8.09,0.10,0.02,0.15,1721206858611
-0.63,8.97,14.85,0.23,0.10,-0.07,1721206858621
0.85,3.97,8.40,0.25,-0.05,-0.07,1721206858631
-1.96,-4.17,7.32,-0.04,0.01,-0.11,1721206858641
-1.32,1.34,16.02,0.09,0.15,0.03,1721206858651
0.16,0.14,4.52,0.04,0.05,0.07,1721206858666
-0.30,-1.98,6.66,-0.04,0.08,0.09,1721206858670
-0.13,-0.86,11.96,0.13,0.02,0.05,1721206858680
0.56,3.85,8.64,0.22,0.00,0.06,1721206858690
-0.23,0.82,5.30,-0.02,-0.03,0.04,1721206858700
-2.44,0.85,10.36,-0.07,-0.05,-0.05,1721206858710
-0.63,0.02,11.54,-0.03,0.06,0.10,1721206858720
0.03,-3.15,8.86,-0.14,-0.12,0.16,1721206858730
0.50,-3.03,15.86,-0.19,0.10,0.12,1721206858740
0.03,0.95,10.97,-0.00,-0.21,0.01,1721206858750
-1.07,5.34,6.90,-0.05,-0.12,-0.01,1721206858760
-0.38,-0.20,11.97,-0.13,0.09,0.04,1721206858770
-1.68,-4.52,5.96,-0.06,-0.24,0.20,1721206858780
-1.03,0.43,5.10,-0.11,0.11,0.11,1721206858790
0.96,-3.23,9.02,-0.28,-0.15,0.14,1721206858800
0.02,-1.26,18.49,-0.17,-0.11,0.24,1721206858810
1.62,-0.28,10.25,0.02,-0.14,0.30,1721206858820
1.99,0.20,6.25,-0.13,-0.12,0.13,1721206858830
2.70,1.17,12.81,-0.15,-0.10,0.06,1721206858840
1.58,1.58,12.94,-0.09,-0.03,0.02,1721206858850
-1.88,-1.16,9.80,-0.04,-0.35,0.04,1721206858860
0.39,-6.56,8.04,-0.10,0.09,0.11,1721206858870
0.26,0.38,15.19,-0.07,-0.08,0.12,1721206858880
-0.40,2.99,12.37,0.02,-0.19,0.22,1721206858890
0.92,1.80,8.17,0.07,-0.02,0.14,1721206858900
2.93,0.58,11.14,0.12,-0.03,0.01,1721206858910
2.25,5.31,8.37,0.26,-0.14,-0.03,1721206858920
1.08,-2.08,4.95,0.01,0.00,-0.08,1721206858930
-0.76,-3.22,16.97,-0.14,0.00,-0.12,1721206858940
-1.34,0.62,15.47,0.08,-0.18,0.08,1721206858950
1.76,3.83,7.95,0.17,0.04,0.21,1721206858960
3.23,-1.97,5.02,0.09,-0.05,-0.14,1721206858970
0.47,1.63,11.29,0.11,-0.06,-0.32,1721206858980
-0.64,7.62,8.98,0.39,0.02,-0.31,1721206858990
-0.17,-4.63,2.86,0.16,0.01,-0.10,1721206859000
-2.09,-2.74,12.30,0.03,0.01,-0.04,1721206859010
0.43,1.96,13.60,0.06,0.05,-0.06,1721206859020
1.40,3.39,19.01,-0.04,0.07,-0.21,1721206859030
1.29,3.00,7.56,0.23,-0.20,-0.25,1721206859040
1.15,-4.13,1.86,-0.09,0.20,-0.40,1721206859050
-0.95,2.04,14.46,0.08,0.05,-0.37,1721206859060
-2.36,1.80,4.24,0.12,0.01,-0.32,1721206859070
-2.17,-2.41,8.77,-0.07,0.07,-0.15,1721206859080
0.83,-0.43,14.22,-0.03,0.16,-0.09,1721206859090
1.92,2.62,12.74,-0.05,0.12,-0.22,1721206859100
0.90,3.98,11.21,-0.08,0.05,-0.42,1721206859110
1.29,3.80,11.66,-0.08,0.25,-0.47,1721206859120
-0.74,-2.11,10.46,-0.10,0.06,-0.39,1721206859130
-2.91,-2.89,10.23,-0.12,0.13,-0.32,1721206859140
-0.92,1.27,10.87,0.03,0.21,-0.20,1721206859150
0.48,1.36,6.34,0.04,0.14,-0.13,1721206859160
-0.77,3.22,11.41,0.10,0.17,-0.34,1721206859170
-1.77,2.81,5.48,0.17,0.02,-0.41,1721206859180
-1.03,-5.06,13.55,-0.33,0.35,-0.11,1721206859190
-1.47,-0.17,18.31,0.02,0.06,-0.02,1721206859200
1.56,2.18,5.09,-0.08,0.24,-0.26,1721206859210
2.33,-3.05,10.89,-0.05,0.18,-0.39,1721206859220
-1.01,1.10,10.16,0.21,0.16,-0.30,1721206859230
-2.72,1.85,7.05,0.02,0.32,-0.33,1721206859240
-2.93,-1.42,15.15,-0.06,0.11,-0.12,1721206859250
-0.25,-0.85,4.82,0.08,0.11,0.12,1721206859260
2.35,-4.22,10.54,-0.15,0.38,-0.03,1721206859270
-0.98,1.33,14.49,0.07,-0.07,-0.33,1721206859280
-1.79,-1.04,5.92,0.04,0.12,-0.34,1721206859290
-2.76,-3.90,15.81,-0.19,0.24,-0.10,1721206859300
-3.60,4.92,18.63,0.06,0.08,0.08,1721206859310
-0.05,4.06,5.21,0.15,0.04,0.15,1721206859320
1.41,-8.26,-0.29,-0.03,0.03,0.14,1721206859330
1.56,1.75,11.99,0.04,0.53,-0.12,1721206859340
1.94,5.43,11.54,0.17,-0.08,-0.26,1721206859350
-3.44,-5.26,2.29,-0.16,-0.07,-0.23,1721206859360
-4.05,-0.93,20.06,-0.06,0.52,-0.06,1721206859370
-0.38,7.07,15.23,0.13,0.10,0.13,1721206859380
0.27,-2.20,4.73,-0.19,-0.09,0.12,1721206859390
0.92,-1.61,14.79,-0.09,0.32,-0.13,1721206859400
-1.24,2.75,10.48,0.17,-0.15,-0.13,1721206859410
-4.46,-1.66,6.05,-0.06,0.01,0.01,1721206859420
-1.72,0.53,15.81,0.14,0.18,0.23,1721206859430
1.97,7.24,9.22,0.35,0.02,0.31,1721206859440
2.33,2.03,7.39,0.04,0.09,0.05,1721206859450
1.23,-1.64,11.62,0.04,-0.02,-0.13,1721206859460
-0.37,2.06,9.95,0.12,0.05,-0.12,1721206859470
-0.95,0.80,9.06,0.07,0.03,-0.01,1721206859480
-1.07,-1.65,10.35,0.02,0.04,0.10,1721206859490
-0.19,0.57,11.63,0.13,0.02,0.11,1721206859500
0.63,5.00,7.04,0.24,0.03,0.06,1721206859510
1.23,-0.38,4.95,-0.04,0.04,-0.05,1721206859520
-0.68,-2.36,14.40,-0.09,0.03,-0.04,1721206859530
-1.54,2.33,14.18,0.15,0.05,-0.05,1721206859540
-0.50,0.33,8.44,-0.11,0.01,0.00,1721206859550
-2.53,2.11,12.17,-0.05,-0.12,0.05,1721206859560
0.07,-2.73,9.94,-0.13,0.17,0.11,1721206859570
-0.06,-0.42,9.05,0.03,-0.10,-0.01,1721206859580
0.22,7.23,6.79,0.10,0.07,0.01,1721206859590
0.31,2.26,6.78,0.01,-0.01,0.05,1721206859600
-1.91,-9.27,10.21,-0.35,-0.01,-0.05,1721206859610
-2.17,0.94,15.14,-0.03,-0.02,-0.04,1721206859620
1.07,-4.28,7.91,-0.30,-0.09,0.29,1721206859630
-2.52,3.33,16.90,-0.19,-0.09,0.23,1721206859640
1.08,4.64,6.26,0.18,-0.06,0.10,1721206859650
3.84,-8.59,4.10,-0.29,0.11,-0.03,1721206859660
-2.13,-2.96,15.63,-0.22,-0.18,-0.12,1721206859670
-1.79,3.90,11.13,0.03,0.12,-0.02,1721206859680
-0.25,0.16,7.03,0.05,-0.03,0.30,1721206859690
1.60,-2.93,5.78,0.09,0.04,0.30,1721206859700
3.86,0.73,9.33,0.01,0.13,-0.09,1721206859710
1.51,5.88,12.02,0.11,-0.13,-0.22,1721206859720
-1.38,-1.14,7.76,-0.08,0.01,-0.15,1721206859730
-2.17,-4.92,13.20,-0.05,0.06,0.12,1721206859740
0.06,5.51,10.69,0.22,0.09,0.13,1721206859750
2.15,0.46,3.32,-0.03,-0.03,0.05,1721206859760
1.66,-0.11,16.66,-0.23,0.27,-0.25,1721206859770
-1.09,1.08,19.27,0.07,-0.11,-0.25,1721206859780
-2.21,3.09,4.75,0.08,0.03,0.12,1721206859790
-0.05,-3.31,7.77,-0.06,0.18,0.01,1721206859800
1.00,-4.53,14.76,0.09,0.02,-0.09,1721206859810
-1.26,3.91,17.63,0.18,0.03,-0.17,1721206859820
-1.93,2.75,11.41,0.27,-0.02,0.04,1721206859830
-1.89,3.59,5.31,0.30,-0.01,0.08,1721206859840
2.10,2.47,10.89,0.26,0.25,0.06,1721206859850
1.23,2.89,7.79,0.28,-0.10,-0.02,1721206859860
-1.31,-5.39,6.13,0.07,0.07,-0.13,1721206859870
-1.46,-0.23,11.48,0.30,0.10,0.01,1721206859880
0.07,4.08,2.57,0.21,-0.05,0.17,1721206859890
0.92,3.37,16.76,-0.05,0.15,-0.01,1721206859900
-0.59,2.62,9.17,0.26,-0.28,-0.11,1721206859910
0.09,-2.12,3.84,-0.15,0.22,0.01,1721206859920
1.60,-4.38,15.72,-0.21,0.09,0.11,1721206859930
1.08,-4.64,11.39,-0.09,-0.05,-0.03,1721206859940
0.50,1.58,12.53,-0.01,0.08,-0.16,1721206859950
0.51,3.03,10.79,0.10,0.02,-0.08,1721206859960
-1.05,4.30,13.64,-0.07,0.11,-0.10,1721206859970
-0.74,1.17,6.35,-0.07,-0.15,0.06,1721206859980
2.39,2.81,3.28,-0.14,0.22,0.05,1721206859990
5.16,-3.73,13.06,-0.29,0.21,-0.21,1721206860000
-1.81,-2.56,8.40,-0.03,-0.31,-0.51,1721206860010
-5.35,-1.56,6.30,-0.18,0.14,-0.33,1721206860020
-3.61,-5.31,18.72,-0.29,0.17,0.04,1721206860030
-2.72,6.82,19.66,0.04,-0.05,0.23,1721206860040
1.93,6.37,-2.24,0.19,-0.04,0.11,1721206860050
2.34,-8.00,2.42,-0.26,0.05,-0.03,1721206860060
0.54,2.84,16.70,0.11,0.22,-0.24,1721206860070
-0.79,-0.30,8.16,-0.01,-0.09,-0.31,1721206860080
-3.58,-2.15,15.70,-0.20,-0.09,-0.03,1721206860090
-1.73,2.19,9.44,0.05,0.03,0.20,1721206860100
0.61,-0.87,8.84,-0.11,0.16,0.06,1721206860110
1.89,3.28,11.87,0.03,-0.11,-0.06,1721206860120
0.95,1.60,6.93,0.05,0.05,-0.23,1721206860130
-3.58,-2.08,10.15,-0.11,-0.08,-0.23,1721206860140
-4.95,-2.71,10.45,-0.03,-0.08,0.09,1721206860150
0.41,-0.15,16.66,-0.06,0.20,0.38,1721206860160
2.54,6.31,13.75,0.15,-0.09,0.22,1721206860170
2.63,-0.46,7.06,0.09,-0.11,-0.15,1721206860180
2.85,-2.59,12.03,0.06,0.06,-0.11,1721206860190
-1.53,5.04,8.19,0.31,-0.23,-0.14,1721206860200
-1.91,0.92,6.73,0.15,0.06,-0.08,1721206860210
-0.72,1.07,12.32,0.25,-0.12,0.11,1721206860220
0.51,0.63,4.98,0.23,-0.05,0.18,1721206860230
0.03,1.84,6.78,0.12,0.00,-0.12,1721206860240
1.59,-2.64,14.60,-0.06,0.08,-0.11,1721206860250
-2.48,2.15,11.30,0.19,-0.33,-0.10,1721206860260
-1.33,-0.01,6.17,0.06,0.20,-0.05,1721206860270
-0.04,1.50,15.67,0.02,0.04,0.03,1721206860280
0.74,-0.41,9.72,0.10,-0.15,0.11,1721206860290
2.31,-1.07,13.23,-0.09,0.15,-0.02,1721206860300
0.74,0.24,12.68,0.13,-0.24,-0.13,1721206860310
-0.71,1.56,0.44,0.21,-0.12,-0.15,1721206860320
-0.16,0.29,13.56,0.02,0.31,-0.11,1721206860330
-2.13,7.68,15.38,0.28,-0.24,-0.05,1721206860340
-2.30,-1.32,3.81,-0.13,-0.09,-0.11,1721206860350
-1.08,-3.24,16.25,-0.09,0.08,0.02,1721206860360
-0.85,5.30,4.45,0.17,-0.21,0.14,1721206860370
1.35,-2.77,5.69,-0.33,0.20,0.04,1721206860380
0.92,0.85,20.35,0.00,-0.14,0.02,1721206860390
1.83,1.67,5.33,0.06,-0.12,0.00,1721206860400
0.73,-0.91,9.37,-0.35,0.11,-0.07,1721206860410
0.82,0.06,18.18,-0.09,-0.08,-0.09,1721206860420
-1.35,0.28,9.09,-0.05,-0.13,-0.06,1721206860430
-3.32,-2.26,4.03,-0.10,-0.23,0.01,1721206860440
-0.27,-3.39,12.67,-0.10,0.16,0.12,1721206860450
-0.38,-1.21,11.90,-0.17,-0.15,0.05,1721206860460
-0.29,0.85,11.98,-0.15,-0.12,0.06,1721206860470
3.63,0.89,10.36,0.09,0.17,0.01,1721206860480
1.85,-1.46,5.86,-0.04,-0.09,-0.14,1721206860490
-2.42,2.64,6.85,-0.01,-0.15,-0.22,1721206860500
1.76,-2.04,12.40,-0.13,0.32,-0.17,1721206860510
0.15,-5.88,16.54,-0.14,-0.16,0.00,1721206860520
-1.99,2.01,9.18,-0.04,-0.07,0.00,1721206860530
3.42,-1.17,11.12,-0.05,0.16,-0.04,1721206860540
0.83,3.17,11.20,-0.02,-0.08,-0.18,1721206860550
-1.55,5.12,11.39,0.00,0.14,-0.28,1721206860560
0.68,-5.26,9.71,-0.16,0.03,-0.10,1721206860570
-0.93,-2.62,9.83,-0.10,0.03,-0.08,1721206860580
0.24,1.25,11.64,-0.01,0.20,-0.05,1721206860590
1.57,2.90,12.82,0.05,-0.01,-0.00,1721206860600
1.85,-0.19,6.81,0.13,0.06,-0.06,1721206860610
0.28,3.67,10.27,0.09,0.20,-0.27,1721206860620
-0.34,1.76,15.99,-0.03,0.04,-0.29,1721206860630
-2.42,2.39,11.19,0.09,-0.03,-0.16,1721206860640
-0.59,-2.77,4.00,0.08,0.16,0.07,1721206860650
1.43,-1.13,10.44,0.10,0.22,0.05,1721206860660
1.05,2.11,9.56,0.27,0.07,-0.24,1721206860675
0.49,3.83,10.35,0.27,0.14,-0.33,1721206860679
-1.53,2.57,12.65,0.25,0.04,-0.17,1721206860689
-1.73,3.71,6.02,0.31,0.07,0.10,1721206860699
0.99,-0.32,6.83,0.05,0.23,0.03,1721206860709
1.77,-0.33,11.41,0.08,0.02,-0.16,1721206860719
0.55,-0.76,9.48,0.08,0.10,-0.29,1721206860729
-1.97,-1.92,15.06,-0.03,0.12,-0.21,1721206860739
-3.12,2.94,11.92,0.20,0.00,-0.02,1721206860749
-0.83,5.48,4.19,0.17,0.21,0.06,1721206860759
0.91,1.59,8.09,0.02,0.13,0.02,1721206860769
-0.79,-0.67,9.94,0.06,-0.03,-0.09,1721206860779
-1.16,-0.57,6.27,0.05,0.09,-0.10,1721206860789
-0.43,-3.19,11.48,-0.18,0.10,0.02,1721206860799
-0.59,1.44,16.39,-0.02,-0.04,0.09,1721206860809
1.10,1.15,7.55,0.00,-0.01,0.06,1721206860819
1.12,1.92,7.24,-0.02,-0.00,-0.08,1721206860829
-0.08,1.89,8.88,-0.04,0.04,-0.13,1721206860839
-0.95,-1.73,13.82,-0.16,0.14,-0.17,1721206860849
-2.52,-3.12,10.19,-0.05,-0.21,0.07,1721206860859
-0.98,0.52,7.86,-0.09,0.15,0.18,1721206860869
0.85,0.40,11.35,-0.06,0.03,0.14,1721206860879
1.49,-3.48,8.42,-0.09,-0.14,0.07,1721206860889
0.55,0.36,10.50,-0.08,0.02,-0.08,1721206860899
-0.77,5.33,12.86,0.03,0.05,-0.16,1721206860909
-2.12,-1.67,6.26,-0.12,-0.24,0.12,1721206860919
1.02,-8.79,11.14,-0.21,0.23,0.13,1721206860929
0.58,7.06,12.64,0.03,-0.14,0.07,1721206860939
1.28,-2.41,6.51,-0.21,-0.06,-0.08,1721206860949
0.79,-7.12,16.81,-0.26,-0.02,-0.11,1721206860959
-1.25,2.08,13.01,0.07,-0.05,-0.08,1721206860969
-1.69,4.42,7.36,-0.11,-0.12,0.08,1721206860979
-0.44,2.43,10.37,-0.00,0.02,0.05,1721206860989
0.23,-1.75,7.54,-0.06,-0.11,0.01,1721206860999
-0.58,-1.03,10.07,-0.14,-0.08,-0.03,1721206861009
0.84,-0.73,11.48,-0.04,-0.04,-0.02,1721206861019
-0.70,2.36,9.33,0.03,-0.14,-0.05,1721206861029
0.26,1.64,8.17,0.06,-0.14,0.01,1721206861039
-0.94,0.80,12.31,0.07,-0.09,-0.05,1721206861049
-1.73,2.32,8.53,0.10,-0.23,-0.12,1721206861059
-1.68,5.02,5.69,0.08,-0.08,-0.07,1721206861069
0.94,-4.20,14.89,-0.23,0.11,0.05,1721206861079
1.25,-4.79,22.92,-0.09,-0.04,-0.04,1721206861089
1.19,9.09,9.70,0.27,-0.28,-0.07,1721206861099
2.87,0.90,4.13,-0.12,0.02,-0.12,1721206861109
0.64,3.85,24.45,0.16,-0.05,-0.25,1721206861119
-0.64,7.92,4.13,0.58,-0.42,-0.23,1721206861129
-3.15,-1.64,-2.86,-0.07,0.03,-0.22,1721206861139
-3.70,-4.27,18.04,-0.02,-0.09,-0.12,1721206861149
-0.71,3.02,12.99,0.37,-0.14,0.13,1721206861159
1.07,1.86,3.19,0.13,-0.11,0.15,1721206861169
1.37,-1.17,13.36,-0.01,0.02,-0.09,1721206861179
1.35,6.56,12.69,0.34,-0.23,-0.22,1721206861189
1.37,1.38,1.84,0.11,-0.01,-0.22,1721206861199
-0.78,-5.24,11.95,-0.17,-0.04,-0.19,1721206861209
-0.36,1.41,10.59,0.20,-0.15,-0.10,1721206861219
1.69,-1.71,4.45,0.02,-0.02,-0.06,1721206861229
0.84,0.98,6.25,0.10,-0.07,-0.19,1721206861239
1.70,1.36,18.16,-0.13,0.10,-0.44,1721206861249
-0.00,4.06,16.34,0.11,-0.21,-0.31,1721206861259
-3.59,-5.73,-5.17,-0.16,-0.16,-0.21,1721206861269
-3.84,-5.07,10.36,-0.31,0.32,-0.21,1721206861279
0.79,3.05,15.39,0.02,-0.12,-0.09,1721206861289
2.04,-5.44,2.53,-0.19,0.01,0.00,1721206861299
-0.47,-1.87,14.81,-0.28,0.11,-0.31,1721206861309
2.19,3.78,16.53,-0.07,-0.00,-0.31,1721206861319
0.87,2.38,9.62,-0.25,0.08,-0.35,1721206861329
-1.84,-1.56,12.09,-0.19,-0.04,-0.39,1721206861339
-2.79,-3.36,5.88,-0.15,0.01,-0.31,1721206861349
-2.03,-5.44,14.77,-0.37,0.23,-0.08,1721206861359
-1.19,4.68,16.56,-0.05,-0.06,0.01,1721206861369
1.52,0.93,-1.38,0.00,0.02,0.01,1721206861379
2.10,-0.37,10.21,-0.15,0.32,-0.31,1721206861389
0.79,3.21,15.37,0.17,0.04,-0.46,1721206861399
-3.10,1.75,1.50,0.04,0.01,-0.26,1721206861409
-2.73,-5.86,15.08,-0.34,0.32,-0.07,1721206861419
0.25,5.41,24.29,0.05,0.10,0.02,1721206861429
3.07,5.51,2.41,0.16,0.05,0.07,1721206861439
4.22,-1.75,6.96,-0.20,0.40,-0.28,1721206861449
0.44,-0.72,21.02,-0.01,0.00,-0.70,1721206861459
-3.80,4.92,9.13,0.15,0.05,-0.42,1721206861469
-5.09,1.69,4.84,0.02,0.14,0.01,1721206861479
-1.57,-3.22,15.00,-0.10,0.29,0.07,1721206861489
1.61,4.27,14.88,0.25,0.05,0.10,1721206861499
3.19,2.79,5.66,0.05,0.19,-0.00,1721206861509
2.46,-0.64,13.27,-0.03,0.17,-0.29,1721206861519
0.60,2.28,8.96,0.13,0.04,-0.30,1721206861529
-1.30,5.11,9.12,0.07,0.17,-0.20,1721206861539
-1.30,6.01,8.35,0.27,0.16,-0.06,1721206861549
-0.51,-5.51,1.22,-0.10,0.10,-0.04,1721206861559
0.19,-6.28,16.05,-0.24,0.25,-0.05,1721206861569
1.60,7.10,11.79,0.24,0.16,-0.18,1721206861579
1.74,0.99,2.96,-0.10,0.14,-0.19,1721206861589
-1.89,-0.70,16.25,-0.11,0.05,-0.26,1721206861599
-1.67,0.03,12.04,0.01,0.17,-0.15,1721206861609
0.09,-1.76,11.49,-0.27,0.23,-0.02,1721206861619
1.61,2.01,14.24,-0.08,0.16,-0.09,1721206861629
2.36,0.01,4.28,-0.00,0.18,-0.30,1721206861639
-0.74,-2.35,10.37,-0.13,0.25,-0.36,1721206861649
-4.32,1.18,13.21,0.08,0.01,-0.32,1721206861659
-3.33,0.97,7.39,-0.01,0.19,0.04,1721206861669
-0.21,-1.72,14.40,-0.21,0.32,0.07,1721206861679
0.36,-1.42,12.92,-0.02,-0.04,0.02,1721206861689
1.58,4.70,3.53,0.18,0.23,-0.22,1721206861699
2.43,-1.61,12.67,-0.16,0.41,-0.37,1721206861709
-4.47,-1.85,16.45,-0.06,-0.21,-0.23,1721206861719
-2.90,-1.89,9.36,0.04,0.18,0.13,1721206861729
1.39,-0.72,6.79,0.16,0.27,0.22,1721206861739
0.71,4.51,5.27,0.19,0.01,-0.01,1721206861749
2.11,2.77,10.61,0.18,0.24,-0.22,1721206861759
-0.72,-1.40,11.85,0.05,0.01,-0.26,1721206861769
-4.12,-0.45,10.17,-0.02,0.07,-0.14,1721206861779
-0.83,-0.87,9.33,-0.07,0.15,0.18,1721206861789
1.58,0.40,13.19,-0.01,0.18,0.15,1721206861799
0.39,5.04,9.72,0.18,-0.03,-0.17,1721206861809
-1.14,0.06,5.32,0.07,-0.00,-0.21,1721206861819
-2.83,-3.76,9.74,-0.04,0.10,0.03,1721206861829
-1.99,2.63,12.72,0.04,0.11,0.14,1721206861839
0.45,2.71,9.39,0.07,0.01,0.11,1721206861849
0.20,-3.22,6.31,0.08,0.00,0.01,1721206861859
0.06,-2.30,9.14,0.13,0.16,-0.01,1721206861869
1.52,3.29,15.64,0.10,0.13,0.02,1721206861879
0.75,4.29,14.32,0.06,-0.14,-0.07,1721206861889
-3.02,2.48,5.49,0.21,-0.13,-0.06,1721206861899
-0.94,3.97,1.88,0.30,0.22,0.04,1721206861909
1.55,-5.23,9.05,-0.16,0.10,0.09,1721206861919
-0.61,-0.49,17.98,-0.03,-0.08,0.02,1721206861929
0.83,4.64,10.06,0.23,0.08,-0.03,1721206861939
-0.01,-0.70,6.22,-0.03,-0.08,-0.05,1721206861949
-2.31,0.03,12.51,0.03,-0.00,-0.01,1721206861959
0.33,3.72,12.35,0.15,0.12,0.05,1721206861969
-0.64,-0.37,8.70,-0.06,-0.16,0.07,1721206861979
-2.44,1.30,13.20,0.10,0.06,-0.03,1721206861989
1.29,-1.57,4.68,0.21,-0.02,0.05,1721206861999
0.18,1.43,9.20,0.01,0.08,0.04,1721206862009
1.46,5.34,15.73,0.15,0.07,-0.07,1721206862019
-0.48,1.43,6.38,0.11,-0.18,-0.19,1721206862029
-3.29,-0.78,8.10,-0.01,-0.01,-0.03,1721206862039
-1.14,0.42,8.85,-0.00,0.10,0.12,1721206862049
-0.87,-0.22,7.77,-0.06,-0.12,0.11,1721206862059
0.26,-4.02,9.69,-0.18,0.06,0.04,1721206862069
1.78,-1.47,14.01,0.06,-0.07,0.13,1721206862079
2.37,0.13,7.35,-0.02,0.11,-0.00,1721206862089
0.17,-1.65,14.15,-0.19,-0.06,-0.13,1721206862099
0.34,2.99,13.92,0.05,-0.08,-0.08,1721206862109
-0.27,-0.67,6.94,-0.10,-0.01,-0.05,1721206862119
-1.02,-5.38,10.52,-0.13,0.07,-0.05,1721206862129
0.00,-1.15,9.00,-0.03,0.04,0.00,1721206862139
-0.37,1.91,6.67,-0.09,0.06,-0.05,1721206862149
-0.18,2.26,13.00,-0.03,0.11,-0.13,1721206862159
2.46,-1.53,12.77,-0.04,0.07,0.03,1721206862169
-1.11,1.39,5.51,-0.08,-0.17,0.02,1721206862179
-0.83,-2.31,3.39,-0.19,0.18,-0.12,1721206862189
1.92,-2.44,16.61,-0.26,0.26,-0.17,1721206862199
-0.46,4.06,16.17,0.09,-0.15,-0.01,1721206862209
-0.62,1.82,5.92,-0.05,0.19,0.00,1721206862219
1.55,-3.79,12.19,-0.19,0.08,-0.04,1721206862229
1.44,3.43,15.41,0.02,0.07,-0.13,1721206862239
0.79,3.75,7.92,0.14,0.12,-0.20,1721206862249
-0.56,-0.75,8.16,0.06,0.11,-0.23,1721206862259
-3.45,0.89,9.93,0.20,-0.06,-0.14,1721206862269
-1.43,-1.57,11.61,-0.08,0.34,-0.03,1721206862279
-1.64,3.06,18.71,0.09,-0.02,0.03,1721206862289
-0.03,6.67,5.69,0.30,0.04,0.20,1721206862299
2.82,-0.17,4.10,0.20,0.25,-0.06,1721206862309
0.53,-3.52,9.00,0.19,-0.04,-0.23,1721206862319
-3.00,-0.06,12.97,0.10,0.05,-0.16,1721206862329
-1.87,3.08,14.05,0.22,0.09,0.15,1721206862339
0.80,5.55,8.40,0.19,0.14,0.22,1721206862349
2.38,3.70,7.85,0.12,0.01,0.15,1721206862359
2.20,-4.18,8.84,-0.05,0.08,-0.12,1721206862369
0.85,-0.73,11.49,0.10,0.07,-0.13,1721206862379
0.01,1.55,8.54,0.01,0.19,-0.21,1721206862389
-3.35,1.33,18.60,0.04,-0.05,-0.00,1721206862399
-3.60,5.42,0.80,0.31,-0.16,0.24,1721206862409
1.59,-4.19,-0.72,-0.22,0.30,0.33,1721206862419
3.25,-5.17,21.13,-0.32,0.15,0.12,1721206862429
2.32,3.14,13.41,0.14,-0.32,0.03,1721206862439
3.04,0.73,-0.05,-0.03,0.27,-0.30,1721206862449
-0.84,-3.07,12.69,-0.14,0.06,-0.22,1721206862459
-3.59,-2.18,12.15,0.08,-0.16,0.10,1721206862469
-0.67,3.11,11.60,-0.06,0.18,0.23,1721206862479
1.54,3.30,11.19,-0.06,-0.02,0.04,1721206862489
-0.58,0.59,3.93,-0.10,-0.19,-0.03,1721206862499
1.26,-8.83,8.04,-0.22,0.17,-0.10,1721206862509
0.91,-1.89,11.14,-0.05,-0.07,-0.00,1721206862519
-3.12,4.14,14.33,-0.16,0.01,-0.16,1721206862529
-1.77,4.72,15.47,-0.08,-0.11,0.00,1721206862539
-0.17,-3.89,6.32,-0.03,-0.09,0.31,1721206862549
1.40,0.39,4.79,-0.00,0.10,0.30,1721206862559
5.28,-4.46,11.32,-0.22,0.05,-0.02,1721206862569
1.17,0.43,21.22,-0.05,-0.22,-0.41,1721206862579
-4.26,6.19,7.38,0.32,-0.23,-0.21,1721206862589
-2.81,0.89,6.89,-0.07,0.10,0.13,1721206862599
-1.13,4.58,19.54,0.08,-0.20,0.32,1721206862609
0.09,1.39,-1.00,0.21,-0.30,0.14,1721206862619
2.82,-7.92,5.49,-0.19,0.14,-0.06,1721206862629
-1.45,-0.13,15.75,0.08,-0.29,-0.20,1721206862639
-2.31,3.72,7.52,0.21,-0.11,-0.03,1721206862649
-1.10,5.80,11.14,0.11,-0.02,0.16,1721206862659
0.40,1.18,11.90,-0.00,-0.05,0.04,1721206862669
0.03,0.59,8.91,0.13,-0.26,0.02,1721206862684
0.34,2.26,5.13,0.16,-0.20,0.10,1721206862688
1.44,-5.44,5.64,-0.18,-0.04,0.07,1721206862698
0.41,2.14,21.44,0.04,-0.06,-0.05,1721206862708
2.60,9.05,9.45,0.40,-0.18,-0.05,1721206862718
0.26,-2.67,-0.26,-0.04,-0.28,-0.14,1721206862728
-1.40,-2.69,13.87,-0.02,0.23,-0.14,1721206862738
0.35,2.44,10.41,0.19,-0.20,-0.04,1721206862748
-0.55,5.14,4.96,0.08,-0.15,-0.00,1721206862758
0.29,0.30,8.66,0.07,0.01,-0.07,1721206862768
0.92,-6.22,14.31,-0.14,-0.01,-0.15,1721206862778
-0.92,3.63,22.06,-0.02,-0.15,-0.17,1721206862788
-1.31,8.76,4.02,0.12,-0.31,-0.17,1721206862798
-2.56,-1.46,1.30,-0.17,-0.14,-0.08,1721206862808
-1.26,-7.53,10.01,-0.05,0.02,0.08,1721206862818
2.21,-0.92,8.94,-0.01,0.02,0.04,1721206862828
1.73,3.96,15.70,-0.20,-0.12,-0.21,1721206862838
0.00,5.15,16.70,-0.12,-0.20,-0.32,1721206862848
-0.97,-1.54,7.79,-0.09,-0.08,-0.21,1721206862858
-0.53,-4.13,8.03,-0.10,0.10,-0.21,1721206862868
-0.00,-3.53,10.71,-0.23,-0.04,-0.24,1721206862878
-2.48,4.55,18.68,-0.06,-0.14,-0.14,1721206862888
-1.21,2.10,5.28,0.19,-0.16,0.02,1721206862898
2.60,-6.19,0.77,-0.04,0.15,0.05,1721206862908
1.85,0.21,11.12,-0.10,0.02,-0.24,1721206862918
-0.02,3.74,9.91,0.04,-0.12,-0.41,1721206862928
-2.72,-5.49,4.76,-0.16,-0.10,-0.27,1721206862938
-2.38,-3.32,15.62,-0.05,0.17,0.01,1721206862948
1.51,-0.20,8.26,0.04,-0.01,0.05,1721206862958
2.35,-0.04,7.76,-0.26,0.10,-0.22,1721206862968
0.27,0.53,20.53,-0.28,0.10,-0.45,1721206862978
-3.12,5.39,16.87,-0.07,-0.14,-0.26,1721206862988
-2.60,2.71,-2.73,0.03,0.03,-0.03,1721206862998
1.83,-10.38,10.87,-0.48,0.45,-0.09,1721206863008
-0.44,5.36,24.37,-0.08,-0.21,-0.11,1721206863018
-0.10,12.50,10.99,0.20,0.07,-0.09,1721206863028
1.18,-0.45,5.41,0.07,0.12,-0.04,1721206863038
1.02,-3.06,8.54,0.06,0.08,-0.20,1721206863048
1.77,0.90,11.31,0.03,0.18,-0.38,1721206863058
-1.85,3.86,14.22,0.04,0.03,-0.22,1721206863068
-3.18,4.09,5.49,0.38,0.05,0.05,1721206863078
2.53,-2.40,1.93,0.33,0.30,0.13,1721206863088
3.43,-1.64,16.17,0.11,0.21,-0.22,1721206863098
0.43,9.00,16.90,0.31,-0.00,-0.44,1721206863108
-2.46,2.87,4.84,0.20,0.04,-0.37,1721206863118
-3.36,-3.15,10.17,0.08,0.14,-0.05,1721206863128
-1.05,-1.40,8.66,0.18,0.11,0.07,1721206863138
1.04,-0.94,6.13,0.03,0.17,0.02,1721206863148
1.39,0.74,12.99,-0.04,0.20,-0.17,1721206863158
0.51,1.75,14.57,0.15,0.06,-0.22,1721206863168
0.28,0.95,4.17,0.20,0.11,-0.09,1721206863178
1.07,3.43,8.52,0.09,0.31,-0.16,1721206863188
0.66,0.09,8.52,-0.05,-0.02,-0.26,1721206863198
-1.52,-4.11,20.03,-0.37,0.21,-0.27,1721206863208
-2.73,4.92,14.06,0.14,0.03,-0.18,1721206863218
-0.83,-0.59,-1.60,-0.10,0.14,-0.04,1721206863228
-0.86,0.17,15.54,-0.13,0.29,-0.09,1721206863238
-1.15,4.50,10.52,0.19,0.02,-0.10,1721206863248
-1.91,0.19,4.39,0.02,0.17,-0.09,1721206863258
-0.29,-1.40,10.59,0.02,0.12,0.09,1721206863268
1.70,-1.92,7.43,-0.01,0.00,0.23,1721206863278
1.56,1.81,13.17,-0.09,0.16,-0.01,1721206863288
2.63,-0.17,11.07,0.05,-0.02,-0.24,1721206863298
-0.10,-1.57,6.64,-0.02,0.03,-0.19,1721206863308
-3.11,-0.42,11.57,-0.04,0.12,-0.12,1721206863318
-1.57,0.53,8.30,0.04,0.07,0.03,1721206863328
1.07,-3.12,13.79,-0.16,0.19,0.09,1721206863338
-1.15,-0.46,12.19,0.01,-0.13,-0.04,1721206863348
-1.84,-0.47,5.27,-0.01,0.04,-0.08,1721206863358
0.46,-1.71,11.92,-0.11,0.19,0.03,1721206863368
0.40,2.35,13.50,-0.01,0.01,0.07,1721206863378
-0.19,2.85,9.46,0.01,0.07,-0.14,1721206863388
0.63,-2.60,8.79,-0.01,-0.01,-0.10,1721206863398
-0.71,-1.80,8.61,-0.05,-0.00,-0.04,1721206863408
-1.64,3.20,12.10,0.02,0.06,-0.04,1721206863418
-0.61,0.61,9.92,0.05,-0.08,-0.07,1721206863428
-2.67,1.75,7.93,0.11,-0.10,-0.02,1721206863438
-1.19,-1.53,6.02,0.10,0.08,-0.02,1721206863448
0.68,-5.49,14.69,-0.20,0.08,0.07,1721206863458
-0.58,7.99,17.84,0.11,-0.07,-0.05,1721206863468
0.08,5.59,6.06,0.13,-0.13,-0.11,1721206863478
-1.92,-4.87,9.28,-0.06,-0.05,-0.08,1721206863488
-2.02,1.40,14.93,0.17,-0.02,0.04,1721206863498
-0.31,2.79,5.49,0.12,-0.07,0.07,1721206863508
-0.07,0.65,9.92,0.03,0.06,0.03,1721206863518
1.70,1.62,12.06,0.28,-0.01,0.01,1721206863528
1.43,0.49,5.54,0.24,-0.12,0.07,1721206863538
0.47,3.56,12.49,0.10,0.11,-0.10,1721206863548
0.47,2.67,14.58,0.14,-0.06,-0.16,1721206863558
-1.10,1.57,8.87,0.09,-0.12,-0.13,1721206863568
-0.69,-2.11,7.07,0.11,0.00,0.02,1721206863578
-0.36,-1.76,9.89,-0.01,0.02,0.10,1721206863588
0.79,1.75,13.30,0.12,-0.02,0.09,1721206863598
2.17,1.77,6.29,0.13,0.01,-0.10,1721206863608
-0.27,0.33,6.80,0.01,-0.15,-0.21,1721206863618
-1.27,0.21,9.17,-0.02,0.04,-0.15,1721206863628
-0.69,-0.77,10.33,-0.05,0.02,-0.00,1721206863638
-0.77,-1.13,9.84,-0.09,-0.01,-0.01,1721206863648
-0.01,-0.81,13.22,-0.12,-0.00,-0.11,1721206863658
0.60,2.85,11.06,0.05,-0.05,-0.09,1721206863668
0.59,-1.77,5.61,-0.25,0.07,-0.12,1721206863678
-1.76,-2.67,14.04,-0.26,-0.05,-0.13,1721206863688
-1.47,2.52,12.42,-0.04,-0.09,-0.03,1721206863698
1.16,-1.22,7.81,-0.26,0.19,0.02,1721206863708
-0.55,-4.02,9.45,-0.18,-0.14,-0.04,1721206863718
0.00,-5.55,12.84,-0.30,0.11,-0.10,1721206863728
-0.13,7.26,16.93,-0.05,0.07,-0.13,1721206863738
2.01,-1.42,3.26,0.12,-0.08,0.00,1721206863748
0.10,-3.67,7.99,-0.18,0.24,-0.08,1721206863758
0.01,5.36,16.20,0.05,0.21,-0.26,1721206863768
-0.43,3.63,8.15,0.06,0.03,-0.36,1721206863778
-1.72,-4.91,7.18,-0.07,-0.05,0.02,1721206863788
-0.36,2.13,11.35,0.09,0.18,0.26,1721206863798
4.39,-0.45,7.91,0.07,0.14,0.05,1721206863808
3.72,2.01,12.44,-0.05,0.16,-0.42,1721206863818
-1.88,4.58,11.70,0.06,-0.04,-0.58,1721206863828
-4.98,-4.58,9.84,-0.15,0.16,-0.31,1721206863838
-5.40,-1.02,13.58,-0.01,0.01,0.25,1721206863848
1.93,-2.53,6.17,0.01,0.31,0.42,1721206863858
4.65,-0.91,15.01,-0.08,0.19,0.04,1721206863868
1.80,7.14,13.26,0.31,-0.01,-0.29,1721206863878
0.34,1.40,6.23,0.22,0.15,-0.28,1721206863888
-1.37,4.64,13.55,0.27,0.12,-0.15,1721206863898
-2.35,2.43,6.52,0.32,0.05,-0.12,1721206863908
-2.00,-0.28,9.36,0.11,0.14,-0.00,1721206863918
-0.35,-0.80,7.10,0.20,0.08,0.11,1721206863928
0.80,-3.02,10.41,0.04,0.19,-0.04,1721206863938
1.72,3.54,15.29,0.25,0.11,-0.08,1721206863948
0.67,4.88,3.19,0.30,-0.02,-0.04,1721206863958
-0.25,3.24,12.73,-0.03,0.31,-0.20,1721206863968
-0.42,-0.21,10.56,0.08,-0.13,-0.04,1721206863978
-0.08,-4.62,7.22,-0.15,0.16,0.08,1721206863988
1.30,-1.45,16.14,-0.10,0.20,-0.08,1721206863998
1.05,3.38,10.86,0.14,0.05,-0.21,1721206864008
-1.35,4.11,4.92,0.15,0.02,-0.20,1721206864018
-2.55,-0.40,2.99,0.08,0.09,-0.11,1721206864028
-1.09,-5.94,9.66,-0.15,0.22,-0.01,1721206864038
0.08,4.11,15.92,0.10,0.03,0.16,1721206864048
1.54,5.99,6.49,0.05,0.06,-0.02,1721206864058
1.55,-4.65,9.53,-0.32,0.15,-0.26,1721206864068
-0.47,-4.15,17.38,-0.26,0.00,-0.13,1721206864078
-1.98,4.99,10.37,-0.06,0.05,-0.10,1721206864088
-0.09,-0.32,8.98,-0.23,0.16,-0.18,1721206864098
-2.68,-2.04,9.38,-0.02,-0.16,-0.07,1721206864108
-4.75,-1.54,5.49,0.01,0.02,0.12,1721206864118
-1.40,-1.69,8.85,-0.13,0.13,0.20,1721206864128
1.76,-0.87,16.41,-0.12,0.02,0.19,1721206864138
1.51,4.40,12.31,0.08,-0.05,0.00,1721206864148
0.79,-0.42,6.61,-0.02,-0.08,-0.17,1721206864158
-0.75,-4.45,9.87,-0.06,-0.03,-0.06,1721206864168
-0.90,3.21,13.30,0.08,0.06,0.00,1721206864178
-1.93,3.75,10.43,0.02,-0.07,-0.05,1721206864188
-1.35,-1.53,9.10,0.02,-0.15,0.21,1721206864198
-0.35,-1.16,4.60,0.10,0.03,0.26,1721206864208
3.45,-3.91,11.67,-0.25,0.19,0.17,1721206864218
2.85,1.76,22.35,-0.11,-0.12,-0.06,1721206864228
-0.42,-0.86,6.84,0.09,-0.32,-0.07,1721206864238
0.74,-5.19,7.17,-0.11,0.23,-0.04,1721206864248
-0.34,5.64,17.08,0.23,-0.17,0.03,1721206864258
0.18,7.39,8.84,0.22,-0.14,0.13,1721206864268
1.52,2.30,5.68,0.06,-0.11,0.05,1721206864278
1.92,-5.86,7.65,-0.07,0.02,-0.30,1721206864288
-1.78,0.42,11.37,-0.01,-0.15,-0.35,1721206864298
-2.58,5.18,7.56,0.13,0.01,-0.20,1721206864308
-2.74,-0.26,6.18,0.05,-0.04,-0.06,1721206864318
-2.87,-1.25,7.39,0.09,-0.10,0.11,1721206864328
1.27,1.80,11.51,0.11,0.15,0.15,1721206864338
4.00,1.87,12.19,-0.09,-0.02,-0.08,1721206864348
1.20,0.76,14.85,-0.11,-0.13,-0.28,1721206864358
-0.47,-1.29,15.19,0.02,-0.05,-0.23,1721206864368
-1.93,-0.53,7.33,0.11,-0.11,-0.09,1721206864378
-1.31,0.40,15.21,-0.01,0.19,-0.08,1721206864388
-0.17,7.13,17.71,0.22,-0.17,0.07,1721206864398
-0.39,7.43,3.79,0.30,-0.21,-0.03,1721206864408
-0.41,-0.73,1.93,0.13,-0.08,-0.09,1721206864418
-1.91,-2.17,8.51,-0.04,-0.05,-0.14,1721206864428
-1.96,-0.74,13.69,-0.04,-0.07,-0.01,1721206864438
-0.49,0.40,13.73,-0.02,-0.06,0.14,1721206864448
1.07,-0.45,9.76,-0.00,-0.16,0.20,1721206864458
2.57,0.13,6.48,0.01,-0.05,0.15,1721206864468
3.74,1.98,8.90,-0.08,0.01,-0.16,1721206864478
-0.88,-1.39,9.60,-0.18,-0.15,-0.45,1721206864488
-3.96,-3.85,10.90,-0.01,-0.13,-0.31,1721206864498
-3.39,-6.11,8.06,-0.20,0.02,0.12,1721206864508
-2.66,-2.41,17.08,-0.22,-0.05,0.10,1721206864518
2.46,2.65,13.03,0.02,0.01,0.03,1721206864528
3.10,-2.46,6.03,-0.11,-0.00,-0.17,1721206864538
-1.06,2.57,8.34,0.05,-0.06,-0.22,1721206864548
0.71,-1.02,6.00,-0.01,0.14,-0.15,1721206864558
-0.03,-2.68,13.54,-0.28,-0.01,-0.12,1721206864568
0.09,1.85,14.98,-0.13,-0.09,-0.10,1721206864578
3.17,-3.89,7.81,-0.20,0.11,-0.05,1721206864588
0.47,-4.99,11.69,-0.31,-0.01,-0.31,1721206864598
-1.24,4.27,13.36,0.11,0.07,-0.39,1721206864608
-0.01,0.11,11.40,-0.03,0.18,-0.28,1721206864618
-2.31,5.71,13.58,0.09,-0.05,-0.01,1721206864628
-0.41,4.34,12.55,0.11,-0.15,-0.24,1721206865161
0.41,1.53,14.59,0.07,-0.16,-0.26,1721206865165
-4.19,0.78,9.60,-0.07,-0.13,-0.25,1721206865175
-4.59,-0.12,11.98,-0.09,0.05,0.06,1721206865185
-3.00,-2.83,6.71,-0.04,-0.17,0.36,1721206865195
1.56,-2.46,13.09,-0.09,0.23,0.37,1721206865205
3.25,-0.82,12.93,-0.01,-0.24,0.13,1721206865215
1.00,3.02,14.33,-0.13,-0.03,-0.22,1721206865225
-0.76,5.69,12.88,0.05,-0.13,-0.20,1721206865235
-1.92,1.65,2.21,-0.03,-0.22,0.06,1721206865245
-0.81,-4.32,9.66,-0.19,0.12,0.15,1721206865255
-0.29,-3.05,18.88,-0.04,0.02,0.09,1721206865265
-1.40,3.45,4.49,0.14,-0.33,0.15,1721206865275
0.34,4.19,5.94,-0.00,0.15,-0.00,1721206865285
1.68,0.55,11.93,0.09,-0.23,0.14,1721206865295
0.26,0.79,6.28,0.10,-0.11,0.11,1721206865305
0.12,3.18,5.59,0.13,0.12,-0.06,1721206865315
0.17,-6.84,14.04,-0.30,0.03,-0.13,1721206865325
-2.26,4.36,23.23,0.01,-0.31,0.25,1721206865335
0.58,3.41,2.62,0.13,-0.06,0.29,1721206865345
3.40,-4.34,6.90,-0.17,0.07,0.14,1721206865355
2.88,1.24,13.74,0.11,-0.20,-0.05,1721206865365
0.88,4.45,5.43,0.22,-0.05,-0.21,1721206865375
-1.31,-3.01,10.11,-0.05,-0.07,-0.12,1721206865385
-1.75,-1.28,14.16,0.11,-0.10,0.14,1721206865395
0.37,3.79,6.22,0.20,-0.01,0.11,1721206865405
2.98,-1.41,6.53,0.01,0.01,0.04,1721206865415
0.91,1.53,12.22,0.11,-0.14,-0.08,1721206865425
1.64,-1.20,6.73,0.12,0.06,-0.12,1721206865435
0.65,-0.97,12.14,-0.03,0.03,-0.12,1721206865445
-1.11,4.29,11.16,0.09,-0.17,-0.05,1721206865455
0.92,-2.94,9.60,-0.10,0.09,-0.03,1721206865465
0.76,-1.50,15.64,0.02,0.00,-0.05,1721206865475
0.31,-0.69,10.85,0.05,-0.01,-0.14,1721206865485
-1.37,3.73,12.61,0.15,-0.13,-0.06,1721206865495
-0.17,1.35,5.60,0.14,0.02,0.06,1721206865505
1.16,-3.20,12.43,-0.02,0.12,-0.04,1721206865515
1.32,4.92,12.47,0.28,-0.06,-0.02,1721206865525
2.98,1.64,1.13,0.12,0.15,-0.05,1721206865535
2.03,0.70,13.95,-0.08,0.13,-0.19,1721206865545
-0.02,4.67,16.58,0.15,-0.04,-0.38,1721206865555
-1.01,-0.29,5.41,-0.01,0.02,-0.21,1721206865565
-2.35,-2.40,9.95,-0.20,0.02,-0.06,1721206865575
-1.27,3.70,15.10,-0.04,0.13,-0.10,1721206865585
0.63,3.16,6.02,-0.00,0.03,-0.13,1721206865595
-0.65,-1.16,4.52,-0.15,0.03,-0.14,1721206865605
-1.94,-0.70,15.37,-0.11,0.09,-0.13,1721206865615
1.21,-0.42,9.76,-0.00,0.04,0.06,1721206865625
1.96,-1.95,10.05,-0.25,0.06,0.03,1721206865635
0.87,7.54,11.02,0.15,-0.07,-0.28,1721206865645
1.98,-1.42,3.06,-0.21,0.10,-0.33,1721206865655
-1.70,-6.35,18.66,-0.30,0.10,-0.44,1721206865665
-3.99,1.98,8.52,0.13,-0.11,-0.23,1721206865675
0.17,-0.91,5.06,-0.21,0.35,-0.03,1721206865685
-0.17,1.26,17.55,-0.08,0.02,-0.04,1721206865695
-0.00,0.15,4.93,0.11,-0.07,-0.24,1721206865705
0.20,-2.74,11.25,-0.31,0.22,-0.13,1721206865715
-0.76,-3.25,16.14,-0.25,-0.05,-0.20,1721206865725
0.33,0.63,15.78,-0.21,0.03,-0.03,1721206865735
-0.22,1.53,8.00,-0.00,-0.04,-0.12,1721206865745
-0.17,-4.10,7.11,-0.04,0.17,-0.22,1721206865755
0.70,-2.89,12.24,-0.00,0.07,-0.06,1721206865765
-0.18,3.52,13.00,0.02,0.07,-0.08,1721206865775
0.85,6.81,14.41,0.11,0.06,-0.26,1721206865785
-0.78,5.18,8.88,0.18,-0.16,-0.15,1721206865795
-2.66,-3.58,5.70,0.12,0.06,-0.09,1721206865805
-0.51,0.41,12.01,0.07,0.20,-0.08,1721206865815
0.88,-2.17,8.91,0.14,-0.12,0.01,1721206865825
-2.51,0.55,5.96,0.17,0.01,-0.13,1721206865835
-0.35,2.21,10.86,0.30,0.19,-0.13,1721206865845
-0.37,5.75,11.76,0.28,-0.06,-0.04,1721206865855
-1.43,-4.36,6.64,-0.00,-0.07,-0.08,1721206865865
-0.75,0.07,13.93,0.02,0.19,-0.11,1721206865875
0.76,1.04,13.85,0.11,0.03,-0.13,1721206865885
-2.23,3.28,10.87,0.28,-0.16,-0.11,1721206865895
0.29,-2.22,5.69,0.24,0.12,0.02,1721206865905
-0.68,0.10,11.66,0.12,-0.04,-0.03,1721206865915
1.74,9.70,14.29,0.35,0.10,-0.10,1721206865925
1.30,5.41,2.42,0.22,-0.19,-0.19,1721206865935
-1.86,-7.36,6.64,-0.14,0.01,-0.24,1721206865945
-3.39,3.75,16.18,0.23,0.01,-0.11,1721206865955
-1.58,-0.03,3.19,0.04,-0.05,0.05,1721206865965
-2.03,-1.66,17.10,-0.17,0.06,0.13,1721206865975
1.07,2.10,13.43,0.31,-0.12,0.23,1721206865985
3.06,4.05,2.77,0.17,-0.02,0.08,1721206865995
4.46,0.93,0.92,0.02,0.02,-0.06,1721206866005
1.97,-5.69,16.18,-0.38,0.18,-0.41,1721206866015
-3.93,3.56,22.15,0.28,-0.30,-0.39,1721206866025
-3.34,1.52,-3.50,0.17,-0.04,0.09,1721206866035
-1.95,-0.31,6.09,-0.26,0.22,0.26,1721206866045
0.44,-0.72,17.02,-0.17,-0.11,0.15,1721206866055
3.03,3.05,6.74,0.03,-0.09,-0.08,1721206866065
0.04,-6.45,3.90,-0.41,-0.05,-0.18,1721206866075
-2.33,-4.50,15.68,-0.28,-0.13,0.03,1721206866085
0.10,-0.07,8.26,-0.07,0.07,0.14,1721206866095
0.29,0.36,10.10,-0.27,0.00,-0.04,1721206866105
2.24,3.41,14.32,-0.05,-0.04,0.02,1721206866115
2.17,-0.96,13.31,-0.29,0.20,-0.19,1721206866125
-1.80,-4.22,16.13,-0.19,-0.29,-0.22,1721206866135
-1.50,4.04,14.31,-0.06,0.07,-0.02,1721206866145
-1.10,5.61,7.29,0.15,-0.04,0.02,1721206866155
1.30,-2.92,0.62,0.04,0.01,0.11,1721206866165
0.56,-1.80,9.67,-0.01,0.11,-0.11,1721206866175
0.26,5.22,12.30,0.16,-0.00,-0.17,1721206866185
-0.45,-0.50,8.16,-0.08,-0.01,-0.08,1721206866195
-0.65,-3.60,14.54,-0.05,0.03,0.09,1721206866205
1.45,0.76,13.25,0.11,0.05,0.09,1721206866215
2.82,3.48,8.17,0.09,0.08,-0.12,1721206866225
0.67,-1.24,14.95,-0.02,0.05,-0.30,1721206866235
-0.81,1.69,13.21,0.26,-0.03,-0.12,1721206866245
-0.66,-0.92,0.89,0.13,0.10,-0.13,1721206866255
-0.63,3.27,10.18,0.16,0.19,-0.03,1721206866265
1.47,1.44,12.49,0.11,0.08,-0.06,1721206866275
-0.76,3.09,16.36,0.15,-0.02,-0.24,1721206866285
-1.32,-1.30,3.36,0.16,-0.04,-0.05,1721206866295
0.76,-5.15,5.35,-0.14,0.24,0.15,1721206866305
2.15,2.06,14.77,0.06,0.13,-0.20,1721206866315
0.76,0.86,3.21,0.19,-0.10,-0.22,1721206866325
-0.49,2.19,9.46,0.07,0.24,-0.15,1721206866335
1.70,1.48,14.46,0.04,0.19,-0.22,1721206866345
-0.97,2.38,13.51,-0.11,-0.05,-0.21,1721206866355
-1.24,2.62,8.22,-0.02,0.08,-0.11,1721206866365
1.18,0.53,3.42,-0.08,0.23,-0.12,1721206866375
1.04,-5.63,11.99,-0.27,0.14,-0.30,1721206866385
-2.16,0.18,13.97,0.02,-0.07,-0.31,1721206866395
-3.43,0.46,7.63,-0.15,0.21,-0.16,1721206866405
-2.63,6.29,16.89,-0.06,0.07,0.07,1721206866415
1.55,3.73,1.14,0.18,-0.04,0.12,1721206866425
3.06,-5.97,10.13,-0.33,0.38,-0.14,1721206866435
0.51,1.58,21.79,-0.05,-0.07,-0.27,1721206866445
-1.42,0.36,8.72,-0.07,0.03,-0.29,1721206866455
-4.49,0.04,9.77,-0.03,0.01,-0.22,1721206866465
-2.16,2.22,4.78,0.21,0.05,0.16,1721206866475
-0.08,0.58,7.36,-0.02,0.23,0.15,1721206866485
0.04,-2.87,12.14,-0.07,-0.10,-0.07,1721206866495
0.85,0.71,7.81,0.03,0.07,-0.04,1721206866505
-0.72,-1.99,8.46,-0.15,0.14,-0.08,1721206866515
-0.40,-0.35,15.45,-0.08,-0.00,-0.04,1721206866525
1.05,3.94,15.32,-0.01,0.00,0.12,1721206866535
1.35,-3.22,7.22,-0.11,-0.06,-0.01,1721206866545
2.49,-6.56,8.65,-0.17,0.09,-0.00,1721206866555
-0.48,7.26,9.64,0.07,-0.03,-0.20,1721206866565
1.15,0.41,6.53,-0.13,0.05,-0.31,1721206866575
-1.08,-5.65,15.28,-0.16,0.06,-0.21,1721206866585
-2.72,-0.21,9.77,-0.00,0.02,-0.12,1721206866595
1.01,1.28,11.18,-0.31,0.29,-0.08,1721206866605
-0.78,5.93,17.30,-0.20,-0.06,-0.22,1721206866615
-2.30,5.04,8.24,0.06,-0.08,-0.33,1721206866625
-3.29,-5.20,0.42,-0.13,-0.06,-0.14,1721206866635
-1.81,-8.56,13.68,-0.33,0.33,0.05,1721206866645
1.13,7.81,17.73,0.13,-0.01,0.10,1721206866655
0.97,4.68,1.25,0.02,-0.15,-0.10,1721206866665
0.58,-0.44,16.29,-0.03,0.28,-0.20,1721206866675
-0.11,5.09,14.36,0.28,-0.08,-0.15,1721206866685
-1.34,-3.26,8.27,-0.29,0.06,-0.12,1721206866695
-2.96,6.05,19.92,-0.01,-0.06,-0.09,1721206866705
0.39,8.26,4.89,0.36,-0.09,0.10,1721206866715
0.33,-0.68,3.49,-0.03,0.11,0.01,1721206866725
0.10,-2.41,14.60,0.07,0.03,-0.11,1721206866735
1.29,1.51,7.41,0.07,-0.02,-0.17,1721206866745
-2.77,1.51,8.58,-0.20,-0.08,-0.19,1721206866755
-3.45,0.10,10.76,0.11,-0.07,-0.01,1721206866765
0.52,-3.55,8.31,0.08,0.19,0.23,1721206866775
1.52,-0.00,13.86,0.05,0.03,0.08,1721206866785
1.65,2.12,11.72,0.08,-0.01,-0.17,1721206866795
0.68,5.77,16.35,-0.01,0.16,-0.26,1721206866805
-1.80,11.45,11.18,0.28,-0.16,-0.08,1721206866815
-2.34,-4.99,0.49,0.00,-0.06,0.02,1721206866825
-0.33,-11.39,10.24,-0.12,0.25,-0.01,1721206866835
-1.27,3.46,14.98,0.05,-0.16,-0.01,1721206866845
-1.75,6.00,9.03,0.13,-0.09,0.11,1721206866855
0.94,-2.87,6.53,0.08,0.00,0.31,1721206866865
1.87,-2.38,7.72,0.10,0.01,0.17,1721206866875
2.97,-1.75,10.91,-0.21,0.05,-0.23,1721206866885
-0.27,0.38,21.38,-0.20,-0.05,-0.34,1721206866895
-5.18,0.68,11.94,0.06,-0.23,-0.03,1721206866905
-1.04,-0.08,5.06,0.16,0.19,0.39,1721206866915
3.14,1.19,10.20,0.08,0.18,0.26,1721206866925
2.43,0.49,14.09,0.01,-0.07,-0.14,1721206866935
-0.51,2.29,8.37,0.06,-0.13,-0.26,1721206866945
-0.84,-1.83,2.32,0.13,0.05,-0.01,1721206866955
-0.46,-1.53,7.06,0.05,0.14,0.16,1721206866965
1.51,-1.14,10.80,-0.01,-0.03,0.14,1721206866975
0.64,-0.68,18.49,-0.11,0.04,-0.07,1721206866985
1.12,0.89,12.97,0.16,-0.08,0.01,1721206866995
0.78,2.38,-1.13,0.19,-0.02,0.05,1721206867005
-0.06,1.60,5.39,0.08,0.16,-0.14,1721206867015
1.21,-2.46,23.17,-0.10,0.19,-0.35,1721206867025
-3.50,3.77,12.22,0.33,-0.33,-0.15,1721206867035
-1.24,3.31,-2.58,0.11,0.28,0.11,1721206867045
2.22,-3.81,14.85,-0.15,0.14,0.10,1721206867055
0.95,3.05,15.40,0.26,-0.12,-0.17,1721206867065
0.48,2.52,1.21,0.16,0.08,-0.29,1721206867075
-1.11,-1.55,10.33,-0.10,0.07,-0.16,1721206867085
-1.09,-2.83,18.13,-0.16,0.03,0.01,1721206867095
-0.05,4.80,14.63,0.05,0.05,-0.03,1721206867105
2.33,2.04,3.41,0.05,0.10,-0.11,1721206867115
1.17,-2.93,7.61,-0.09,0.06,-0.17,1721206867125
-0.07,0.11,12.55,0.02,0.16,-0.32,1721206867135
-1.46,2.78,11.01,0.07,0.05,-0.28,1721206867145
-2.36,4.31,9.49,0.07,0.09,-0.06,1721206867155
0.68,5.76,8.16,0.18,0.15,0.00,1721206867170
1.59,1.20,4.19,0.03,0.02,-0.13,1721206867174
2.16,-4.47,12.40,-0.28,0.26,-0.20,1721206867184
-0.24,3.80,14.03,0.05,-0.02,-0.26,1721206867194
-1.15,1.80,0.06,0.02,0.15,-0.38,1721206867204
-2.39,-5.77,11.95,-0.26,0.22,-0.05,1721206867214
-1.95,-1.95,17.44,0.08,0.03,0.15,1721206867224
3.19,3.62,7.74,0.06,0.24,0.01,1721206867234
3.62,1.22,11.96,-0.15,0.15,-0.24,1721206867244
-0.88,2.18,14.66,0.02,-0.03,-0.42,1721206867254
-0.69,-1.57,8.45,0.00,0.19,-0.22,1721206867264
-1.08,0.20,9.16,-0.01,0.20,-0.12,1721206867274
-2.00,-0.74,8.50,-0.02,0.13,-0.21,1721206867284
-0.75,3.38,10.33,0.07,0.16,-0.13,1721206867294
0.22,2.27,6.05,0.16,0.18,-0.04,1721206867304
-1.46,-1.86,5.00,0.05,0.08,-0.19,1721206867314
-0.09,-4.33,11.06,-0.08,0.25,-0.03,1721206867324
-0.62,1.12,16.56,-0.04,0.14,-0.06,1721206867334
0.16,-1.35,9.77,0.02,0.01,-0.05,1721206867344
-0.05,0.80,11.48,-0.04,0.23,-0.14,1721206867354
-0.34,5.60,15.88,0.10,0.11,-0.16,1721206867364
-0.62,0.46,10.76,0.03,0.08,-0.18,1721206867374
-2.32,-2.19,6.80,0.00,0.07,-0.06,1721206867384
-3.02,3.04,6.59,0.13,0.05,0.04,1721206867394
0.89,-3.21,7.27,0.08,0.22,0.10,1721206867404
0.14,-0.63,11.68,0.09,0.03,-0.04,1721206867414
-1.17,5.00,12.08,0.17,0.04,-0.11,1721206867424
-0.42,2.06,10.92,0.03,0.12,-0.09,1721206867434
-1.87,-1.02,11.46,-0.00,-0.02,0.07,1721206867444
-1.19,0.22,9.66,0.03,0.05,0.19,1721206867454
1.32,-1.21,8.18,0.12,0.09,0.11,1721206867464
2.49,-2.67,6.10,0.05,0.07,0.02,1721206867474
1.82,4.27,13.52,0.09,0.21,-0.12,1721206867484
1.58,1.86,9.11,0.11,-0.00,-0.15,1721206867494
-2.55,-1.45,8.32,-0.06,0.03,-0.19,1721206867504
-2.55,4.41,12.85,0.18,0.17,0.01,1721206867514
-0.27,-1.28,10.46,-0.11,0.19,0.17,1721206867524
-1.40,0.97,16.97,-0.05,-0.10,0.16,1721206867534
-0.21,2.59,6.90,0.13,-0.00,0.10,1721206867544
1.58,1.16,7.03,-0.00,0.12,0.13,1721206867554
0.78,1.47,12.18,0.07,0.01,-0.01,1721206867564
-0.03,-0.00,6.10,0.15,-0.04,-0.01,1721206867574
-0.07,-0.43,6.85,0.01,0.06,0.01,1721206867584
-1.79,3.43,13.99,-0.01,0.16,-0.09,1721206867594
-2.37,-1.71,8.86,-0.05,-0.09,-0.14,1721206867604
-2.60,-0.90,10.17,-0.07,0.07,0.18,1721206867614
0.04,-2.44,10.67,-0.12,0.17,0.20,1721206867624
-0.79,-0.96,10.81,-0.04,-0.07,0.05,1721206867634
0.67,1.12,1.00,0.08,-0.00,0.19,1721206867644
1.01,1.47,16.09,-0.09,0.36,0.00,1721206867654
-0.01,2.75,10.40,0.19,-0.32,-0.03,1721206867664
0.34,-5.49,3.65,-0.18,0.13,0.13,1721206867674
-2.04,1.69,12.85,-0.04,0.03,0.12,1721206867684
-0.26,-0.64,4.75,-0.02,-0.15,0.09,1721206867694
2.11,-2.13,20.66,-0.22,0.28,0.18,1721206867704
-0.31,7.32,10.13,0.23,-0.22,0.17,1721206867714
0.66,0.18,-4.02,-0.10,0.09,0.05,1721206867724
1.67,-7.67,19.71,-0.35,0.29,-0.07,1721206867734
-1.76,4.99,15.98,0.22,-0.28,0.11,1721206867744
-2.10,-2.98,-3.14,-0.04,0.01,0.20,1721206867754
0.35,-1.99,21.93,-0.09,0.35,0.18,1721206867764
1.82,4.98,13.23,0.28,-0.34,0.22,1721206867774
1.86,-0.78,7.26,-0.22,0.13,0.06,1721206867784
-0.60,7.90,15.93,0.21,-0.20,-0.05,1721206867794
-0.11,-3.89,-0.51,0.16,-0.14,0.13,1721206867804
-1.56,-4.30,9.35,0.00,0.15,0.03,1721206867814
0.53,2.24,15.58,0.17,-0.04,0.16,1721206867824
0.81,3.72,16.00,0.09,-0.06,0.30,1721206867834
2.19,6.15,6.80,0.42,-0.14,0.23,1721206867844
3.81,-0.92,2.18,0.09,0.05,-0.04,1721206867854
0.12,-2.07,21.88,-0.21,-0.16,-0.22,1721206867864
-4.00,2.72,11.42,0.35,-0.27,-0.09,1721206867874
-1.78,-5.30,-0.06,-0.10,0.09,0.30,1721206867884
0.08,-1.19,14.10,-0.14,-0.06,0.44,1721206867894
4.02,4.51,10.19,0.23,-0.08,0.17,1721206867904
4.83,2.74,7.16,0.10,0.06,-0.16,1721206867914
0.03,1.40,7.96,0.04,-0.19,-0.20,1721206867924
-0.75,-1.00,10.14,-0.17,0.03,-0.07,1721206867934
-0.40,2.90,14.77,-0.07,-0.03,-0.00,1721206867944
0.79,0.42,5.28,-0.19,-0.12,0.06,1721206867954
1.70,-6.12,12.25,-0.46,0.05,-0.09,1721206867964
0.07,1.70,14.47,-0.06,-0.12,-0.29,1721206867974
0.23,-1.48,1.27,-0.30,-0.04,-0.14,1721206867984
-3.29,-4.72,14.45,-0.43,-0.05,0.01,1721206867994
-1.12,1.38,14.10,0.04,-0.03,0.11,1721206868004
3.16,3.48,8.08,-0.16,0.06,0.17,1721206868014
1.89,4.50,15.16,-0.22,-0.08,-0.03,1721206868024
2.69,-6.47,8.36,-0.25,-0.13,-0.25,1721206868034
1.47,-4.03,11.77,-0.27,0.13,-0.29,1721206868044
-1.07,10.76,11.53,0.15,-0.07,-0.43,1721206868054
-1.73,4.73,5.65,0.20,-0.10,-0.22,1721206868064
-4.14,-6.56,3.73,-0.08,-0.07,-0.07,1721206868074
-0.28,-4.48,15.78,-0.14,0.29,0.04,1721206868084
2.44,5.90,12.84,0.02,-0.10,0.02,1721206868094
1.79,-0.57,13.81,-0.36,0.10,-0.29,1721206868104
0.45,4.82,18.50,0.06,-0.20,-0.34,1721206868114
-0.05,-8.02,6.59,-0.15,0.03,-0.19,1721206868124
-4.16,0.33,13.56,-0.08,-0.12,-0.18,1721206868134
1.26,6.76,12.07,0.22,0.14,-0.16,1721206868144
0.57,5.95,8.57,0.28,-0.06,-0.20,1721206868154
-3.49,-0.96,0.90,0.37,-0.25,-0.21,1721206868164
-0.60,-4.47,3.47,0.23,0.31,-0.08,1721206868174
0.24,-0.21,17.96,-0.07,0.15,-0.12,1721206868184
-0.38,8.39,18.38,0.18,-0.15,-0.29,1721206868194
-0.88,3.80,4.87,0.27,0.01,-0.26,1721206868204
-3.50,-2.83,2.31,0.22,-0.10,-0.03,1721206868214
-2.37,-10.19,9.16,-0.20,0.05,0.10,1721206868224
0.59,6.78,22.38,0.21,0.06,0.09,1721206868234
3.83,6.78,-3.09,0.52,-0.30,-0.02,1721206868244
1.88,-4.48,8.41,-0.11,0.35,-0.22,1721206868254
-0.10,6.00,21.67,0.33,-0.28,-0.14,1721206868264
0.63,-4.75,3.06,-0.01,0.04,-0.25,1721206868274
-4.13,7.83,20.54,0.04,0.01,-0.39,1721206868284
-2.13,3.56,0.27,0.44,-0.20,-0.11,1721206868294
-1.21,-3.62,3.77,-0.10,0.25,0.03,1721206868304
-1.56,5.73,12.24,0.27,-0.14,-0.00,1721206868314
0.69,-5.37,4.54,-0.13,0.11,-0.13,1721206868324
-2.98,5.87,21.31,-0.06,0.02,-0.22,1721206868334
-1.88,4.82,2.00,0.31,-0.15,0.01,1721206868344
1.06,-6.62,9.12,-0.44,0.27,0.09,1721206868354
0.67,1.47,20.85,0.02,-0.21,0.06,1721206868364
0.74,-1.69,-2.88,0.00,-0.10,-0.24,1721206868374
-0.77,-3.60,14.68,-0.32,0.32,-0.27,1721206868384
-1.28,5.46,16.71,0.28,-0.10,-0.15,1721206868394
0.19,6.45,-1.07,0.13,-0.02,-0.03,1721206868404
-0.80,-1.00,6.26,-0.22,0.07,-0.14,1721206868414
-1.40,-9.30,13.20,-0.39,0.06,-0.21,1721206868424
-3.90,2.56,19.10,-0.14,-0.10,-0.16,1721206868434
-2.56,2.09,-0.03,-0.06,-0.17,0.20,1721206868444
0.39,-9.74,10.18,-0.52,0.29,0.12,1721206868454
2.99,-0.08,17.19,0.02,-0.15,0.11,1721206868464
2.16,-0.12,-0.38,-0.26,-0.11,-0.13,1721206868474
-2.61,-1.87,19.46,-0.42,0.12,-0.36,1721206868484
-0.98,6.48,17.05,0.18,-0.06,-0.14,1721206868494
-1.36,-3.53,0.86,-0.20,-0.04,0.14,1721206868504
-2.49,0.89,17.45,-0.21,0.02,0.14,1721206868514
2.26,4.73,12.13,0.14,0.10,0.06,1721206868524
2.04,2.70,4.83,-0.01,-0.03,-0.04,1721206868534
0.22,3.42,8.87,0.12,0.02,-0.04,1721206868544
1.03,-2.34,7.69,0.01,0.10,-0.12,1721206868554
-0.65,-3.73,8.42,-0.11,-0.09,-0.12,1721206868564
-1.50,-3.68,12.25,-0.20,0.08,-0.04,1721206868574
-0.09,3.53,19.45,-0.05,0.05,0.03,1721206868584
1.31,4.17,6.62,0.20,-0.13,0.16,1721206868594
2.24,-5.99,13.36,-0.25,0.27,-0.11,1721206868604
-0.60,7.65,23.80,0.11,-0.13,-0.26,1721206868614
-1.55,4.29,-0.38,0.26,-0.12,-0.13,1721206868624
-0.41,-1.65,5.05,-0.02,0.29,0.05,1721206868634
1.23,2.62,13.23,0.26,0.01,0.08,1721206868644
2.11,0.32,5.38,0.15,0.05,-0.11,1721206868654
-0.08,2.68,8.94,0.17,-0.02,-0.22,1721206868664
-0.72,0.86,10.03,-0.02,0.16,-0.20,1721206868674
-1.45,3.62,18.16,-0.03,0.04,-0.04,1721206868684
-0.62,2.51,6.42,0.05,-0.06,0.11,1721206868694
1.21,-5.40,5.88,-0.20,0.22,-0.08,1721206868704
0.78,-2.51,15.76,-0.09,0.05,-0.20,1721206868714
-0.66,-1.16,11.94,-0.06,-0.07,-0.08,1721206868724
-1.23,3.70,6.46,0.15,0.06,-0.08,1721206868734
0.16,4.59,7.73,0.16,0.17,-0.11,1721206868744
-0.53,0.48,13.49,0.06,-0.01,-0.07,1721206868754
-0.92,3.39,9.23,0.06,-0.05,-0.04,1721206868764
1.09,-1.93,5.76,-0.20,0.18,-0.13,1721206868774
0.79,-2.48,19.78,-0.23,-0.01,-0.15,1721206868784
-0.94,7.84,6.93,0.36,-0.14,-0.23,1721206868794
-0.38,-8.20,-4.53,-0.15,0.09,-0.14,1721206868804
-3.70,-5.69,18.67,-0.19,0.02,-0.08,1721206868814
-0.94,3.92,10.12,0.22,-0.06,0.02,1721206868824
2.52,-0.66,6.32,-0.21,0.23,0.06,1721206868834
1.98,2.31,17.45,0.14,-0.03,0.16,1721206868844
3.20,-4.01,7.00,-0.01,0.13,-0.12,1721206868854
0.83,3.44,18.01,-0.04,0.01,-0.31,1721206868864
1.02,2.28,11.37,0.19,-0.00,-0.24,1721206868874
-2.17,1.63,8.56,0.04,0.08,-0.15,1721206868884
-2.03,3.67,5.71,0.31,-0.02,-0.07,1721206868894
1.24,-4.72,2.61,0.16,0.19,-0.09,1721206868904
0.08,-2.86,8.03,0.03,0.09,-0.19,1721206868914
0.65,-2.26,16.39,-0.11,0.22,-0.21,1721206868924
-0.53,8.51,15.65,0.24,0.04,-0.22,1721206868934
-1.04,5.34,1.89,0.24,0.02,-0.24,1721206868944
-0.55,-10.23,13.67,-0.25,0.26,-0.16,1721206868954
-1.31,-0.63,20.21,0.08,0.07,-0.10,1721206868964
-1.34,6.71,1.18,0.19,-0.00,-0.17,1721206868974
1.00,-0.78,8.97,0.04,0.32,-0.10,1721206868984
0.84,-0.87,8.20,0.26,-0.03,-0.03,1721206868994
-0.57,-1.75,4.29,-0.07,0.02,-0.15,1721206869004
-1.57,2.43,17.87,-0.02,0.18,-0.18,1721206869014
-0.42,4.15,7.97,0.24,0.02,-0.08,1721206869024
-0.23,0.30,6.25,-0.11,0.19,-0.02,1721206869034
-1.06,1.69,13.38,-0.01,-0.01,-0.02,1721206869044
1.11,-1.35,10.21,-0.06,0.19,-0.06,1721206869054
1.49,-0.17,13.23,-0.10,0.10,-0.11,1721206869064
0.15,0.70,7.51,-0.09,-0.03,-0.08,1721206869074
0.03,-0.03,11.34,-0.12,0.17,-0.09,1721206869084
-0.01,2.56,8.62,0.21,0.02,-0.02,1721206869094
-0.02,-1.23,4.65,-0.16,0.14,-0.11,1721206869104
-2.21,1.75,20.88,-0.22,-0.03,-0.11,1721206869114
-2.60,5.02,13.02,0.08,-0.08,0.01,1721206869124
-0.89,3.31,2.89,-0.08,0.17,0.04,1721206869134
0.36,-2.95,9.45,-0.26,0.09,0.08,1721206869144
-0.80,-1.85,14.08,-0.11,0.01,-0.02,1721206869154
-1.42,3.86,4.92,0.16,-0.10,-0.02,1721206869164
-3.28,-1.62,10.82,-0.16,0.23,0.05,1721206869179
-2.97,-0.15,17.32,-0.15,-0.17,0.12,1721206869183
-1.81,7.44,9.48,0.15,-0.01,0.13,1721206869193
2.47,-0.48,10.24,-0.23,0.17,0.06,1721206869203
-1.46,-9.39,14.17,-0.27,-0.30,0.15,1721206869213
-3.67,-1.52,15.07,-0.08,0.07,0.02,1721206869223
0.85,1.13,6.35,0.16,-0.04,0.25,1721206869233
0.83,1.72,7.52,0.07,-0.01,0.24,1721206869243
2.28,5.70,11.59,0.27,0.06,0.06,1721206869253
1.19,-0.14,5.41,0.10,-0.15,-0.05,1721206869263
-0.60,-2.19,6.49,0.05,0.10,-0.09,1721206869273
-0.84,-2.92,13.16,-0.08,0.08,-0.05,1721206869283
-2.02,1.23,11.18,0.08,-0.10,0.16,1721206869293
-1.67,-2.10,9.27,-0.13,0.03,0.15,1721206869303
2.34,1.78,15.52,0.07,0.04,0.05,1721206869313
2.95,5.35,4.52,0.07,-0.08,-0.09,1721206869323
0.69,0.70,14.11,-0.18,0.16,-0.25,1721206869333
-1.18,-0.49,11.79,0.09,-0.12,-0.23,1721206869343
-1.94,-7.07,1.51,-0.08,0.06,-0.03,1721206869353
-1.13,-7.01,20.52,-0.27,0.31,-0.04,1721206869363
-0.59,9.99,27.21,0.16,-0.22,0.08,1721206869373
0.53,11.07,2.22,0.41,-0.09,0.15,1721206869383
2.73,-2.78,0.11,0.15,0.20,-0.08,1721206869393
1.45,1.08,9.22,0.26,-0.00,-0.26,1721206869403
-0.34,2.06,3.60,0.16,0.03,-0.30,1721206869413
-3.00,-4.37,9.47,-0.08,0.00,-0.04,1721206869423
-1.85,-1.82,16.36,0.15,0.03,0.19,1721206869433
3.49,6.31,9.73,0.36,0.11,0.23,1721206869443
3.79,8.28,2.96,0.20,-0.00,-0.11,1721206869453
2.52,-2.42,10.17,-0.13,0.13,-0.37,1721206869463
-1.86,-4.88,17.46,-0.04,-0.04,-0.33,1721206869473
-3.79,2.91,5.23,0.20,-0.05,0.01,1721206869483
0.27,-2.50,10.03,-0.22,0.40,0.13,1721206869493
1.33,-0.81,26.23,0.10,0.03,0.06,1721206869503
0.60,6.16,3.62,0.29,-0.15,-0.14,1721206869513
0.86,0.48,5.05,-0.09,0.39,-0.21,1721206869523
0.56,0.06,8.28,0.08,-0.02,-0.10,1721206869533
-0.21,-0.24,7.84,-0.06,0.19,-0.08,1721206869543
0.29,2.51,14.64,0.09,0.19,-0.20,1721206869553
0.65,-2.36,4.35,-0.01,-0.06,-0.04,1721206869563
-0.77,-0.44,12.48,-0.24,0.19,-0.20,1721206869573
0.13,5.18,16.79,0.01,0.22,-0.26,1721206869583
-0.78,3.73,6.26,0.04,0.03,-0.11,1721206869593
-1.75,-4.58,5.09,-0.20,0.13,-0.08,1721206869603
-1.97,-5.28,9.15,-0.19,0.04,-0.06,1721206869613
0.96,-2.59,15.61,-0.23,0.30,0.05,1721206869623
0.89,2.09,15.34,0.00,0.07,-0.04,1721206869633
0.75,2.86,3.11,0.10,-0.02,-0.04,1721206869643
1.74,-3.93,10.23,-0.16,0.33,-0.11,1721206869653
0.29,0.29,15.44,-0.03,-0.05,-0.09,1721206869663
-0.35,6.72,7.89,-0.02,0.09,-0.14,1721206869673
-1.63,0.25,11.76,-0.15,0.11,-0.16,1721206869683
-1.64,-4.47,7.50,-0.06,-0.13,-0.03,1721206869693
-0.61,-1.33,7.51,-0.14,0.23,0.11,1721206869703
-0.55,-0.47,13.77,-0.15,0.11,-0.06,1721206869713
-0.53,-1.12,13.34,-0.03,-0.07,-0.00,1721206869723
-0.67,2.66,9.03,0.05,0.08,0.14,1721206869733
-1.49,5.16,8.82,0.09,-0.09,0.08,1721206869743
1.16,-4.26,13.31,-0.15,0.03,0.17,1721206869753
0.37,-1.63,18.61,-0.15,-0.08,0.04,1721206869763
-2.93,8.75,-5.81,0.44,-0.42,0.00,1721206869773
5.67,-3.82,11.84,-0.12,0.73,-0.06,1721206869783
-12.36,3.50,24.05,0.32,-0.82,0.05,1721206869793
2.53,7.39,-3.99,0.52,0.44,-0.26,1721206869803
1.30,-4.66,11.31,-0.09,0.06,-0.16,1721206869813
-6.50,0.34,15.85,0.01,-0.41,0.14,1721206869823
-1.63,6.47,4.87,0.34,0.14,0.30,1721206869833
3.91,-6.54,8.47,-0.17,0.11,0.25,1721206869843
1.61,-1.13,23.13,-0.00,0.02,-0.03,1721206869853
3.11,5.43,10.25,0.39,-0.17,-0.06,1721206869863
1.62,0.48,1.76,-0.03,-0.03,-0.03,1721206869873
-0.46,2.61,17.01,0.15,0.11,-0.18,1721206869883
-0.20,1.57,5.66,0.38,-0.14,-0.13,1721206869893
-2.26,1.86,3.42,0.08,0.13,-0.16,1721206869903
-2.41,-3.07,9.84,0.05,0.02,-0.02,1721206869913
-2.76,1.22,11.27,0.03,-0.01,0.05,1721206869923
-0.41,5.52,13.68,0.14,0.07,0.14,1721206869933
0.79,0.99,5.32,0.09,-0.09,0.14,1721206869943
1.08,-3.77,5.06,-0.13,0.05,-0.02,1721206869953
0.94,1.05,11.58,-0.09,0.01,-0.17,1721206869963
0.98,-1.28,10.93,-0.18,0.07,-0.11,1721206869973
-2.04,-3.32,14.46,-0.13,-0.14,0.00,1721206869983
-0.95,2.60,7.18,0.17,-0.08,0.22,1721206869993
3.95,1.38,5.56,-0.26,0.24,0.07,1721206870003
0.18,-4.60,19.88,-0.39,-0.12,-0.33,1721206870013
-3.61,0.27,11.68,-0.04,-0.21,-0.33,1721206870023
-3.51,0.84,2.78,-0.16,0.08,0.12,1721206870033
-1.55,1.12,12.04,-0.07,0.12,0.28,1721206870043
2.72,-3.92,6.50,0.01,0.01,0.21,1721206870053
3.22,0.10,11.69,-0.21,0.13,-0.15,1721206870063
-0.42,6.05,17.57,-0.10,-0.11,-0.33,1721206870073
-3.24,3.35,4.93,-0.07,-0.17,-0.09,1721206870083
-1.19,-2.72,7.62,-0.14,0.26,0.14,1721206870093
-0.35,-1.51,17.04,-0.18,0.04,-0.01,1721206870103
-0.77,2.35,13.97,-0.09,-0.16,0.06,1721206870113
0.48,2.76,8.77,-0.06,0.13,0.17,1721206870123
0.72,-0.62,11.93,-0.03,-0.02,0.16,1721206870133
2.09,4.23,9.00,0.14,-0.16,0.05,1721206870143
1.64,4.50,4.82,0.12,0.02,-0.09,1721206870153
-0.40,-1.90,10.35,-0.05,0.01,-0.11,1721206870163
-1.64,-3.16,11.69,-0.06,-0.14,-0.01,1721206870173
-1.52,3.64,12.47,0.06,0.06,0.13,1721206870183
2.49,1.50,8.45,0.05,-0.00,0.15,1721206870193
2.54,-1.09,11.23,0.03,-0.01,-0.02,1721206870203
1.13,1.39,13.82,0.07,0.02,-0.32,1721206870213
-2.44,1.66,6.58,0.18,-0.23,-0.09,1721206870223
-2.49,0.97,6.38,0.04,0.13,0.11,1721206870233
1.20,-1.04,16.32,-0.00,0.07,0.16,1721206870243
1.68,0.92,12.96,0.12,-0.20,0.07,1721206870253
2.52,3.43,7.36,0.06,0.02,-0.07,1721206870263
1.64,0.19,10.06,-0.01,-0.01,-0.23,1721206870273
-1.48,-1.93,14.42,-0.08,-0.04,-0.26,1721206870283
-2.71,3.67,12.58,0.12,-0.03,-0.14,1721206870293
-2.10,3.34,5.51,0.11,-0.02,0.08,1721206870303
-0.34,-6.35,7.61,-0.08,0.05,0.10,1721206870313
1.92,-1.34,14.52,0.08,0.12,0.01,1721206870323
1.32,17.15,14.58,0.30,-0.04,-0.14,1721206870333
0.85,3.46,3.44,0.17,-0.14,-0.16,1721206870343
0.24,-13.72,3.43,-0.19,0.09,-0.21,1721206870353
-0.24,2.56,21.99,-0.08,0.14,-0.18,1721206870363
0.38,10.50,8.92,0.19,-0.17,-0.22,1721206870373
1.87,-3.23,7.84,-0.08,0.22,-0.14,1721206870383
-1.13,-6.32,7.47,0.12,-0.14,-0.26,1721206870393
-4.07,1.77,1.98,0.08,0.03,-0.28,1721206870403
-0.00,0.20,16.38,-0.08,0.31,-0.01,1721206870413
0.95,2.48,16.36,0.10,-0.03,0.06,1721206870423
-0.64,0.77,1.09,0.11,-0.12,-0.12,1721206870433
3.88,-7.42,9.13,-0.29,0.39,-0.13,1721206870443
2.64,-1.49,22.39,-0.07,-0.06,-0.22,1721206870453
-1.35,5.38,3.73,0.11,-0.18,-0.42,1721206870463
-2.60,-7.80,4.64,-0.30,0.19,-0.38,1721206870473
-3.80,0.07,20.49,0.10,-0.01,-0.01,1721206870483
-2.89,5.31,-3.51,0.25,-0.15,0.09,1721206870493
1.51,-6.23,-0.94,-0.52,0.27,0.11,1721206870503
3.27,-5.42,35.51,-0.47,0.24,-0.22,1721206870513
-1.12,11.66,9.40,0.46,-0.50,-0.37,1721206870523
-0.64,-6.23,-14.96,-0.26,0.19,-0.21,1721206870533
-2.65,-13.28,24.94,-0.55,0.21,-0.05,1721206870543
-1.28,17.92,31.55,0.16,-0.16,0.07,1721206870553
-1.49,14.29,0.57,0.48,-0.24,-0.16,1721206870563
-1.59,-6.97,-1.87,0.03,0.12,-0.14,1721206870573
-4.07,-9.12,22.07,-0.08,0.43,0.01,1721206870583
0.26,4.66,18.46,0.08,-0.04,-0.00,1721206870593
0.88,5.24,9.72,0.14,-0.10,-0.20,1721206870603
-1.84,1.39,7.89,0.32,-0.06,-0.10,1721206870613
-0.89,1.35,11.22,0.24,0.17,0.02,1721206870623
