AccX,AccY,AccZ,GyrX,GyrY,GyrZ,Time
-1.60,-0.69,7.37,-0.16,0.12,-0.85,1721207084140
-7.29,1.01,11.41,-0.04,0.09,-0.64,1721207084145
-6.51,-2.70,13.21,0.02,0.01,-0.23,1721207084155
-5.17,0.23,10.72,0.07,-0.19,0.01,1721207084165
-1.71,-0.14,4.57,0.03,-0.10,-0.10,1721207084175
-0.81,0.21,7.15,-0.10,-0.04,-0.42,1721207084185
-1.87,1.07,15.05,0.08,-0.08,-0.48,1721207084195
-2.65,-1.32,10.34,0.02,-0.13,-0.30,1721207084205
-3.16,0.99,10.01,0.01,-0.15,-0.10,1721207084215
1.23,1.03,9.09,-0.00,0.03,-0.15,1721207084225
1.75,1.61,11.12,0.06,-0.14,-0.31,1721207084235
-1.42,-1.04,5.63,-0.08,-0.21,-0.49,1721207084245
-5.24,0.24,14.15,0.06,-0.07,-0.52,1721207084255
-6.34,0.24,11.16,0.13,-0.29,-0.25,1721207084265
-7.43,3.21,7.38,-0.03,-0.34,-0.08,1721207084275
4.66,-7.43,20.64,0.01,0.00,0.76,1721207084285
19.05,-1.11,9.52,-0.02,0.33,1.02,1721207084295
19.54,5.67,13.22,-0.13,0.57,-0.80,1721207084305
4.61,-1.28,5.44,-0.02,-0.83,-2.57,1721207084315
-20.13,-2.46,-6.89,0.25,-0.32,-2.56,1721207084325
-29.71,-0.90,3.79,-0.26,-0.11,-0.52,1721207084335
-26.24,-0.40,24.29,-0.01,0.02,1.28,1721207084345
-2.96,2.27,21.34,0.38,-0.06,2.17,1721207084355
15.51,5.60,4.72,0.00,-0.00,1.98,1721207084365
26.66,6.35,9.17,-0.02,0.87,0.51,1721207084375
22.62,2.65,10.72,-0.10,-0.62,-1.28,1721207084385
2.49,0.30,5.92,-0.03,-0.38,-2.15,1721207084395
-0.29,5.39,14.47,0.26,-0.23,-1.68,1721207084405
-8.02,-1.82,7.60,-0.30,0.03,-0.43,1721207084415
-8.28,0.96,15.12,0.13,0.05,0.08,1721207084425
2.03,1.00,7.96,0.16,0.28,-0.17,1721207084435
1.31,6.31,11.66,0.06,0.07,-0.45,1721207084445
-0.99,-0.44,11.00,-0.04,0.12,-0.52,1721207084455
-6.66,-2.47,11.17,0.00,-0.18,-0.20,1721207084465
-4.83,-0.47,7.98,0.16,0.18,0.14,1721207084475
4.45,-1.61,8.81,0.04,0.19,0.21,1721207084485
7.73,-2.86,12.00,0.03,0.06,-0.16,1721207084495
6.31,-3.79,9.08,0.08,0.19,-0.69,1721207084505
-0.87,-4.45,10.71,0.02,-0.07,-0.76,1721207084515
-5.60,-3.28,10.84,0.05,0.27,-0.50,1721207084525
-3.92,-3.69,13.47,-0.09,0.24,-0.23,1721207084535
-5.07,-5.58,11.74,-0.02,-0.14,-0.08,1721207084545
-5.59,-5.08,5.28,0.00,0.07,-0.15,1721207084555
-3.86,-3.95,11.71,-0.07,0.23,-0.17,1721207084565
-2.18,-0.99,14.48,-0.03,0.13,-0.12,1721207084575
-1.34,-2.67,7.04,-0.07,-0.06,-0.01,1721207084585
0.58,0.28,9.92,-0.08,0.21,-0.07,1721207084595
1.31,-1.98,8.16,-0.10,-0.05,-0.25,1721207084605
-2.07,0.58,14.24,-0.09,-0.01,-0.35,1721207084615
-2.52,-1.95,10.81,0.00,0.03,-0.19,1721207084625
-4.07,-1.48,7.73,-0.06,0.02,0.03,1721207084635
-2.09,1.53,10.11,-0.10,0.16,0.20,1721207084645
0.87,-0.85,11.29,-0.12,0.03,0.27,1721207084655
0.43,1.27,12.42,-0.02,-0.04,0.15,1721207084665
0.77,0.92,10.08,-0.03,0.01,0.11,1721207084675
-0.96,3.74,12.32,0.07,-0.02,0.23,1721207084685
0.19,0.40,8.17,-0.02,0.01,0.41,1721207084695
1.80,-0.91,11.17,-0.09,0.06,0.47,1721207084705
2.69,2.19,11.30,0.08,0.01,0.34,1721207084715
3.22,-0.41,7.88,-0.03,0.01,0.25,1721207084725
-1.02,1.81,10.03,0.02,-0.12,0.24,1721207084735
-1.17,-0.52,9.00,-0.02,0.07,0.36,1721207084745
-1.84,-1.22,11.79,-0.03,-0.08,0.56,1721207084755
0.94,0.17,8.59,0.04,0.03,0.65,1721207084765
4.86,-0.54,8.25,-0.13,0.16,0.47,1721207084775
4.41,0.43,13.07,-0.10,-0.02,0.25,1721207084785
3.79,1.58,11.21,0.04,0.10,0.14,1721207084795
1.81,-0.61,7.26,-0.13,-0.02,0.10,1721207084805
-0.49,0.24,11.82,-0.10,0.05,0.07,1721207084815
-0.02,-0.07,10.45,-0.04,0.07,0.17,1721207084825
-1.33,0.96,9.24,-0.14,-0.00,0.24,1721207084835
-1.13,0.98,8.76,-0.14,0.03,0.18,1721207084845
-0.23,-0.51,9.48,-0.20,0.10,0.12,1721207084855
-1.02,-0.15,13.07,-0.16,-0.01,0.17,1721207084865
-1.05,-0.19,10.47,-0.10,-0.02,0.26,1721207084875
0.23,0.02,10.56,-0.16,0.07,0.29,1721207084885
1.47,1.22,9.71,-0.11,-0.02,0.23,1721207084895
3.40,-1.59,8.83,-0.20,0.12,0.12,1721207084905
2.46,-0.14,11.87,-0.15,0.03,0.03,1721207084915
0.48,3.41,10.12,-0.08,0.03,-0.07,1721207084925
-0.41,0.62,10.31,-0.19,0.09,-0.10,1721207084935
-0.91,-1.70,10.66,-0.21,0.02,0.10,1721207084945
0.59,-0.73,9.55,-0.14,0.13,0.20,1721207084955
2.67,0.40,10.36,-0.12,0.10,0.12,1721207084965
2.56,1.47,11.80,-0.07,0.07,-0.09,1721207084975
1.14,1.11,11.70,-0.01,0.05,-0.19,1721207084985
0.17,-1.46,11.05,-0.06,0.12,-0.18,1721207084995
-1.09,-0.49,11.04,0.04,0.06,-0.11,1721207085005
-1.31,-3.08,7.74,0.05,0.10,-0.09,1721207085015
-0.64,-1.22,11.74,0.07,0.22,-0.09,1721207085025
-0.52,1.45,11.35,0.20,0.10,-0.14,1721207085035
-1.17,0.09,9.16,0.12,0.05,-0.10,1721207085045
-1.88,-2.39,11.50,0.05,0.14,-0.10,1721207085055
-3.37,-0.18,11.20,0.15,-0.00,-0.07,1721207085065
-3.09,-5.01,7.30,0.12,-0.01,0.03,1721207085075
-3.16,-4.19,8.87,0.17,0.13,0.11,1721207085085
-0.47,-1.88,10.21,0.23,0.18,0.10,1721207085095
0.58,2.79,12.35,0.19,0.09,0.05,1721207085105
-1.14,0.88,10.26,0.12,0.02,-0.08,1721207085115
-0.59,-0.13,10.03,0.09,0.01,-0.04,1721207085125
-2.50,-3.37,9.24,0.07,-0.14,0.14,1721207085135
-1.99,-1.93,9.96,0.12,0.03,0.15,1721207085145
0.57,-0.34,9.82,0.17,-0.03,0.13,1721207085155
0.41,-0.32,10.03,0.09,-0.09,0.09,1721207085165
-1.23,-2.50,9.12,-0.01,-0.06,-0.06,1721207085175
-0.96,-1.27,10.85,0.03,0.08,-0.14,1721207085185
-1.93,-1.68,11.21,0.01,-0.08,-0.04,1721207085195
-3.41,2.47,11.19,0.11,-0.09,0.02,1721207085205
-1.84,1.27,9.25,0.10,0.00,0.04,1721207085215
-1.50,-1.45,10.88,-0.01,-0.12,0.07,1721207085225
-1.73,0.80,10.16,0.13,-0.13,0.05,1721207085235
0.10,0.59,11.60,0.09,0.00,0.05,1721207085245
-0.36,1.98,10.59,0.22,-0.19,0.09,1721207085255
0.38,1.54,6.55,0.17,-0.10,0.12,1721207085265
1.56,-0.42,6.96,-0.00,-0.12,0.13,1721207085275
3.07,0.02,13.08,-0.08,0.05,-0.00,1721207085285
1.31,0.99,10.68,0.10,-0.21,-0.14,1721207085295
-1.04,-1.72,8.56,-0.13,-0.06,-0.16,1721207085305
-3.09,1.77,13.13,0.03,-0.14,0.12,1721207085315
0.16,0.06,7.25,-0.09,0.01,0.30,1721207085325
1.45,1.30,11.52,-0.15,-0.06,0.20,1721207085335
1.58,-1.72,9.05,-0.09,-0.12,0.02,1721207085345
-0.07,-0.07,12.38,-0.05,-0.02,-0.03,1721207085355
-1.13,1.17,10.70,0.04,-0.07,0.05,1721207085365
-0.90,0.26,11.31,-0.11,-0.05,0.14,1721207085375
-0.66,2.43,11.26,0.03,-0.11,0.14,1721207085385
1.63,-1.60,8.60,-0.15,0.02,0.09,1721207085395
-0.41,0.84,10.63,-0.06,-0.16,0.05,1721207085405
0.39,-2.92,8.20,-0.14,-0.04,0.01,1721207085415
-1.49,0.77,9.85,-0.01,-0.14,0.01,1721207085425
0.89,-0.95,6.79,-0.10,0.01,0.11,1721207085435
0.79,0.30,10.86,-0.16,-0.10,0.09,1721207085445
1.34,-0.01,9.07,-0.12,-0.04,-0.10,1721207085455
0.86,-3.34,10.71,-0.28,-0.02,-0.22,1721207085465
-2.21,-0.87,12.29,-0.22,-0.10,-0.14,1721207085475
-2.22,-0.41,8.68,-0.20,-0.07,0.05,1721207085485
-0.46,-0.39,9.36,-0.31,0.04,0.15,1721207085495
0.90,-1.72,11.24,-0.33,-0.02,0.07,1721207085505
0.49,-0.13,11.06,-0.24,-0.08,-0.08,1721207085515
1.57,-2.16,10.49,-0.24,0.01,-0.17,1721207085525
-0.98,3.22,12.06,-0.13,-0.09,-0.19,1721207085535
-0.88,-3.19,7.17,-0.04,-0.15,-0.01,1721207085545
-2.17,-2.20,9.79,-0.07,0.02,-0.03,1721207085555
-0.28,6.22,15.07,0.07,0.05,-0.06,1721207085565
0.26,4.08,11.61,0.17,-0.15,0.03,1721207085575
0.20,0.57,8.18,-0.01,-0.03,-0.02,1721207085585
-0.24,-3.14,10.91,-0.01,-0.14,0.02,1721207085595
0.48,-1.16,10.65,0.07,0.04,0.03,1721207085605
1.88,1.32,11.11,0.09,-0.06,0.05,1721207085615
1.71,0.77,10.88,0.18,-0.04,-0.01,1721207085625
3.23,-1.39,11.64,0.12,0.05,-0.04,1721207085635
-0.75,-1.97,11.07,0.09,-0.13,-0.19,1721207085645
-2.76,1.96,12.35,0.27,-0.09,-0.14,1721207085655
-0.78,0.44,8.53,0.28,-0.05,0.05,1721207085665
0.47,-1.73,9.59,0.17,0.05,0.16,1721207085675
0.95,0.26,10.96,0.29,-0.02,0.13,1721207085685
2.23,-0.24,8.79,0.21,0.07,-0.02,1721207085695
2.46,1.59,11.19,0.22,-0.02,-0.09,1721207085705
2.23,2.93,9.90,0.29,0.06,-0.11,1721207085715
1.47,-0.85,9.65,0.19,0.01,-0.14,1721207085725
-0.05,0.50,10.07,0.21,0.01,-0.20,1721207085735
-0.97,-2.33,10.00,0.12,0.02,-0.21,1721207085745
-3.03,2.44,13.42,0.23,0.04,-0.12,1721207085755
-1.45,0.39,6.30,0.25,0.04,0.15,1721207085765
0.94,-0.51,8.44,0.07,0.18,0.16,1721207085775
3.01,-1.24,11.82,0.09,0.03,0.00,1721207085785
1.48,0.70,9.72,0.08,0.01,-0.19,1721207085795
0.06,0.59,8.88,0.05,0.04,-0.16,1721207085805
-0.87,-0.18,8.86,-0.01,0.07,-0.09,1721207085815
-0.32,-0.94,8.99,-0.01,0.07,-0.05,1721207085825
0.50,-2.26,9.95,-0.10,0.09,-0.16,1721207085835
-1.58,-0.05,11.96,-0.02,-0.03,-0.27,1721207085845
-2.96,0.50,9.94,0.00,0.02,-0.23,1721207085855
-3.54,2.22,9.42,0.02,-0.04,-0.02,1721207085865
-2.07,0.51,1.34,-0.06,-0.08,0.16,1721207085875
2.14,-4.70,13.24,-0.51,0.31,0.06,1721207085885
0.58,4.58,18.74,-0.01,-0.21,-0.04,1721207085895
2.24,-3.43,8.90,-0.26,0.05,-0.17,1721207085905
-1.55,2.65,13.73,-0.17,-0.19,-0.02,1721207085915
0.99,-1.86,4.15,-0.21,0.01,0.16,1721207085925
3.14,-3.19,13.65,-0.47,0.19,0.09,1721207085935
3.49,4.44,14.13,-0.07,-0.08,-0.12,1721207085945
3.22,-0.34,5.03,-0.14,0.00,-0.32,1721207085955
-1.17,-0.60,10.97,-0.22,0.09,-0.34,1721207085965
-0.68,0.91,9.95,0.00,0.04,-0.15,1721207085975
0.90,-1.85,10.61,-0.19,0.18,-0.03,1721207085985
1.45,2.99,12.94,0.02,0.09,-0.17,1721207085995
1.32,3.88,9.15,0.14,0.03,-0.33,1721207086005
-0.89,-2.24,4.67,-0.05,0.04,-0.32,1721207086015
-0.22,-0.72,13.72,-0.06,0.39,-0.33,1721207086025
-0.03,3.22,12.77,0.16,-0.04,-0.20,1721207086035
0.26,-1.61,8.53,-0.04,0.17,-0.17,1721207086045
-0.45,1.30,13.41,0.15,0.12,-0.21,1721207086055
0.80,-2.75,7.61,0.05,0.15,-0.30,1721207086065
-0.47,-4.54,11.45,-0.09,0.20,-0.34,1721207086075
-0.64,2.81,16.10,0.23,0.17,-0.34,1721207086085
-0.40,0.56,6.96,0.19,0.09,-0.28,1721207086095
-3.09,0.78,10.77,0.08,0.16,-0.27,1721207086105
-2.58,-1.40,7.84,0.25,0.00,-0.19,1721207086115
-0.16,-4.48,9.23,-0.00,0.32,-0.21,1721207086125
-1.21,1.24,13.66,0.17,0.04,-0.32,1721207086135
-2.68,1.43,6.51,0.13,0.18,-0.27,1721207086150
-4.48,-0.51,5.71,0.01,0.04,-0.20,1721207086154
-1.57,-2.16,12.21,0.03,0.31,-0.13,1721207086164
-0.43,0.70,11.69,0.13,-0.02,-0.10,1721207086174
-0.79,0.91,9.84,-0.01,0.14,-0.27,1721207086184
-2.17,1.24,11.11,0.15,-0.06,-0.26,1721207086194
-2.18,-2.45,8.63,0.04,0.01,-0.13,1721207086204
-1.69,-0.10,13.30,0.08,0.09,0.01,1721207086214
-0.53,4.29,11.30,0.26,-0.02,-0.02,1721207086224
0.34,1.75,8.12,0.17,0.01,-0.07,1721207086234
0.21,2.00,11.29,0.18,0.07,-0.09,1721207086244
0.73,0.75,8.50,0.15,-0.02,-0.11,1721207086254
-0.51,1.49,10.69,0.04,0.04,-0.18,1721207086264
-1.64,0.50,8.96,0.12,-0.07,-0.16,1721207086274
-1.19,0.34,7.91,0.09,0.03,-0.01,1721207086284
-0.48,-1.38,7.92,-0.02,-0.01,0.02,1721207086294
-1.03,2.01,12.24,0.02,0.03,-0.12,1721207086304
-1.52,-1.07,9.88,-0.01,-0.06,-0.08,1721207086314
-1.92,0.85,11.11,-0.05,0.03,0.01,1721207086324
0.13,0.24,9.48,-0.06,-0.06,0.15,1721207086334
-0.25,1.19,10.91,-0.16,0.02,0.03,1721207086344
-0.52,0.87,12.94,-0.13,-0.07,-0.08,1721207086354
-1.76,-1.26,7.51,-0.17,-0.17,-0.03,1721207086364
-1.98,-3.97,10.04,-0.27,0.03,0.09,1721207086374
0.51,-1.23,11.64,-0.15,0.03,0.20,1721207086384
1.28,-1.72,10.30,-0.24,-0.09,0.06,1721207086394
-1.75,1.19,10.39,-0.10,-0.09,-0.13,1721207086404
-2.23,1.41,5.73,-0.07,-0.06,-0.09,1721207086414
-2.49,-4.70,11.15,-0.34,-0.09,0.19,1721207086424
-1.21,2.66,12.41,-0.09,-0.06,0.37,1721207086434
2.88,-6.59,7.08,-0.27,-0.13,0.27,1721207086444
0.32,4.18,12.10,-0.07,-0.11,-0.07,1721207086454
1.27,2.65,6.81,0.12,-0.28,-0.10,1721207086464
0.58,-5.10,6.51,-0.24,-0.07,0.07,1721207086474
-2.30,3.25,15.40,-0.04,-0.11,0.19,1721207086484
2.60,-6.34,13.62,-0.24,-0.01,0.16,1721207086494
-1.19,5.32,11.06,0.05,-0.23,-0.01,1721207086504
4.40,-0.91,7.56,-0.04,0.16,-0.16,1721207086514
-2.58,1.19,12.09,0.12,-0.38,-0.19,1721207086524
-1.06,-5.28,4.89,0.17,0.09,0.00,1721207086534
1.65,1.23,14.29,0.12,0.18,0.24,1721207086544
1.98,-0.30,10.36,0.15,-0.37,0.26,1721207086554
4.25,6.30,13.12,0.20,0.27,-0.06,1721207086564
3.66,-0.44,8.64,0.18,-0.28,-0.28,1721207086574
1.24,-3.06,8.80,0.02,0.23,-0.48,1721207086584
-1.15,0.51,15.03,0.25,-0.10,-0.33,1721207086594
-3.28,-5.50,5.67,0.08,-0.06,-0.08,1721207086604
-2.54,4.93,16.87,0.26,0.15,0.07,1721207086614
2.95,4.35,8.12,0.42,0.02,0.11,1721207086624
5.58,2.30,9.97,0.12,0.27,-0.14,1721207086634
3.50,-2.01,11.62,0.14,-0.05,-0.44,1721207086644
-1.27,-2.62,8.10,0.11,0.04,-0.56,1721207086654
-2.78,3.12,12.45,0.28,0.14,-0.33,1721207086664
-1.02,0.69,5.23,0.28,0.08,-0.07,1721207086674
0.99,-0.22,8.37,0.07,0.24,-0.12,1721207086684
2.13,1.24,13.14,0.11,0.10,-0.33,1721207086694
1.25,-0.39,11.18,0.02,0.12,-0.45,1721207086704
-1.73,1.94,12.45,0.13,0.07,-0.40,1721207086714
-0.99,1.24,5.77,0.11,0.21,-0.28,1721207086724
-1.37,1.16,4.97,-0.06,0.10,-0.31,1721207086734
-0.08,-1.42,12.47,-0.19,0.30,-0.34,1721207086744
-0.71,-0.53,14.72,-0.05,0.15,-0.35,1721207086754
-1.75,-2.19,9.25,-0.08,0.10,-0.29,1721207086764
-0.87,2.17,10.98,0.01,0.19,-0.25,1721207086774
0.61,-0.13,6.65,-0.05,0.10,-0.23,1721207086784
-0.45,-0.08,11.40,-0.20,0.16,-0.36,1721207086794
0.03,-0.04,11.06,-0.01,0.12,-0.34,1721207086804
0.82,-0.58,9.16,-0.15,0.25,-0.35,1721207086814
-1.64,2.64,11.19,-0.05,0.06,-0.33,1721207086824
-2.52,0.08,5.09,-0.16,0.13,-0.33,1721207086834
-0.92,-3.25,15.27,-0.25,0.38,-0.20,1721207086844
1.04,-0.16,12.27,-0.01,0.03,-0.11,1721207086854
2.15,-0.87,8.28,-0.18,0.34,-0.24,1721207086864
-0.06,0.20,12.40,-0.05,0.10,-0.47,1721207086874
-3.60,4.59,4.18,0.25,0.06,-0.38,1721207086884
-2.01,-6.27,5.04,-0.27,0.23,-0.14,1721207086894
-3.76,2.17,18.48,-0.07,0.04,0.08,1721207086904
1.98,-1.25,12.68,-0.04,0.17,-0.09,1721207086914
-0.57,2.67,14.66,-0.06,0.10,-0.25,1721207086924
-2.88,-3.56,4.87,-0.01,0.03,-0.16,1721207086934
-2.45,-3.54,7.57,-0.16,0.30,0.03,1721207086944
-0.73,1.29,12.22,0.10,0.04,0.15,1721207086954
2.52,0.41,9.74,0.01,0.08,0.05,1721207086964
-1.38,-0.80,10.44,-0.01,-0.05,-0.12,1721207086974
-1.09,2.00,9.29,0.10,0.27,-0.09,1721207086984
-1.35,-5.39,8.93,-0.14,-0.09,0.12,1721207086994
-3.15,3.89,11.48,0.16,0.05,0.09,1721207087004
3.82,-1.28,13.30,0.02,0.23,0.04,1721207087014
-0.82,1.05,12.00,0.04,-0.29,0.01,1721207087024
-1.99,3.65,7.08,0.15,0.22,-0.14,1721207087034
0.47,1.22,11.79,0.02,0.05,-0.12,1721207087044
-4.45,1.89,8.63,0.19,-0.32,0.05,1721207087054
-2.85,1.09,7.80,0.16,0.20,0.06,1721207087064
-0.35,2.03,11.98,0.10,-0.04,0.12,1721207087074
1.44,3.63,8.68,0.15,-0.02,0.13,1721207087084
3.33,-0.68,11.70,-0.06,0.08,-0.05,1721207087094
-0.10,1.07,14.98,0.19,-0.17,-0.13,1721207087104
0.15,-1.58,10.98,0.03,0.15,-0.16,1721207087114
-3.52,7.10,14.85,0.18,-0.21,-0.11,1721207087124
-2.16,2.64,3.64,0.11,-0.06,0.07,1721207087134
-0.87,-2.34,11.39,-0.08,0.08,0.14,1721207087144
-0.45,-0.74,9.88,0.17,-0.12,0.13,1721207087154
0.54,-0.34,10.25,-0.06,0.12,-0.01,1721207087164
-1.15,4.11,13.29,0.11,-0.16,-0.01,1721207087174
-0.48,-0.10,4.24,0.01,-0.06,0.06,1721207087184
0.69,-1.21,12.25,-0.13,0.12,0.14,1721207087194
1.74,-3.38,14.28,-0.20,-0.14,0.14,1721207087204
0.06,3.39,14.76,0.04,0.04,-0.12,1721207087214
-0.33,-5.25,6.09,-0.14,-0.15,-0.12,1721207087224
-3.06,5.06,6.45,0.17,0.02,0.13,1721207087234
2.54,-6.79,-0.05,-0.28,0.08,0.21,1721207087244
-0.87,-1.41,18.74,-0.23,-0.09,0.06,1721207087254
3.24,1.05,18.50,0.24,0.10,-0.05,1721207087264
1.38,-1.65,8.51,-0.27,-0.17,-0.09,1721207087274
-4.67,5.00,6.24,-0.11,-0.16,-0.04,1721207087284
1.11,-7.92,8.04,-0.31,0.23,0.09,1721207087294
-1.49,-2.57,14.71,-0.15,-0.17,0.05,1721207087304
4.76,-0.89,8.64,0.03,0.26,-0.03,1721207087314
1.53,2.90,9.77,-0.21,-0.10,-0.19,1721207087324
-2.89,0.94,5.65,-0.15,-0.10,-0.30,1721207087334
2.26,-5.76,13.72,-0.27,0.39,-0.24,1721207087344
-0.07,-6.73,15.33,-0.12,-0.29,0.06,1721207087354
-1.54,3.41,9.69,-0.02,0.24,-0.19,1721207087364
1.17,4.91,13.97,-0.00,0.16,-0.36,1721207087374
-0.96,0.74,8.81,0.09,-0.07,-0.17,1721207087384
1.14,-6.20,6.93,-0.00,0.25,0.00,1721207087394
-1.17,5.21,14.89,0.18,0.18,-0.14,1721207087404
-0.14,3.39,9.79,0.21,0.04,-0.20,1721207087414
0.84,2.28,9.04,0.17,0.16,-0.15,1721207087424
1.78,-0.78,8.83,0.19,0.17,-0.12,1721207087434
0.60,1.63,9.07,0.19,0.16,-0.17,1721207087444
0.85,-0.16,12.38,0.17,0.14,-0.20,1721207087454
0.20,3.75,12.18,0.29,0.08,-0.24,1721207087464
-1.75,1.77,8.32,0.28,0.07,-0.25,1721207087474
-1.59,0.89,9.11,0.25,0.21,-0.03,1721207087484
1.15,-2.66,10.10,0.11,0.21,0.10,1721207087494
2.56,5.77,10.92,0.28,0.31,-0.09,1721207087504
2.84,-0.54,5.63,0.09,0.12,-0.24,1721207087514
0.16,-0.99,9.34,-0.06,0.31,-0.33,1721207087524
-0.44,0.31,14.20,0.04,0.22,-0.30,1721207087534
-1.82,0.33,9.83,0.02,0.11,-0.18,1721207087544
-3.42,0.29,9.18,0.01,0.22,-0.13,1721207087554
-0.46,-0.78,8.40,-0.03,0.30,-0.09,1721207087564
-0.66,0.52,12.75,-0.07,0.16,-0.08,1721207087574
-1.01,0.64,13.23,-0.08,0.20,-0.17,1721207087584
-1.43,3.70,10.82,0.12,0.17,-0.12,1721207087594
0.82,-4.57,6.96,-0.26,0.27,-0.03,1721207087604
-2.90,2.31,10.20,-0.00,0.00,-0.06,1721207087614
3.51,-3.56,5.13,-0.06,0.45,-0.16,1721207087624
0.91,-0.80,14.60,-0.10,0.15,-0.23,1721207087634
-2.55,2.50,6.59,0.24,0.09,-0.30,1721207087644
-3.72,-4.24,5.33,-0.27,0.20,-0.13,1721207087654
-4.03,1.90,14.24,-0.03,0.14,0.00,1721207087664
2.17,-1.55,10.98,-0.07,0.21,0.06,1721207087674
-1.55,-2.10,10.12,-0.13,0.01,-0.14,1721207087684
-3.12,-5.77,6.93,-0.14,0.20,-0.13,1721207087694
-2.68,-0.26,9.59,-0.08,0.20,-0.04,1721207087704
-0.80,-1.15,11.30,-0.08,0.15,0.14,1721207087714
-0.30,-0.20,11.77,-0.08,0.13,0.20,1721207087724
-0.32,-0.17,11.26,-0.12,0.16,0.11,1721207087734
1.38,0.95,11.70,-0.10,0.04,0.13,1721207087744
0.11,-5.35,10.12,-0.27,0.04,0.15,1721207087754
-0.39,6.42,17.14,0.05,0.18,-0.00,1721207087764
-0.53,-2.89,9.71,0.01,-0.15,0.06,1721207087774
-4.43,4.23,9.82,0.07,0.09,0.12,1721207087784
-0.37,-1.81,10.18,0.04,0.10,0.28,1721207087794
0.03,4.97,15.67,0.04,0.04,0.28,1721207087804
0.20,4.93,6.40,0.30,-0.06,0.12,1721207087814
-0.83,-2.15,6.42,0.00,-0.00,0.08,1721207087824
-3.17,1.70,12.23,0.22,-0.11,0.21,1721207087834
1.04,1.31,12.76,0.14,0.26,0.20,1721207087844
-0.64,1.73,10.42,0.23,-0.30,0.22,1721207087854
-0.10,1.66,7.75,0.26,0.14,0.22,1721207087864
0.34,3.77,5.20,0.37,-0.06,0.22,1721207087874
2.17,1.00,7.94,0.03,0.11,0.15,1721207087884
-0.52,-1.29,11.47,-0.02,-0.23,0.01,1721207087894
-2.56,-0.46,11.58,0.00,0.02,-0.13,1721207087904
-4.36,0.47,9.86,-0.01,-0.12,0.08,1721207087914
-5.70,-3.73,9.97,-0.29,-0.14,0.42,1721207087924
-2.23,3.13,19.64,0.13,0.05,0.62,1721207087934
3.09,-2.66,1.47,0.01,-0.28,0.58,1721207087944
1.64,4.57,2.63,-0.15,-0.05,0.23,1721207087954
5.79,-3.63,11.64,-0.30,0.06,0.17,1721207087964
-0.74,0.24,16.08,-0.11,-0.38,0.08,1721207087974
-1.14,-0.37,8.09,-0.07,-0.05,0.11,1721207087984
-3.55,-0.58,8.58,-0.24,-0.31,0.33,1721207087994
-2.93,-0.40,10.42,-0.29,-0.10,0.51,1721207088004
-0.00,-2.64,8.89,-0.20,-0.25,0.47,1721207088014
0.95,-5.48,9.94,-0.24,-0.13,0.38,1721207088024
0.31,-0.97,9.03,-0.12,-0.31,0.34,1721207088034
-0.68,2.65,10.86,-0.20,-0.20,0.27,1721207088044
3.24,-3.41,14.02,-0.29,-0.10,0.44,1721207088054
1.60,-3.92,11.98,-0.23,-0.31,0.35,1721207088064
1.21,3.60,9.85,-0.06,-0.17,0.22,1721207088074
0.96,0.83,8.96,-0.15,-0.28,0.19,1721207088084
1.62,-0.29,11.34,-0.11,-0.13,0.27,1721207088094
2.06,-1.93,12.20,-0.08,-0.15,0.22,1721207088104
0.14,1.95,7.74,-0.04,-0.30,0.10,1721207088114
-0.68,-1.06,10.58,-0.04,-0.21,0.14,1721207088124
-0.61,0.16,11.48,0.01,-0.09,0.38,1721207088134
1.77,-1.24,6.60,0.05,-0.21,0.44,1721207088144
3.21,11.81,17.45,0.17,-0.14,0.18,1721207088159
3.14,8.43,15.30,0.23,-0.26,0.11,1721207088163
4.58,1.00,5.65,0.10,-0.07,-0.12,1721207088173
0.04,-4.24,12.55,0.02,-0.29,-0.26,1721207088183
-2.47,0.86,13.11,0.28,-0.08,-0.27,1721207088193
-2.79,1.47,9.72,0.26,-0.25,-0.04,1721207088203
-3.59,6.30,5.69,0.40,-0.19,0.18,1721207088213
2.36,-2.38,9.80,0.18,0.10,0.26,1721207088223
3.01,-1.08,13.95,0.17,-0.24,0.13,1721207088233
2.28,3.14,9.04,0.28,-0.12,-0.09,1721207088243
3.31,5.93,9.60,0.29,-0.04,-0.17,1721207088253
1.60,-0.02,2.10,0.12,-0.31,-0.02,1721207088263
1.31,-0.82,9.37,-0.05,0.20,-0.14,1721207088273
2.13,-3.44,17.54,0.03,-0.02,-0.27,1721207088283
-2.17,-0.09,11.20,0.06,-0.34,-0.20,1721207088293
-3.02,7.82,6.25,0.21,-0.02,-0.02,1721207088303
3.20,-0.43,6.83,-0.17,0.10,0.08,1721207088313
1.81,-4.62,13.62,-0.21,-0.20,0.01,1721207088323
1.80,-2.20,13.19,-0.06,0.08,-0.33,1721207088333
1.11,0.67,11.82,-0.07,-0.09,-0.36,1721207088343
-1.45,0.62,7.79,-0.08,-0.08,-0.18,1721207088353
-0.42,-2.11,7.46,-0.03,0.01,-0.08,1721207088363
0.13,0.10,8.99,0.07,-0.01,-0.18,1721207088373
2.57,-2.33,9.50,-0.11,0.10,-0.32,1721207088383
0.26,2.03,16.70,-0.10,0.03,-0.46,1721207088393
-1.03,2.62,9.20,0.01,-0.15,-0.48,1721207088403
-2.33,-4.21,6.80,-0.17,-0.03,-0.43,1721207088413
-1.40,-5.40,9.39,-0.16,0.03,-0.30,1721207088423
-0.49,-2.06,11.88,-0.07,0.12,-0.36,1721207088433
-0.45,-2.11,7.83,-0.10,-0.07,-0.42,1721207088443
-2.18,1.63,9.83,0.03,0.03,-0.49,1721207088453
-3.17,0.00,10.37,-0.00,-0.02,-0.34,1721207088463
-1.64,-0.40,14.84,-0.13,0.16,-0.22,1721207088473
0.76,-2.30,9.33,-0.03,-0.11,-0.06,1721207088483
1.96,-0.85,8.29,-0.15,0.14,-0.36,1721207088493
-0.22,-1.70,11.20,0.03,-0.11,-0.62,1721207088503
-2.20,1.07,12.50,0.06,0.19,-0.60,1721207088513
-3.75,3.23,8.36,0.29,-0.15,-0.28,1721207088523
-2.01,-1.97,6.37,-0.08,0.15,-0.14,1721207088533
-2.71,6.01,18.84,0.17,0.00,-0.35,1721207088543
0.52,3.01,11.15,0.22,0.00,-0.47,1721207088553
-3.43,-1.58,8.96,0.04,-0.15,-0.31,1721207088563
-4.18,0.80,10.59,0.23,-0.00,-0.17,1721207088573
1.46,3.73,10.25,0.28,0.08,-0.07,1721207088583
1.90,5.04,4.93,0.35,-0.08,-0.19,1721207088593
3.99,-1.00,4.97,0.16,0.14,-0.46,1721207088603
0.40,-4.27,9.83,0.08,-0.07,-0.55,1721207088613
-2.77,1.11,13.33,0.07,0.16,-0.58,1721207088623
-4.27,2.98,13.21,0.07,-0.05,-0.46,1721207088633
-4.90,0.54,13.02,0.09,0.02,-0.09,1721207088643
-2.27,-1.20,10.82,0.08,0.04,0.17,1721207088653
1.32,2.27,7.88,0.05,0.00,0.10,1721207088663
4.00,4.02,10.49,0.02,0.13,-0.26,1721207088673
1.44,0.70,5.53,0.03,-0.17,-0.42,1721207088683
-1.17,0.67,8.30,-0.02,0.14,-0.30,1721207088693
-0.40,-3.11,11.22,-0.10,0.12,-0.18,1721207088703
-2.26,-1.14,13.99,-0.16,-0.09,-0.22,1721207088713
-0.78,1.41,10.82,-0.07,0.06,-0.20,1721207088723
-1.00,-1.73,10.03,-0.09,0.05,-0.06,1721207088733
-3.35,-3.25,6.79,-0.11,-0.06,-0.11,1721207088743
-0.34,-2.85,8.62,-0.09,0.13,-0.09,1721207088753
1.85,-0.18,12.96,-0.01,0.09,-0.04,1721207088763
0.77,0.75,10.18,-0.12,-0.03,-0.12,1721207088773
-0.75,-2.96,11.77,-0.11,-0.09,-0.06,1721207088783
0.79,-0.61,10.48,-0.06,0.29,-0.11,1721207088793
2.13,-2.71,9.10,-0.09,-0.06,-0.22,1721207088803
-1.71,-1.21,9.19,-0.16,0.04,-0.29,1721207088813
-2.27,0.56,10.01,-0.04,0.16,-0.29,1721207088823
-1.11,0.55,12.26,0.01,0.11,-0.10,1721207088833
0.47,-0.81,6.49,-0.02,0.16,-0.01,1721207088843
0.57,0.63,10.13,-0.09,0.20,-0.16,1721207088853
0.69,2.94,14.47,-0.04,0.17,-0.28,1721207088863
-0.81,-1.50,10.30,0.01,-0.09,-0.21,1721207088873
-0.42,0.38,8.96,0.03,0.29,-0.12,1721207088883
2.64,-0.67,9.92,0.05,0.23,-0.15,1721207088893
0.98,3.61,10.61,0.12,0.08,-0.29,1721207088903
-0.40,2.63,8.14,0.17,0.11,-0.28,1721207088913
-1.87,0.45,11.32,0.06,0.22,-0.21,1721207088923
-1.55,-2.77,13.48,0.03,0.19,-0.11,1721207088933
-1.14,1.57,15.84,0.12,0.17,-0.10,1721207088943
0.74,6.00,10.59,0.19,0.16,0.06,1721207088953
2.26,1.84,7.29,0.11,0.20,0.05,1721207088963
2.47,1.08,7.68,0.15,0.22,-0.17,1721207088973
1.20,-0.78,4.94,0.06,0.11,-0.32,1721207088983
-1.48,1.76,11.38,-0.02,0.18,-0.25,1721207088993
-1.18,0.71,9.27,0.03,0.18,-0.05,1721207089003
-0.40,0.88,11.67,-0.02,0.18,0.02,1721207089013
1.37,0.05,10.03,0.04,0.20,-0.08,1721207089023
1.41,-1.14,11.86,-0.11,0.20,-0.20,1721207089033
-0.45,2.38,12.07,0.05,0.12,-0.26,1721207089043
-2.25,1.97,10.44,-0.10,0.22,-0.25,1721207089053
-2.70,-0.93,9.11,-0.06,0.10,-0.12,1721207089063
-0.39,-5.30,10.38,-0.20,0.22,0.06,1721207089073
0.36,-0.96,12.56,-0.06,0.10,0.04,1721207089083
1.48,-0.92,9.44,-0.07,0.17,-0.23,1721207089093
-0.96,-1.92,9.08,-0.03,0.08,-0.31,1721207089103
-1.95,-4.41,6.34,-0.06,0.18,-0.15,1721207089113
-1.91,2.81,14.99,-0.03,0.20,0.06,1721207089123
-0.33,1.15,8.89,0.01,-0.02,0.02,1721207089133
-0.99,-5.54,10.93,-0.24,0.07,-0.09,1721207089143
-1.16,-3.56,12.50,-0.04,0.19,-0.16,1721207089153
-1.19,3.47,10.62,0.04,0.06,-0.02,1721207089163
-1.80,3.58,7.38,-0.06,-0.06,0.07,1721207089173
-1.05,-2.60,8.60,0.06,0.11,0.10,1721207089183
0.83,-4.34,11.49,-0.07,0.14,0.06,1721207089193
0.01,4.84,10.45,0.15,-0.04,-0.06,1721207089203
0.06,4.28,11.16,0.07,0.13,-0.06,1721207089213
-1.50,1.54,10.11,0.16,-0.12,-0.05,1721207089223
-3.42,-2.92,5.09,0.12,-0.11,0.09,1721207089233
-1.19,4.21,13.53,0.13,0.27,0.07,1721207089243
-0.09,9.74,10.65,0.29,-0.22,0.10,1721207089253
0.66,1.30,8.27,0.05,0.15,0.06,1721207089263
0.29,-8.00,9.15,-0.00,-0.13,0.07,1721207089273
1.02,1.24,15.68,0.14,0.22,-0.03,1721207089283
1.70,4.85,12.76,0.25,-0.08,-0.07,1721207089293
-0.83,4.03,7.64,0.19,-0.07,-0.10,1721207089303
-1.49,0.10,6.29,0.24,0.01,-0.06,1721207089313
-0.79,-1.44,7.32,0.10,0.05,0.02,1721207089323
-0.97,6.93,13.13,0.16,0.07,0.04,1721207089333
-0.27,6.15,8.86,0.02,-0.04,-0.02,1721207089343
-1.92,-4.30,9.31,-0.12,-0.06,0.00,1721207089353
-0.71,-6.00,9.67,0.02,0.03,0.21,1721207089363
0.86,2.80,7.21,0.02,0.01,0.20,1721207089373
1.67,2.96,9.68,-0.11,-0.01,0.08,1721207089383
0.70,0.07,10.69,-0.10,-0.04,-0.08,1721207089393
1.13,-7.93,13.94,-0.18,0.10,-0.09,1721207089403
-2.58,-0.09,13.62,-0.09,-0.27,0.17,1721207089413
-5.13,8.80,2.07,-0.03,-0.17,0.27,1721207089423
1.30,-5.87,3.82,-0.30,0.22,0.30,1721207089433
2.68,-15.51,10.64,-0.47,-0.14,0.15,1721207089443
-1.40,0.45,12.96,-0.01,-0.09,-0.16,1721207089453
0.51,3.37,9.97,-0.17,0.05,0.01,1721207089463
0.87,2.97,15.83,-0.26,-0.02,0.25,1721207089473
1.14,-5.27,9.15,-0.19,-0.09,0.16,1721207089483
1.24,-4.08,12.45,-0.23,0.16,-0.05,1721207089493
0.32,4.26,7.97,-0.02,0.02,-0.20,1721207089503
-1.28,4.54,11.90,-0.18,0.01,-0.01,1721207089513
-1.07,-1.28,10.44,-0.09,-0.05,0.19,1721207089523
1.27,-4.31,10.69,-0.04,0.00,0.22,1721207089533
4.54,0.71,6.56,0.00,0.22,0.08,1721207089543
3.51,3.00,15.97,-0.11,0.10,-0.11,1721207089553
-0.68,4.11,12.84,0.15,-0.14,-0.14,1721207089563
-0.22,2.22,9.94,0.20,0.19,-0.13,1721207089573
0.74,0.10,5.07,0.27,0.02,0.05,1721207089583
1.48,1.45,8.88,0.03,0.28,-0.06,1721207089593
-0.09,2.04,16.79,0.11,0.00,-0.19,1721207089603
-1.20,3.75,10.00,0.26,0.06,-0.10,1721207089613
1.06,-0.98,4.97,0.22,0.17,0.11,1721207089623
3.39,1.23,10.04,0.02,0.29,-0.01,1721207089633
2.65,2.51,15.46,0.06,0.07,-0.35,1721207089643
-0.18,4.68,10.34,0.21,0.05,-0.46,1721207089653
-1.76,-0.45,5.49,0.11,0.15,-0.27,1721207089663
-3.72,-3.34,9.00,-0.01,0.09,-0.04,1721207089673
-2.59,4.13,12.30,0.16,0.17,-0.02,1721207089683
0.70,1.46,8.76,0.01,0.19,-0.06,1721207089693
-0.59,3.15,13.25,-0.02,0.10,-0.09,1721207089703
0.92,-0.81,9.66,-0.04,0.23,-0.07,1721207089713
1.23,0.57,11.99,-0.08,0.06,-0.09,1721207089723
1.14,-0.94,11.51,-0.08,0.12,-0.23,1721207089733
-0.12,-1.98,10.61,0.03,0.12,-0.39,1721207089743
-1.34,-4.26,6.94,0.06,0.04,-0.30,1721207089753
-2.61,-1.96,7.12,0.02,0.18,-0.25,1721207089763
-2.92,-2.91,10.19,0.00,0.06,-0.13,1721207089773
-2.04,-0.98,11.67,0.04,0.14,-0.14,1721207089783
-1.98,-1.86,11.54,0.02,0.09,-0.19,1721207089793
-2.73,-2.16,10.86,-0.06,0.03,-0.13,1721207089803
-3.24,-7.15,5.62,-0.00,0.02,0.06,1721207089813
-0.96,-5.25,11.59,-0.10,0.20,0.26,1721207089823
1.01,1.69,11.75,0.13,-0.12,0.23,1721207089833
0.03,3.31,10.99,0.12,-0.07,0.05,1721207089843
0.85,-0.24,8.40,-0.17,0.09,-0.14,1721207089853
-1.07,-4.21,12.36,-0.25,0.02,0.05,1721207089863
-0.58,2.57,12.87,-0.02,0.05,0.09,1721207089873
-0.22,3.19,6.66,0.10,-0.12,0.12,1721207089883
-2.63,-0.79,2.74,0.07,-0.19,0.17,1721207089893
0.89,1.06,11.45,-0.04,0.26,0.22,1721207089903
2.10,4.71,18.44,0.01,-0.05,0.04,1721207089913
-0.85,6.39,8.83,0.22,-0.25,-0.22,1721207089923
-2.35,-3.47,6.72,0.05,0.05,-0.11,1721207089933
-4.21,4.91,14.99,0.23,-0.03,0.24,1721207089943
1.55,5.67,9.67,0.21,0.03,0.33,1721207089953
2.95,4.91,8.24,0.05,-0.12,0.07,1721207089963
2.51,0.63,8.38,-0.03,-0.04,-0.21,1721207089973
-1.21,1.78,10.20,0.01,-0.04,-0.33,1721207089983
-7.21,-0.98,10.13,0.09,-0.24,-0.23,1721207089993
-6.73,-0.06,8.41,0.17,0.03,0.27,1721207090003
-1.85,2.36,4.52,0.14,-0.28,0.64,1721207090013
6.33,1.70,12.61,-0.00,0.24,0.78,1721207090023
11.87,-2.28,12.20,0.04,-0.06,0.45,1721207090033
11.67,0.29,3.41,-0.04,-0.02,-0.52,1721207090043
2.80,-5.17,12.11,-0.52,0.05,-1.21,1721207090053
-11.72,-6.90,21.85,-0.02,-0.62,-0.76,1721207090063
-17.44,-2.28,7.15,0.20,0.07,0.29,1721207090073
-0.78,-0.10,10.30,0.10,0.37,1.62,1721207090083
6.18,8.43,1.18,0.08,0.24,0.93,1721207090093
17.34,2.79,17.14,-0.30,0.35,-0.01,1721207090103
6.80,-1.87,15.24,0.02,-0.64,-0.72,1721207090113
-1.91,-5.35,-0.42,0.03,-0.04,-0.97,1721207090123
-9.18,-0.04,14.50,-0.24,0.16,-0.60,1721207090133
-9.50,5.09,17.93,-0.07,-0.16,0.28,1721207090143
-0.58,-0.11,10.85,-0.10,0.31,0.90,1721207090153
7.71,-0.26,10.50,-0.04,0.14,0.06,1721207090168
5.89,3.95,10.58,-0.05,0.12,-0.23,1721207090172
0.71,2.02,10.69,-0.03,-0.18,-0.59,1721207090182
-5.54,-4.20,8.44,0.06,-0.11,-0.40,1721207090192
-5.09,0.23,10.72,0.24,0.07,0.10,1721207090202
-2.54,9.56,7.43,0.47,-0.06,0.48,1721207090212
3.44,5.93,5.08,0.19,0.16,0.34,1721207090222
4.75,-1.02,9.33,-0.05,-0.05,-0.10,1721207090232
1.47,-5.22,11.09,-0.05,-0.08,-0.47,1721207090242
-4.57,-1.06,10.78,0.11,-0.20,-0.35,1721207090252
-5.81,-0.41,9.60,0.04,-0.07,0.12,1721207090262
-2.60,-3.01,8.50,0.09,-0.12,0.56,1721207090272
4.30,0.51,11.19,0.15,0.20,0.48,1721207090282
5.33,6.23,6.61,0.24,-0.18,-0.02,1721207090292
1.98,-1.54,1.34,-0.09,-0.09,-0.37,1721207090302
-3.26,-6.04,9.74,-0.18,0.02,-0.27,1721207090312
-4.94,-1.33,17.26,-0.01,-0.07,0.15,1721207090322
-3.25,5.89,14.48,0.17,-0.16,0.52,1721207090332
3.76,-4.90,5.78,-0.23,-0.02,0.57,1721207090342
5.16,-2.90,18.77,-0.26,0.08,0.10,1721207090352
4.45,3.14,16.06,0.06,-0.15,-0.29,1721207090362
-1.60,0.81,6.62,-0.04,-0.17,-0.23,1721207090372
-6.40,2.52,6.69,-0.02,0.01,-0.20,1721207090382
-6.20,-4.79,9.36,-0.07,-0.18,0.24,1721207090392
0.15,13.22,11.90,0.31,0.04,0.97,1721207090402
10.62,2.18,-0.89,-0.10,-0.02,0.69,1721207090412
10.60,-7.15,13.71,-0.64,0.27,-0.44,1721207090422
5.60,-0.55,29.70,-0.06,-0.22,-1.15,1721207090432
-7.34,2.04,7.81,0.07,-0.56,-0.84,1721207090442
-13.41,5.16,5.61,-0.14,-0.00,-0.03,1721207090452
-5.69,3.13,14.69,0.09,0.13,0.66,1721207090462
2.83,-1.34,8.31,0.08,-0.04,0.73,1721207090472
7.37,0.98,5.15,0.07,0.03,0.30,1721207090482
7.99,2.76,10.32,0.00,0.01,-0.39,1721207090492
0.82,3.48,11.79,0.01,-0.35,-0.61,1721207090502
-3.41,1.10,10.19,0.09,-0.06,-0.34,1721207090512
-1.42,-3.04,6.07,0.11,0.06,0.07,1721207090522
1.45,-7.25,5.94,-0.21,-0.02,0.23,1721207090532
2.12,3.96,16.41,-0.00,0.06,-0.24,1721207090542
3.06,3.00,12.86,0.14,-0.04,-0.65,1721207090552
-5.58,-2.33,6.09,-0.10,-0.32,-0.51,1721207090562
-7.43,0.33,11.04,-0.10,0.05,-0.00,1721207090572
-0.85,3.50,11.67,-0.04,0.07,0.41,1721207090582
3.02,0.21,7.13,-0.15,-0.10,0.20,1721207090592
4.36,-6.94,4.23,-0.17,-0.09,-0.19,1721207090602
1.87,-6.42,7.92,-0.14,0.02,-0.40,1721207090612
-1.96,-0.56,13.97,-0.17,-0.09,-0.21,1721207090622
-2.15,3.87,17.13,-0.15,-0.02,0.01,1721207090632
-0.61,2.62,7.92,0.07,-0.16,0.08,1721207090642
2.03,-3.11,2.86,-0.15,0.04,0.08,1721207090652
2.16,-1.31,16.09,-0.22,0.10,-0.10,1721207090662
2.36,5.11,16.78,0.09,-0.06,-0.23,1721207090672
0.02,3.04,5.88,-0.01,-0.10,-0.41,1721207090682
-3.18,-3.43,6.78,-0.09,-0.04,-0.24,1721207090692
-2.15,-4.09,9.06,-0.03,-0.08,0.14,1721207090702
1.33,2.26,15.87,0.02,0.28,-0.04,1721207090712
4.83,3.81,16.79,0.09,0.01,-0.28,1721207090722
-1.87,4.76,6.08,0.17,-0.32,-0.44,1721207090732
-2.69,-3.75,1.66,0.07,0.03,-0.26,1721207090742
0.31,-1.53,14.04,0.05,0.30,-0.02,1721207090752
3.56,1.60,15.88,0.17,-0.05,-0.17,1721207090762
-0.30,2.32,7.77,0.10,-0.13,-0.56,1721207090772
-3.24,2.79,13.81,0.05,0.17,-0.58,1721207090782
-3.27,-0.66,17.81,-0.00,0.06,-0.20,1721207090792
-3.11,3.77,13.73,0.26,-0.05,-0.07,1721207090802
1.96,2.69,6.51,0.27,0.10,-0.11,1721207090812
1.82,1.78,8.81,0.17,-0.05,-0.27,1721207090822
1.07,1.42,6.40,0.30,0.04,-0.42,1721207090832
-0.33,-4.56,7.84,0.01,0.09,-0.51,1721207090842
-5.29,3.97,12.92,0.23,-0.03,-0.46,1721207090852
-2.44,2.01,8.10,0.23,0.22,-0.21,1721207090862
-0.32,2.10,6.62,0.17,-0.03,0.07,1721207090872
2.67,-2.35,7.07,-0.09,0.17,-0.07,1721207090882
2.89,4.27,17.23,0.08,0.17,-0.44,1721207090892
2.40,1.81,9.21,0.19,-0.02,-0.63,1721207090902
-2.10,-6.42,3.53,-0.14,0.03,-0.49,1721207090912
-3.32,-1.76,12.54,-0.05,0.29,-0.30,1721207090922
0.89,4.08,9.57,0.20,0.22,-0.17,1721207090932
2.71,0.33,6.48,-0.15,0.24,-0.27,1721207090942
1.01,0.47,11.15,-0.03,0.14,-0.48,1721207090952
0.65,-1.32,10.01,-0.11,0.32,-0.56,1721207090962
-2.13,1.49,10.50,-0.14,0.13,-0.50,1721207090972
-2.44,-2.75,9.79,-0.26,0.30,-0.44,1721207090982
-3.57,-4.68,11.99,-0.22,0.14,-0.35,1721207090992
-2.77,-0.89,11.65,-0.06,0.28,-0.28,1721207091002
-0.49,2.02,9.01,-0.18,0.31,-0.26,1721207091012
-0.61,5.86,17.25,-0.33,0.26,-0.35,1721207091022
-1.57,3.08,15.22,-0.17,0.18,-0.36,1721207091032
-2.91,-6.61,3.29,-0.32,0.03,-0.24,1721207091042
-3.89,-3.25,2.77,-0.36,0.26,-0.19,1721207091052
0.20,-1.61,11.55,-0.25,0.41,-0.11,1721207091062
0.38,-0.34,14.81,-0.16,0.18,-0.03,1721207091072
-2.89,4.89,8.81,0.01,0.00,-0.14,1721207091082
-0.82,2.32,9.88,-0.22,0.29,-0.14,1721207091092
-1.76,-1.64,16.09,-0.44,0.11,-0.05,1721207091102
-2.82,3.30,16.44,-0.20,0.11,0.02,1721207091112
-0.59,2.77,5.39,0.06,0.05,0.11,1721207091122
-1.21,-5.05,0.61,-0.13,0.09,0.08,1721207091132
-1.94,-0.07,13.10,-0.10,0.28,0.09,1721207091142
-0.11,3.22,15.75,-0.05,0.15,0.07,1721207091152
-1.34,2.43,7.85,-0.01,-0.15,0.12,1721207091162
0.26,-2.93,9.01,-0.15,0.24,0.11,1721207091172
-0.34,1.35,11.87,0.08,-0.09,0.26,1721207091182
2.40,3.43,10.81,0.11,0.22,0.19,1721207091192
1.09,6.46,10.82,0.19,-0.08,0.02,1721207091202
0.62,-2.01,6.77,-0.06,0.07,-0.03,1721207091212
-2.28,-4.21,10.60,-0.14,-0.02,-0.01,1721207091222
-1.11,-2.81,16.13,-0.01,0.17,0.08,1721207091232
0.21,2.72,17.35,0.16,0.01,0.21,1721207091242
-0.12,5.36,8.75,0.33,-0.07,0.19,1721207091252
1.63,3.13,5.17,0.23,0.14,0.04,1721207091262
1.53,-1.00,10.53,0.09,0.07,-0.07,1721207091272
-1.72,0.99,9.33,0.27,-0.16,-0.02,1721207091282
0.41,-3.25,8.36,0.14,0.19,0.07,1721207091292
-0.45,-2.69,8.41,0.15,-0.10,0.10,1721207091302
1.25,-0.78,14.51,0.12,0.23,0.00,1721207091312
0.81,0.28,15.01,0.23,-0.13,0.01,1721207091322
-0.05,3.13,9.92,0.22,0.03,0.03,1721207091332
0.86,-3.25,9.47,0.14,0.16,-0.01,1721207091342
-1.42,-1.89,9.60,0.21,-0.06,-0.10,1721207091352
-0.04,1.70,7.77,0.34,0.14,0.07,1721207091362
0.88,3.09,9.19,0.33,0.12,0.09,1721207091372
1.09,3.62,4.78,0.38,-0.03,0.05,1721207091382
2.33,-0.57,5.45,0.11,0.17,-0.03,1721207091392
0.62,-6.25,13.69,-0.11,0.03,-0.16,1721207091402
-2.38,-1.22,19.75,0.13,0.04,-0.16,1721207091412
-1.29,5.05,13.44,0.39,0.11,0.15,1721207091422
1.55,4.12,3.74,0.34,0.09,0.30,1721207091432
2.47,-0.96,0.47,0.06,0.11,-0.01,1721207091442
0.94,-0.50,13.03,-0.10,0.25,-0.34,1721207091452
-3.25,1.28,14.54,0.15,-0.08,-0.23,1721207091462
-5.33,-3.31,3.27,0.06,-0.07,0.14,1721207091472
-2.87,-3.01,9.59,-0.09,0.18,0.40,1721207091482
2.32,0.97,13.83,0.07,0.06,0.39,1721207091492
4.10,1.88,9.95,0.03,0.01,0.08,1721207091502
1.44,2.42,11.02,0.02,0.01,-0.23,1721207091512
-2.18,1.00,6.67,-0.03,-0.11,-0.11,1721207091522
-2.89,-0.87,10.39,-0.24,0.11,0.11,1721207091532
-0.03,-0.08,13.98,-0.07,0.02,0.26,1721207091542
2.89,1.49,6.93,-0.10,-0.01,0.21,1721207091552
2.89,0.53,7.18,-0.18,-0.00,-0.00,1721207091562
2.44,1.01,8.81,-0.13,0.05,-0.20,1721207091572
-0.01,-1.97,9.35,-0.26,-0.03,-0.20,1721207091582
-2.34,2.04,13.18,-0.20,-0.05,-0.09,1721207091592
-0.63,-0.07,11.88,-0.24,0.09,0.08,1721207091602
1.35,1.17,9.32,-0.16,-0.06,0.19,1721207091612
3.22,-1.09,6.27,-0.27,0.10,0.01,1721207091622
1.46,-3.21,12.80,-0.30,0.00,-0.34,1721207091632
-1.14,1.16,16.82,-0.16,0.03,-0.41,1721207091642
-4.33,-0.03,9.92,-0.11,-0.09,-0.16,1721207091652
-4.18,-0.57,10.06,-0.30,0.07,0.14,1721207091662
-0.14,2.56,16.12,-0.10,0.09,0.25,1721207091672
2.36,1.87,7.76,-0.02,-0.16,0.14,1721207091682
2.13,0.90,4.98,-0.13,0.11,-0.19,1721207091692
0.85,0.19,12.37,-0.14,0.00,-0.32,1721207091702
-3.43,-2.54,5.79,-0.10,-0.23,-0.11,1721207091712
-1.28,0.63,11.77,-0.11,0.33,0.02,1721207091722
0.67,-0.82,13.07,-0.09,-0.12,0.16,1721207091732
-0.14,3.32,11.04,0.05,0.00,0.04,1721207091742
3.10,-1.64,7.20,-0.01,0.01,-0.06,1721207091752
-0.14,1.12,12.60,-0.09,0.02,-0.14,1721207091762
-0.11,3.28,13.35,0.06,0.03,-0.21,1721207091772
-1.15,2.12,8.62,0.07,-0.07,-0.10,1721207091782
-1.60,-3.66,6.62,-0.10,0.02,0.04,1721207091792
-0.13,-0.79,14.51,-0.04,0.18,0.02,1721207091802
3.05,4.13,15.23,0.06,0.14,-0.17,1721207091812
0.55,1.23,7.43,0.03,-0.12,-0.23,1721207091822
-1.56,-3.01,8.62,-0.00,0.18,-0.23,1721207091832
-2.70,1.21,14.83,0.13,-0.07,-0.03,1721207091842
0.39,4.30,9.94,0.18,0.12,0.00,1721207091852
0.89,-1.61,7.38,0.12,0.08,-0.13,1721207091862
-0.48,-2.19,10.54,0.03,0.10,-0.16,1721207091872
-1.79,2.04,12.23,0.18,-0.06,-0.14,1721207091882
-0.60,1.62,10.32,0.13,0.11,-0.14,1721207091892
-0.48,0.50,12.32,0.12,0.10,-0.08,1721207091902
-0.67,-1.87,8.09,0.11,-0.06,-0.00,1721207091912
0.30,-1.45,7.72,0.10,0.16,-0.04,1721207091922
1.80,2.17,13.11,0.16,0.13,-0.26,1721207091932
-0.78,2.49,9.77,0.24,-0.06,-0.25,1721207091942
-2.75,2.56,7.72,0.13,0.07,-0.19,1721207091952
-2.53,-0.81,8.25,0.01,0.04,-0.05,1721207091962
-0.38,-2.74,12.39,-0.08,0.13,0.01,1721207091972
0.73,0.44,15.54,0.08,0.12,-0.11,1721207091982
-0.52,3.40,6.48,0.19,-0.17,-0.14,1721207091992
-1.51,2.15,6.67,0.04,0.15,-0.10,1721207092002
0.46,-3.39,11.83,0.01,0.09,0.03,1721207092012
1.04,0.11,10.85,0.05,-0.02,-0.01,1721207092022
1.11,1.78,7.67,0.12,0.01,-0.08,1721207092032
0.86,0.88,7.91,0.06,0.07,-0.17,1721207092042
-0.29,-1.97,10.94,0.01,0.06,-0.17,1721207092052
-1.04,2.34,14.90,0.13,0.12,-0.15,1721207092062
-0.94,3.41,8.71,0.13,0.01,-0.09,1721207092072
-2.03,-0.76,6.11,-0.09,-0.02,-0.05,1721207092082
-1.64,0.57,11.38,0.04,0.14,0.03,1721207092092
0.49,0.55,9.58,0.07,-0.00,0.07,1721207092102
-0.62,-2.85,11.03,-0.14,-0.03,-0.04,1721207092112
-1.26,2.65,15.93,0.05,0.12,-0.16,1721207092122
-1.04,6.34,6.35,0.16,-0.04,-0.09,1721207092132
-2.65,-2.88,2.97,-0.25,-0.06,0.03,1721207092142
-3.60,-6.37,11.85,-0.18,0.03,0.16,1721207092152
1.06,0.32,16.14,0.04,0.20,0.14,1721207092162
0.90,6.15,9.10,-0.02,0.06,-0.02,1721207092177
-0.83,4.03,6.87,-0.08,-0.04,-0.02,1721207092181
-0.57,-5.20,7.73,-0.20,0.04,0.05,1721207092191
-0.24,-5.32,12.73,-0.20,0.04,0.03,1721207092201
-0.69,2.88,12.58,-0.01,-0.05,0.00,1721207092211
-0.58,1.79,8.98,-0.03,-0.08,0.08,1721207092221
-0.86,2.28,7.41,0.02,-0.07,0.22,1721207092231
1.57,-0.23,8.38,-0.09,0.03,0.10,1721207092241
-0.13,-4.90,5.22,-0.10,-0.18,-0.02,1721207092251
-0.88,-1.42,13.95,-0.19,0.20,-0.15,1721207092261
-1.97,0.69,15.35,-0.06,-0.25,0.09,1721207092271
-1.19,-0.66,9.78,-0.09,-0.07,0.42,1721207092281
2.40,2.00,5.81,0.08,0.04,0.35,1721207092291
5.11,0.56,8.32,-0.16,0.06,-0.02,1721207092301
0.09,1.37,15.20,-0.15,-0.27,-0.28,1721207092311
-3.87,-2.26,10.24,-0.01,-0.20,-0.14,1721207092321
-1.90,-0.86,5.96,-0.07,0.10,0.25,1721207092331
1.88,0.05,9.35,-0.08,0.03,0.32,1721207092341
2.75,-0.01,14.77,-0.09,0.01,-0.02,1721207092351
0.44,4.19,12.21,0.17,-0.21,-0.14,1721207092361
-0.91,1.30,3.78,0.07,-0.08,-0.08,1721207092371
-1.04,-0.77,13.91,-0.12,0.14,-0.06,1721207092381
0.28,-0.65,18.99,-0.01,-0.08,0.04,1721207092391
-0.05,5.44,10.41,0.25,-0.15,0.17,1721207092401
1.80,1.48,1.19,0.22,-0.04,0.13,1721207092411
3.33,-3.35,8.25,0.04,0.13,-0.14,1721207092421
1.81,-0.59,17.97,0.14,0.01,-0.37,1721207092431
-3.21,3.08,10.04,0.29,-0.26,-0.22,1721207092441
-2.79,0.09,5.69,0.11,0.03,0.07,1721207092451
0.80,0.29,13.84,0.12,0.08,0.26,1721207092461
2.87,0.57,12.15,0.22,-0.00,0.04,1721207092471
2.68,1.32,8.58,0.20,-0.01,-0.17,1721207092481
1.58,-0.32,7.92,0.14,-0.01,-0.26,1721207092491
-1.11,1.56,8.37,0.15,-0.05,-0.24,1721207092501
-0.88,-2.66,9.05,0.11,0.11,-0.15,1721207092511
-1.34,-1.23,10.33,0.15,-0.03,-0.01,1721207092521
0.61,0.08,10.29,0.11,0.10,0.01,1721207092531
1.34,1.89,12.93,0.09,0.09,-0.19,1721207092541
-0.17,0.91,12.76,0.11,0.02,-0.21,1721207092551
-1.60,-0.19,7.81,0.17,-0.03,-0.11,1721207092561
-0.30,-1.87,8.21,0.06,0.16,-0.07,1721207092571
-0.36,-1.56,9.26,0.09,-0.02,-0.07,1721207092581
-0.56,2.30,10.85,0.07,0.12,-0.19,1721207092591
-1.61,2.38,8.06,0.13,-0.08,-0.11,1721207092601
-1.24,-0.72,9.41,-0.11,0.17,-0.07,1721207092611
-0.52,-1.78,15.27,-0.07,0.08,-0.09,1721207092621
0.06,3.83,10.28,0.06,-0.11,-0.04,1721207092631
0.77,1.99,3.00,-0.02,0.04,-0.07,1721207092641
0.74,0.84,8.99,-0.13,0.13,-0.23,1721207092651
-1.28,-1.61,11.12,-0.05,-0.09,-0.24,1721207092661
-2.68,0.29,12.14,-0.14,0.01,-0.15,1721207092671
-1.90,2.32,14.92,-0.16,0.08,-0.06,1721207092681
0.08,1.76,10.62,-0.10,-0.07,0.08,1721207092691
2.63,-0.58,9.74,-0.16,0.13,0.03,1721207092701
2.62,3.01,11.20,-0.00,-0.03,-0.16,1721207092711
1.15,2.16,7.89,-0.05,-0.00,-0.38,1721207092721
-2.91,-0.55,7.99,-0.06,-0.11,-0.31,1721207092731
-2.55,-1.92,11.51,-0.14,0.17,-0.04,1721207092741
-0.77,-2.16,9.98,0.02,-0.08,0.20,1721207092751
3.34,0.89,8.79,-0.02,0.19,0.13,1721207092761
3.82,1.82,10.91,-0.01,0.01,-0.15,1721207092771
1.34,2.56,11.63,-0.04,0.06,-0.44,1721207092781
-2.60,0.39,6.17,-0.00,-0.13,-0.27,1721207092791
-1.48,-4.68,9.55,-0.31,0.21,-0.06,1721207092801
-0.69,-3.35,16.28,-0.17,-0.03,0.15,1721207092811
0.85,1.93,10.24,-0.01,0.06,-0.03,1721207092821
0.71,3.02,5.87,-0.00,0.03,-0.29,1721207092831
-0.74,-1.50,10.04,-0.10,0.08,-0.21,1721207092841
-1.81,1.18,10.93,0.01,0.02,-0.05,1721207092851
-0.23,1.97,13.35,-0.04,0.19,-0.03,1721207092861
0.60,2.57,10.37,-0.07,-0.10,-0.03,1721207092871
0.27,-2.27,8.77,-0.08,0.08,-0.14,1721207092881
1.17,-4.79,13.01,-0.10,0.09,-0.20,1721207092891
-0.42,4.86,11.25,0.15,-0.02,-0.15,1721207092901
-0.43,5.09,11.42,0.14,0.18,-0.23,1721207092911
-2.77,-1.02,9.50,0.13,-0.13,-0.18,1721207092921
-1.15,-4.08,8.80,0.04,0.20,-0.06,1721207092931
-0.26,2.35,12.93,0.17,0.02,0.05,1721207092941
0.76,0.54,8.79,0.14,0.04,-0.06,1721207092951
1.08,0.96,8.69,0.21,0.10,-0.22,1721207092961
0.22,-2.11,9.63,0.15,0.03,-0.17,1721207092971
-2.27,-0.45,11.44,0.12,0.03,-0.12,1721207092981
-0.81,-0.52,13.72,0.10,0.18,-0.17,1721207092991
-1.53,2.15,12.21,0.18,-0.07,-0.11,1721207093001
-1.58,-0.07,5.70,0.23,0.03,-0.07,1721207093011
-1.24,0.96,4.54,0.28,0.02,0.02,1721207093021
1.65,0.66,9.45,0.17,0.24,-0.13,1721207093031
-0.12,-2.10,12.74,0.00,-0.13,-0.16,1721207093041
-2.88,4.01,10.39,0.17,-0.02,-0.21,1721207093051
-1.15,-0.91,4.34,0.04,0.03,-0.03,1721207093061
-0.88,-3.68,11.06,-0.10,0.13,0.04,1721207093071
2.11,1.16,18.61,0.11,0.16,-0.10,1721207093081
0.82,8.49,9.85,0.27,-0.18,-0.22,1721207093091
-2.39,-1.01,-0.39,-0.05,-0.12,-0.20,1721207093101
-3.07,-4.13,15.06,-0.19,0.30,-0.12,1721207093111
-0.74,0.81,19.43,0.21,-0.05,0.08,1721207093121
0.71,4.08,3.07,0.23,-0.10,0.11,1721207093131
2.35,-0.45,5.60,-0.03,0.19,-0.05,1721207093141
0.88,0.43,15.80,0.06,-0.07,-0.15,1721207093151
0.28,5.68,12.29,0.30,0.02,-0.18,1721207093161
0.44,4.46,3.62,0.16,-0.03,-0.09,1721207093171
-0.04,-6.73,6.96,-0.33,0.12,-0.06,1721207093181
-0.61,-0.18,16.91,0.05,0.03,-0.11,1721207093191
1.18,2.59,5.34,0.17,0.03,-0.15,1721207093201
-1.12,-3.42,2.64,-0.12,-0.01,-0.11,1721207093211
-1.34,0.36,14.38,-0.04,0.24,-0.05,1721207093221
0.86,1.56,17.12,-0.00,0.06,0.03,1721207093231
-0.86,2.21,11.21,-0.13,-0.14,-0.14,1721207093241
-1.97,-0.61,7.80,-0.22,0.02,-0.20,1721207093251
-3.43,-2.63,10.42,-0.24,-0.01,-0.04,1721207093261
-2.76,-1.26,9.27,-0.14,0.03,0.10,1721207093271
0.44,2.15,9.56,-0.07,0.15,0.14,1721207093281
2.09,3.15,9.98,-0.27,-0.03,0.01,1721207093291
-0.86,0.99,12.07,-0.36,-0.10,-0.14,1721207093301
-0.48,-3.19,13.25,-0.28,0.06,-0.16,1721207093311
-2.29,0.45,7.95,-0.24,-0.11,-0.09,1721207093321
-2.66,-1.11,6.92,-0.27,-0.01,0.05,1721207093331
-0.97,-2.11,6.93,-0.15,-0.02,0.16,1721207093341
1.08,0.49,9.53,-0.16,0.12,0.07,1721207093351
1.25,-5.26,12.55,-0.34,-0.13,-0.03,1721207093361
-1.02,1.82,21.16,-0.38,-0.01,-0.13,1721207093371
-1.30,7.53,16.58,-0.10,-0.15,-0.04,1721207093381
-1.47,-2.36,1.86,-0.18,-0.20,0.05,1721207093391
-0.59,-4.05,8.69,-0.15,0.18,0.13,1721207093401
2.40,1.89,11.01,0.13,-0.04,0.18,1721207093411
1.09,1.97,5.49,0.05,-0.12,0.04,1721207093421
-0.58,-0.05,14.53,-0.15,0.03,-0.18,1721207093431
-0.80,4.05,15.82,-0.02,-0.10,-0.16,1721207093441
0.15,-0.13,9.34,-0.08,-0.00,-0.01,1721207093451
-0.76,-0.74,11.82,-0.05,-0.11,0.09,1721207093461
-0.00,3.12,6.34,0.25,-0.10,0.10,1721207093471
3.12,-2.42,4.67,0.09,0.11,-0.07,1721207093481
0.20,-2.41,14.46,-0.06,-0.14,-0.21,1721207093491
-1.41,2.80,18.27,0.05,-0.04,-0.14,1721207093501
-1.92,6.02,13.21,0.14,-0.07,-0.05,1721207093511
0.06,0.93,6.78,0.10,-0.04,0.05,1721207093521
1.60,-4.33,8.56,0.09,-0.00,0.09,1721207093531
1.76,2.04,10.41,0.24,0.09,-0.06,1721207093541
0.86,3.69,10.02,0.20,0.04,-0.26,1721207093551
-0.51,-1.70,9.15,0.14,-0.14,-0.13,1721207093561
0.58,-0.96,10.94,0.15,0.09,-0.02,1721207093571
1.78,1.05,10.72,0.20,-0.00,0.03,1721207093581
1.12,0.31,9.79,0.10,0.03,-0.07,1721207093591
1.79,-1.48,7.64,0.17,0.07,-0.21,1721207093601
0.98,0.56,7.97,0.18,0.08,-0.25,1721207093611
-0.66,1.14,11.60,0.13,0.04,-0.17,1721207093621
-1.04,-0.75,11.74,0.06,0.02,-0.12,1721207093631
-0.49,-3.40,12.01,0.06,0.13,-0.18,1721207093641
-0.81,1.36,9.90,0.18,0.04,-0.13,1721207093651
-0.83,-0.28,7.36,0.10,0.07,-0.13,1721207093661
-1.00,0.44,11.67,0.12,0.12,-0.21,1721207093671
-1.75,0.47,8.69,0.19,0.02,-0.15,1721207093681
-1.12,1.31,6.97,0.13,0.12,-0.04,1721207093691
0.53,-0.52,7.77,-0.10,0.08,0.02,1721207093701
0.42,-0.77,12.67,-0.11,0.03,-0.07,1721207093711
0.58,-1.83,13.80,-0.06,0.10,-0.23,1721207093721
-0.43,3.33,10.21,0.07,0.01,-0.17,1721207093731
-1.24,2.10,5.52,-0.17,0.07,-0.07,1721207093741
-1.68,-1.64,11.51,-0.27,0.05,-0.13,1721207093751
-0.90,-0.51,14.02,-0.05,0.07,-0.06,1721207093761
0.17,2.58,6.93,0.00,0.01,0.04,1721207093771
0.91,0.62,11.52,-0.24,0.12,-0.05,1721207093781
1.97,0.30,16.30,-0.11,0.03,-0.10,1721207093791
1.26,1.72,8.05,-0.03,-0.06,-0.07,1721207093801
1.67,-1.77,7.56,-0.18,0.10,-0.12,1721207093811
0.93,-0.75,13.50,-0.09,0.05,-0.24,1721207093821
-0.34,4.88,11.83,0.13,0.01,-0.25,1721207093831
-1.09,1.89,4.07,0.00,0.01,-0.13,1721207093841
-0.50,-0.75,10.69,-0.15,0.23,-0.08,1721207093851
0.63,-0.86,13.13,-0.08,0.02,-0.03,1721207093861
0.52,1.31,8.61,-0.06,0.02,-0.13,1721207093871
1.31,-1.12,7.93,-0.11,0.12,-0.23,1721207093881
-0.97,-0.04,10.24,-0.06,0.01,-0.28,1721207093891
-1.51,-2.39,9.35,-0.13,0.06,-0.14,1721207093901
-1.38,0.66,12.58,-0.07,0.07,-0.11,1721207093911
-0.17,-0.72,10.03,0.00,0.05,-0.08,1721207093921
0.25,0.54,11.05,-0.11,0.14,-0.08,1721207093931
-0.68,4.02,14.08,-0.02,0.04,-0.17,1721207093941
-0.40,0.91,8.50,0.02,-0.02,-0.09,1721207093951
0.11,-2.73,6.22,-0.08,0.09,-0.12,1721207093961
-1.21,-1.11,13.41,-0.10,0.15,-0.20,1721207093971
-1.84,0.79,11.69,0.06,-0.01,-0.23,1721207093981
-1.42,1.83,9.48,0.14,0.11,-0.04,1721207093991
-0.58,1.36,7.71,0.15,0.03,-0.00,1721207094001
-0.37,-0.14,5.92,0.25,0.04,-0.05,1721207094011
2.40,2.43,11.39,0.17,0.25,-0.13,1721207094021
1.11,3.62,15.61,0.08,-0.01,-0.24,1721207094031
-2.77,0.71,10.85,0.08,-0.11,-0.26,1721207094041
-2.20,-4.29,9.12,-0.07,0.16,-0.14,1721207094051
-1.30,-0.14,13.87,0.04,0.08,0.02,1721207094061
0.85,3.02,9.64,0.17,0.06,-0.10,1721207094071
-0.00,-2.10,7.69,0.10,-0.01,-0.20,1721207094081
-2.86,-0.30,8.78,0.25,0.09,-0.19,1721207094091
-0.25,2.82,11.79,0.20,0.22,-0.07,1721207094101
0.02,3.47,10.56,0.17,-0.13,-0.02,1721207094111
-0.49,-1.18,6.18,0.16,0.05,-0.09,1721207094121
2.07,4.53,13.72,0.16,0.10,-0.20,1721207094676
0.40,6.67,10.66,0.19,0.07,-0.25,1721207094681
-0.12,-3.95,6.03,0.11,0.01,-0.33,1721207094691
-1.03,-5.83,10.17,-0.02,0.24,-0.23,1721207094701
-1.76,2.58,17.95,0.15,0.12,-0.07,1721207094711
-0.93,4.86,11.77,0.24,0.09,-0.06,1721207094721
0.81,-0.82,1.96,0.15,0.11,0.00,1721207094731
2.26,-5.24,8.24,-0.05,0.32,-0.16,1721207094741
0.51,0.96,20.03,0.15,0.07,-0.29,1721207094751
-3.19,4.06,6.65,0.37,-0.03,-0.31,1721207094761
-3.42,3.75,1.10,0.12,0.21,-0.12,1721207094771
-0.97,2.02,12.64,-0.05,0.33,0.07,1721207094781
0.99,-1.15,10.34,-0.02,0.06,0.01,1721207094791
1.25,-2.55,7.57,-0.13,0.17,-0.22,1721207094801
0.55,-3.65,12.40,-0.22,0.20,-0.31,1721207094811
-1.48,2.76,13.59,0.08,0.06,-0.22,1721207094821
-0.42,1.89,6.04,0.05,0.21,-0.16,1721207094831
-1.08,-0.93,12.30,-0.08,0.07,-0.11,1721207094841
-2.40,0.49,13.40,-0.05,0.06,-0.16,1721207094851
-2.67,5.28,10.80,0.10,0.06,-0.09,1721207094861
0.04,1.09,7.60,-0.14,0.27,0.04,1721207094871
0.13,-0.69,14.09,-0.05,0.11,-0.03,1721207094881
0.80,2.44,7.30,0.12,-0.00,-0.05,1721207094891
0.79,0.17,3.56,-0.03,0.10,0.01,1721207094901
1.02,0.24,14.09,-0.13,0.28,-0.09,1721207094911
-0.27,1.79,15.07,0.07,-0.03,-0.18,1721207094921
-1.57,0.74,6.52,0.03,0.05,0.02,1721207094931
0.48,0.02,5.39,-0.14,0.16,0.13,1721207094941
1.52,-1.99,9.88,-0.24,0.12,0.03,1721207094951
1.22,-0.65,10.44,0.00,0.13,-0.16,1721207094961
-1.41,-1.14,7.93,-0.09,0.00,-0.13,1721207094971
-3.11,-1.35,16.35,-0.23,0.14,0.02,1721207094981
-0.29,0.37,20.00,-0.06,0.12,0.20,1721207094991
0.39,4.24,6.29,0.04,-0.11,0.27,1721207095001
2.81,0.78,4.94,-0.03,0.23,0.10,1721207095011
2.70,-2.18,10.89,0.03,0.08,-0.13,1721207095021
-0.30,2.62,10.71,0.12,0.03,-0.21,1721207095031
-2.15,5.50,9.27,0.12,0.04,-0.05,1721207095041
-2.39,-0.32,6.44,-0.10,0.05,0.17,1721207095051
-0.86,-2.51,9.35,-0.05,0.11,0.16,1721207095061
1.53,-1.25,7.58,0.05,0.02,0.13,1721207095071
1.50,1.21,10.43,-0.04,0.07,0.03,1721207095081
0.44,0.45,12.86,-0.05,0.08,-0.10,1721207095091
-1.91,-0.10,11.74,-0.11,-0.04,-0.13,1721207095101
-2.94,-2.93,12.11,-0.14,0.06,0.04,1721207095111
-1.66,-2.37,11.54,0.02,0.01,0.20,1721207095121
0.15,0.40,9.97,-0.05,0.03,0.15,1721207095131
1.08,2.41,15.10,0.06,0.10,-0.01,1721207095141
0.26,5.61,8.43,0.24,-0.10,-0.09,1721207095151
-1.55,-3.31,3.80,-0.13,0.01,-0.01,1721207095161
-3.83,-6.06,13.30,-0.13,-0.05,0.09,1721207095171
0.75,4.18,16.08,0.18,0.16,0.07,1721207095181
1.07,2.63,3.63,0.14,-0.26,0.11,1721207095191
0.20,-0.68,8.49,-0.02,0.21,-0.03,1721207095201
0.58,-0.24,13.54,0.12,-0.11,-0.10,1721207095211
-2.02,4.96,5.58,0.20,-0.18,-0.01,1721207095221
-0.11,-2.73,6.93,-0.07,0.08,0.09,1721207095231
-0.98,-1.42,19.11,-0.09,0.00,0.01,1721207095241
-0.76,2.96,15.94,0.19,-0.08,-0.11,1721207095251
-0.35,2.69,8.03,0.13,-0.07,-0.03,1721207095261
-1.54,4.01,9.46,0.01,-0.06,0.08,1721207095271
-0.88,-0.31,9.83,0.09,-0.15,0.08,1721207095281
1.10,-0.57,12.15,0.13,0.04,0.09,1721207095291
1.84,0.20,6.86,0.23,-0.17,0.13,1721207095301
2.04,3.83,10.25,0.10,0.09,-0.03,1721207095311
1.02,2.98,9.87,0.19,-0.16,-0.16,1721207095321
0.02,1.60,8.28,0.18,-0.04,-0.12,1721207095331
-0.17,-1.51,6.75,0.04,-0.03,-0.01,1721207095341
-0.06,-4.03,14.70,-0.11,0.09,-0.06,1721207095351
0.02,2.75,16.47,0.20,-0.03,-0.15,1721207095361
-0.51,9.96,5.31,0.36,-0.10,-0.05,1721207095371
-1.07,-2.10,-3.97,-0.09,-0.17,0.11,1721207095381
-1.05,-11.11,10.88,-0.44,0.22,0.05,1721207095391
0.72,1.23,25.89,0.15,0.03,-0.09,1721207095401
0.26,6.13,3.05,0.25,-0.32,-0.08,1721207095411
-0.84,1.77,8.62,-0.33,0.27,-0.10,1721207095421
-1.66,-2.51,19.05,-0.04,-0.18,0.04,1721207095431
-0.74,-3.78,7.57,-0.09,-0.09,0.05,1721207095441
0.41,1.18,10.18,-0.12,0.07,-0.04,1721207095451
0.72,4.89,8.23,0.05,-0.07,-0.09,1721207095461
0.38,2.27,5.31,-0.09,-0.09,-0.03,1721207095471
-0.90,-1.87,7.11,-0.11,-0.08,-0.09,1721207095481
1.75,-5.13,11.83,-0.25,0.20,-0.25,1721207095491
-0.67,4.64,13.68,-0.17,-0.14,-0.28,1721207095501
-3.14,3.14,9.42,-0.19,0.00,-0.21,1721207095511
-2.85,-4.77,9.51,-0.12,-0.05,0.12,1721207095521
-0.40,-0.54,7.08,-0.02,0.05,0.16,1721207095531
1.73,0.06,8.15,-0.18,0.04,0.04,1721207095541
1.40,0.70,15.27,-0.23,0.05,-0.20,1721207095551
-0.26,0.01,12.91,-0.06,-0.11,-0.19,1721207095561
-1.74,-0.48,8.24,-0.11,-0.02,-0.03,1721207095571
-0.18,2.28,12.89,-0.05,0.08,-0.00,1721207095581
2.19,1.94,11.49,-0.04,0.03,-0.06,1721207095591
0.76,0.52,8.48,-0.05,-0.05,-0.15,1721207095601
-1.27,-0.80,7.97,0.02,0.03,-0.23,1721207095611
-0.97,-1.98,11.33,0.06,0.10,-0.10,1721207095621
-0.13,-0.13,7.58,0.21,-0.08,0.05,1721207095631
1.65,0.96,8.52,0.06,0.14,-0.05,1721207095641
0.70,4.47,12.91,0.15,0.01,-0.19,1721207095651
0.10,3.24,10.47,0.11,0.07,-0.22,1721207095661
-0.87,-4.40,7.77,-0.00,-0.02,-0.13,1721207095671
-1.67,-4.74,11.85,-0.13,0.12,-0.10,1721207095681
-0.60,1.13,15.36,0.10,0.08,-0.04,1721207095691
0.84,7.88,7.60,0.39,0.08,-0.04,1721207095701
1.84,-1.07,3.75,0.10,0.13,-0.04,1721207095711
-2.36,0.27,16.24,-0.11,-0.14,-0.25,1721207095721
-1.86,1.61,17.41,0.13,0.09,-0.23,1721207095731
-0.94,-0.27,2.65,0.05,0.03,0.06,1721207095741
-0.82,0.77,8.60,-0.02,0.18,0.18,1721207095751
2.83,-2.48,14.30,0.16,0.11,0.00,1721207095761
0.70,0.68,10.56,0.21,-0.03,-0.16,1721207095771
0.44,0.95,9.80,0.16,0.20,-0.16,1721207095781
-0.09,4.86,14.68,0.16,0.12,-0.10,1721207095791
-1.97,3.52,9.56,0.17,-0.07,0.02,1721207095801
-2.09,-0.60,4.87,0.17,0.03,0.07,1721207095811
1.10,-4.56,6.21,0.05,0.23,0.06,1721207095821
0.94,0.15,12.15,0.00,0.04,-0.06,1721207095831
-0.59,0.73,11.49,-0.00,0.07,-0.24,1721207095841
-2.08,0.78,8.76,0.08,0.04,-0.12,1721207095851
-0.83,0.36,10.89,0.07,0.16,0.07,1721207095861
1.46,1.19,12.51,0.03,0.11,0.05,1721207095871
0.74,4.29,7.66,0.07,-0.11,-0.17,1721207095881
-0.52,-2.03,1.16,-0.14,0.07,-0.23,1721207095891
-1.47,-0.85,11.96,-0.22,0.25,-0.20,1721207095901
-0.23,-1.40,14.69,-0.04,0.05,-0.10,1721207095911
-0.09,-0.36,12.14,-0.07,0.07,-0.09,1721207095921
1.04,2.32,11.21,-0.17,0.11,-0.08,1721207095931
3.48,1.99,16.17,-0.14,0.24,-0.08,1721207095941
1.27,-1.09,6.55,-0.09,-0.10,-0.25,1721207095951
-1.99,0.42,9.04,-0.10,0.26,-0.42,1721207095961
-1.49,0.13,8.71,0.02,0.10,-0.20,1721207095971
-2.43,2.40,11.44,-0.21,0.00,0.09,1721207095981
-1.19,-0.76,11.41,-0.08,0.10,0.05,1721207095991
1.65,-3.14,13.89,-0.20,0.23,-0.04,1721207096001
1.12,3.51,13.85,-0.13,0.01,-0.00,1721207096011
0.82,2.23,7.58,0.02,0.07,-0.04,1721207096021
1.53,-2.69,6.97,-0.08,0.18,-0.19,1721207096031
-0.61,0.43,9.46,0.02,0.02,-0.17,1721207096041
-1.07,1.45,10.58,0.10,0.16,-0.07,1721207096051
-1.08,0.59,10.68,-0.05,0.11,-0.02,1721207096061
-1.09,2.48,13.85,-0.00,0.14,0.06,1721207096071
1.33,3.39,8.11,0.08,0.06,0.09,1721207096081
1.19,-2.03,4.07,-0.10,0.05,0.03,1721207096091
0.96,-3.14,12.05,-0.05,0.28,-0.14,1721207096101
0.94,3.27,14.16,0.08,0.08,-0.20,1721207096111
-2.81,1.41,8.54,-0.00,-0.04,-0.09,1721207096121
-2.38,0.31,11.59,0.03,0.26,0.11,1721207096131
1.19,2.06,12.82,0.06,0.17,0.15,1721207096141
0.93,3.57,9.42,0.07,0.01,0.03,1721207096151
0.54,-1.90,5.27,0.02,0.12,-0.15,1721207096161
-1.22,-4.42,11.87,-0.11,0.19,-0.12,1721207096171
-1.73,0.81,15.67,0.15,0.05,0.03,1721207096181
-0.40,2.94,7.74,0.17,0.07,0.10,1721207096191
-1.05,1.26,5.39,0.12,-0.01,0.11,1721207096201
0.51,-0.12,14.69,0.02,0.28,-0.00,1721207096211
-1.02,-0.02,12.39,0.11,-0.17,-0.03,1721207096221
-2.19,0.32,6.75,0.03,0.09,-0.04,1721207096231
-0.96,-2.53,9.00,0.01,0.04,0.13,1721207096241
-0.75,-3.11,8.23,0.02,-0.02,0.14,1721207096251
0.36,0.73,13.33,0.06,0.17,0.03,1721207096261
0.56,1.12,13.46,0.05,0.01,0.03,1721207096271
-2.30,2.45,11.17,0.03,-0.15,0.03,1721207096281
-1.43,3.39,8.56,0.06,0.01,0.11,1721207096291
-0.01,-0.25,9.17,-0.06,-0.02,0.20,1721207096301
0.15,-2.28,11.49,-0.08,-0.05,0.08,1721207096311
-0.96,0.69,5.71,0.08,-0.15,-0.08,1721207096321
0.19,-0.81,10.62,-0.11,0.21,-0.01,1721207096331
-1.11,-0.31,17.83,-0.04,-0.23,0.19,1721207096341
-0.62,6.06,10.19,0.23,-0.16,0.17,1721207096351
1.55,2.39,2.26,0.08,-0.07,0.08,1721207096361
0.47,-4.51,8.96,-0.14,-0.08,0.05,1721207096371
2.11,-0.23,14.84,0.07,0.08,-0.05,1721207096381
1.13,9.89,5.46,0.42,-0.22,-0.13,1721207096391
-0.78,-0.93,0.18,-0.19,0.03,-0.13,1721207096401
-1.89,-8.96,24.68,-0.36,0.10,0.05,1721207096411
-0.78,6.43,16.71,0.43,-0.18,0.03,1721207096421
0.64,5.62,-4.80,-0.11,-0.03,-0.18,1721207096431
-2.42,-3.48,12.15,-0.37,0.09,0.01,1721207096441
0.33,-2.82,18.55,0.16,0.12,0.24,1721207096451
2.20,4.57,6.32,0.13,-0.11,0.07,1721207096461
0.96,1.62,5.15,-0.20,-0.06,-0.14,1721207096471
-1.52,-3.30,16.20,-0.38,0.07,-0.23,1721207096481
-2.57,-1.10,16.18,-0.01,-0.10,-0.27,1721207096491
-3.25,-0.86,6.44,-0.03,-0.11,-0.01,1721207096501
-2.18,2.21,9.73,-0.10,0.04,0.22,1721207096511
1.08,2.06,8.83,0.00,0.03,0.16,1721207096521
3.68,2.60,11.52,-0.13,0.11,-0.17,1721207096531
-1.51,3.94,9.21,-0.04,-0.35,-0.28,1721207096541
-4.19,-6.93,4.60,-0.24,0.00,-0.13,1721207096551
-3.63,-7.12,16.40,-0.27,0.10,0.07,1721207096561
-1.64,7.99,9.95,0.21,-0.19,0.27,1721207096571
2.90,-1.79,-0.29,0.01,-0.07,0.31,1721207096581
2.69,0.74,14.22,-0.07,0.23,-0.00,1721207096591
2.95,0.89,18.16,0.01,-0.06,-0.24,1721207096601
-2.76,0.66,9.90,-0.12,-0.30,-0.20,1721207096611
-3.67,1.27,12.16,-0.20,-0.01,0.08,1721207096621
-1.42,1.42,13.74,-0.08,-0.07,0.25,1721207096631
0.86,-0.69,7.02,0.03,-0.14,0.22,1721207096641
2.13,-1.78,4.75,-0.02,-0.01,0.00,1721207096651
1.44,-1.69,11.84,-0.11,-0.02,-0.16,1721207096661
-0.85,3.77,15.83,0.02,-0.12,-0.15,1721207096671
-0.13,1.11,4.47,0.23,-0.17,0.19,1721207096686
0.28,-2.01,2.70,0.12,-0.02,0.21,1721207096690
2.46,-1.36,10.19,-0.03,0.09,0.07,1721207096700
1.66,1.29,14.99,0.08,-0.14,-0.15,1721207096710
-0.24,2.89,8.37,0.13,-0.11,-0.15,1721207096720
0.30,-3.55,9.33,-0.03,0.06,-0.05,1721207096730
-0.50,-1.43,17.34,0.01,-0.07,-0.06,1721207096740
-0.06,2.85,11.18,0.17,-0.07,-0.05,1721207096750
0.86,3.72,3.63,0.15,0.04,-0.05,1721207096760
1.83,-3.06,6.67,-0.02,0.06,-0.03,1721207096770
0.60,-2.16,11.85,0.08,-0.03,-0.13,1721207096780
-0.17,-0.31,8.67,0.12,-0.01,-0.20,1721207096790
0.08,-2.81,11.06,-0.11,0.07,-0.11,1721207096800
-0.13,3.19,17.14,0.05,0.02,-0.03,1721207096810
0.14,3.95,5.25,0.21,-0.04,-0.09,1721207096820
1.75,-0.97,9.71,-0.01,0.22,-0.07,1721207096830
1.31,-2.52,11.94,0.10,-0.08,-0.07,1721207096840
0.05,2.38,12.23,0.06,0.10,-0.29,1721207096850
-0.06,3.84,10.38,0.19,0.09,-0.27,1721207096860
-0.70,1.02,5.47,0.11,0.03,-0.09,1721207096870
-0.86,-2.66,10.05,-0.01,0.18,-0.13,1721207096880
-1.56,-0.83,12.82,0.13,0.04,-0.21,1721207096890
-1.88,3.11,7.89,0.16,0.05,-0.12,1721207096900
-0.97,0.51,9.40,0.02,0.12,-0.01,1721207096910
-0.54,1.02,13.06,0.11,-0.02,0.06,1721207096920
0.35,0.55,9.00,0.01,0.09,-0.03,1721207096930
0.15,0.03,9.80,-0.07,0.03,-0.12,1721207096940
-0.51,-0.79,11.65,-0.13,0.10,-0.15,1721207096950
-1.67,-0.31,13.09,-0.01,0.01,-0.12,1721207096960
-0.31,1.66,9.64,0.11,0.04,0.05,1721207096970
0.79,4.39,8.94,0.05,0.04,0.00,1721207096980
1.35,0.75,7.90,0.01,-0.02,-0.10,1721207096990
0.81,-4.23,6.78,-0.14,0.01,-0.17,1721207097000
-1.51,1.09,11.80,-0.01,-0.01,-0.14,1721207097010
0.05,2.25,11.39,0.05,0.11,-0.07,1721207097020
0.21,-2.79,6.56,-0.06,-0.03,-0.04,1721207097030
0.61,-0.84,13.55,-0.16,0.20,-0.10,1721207097040
1.06,6.46,14.53,0.03,-0.01,-0.06,1721207097050
1.38,-1.26,7.01,-0.18,0.06,-0.09,1721207097060
-0.25,-4.08,10.67,-0.10,0.02,-0.22,1721207097070
-1.19,0.95,8.62,0.06,-0.05,-0.08,1721207097080
0.10,0.53,7.79,-0.15,0.07,0.08,1721207097090
0.48,3.02,13.75,-0.04,0.11,-0.10,1721207097100
0.44,0.24,9.78,-0.03,-0.03,-0.27,1721207097110
-2.05,-5.86,8.59,-0.26,-0.07,-0.06,1721207097120
-0.37,0.07,14.08,-0.07,0.22,0.08,1721207097130
1.86,4.83,11.07,0.05,0.02,-0.07,1721207097140
-0.79,4.18,6.81,0.10,-0.06,-0.25,1721207097150
-1.47,-6.38,4.12,-0.00,-0.04,-0.16,1721207097160
-0.62,0.55,14.44,-0.02,0.27,0.02,1721207097170
0.59,3.95,14.45,0.02,-0.08,-0.04,1721207097180
-1.61,0.84,8.49,-0.03,-0.11,-0.08,1721207097190
-0.94,-1.69,8.41,0.05,0.12,-0.12,1721207097200
-0.94,5.43,10.41,0.24,0.06,-0.04,1721207097210
-0.55,-0.74,5.19,0.02,-0.04,0.04,1721207097220
-0.19,-3.96,16.05,-0.22,0.12,0.01,1721207097230
0.97,0.13,16.17,0.12,-0.07,-0.05,1721207097240
0.67,1.07,5.63,0.09,-0.05,-0.07,1721207097250
-1.19,2.05,10.63,0.11,0.09,-0.12,1721207097260
-0.53,2.09,8.93,0.24,-0.07,-0.11,1721207097270
-1.63,0.27,8.32,0.11,-0.01,-0.08,1721207097280
-0.90,-3.83,9.25,-0.07,0.01,-0.06,1721207097290
-0.40,-2.40,14.40,-0.07,0.04,-0.01,1721207097300
0.68,2.54,12.79,0.08,-0.07,-0.04,1721207097310
-0.25,4.22,7.76,0.22,-0.10,-0.05,1721207097320
-0.37,-1.12,7.49,0.07,0.07,-0.09,1721207097330
-0.93,-3.74,10.40,-0.03,-0.08,-0.11,1721207097340
-0.27,3.19,14.08,0.07,0.07,-0.10,1721207097350
-0.25,3.72,8.94,0.10,-0.17,-0.08,1721207097360
-2.44,-3.39,7.95,0.03,-0.06,-0.09,1721207097370
-1.58,-2.23,9.67,0.18,-0.01,-0.01,1721207097380
0.80,6.02,7.46,0.31,-0.05,0.18,1721207097390
2.89,3.51,8.86,0.06,0.07,0.06,1721207097400
1.33,-0.91,16.64,-0.00,-0.09,-0.25,1721207097410
-0.91,2.06,12.86,0.24,-0.15,-0.27,1721207097420
-2.15,-0.57,4.11,0.01,-0.12,-0.11,1721207097430
-0.98,0.52,12.43,-0.03,0.12,-0.03,1721207097440
0.32,2.73,8.26,0.25,-0.16,0.08,1721207097450
0.62,-0.80,4.14,0.09,0.06,0.00,1721207097460
3.03,-2.51,15.19,-0.00,0.19,-0.13,1721207097470
1.51,5.54,16.19,0.15,-0.12,-0.20,1721207097480
-0.70,5.21,9.81,-0.01,-0.09,-0.21,1721207097490
-2.26,1.71,7.97,0.03,-0.12,-0.04,1721207097500
-0.32,-2.95,7.44,-0.01,0.07,0.05,1721207097510
0.93,-4.75,8.97,-0.15,0.00,-0.01,1721207097520
0.35,3.67,15.17,0.00,0.02,-0.19,1721207097530
-0.06,-0.60,6.70,-0.02,-0.11,-0.16,1721207097540
-2.86,-0.09,8.88,-0.07,0.01,-0.11,1721207097550
0.06,-2.38,9.80,-0.03,0.12,-0.00,1721207097560
0.31,2.51,10.32,0.01,-0.03,0.05,1721207097570
0.43,0.52,3.18,-0.12,-0.06,-0.07,1721207097580
-1.45,2.20,11.65,-0.21,0.02,-0.21,1721207097590
-1.13,-2.55,13.09,-0.17,-0.03,-0.09,1721207097600
-0.52,-5.25,13.19,-0.38,0.06,0.00,1721207097610
-1.44,0.86,12.72,-0.22,-0.21,-0.06,1721207097620
-1.49,0.75,1.86,-0.12,-0.15,-0.06,1721207097630
1.20,-4.86,10.21,-0.24,0.33,0.01,1721207097640
1.37,1.92,17.16,-0.01,0.01,0.03,1721207097650
-1.09,4.77,5.09,0.10,-0.24,-0.14,1721207097660
0.66,-3.99,6.94,-0.41,0.20,-0.20,1721207097670
-1.80,6.06,21.83,-0.18,-0.24,-0.03,1721207097680
0.50,0.96,8.73,0.11,-0.11,0.08,1721207097690
1.72,-7.20,3.57,-0.16,0.05,-0.06,1721207097700
0.30,-2.00,13.66,-0.17,0.01,-0.17,1721207097710
0.54,4.73,16.02,0.03,0.05,-0.19,1721207097720
-0.41,6.20,8.85,0.22,-0.10,-0.16,1721207097730
0.16,1.51,3.34,0.20,0.05,-0.08,1721207097740
0.12,-5.00,8.19,-0.02,0.03,-0.07,1721207097750
-0.42,-0.94,13.83,-0.01,0.05,-0.21,1721207097760
-0.16,2.95,5.51,0.14,-0.08,-0.14,1721207097770
0.45,-2.52,13.76,-0.16,0.17,-0.06,1721207097780
1.76,5.90,22.47,0.17,0.08,-0.04,1721207097790
1.43,-0.64,4.39,0.24,-0.14,-0.24,1721207097800
-2.26,-3.13,5.41,-0.11,0.14,-0.38,1721207097810
-2.17,3.14,19.44,0.07,0.07,-0.14,1721207097820
-0.61,2.81,8.21,0.31,-0.09,0.10,1721207097830
2.28,-4.47,2.36,0.15,0.24,0.00,1721207097840
3.35,-1.06,10.96,0.04,0.07,-0.23,1721207097850
0.06,2.84,10.69,0.12,-0.01,-0.40,1721207097860
-1.91,1.42,13.57,0.12,0.28,-0.41,1721207097870
-2.01,-0.66,11.93,0.22,0.03,-0.06,1721207097880
-0.75,-2.14,7.81,0.13,0.07,0.15,1721207097890
2.11,2.95,12.65,0.13,0.18,-0.07,1721207097900
2.80,5.44,6.79,0.33,0.06,-0.25,1721207097910
0.81,-1.51,3.20,0.05,0.14,-0.36,1721207097920
-2.35,-4.05,18.68,-0.05,0.13,-0.34,1721207097930
-3.53,1.98,12.51,0.31,0.01,-0.17,1721207097940
-1.07,4.93,6.42,0.02,0.23,-0.01,1721207097950
1.19,1.45,9.53,-0.04,0.14,-0.04,1721207097960
1.33,-4.04,7.04,-0.04,0.11,-0.25,1721207097970
-1.38,-1.30,13.51,-0.07,0.21,-0.47,1721207097980
-2.94,4.41,14.36,0.18,0.09,-0.33,1721207097990
-2.64,2.42,4.56,0.06,0.12,-0.04,1721207098000
-0.44,0.93,10.93,-0.11,0.18,0.08,1721207098010
1.48,-0.84,11.17,0.11,0.03,-0.02,1721207098020
1.46,-0.83,5.48,0.06,0.12,-0.28,1721207098030
-1.09,1.83,9.70,0.01,0.06,-0.29,1721207098040
-1.47,2.77,11.90,0.02,0.15,-0.17,1721207098050
-0.88,1.40,6.07,-0.00,0.02,0.02,1721207098060
0.26,-1.88,7.28,-0.21,0.16,-0.02,1721207098070
2.27,-5.49,11.66,-0.25,0.16,-0.19,1721207098080
0.50,-1.07,10.60,-0.06,-0.00,-0.27,1721207098090
-0.45,-0.74,10.67,-0.15,0.21,-0.20,1721207098100
-1.64,2.55,14.63,-0.04,0.05,-0.07,1721207098110
-2.38,4.64,7.82,-0.02,0.01,0.01,1721207098120
0.49,-6.06,7.46,-0.43,0.19,0.10,1721207098130
1.16,-4.96,17.60,-0.38,0.16,0.04,1721207098140
2.41,2.62,14.31,-0.05,0.11,-0.14,1721207098150
-0.35,2.90,1.71,0.10,-0.12,-0.26,1721207098160
-0.93,-0.08,6.95,-0.09,0.31,-0.18,1721207098170
-2.07,3.00,16.86,-0.01,-0.05,0.10,1721207098180
-1.45,2.32,9.22,0.02,0.00,0.17,1721207098190
1.11,-6.81,4.80,-0.19,0.16,-0.03,1721207098200
0.43,0.68,14.62,-0.04,0.17,-0.08,1721207098210
0.51,6.84,12.21,0.23,0.02,-0.05,1721207098220
-0.91,-1.75,4.42,0.11,-0.07,-0.02,1721207098230
1.04,-4.70,10.91,-0.06,0.37,-0.01,1721207098240
-0.98,7.48,19.42,0.06,-0.12,0.11,1721207098250
-0.61,7.60,12.06,0.19,0.06,-0.07,1721207098260
-0.67,-8.24,2.74,0.05,-0.11,-0.14,1721207098270
-0.47,-2.41,8.43,0.11,0.37,0.07,1721207098280
0.69,8.40,11.69,0.30,-0.00,0.11,1721207098290
0.52,0.40,7.80,0.05,0.05,-0.15,1721207098300
-0.48,-7.73,14.42,-0.03,0.16,-0.27,1721207098310
-3.91,3.65,13.00,0.27,-0.16,0.04,1721207098320
-1.78,5.25,5.44,0.17,0.14,0.12,1721207098330
0.91,-2.96,9.40,0.05,0.06,0.09,1721207098340
-0.48,-1.54,8.35,0.21,-0.15,-0.04,1721207098350
0.92,-1.60,5.57,0.11,0.17,-0.11,1721207098360
-0.02,-2.83,15.29,-0.09,0.13,-0.13,1721207098370
-1.58,4.27,18.17,0.21,-0.04,-0.10,1721207098380
-2.05,5.98,2.61,0.30,-0.15,-0.01,1721207098390
-1.13,-3.16,1.62,-0.06,-0.01,0.11,1721207098400
0.61,-6.28,16.65,-0.23,0.09,0.10,1721207098410
0.37,4.00,16.79,0.24,-0.08,-0.03,1721207098420
0.32,5.46,0.42,0.12,-0.06,-0.12,1721207098430
-2.50,-5.96,9.23,-0.35,0.11,-0.10,1721207098440
-1.98,-1.80,24.05,0.05,0.06,0.02,1721207098450
1.82,8.36,5.23,0.42,-0.19,0.24,1721207098460
2.77,-2.67,0.35,-0.29,0.02,0.15,1721207098470
2.65,-4.01,24.68,-0.23,0.10,-0.17,1721207098480
0.11,5.41,12.76,0.43,-0.29,-0.21,1721207098490
-1.23,2.78,-5.38,0.01,-0.03,-0.17,1721207098500
-2.06,-5.62,14.71,-0.30,0.28,-0.05,1721207098510
-0.66,2.08,19.40,0.19,-0.01,0.08,1721207098520
0.68,6.65,5.68,0.21,-0.08,0.07,1721207098530
0.90,0.29,5.92,-0.04,0.01,0.01,1721207098540
1.33,1.99,15.47,0.02,0.06,-0.03,1721207098550
0.40,1.01,6.46,0.08,-0.23,-0.04,1721207098560
-0.63,-0.72,6.56,-0.08,0.12,-0.10,1721207098570
-0.82,-4.41,11.01,-0.08,-0.02,-0.06,1721207098580
-2.54,1.85,12.21,0.11,-0.06,0.05,1721207098590
0.25,7.47,12.96,0.06,0.13,0.07,1721207098600
0.40,5.75,11.73,-0.05,-0.10,-0.08,1721207098610
0.08,-6.98,10.30,-0.38,-0.06,-0.17,1721207098620
-3.86,-3.11,13.54,-0.16,-0.17,-0.16,1721207098630
-3.69,-0.10,0.31,0.05,-0.15,0.13,1721207098640
2.54,-3.15,9.15,-0.12,0.30,0.26,1721207098650
3.36,2.30,15.91,0.19,-0.21,0.16,1721207098660
1.07,4.07,5.92,0.11,-0.13,-0.23,1721207098670
-2.45,1.32,9.75,-0.11,-0.16,-0.31,1721207098680
-4.03,-5.13,10.73,-0.10,-0.14,0.07,1721207098695
-2.73,-4.79,10.25,-0.02,-0.11,0.12,1721207098699
-0.38,2.81,4.38,0.21,-0.03,0.28,1721207098709
3.73,-0.73,6.79,-0.04,0.08,0.16,1721207098719
3.26,-1.25,17.25,-0.18,-0.01,-0.11,1721207098729
0.70,1.24,13.25,0.02,-0.16,-0.30,1721207098739
-1.65,0.76,9.44,-0.05,-0.13,-0.10,1721207098749
-1.16,1.80,9.84,0.06,-0.01,0.07,1721207098759
0.83,0.61,2.49,0.19,-0.10,0.06,1721207098769
2.17,1.16,8.00,-0.01,0.23,-0.15,1721207098779
1.01,-0.54,16.24,-0.23,-0.07,-0.30,1721207098789
-3.05,-4.93,17.81,-0.17,-0.28,-0.19,1721207098799
-2.18,-0.28,12.49,0.04,0.07,0.08,1721207098809
0.89,4.12,7.20,0.24,0.09,0.11,1721207098819
2.95,4.18,8.25,0.25,0.01,-0.03,1721207098829
2.56,-0.18,5.60,0.27,-0.02,-0.24,1721207098839
0.36,5.00,11.15,0.28,0.11,-0.38,1721207098849
-0.45,-0.79,7.01,0.07,-0.04,-0.18,1721207098859
-3.37,-7.00,11.54,-0.16,-0.09,-0.13,1721207098869
-0.73,0.36,14.91,0.22,0.05,-0.08,1721207098879
1.50,4.97,4.10,0.35,0.05,0.01,1721207098889
2.27,0.74,7.53,0.01,0.22,-0.12,1721207098899
0.35,-1.97,19.07,0.10,-0.07,-0.29,1721207098909
-2.52,6.27,9.45,0.31,-0.04,-0.20,1721207098919
0.17,-0.05,3.37,-0.03,0.14,0.10,1721207098929
1.76,-1.58,10.82,-0.01,0.06,-0.01,1721207098939
3.42,-1.53,8.66,0.09,0.18,-0.30,1721207098949
0.03,1.13,9.81,0.02,-0.02,-0.44,1721207098959
-2.56,1.31,13.93,-0.01,0.16,-0.34,1721207098969
-2.73,-2.87,15.88,0.00,0.22,-0.18,1721207098979
-2.95,3.83,12.28,0.29,0.01,-0.03,1721207098989
-0.16,2.21,-0.56,0.03,0.10,0.09,1721207098999
0.68,-1.74,10.08,-0.21,0.17,-0.12,1721207099009
0.31,3.49,13.91,0.20,0.08,-0.40,1721207099019
-0.28,3.00,0.30,-0.01,0.02,-0.14,1721207099029
-1.30,-3.42,16.18,-0.44,0.30,-0.16,1721207099039
-1.04,-0.67,22.28,-0.00,0.08,-0.20,1721207099049
-0.83,5.57,3.11,0.13,-0.06,-0.07,1721207099059
0.98,-0.56,0.61,-0.27,0.14,-0.01,1721207099069
1.76,-4.30,11.92,-0.25,0.13,-0.19,1721207099079
-0.48,1.90,12.72,-0.01,0.07,-0.36,1721207099089
-1.91,1.48,6.52,-0.12,0.05,-0.23,1721207099099
-1.53,-0.31,14.69,-0.33,0.28,-0.09,1721207099109
1.37,1.67,21.23,-0.17,0.21,-0.02,1721207099119
2.39,2.94,7.76,0.04,-0.11,-0.00,1721207099129
2.61,-1.69,1.80,-0.33,0.20,-0.22,1721207099139
-0.38,-3.53,17.21,-0.36,0.08,-0.45,1721207099149
-3.27,2.82,13.54,0.03,0.10,-0.39,1721207099159
-4.14,-0.06,0.11,-0.08,0.06,-0.09,1721207099169
-0.93,-0.89,12.23,-0.23,0.45,0.12,1721207099179
3.66,0.36,17.87,-0.04,0.24,0.17,1721207099189
2.55,4.57,5.88,0.06,-0.05,-0.10,1721207099199
2.85,-1.20,11.13,-0.30,0.34,-0.40,1721207099209
-1.76,-1.19,19.51,-0.15,-0.17,-0.34,1721207099219
-5.00,1.69,7.29,0.07,0.00,-0.03,1721207099229
-1.59,-0.04,1.93,-0.03,0.26,0.17,1721207099239
2.19,-1.89,13.19,-0.11,0.29,-0.01,1721207099249
2.84,0.00,18.62,0.03,0.12,-0.05,1721207099259
-0.57,8.68,6.92,0.33,-0.01,-0.34,1721207099269
-1.38,-2.71,3.12,-0.14,0.16,-0.28,1721207099279
-5.99,-3.89,15.52,-0.20,-0.06,0.07,1721207099289
-2.03,3.35,12.34,0.26,0.21,0.16,1721207099299
1.53,-3.89,5.03,-0.11,0.05,0.03,1721207099309
-1.41,3.12,16.25,-0.04,0.22,-0.05,1721207099319
1.85,4.55,13.52,0.20,0.26,-0.11,1721207099329
-0.42,-5.08,4.04,-0.01,-0.11,-0.08,1721207099339
-1.15,-5.81,10.47,-0.06,0.30,-0.05,1721207099349
-1.44,3.70,17.75,0.13,-0.15,0.12,1721207099359
-1.70,9.50,7.08,0.32,-0.04,0.07,1721207099369
0.10,-2.50,3.99,0.03,0.10,-0.01,1721207099379
-0.54,-7.00,13.07,-0.21,0.15,0.02,1721207099389
0.15,2.06,18.54,0.10,0.11,-0.06,1721207099399
0.15,2.54,3.93,0.17,-0.14,-0.10,1721207099409
-0.85,-2.46,7.34,0.04,0.23,-0.04,1721207099419
-1.80,0.53,12.11,0.26,-0.16,0.16,1721207099429
-0.19,4.24,8.98,0.17,0.11,0.06,1721207099439
1.17,-0.52,10.49,-0.00,0.01,-0.05,1721207099449
-2.20,0.41,9.82,0.14,-0.15,-0.08,1721207099459
0.11,-1.45,7.64,0.13,0.19,-0.02,1721207099469
-0.38,3.08,9.18,0.30,-0.09,0.09,1721207099479
1.83,2.19,7.78,0.13,0.16,0.07,1721207099489
1.99,0.40,16.97,-0.05,0.09,-0.09,1721207099499
-0.31,2.27,16.30,0.11,-0.13,-0.18,1721207099509
-1.34,3.46,11.95,0.05,0.11,-0.17,1721207099519
-3.49,4.24,7.64,0.23,-0.18,0.04,1721207099529
-1.78,-1.22,-1.95,0.10,-0.04,0.30,1721207099539
0.66,-2.20,8.03,-0.12,0.21,0.21,1721207099549
3.12,-0.49,19.74,-0.00,0.01,-0.01,1721207099559
0.88,0.27,10.91,0.14,-0.22,-0.13,1721207099569
-1.51,5.26,8.47,0.05,0.06,-0.09,1721207099579
-0.97,0.72,10.17,0.02,0.10,0.08,1721207099589
-0.34,2.99,9.53,0.06,-0.09,0.21,1721207099599
0.61,5.59,5.46,0.09,0.00,0.06,1721207099609
1.37,-6.15,4.04,-0.31,-0.05,-0.09,1721207099619
-1.76,-3.95,13.60,-0.19,-0.01,-0.18,1721207099629
-1.36,-0.61,7.85,-0.04,-0.05,-0.07,1721207099639
-1.84,2.49,10.68,-0.21,0.09,0.13,1721207099649
0.38,0.76,7.41,0.09,-0.01,0.23,1721207099659
2.42,-4.45,4.75,-0.47,0.11,0.01,1721207099669
0.63,2.43,20.23,-0.28,-0.22,-0.15,1721207099679
-2.29,-4.80,6.69,-0.25,-0.13,-0.16,1721207099689
-3.81,-4.43,15.33,-0.39,0.19,-0.03,1721207099699
-1.06,-0.26,12.88,-0.10,-0.18,0.24,1721207099709
1.74,0.62,7.75,-0.27,0.08,0.17,1721207099719
3.49,0.12,12.08,-0.18,0.03,-0.05,1721207099729
-0.11,-0.34,10.81,-0.16,-0.08,-0.25,1721207099739
-2.24,6.84,12.74,-0.01,-0.00,-0.19,1721207099749
-0.86,1.73,5.99,0.08,-0.16,0.07,1721207099759
-0.51,-4.39,10.43,-0.29,0.11,0.15,1721207099769
-1.95,7.09,17.19,-0.04,-0.15,0.03,1721207099779
-0.10,-3.39,6.41,-0.13,-0.11,-0.05,1721207099789
0.72,-6.15,16.72,-0.19,0.10,-0.03,1721207099799
0.09,3.00,12.36,0.26,-0.23,0.17,1721207099809
0.65,6.25,6.32,0.20,0.06,0.09,1721207099819
2.14,2.55,12.34,0.27,-0.02,0.03,1721207099829
1.07,-0.93,9.86,0.20,-0.04,-0.08,1721207099839
-0.97,0.44,9.93,0.18,-0.09,-0.13,1721207099849
-0.24,0.90,9.97,0.27,0.01,-0.01,1721207099859
1.38,-1.04,9.06,0.23,0.05,0.04,1721207099869
0.38,5.59,13.94,0.27,-0.01,-0.01,1721207099879
0.88,7.38,6.55,0.31,-0.07,-0.03,1721207099889
1.29,-7.54,4.93,-0.10,0.03,-0.16,1721207099899
-0.95,-1.62,14.13,0.05,0.06,-0.28,1721207099909
-1.63,5.06,4.82,0.28,-0.08,-0.04,1721207099919
-0.11,-2.00,1.09,-0.04,0.07,0.15,1721207099929
2.58,-6.88,10.18,-0.11,0.14,0.04,1721207099939
1.90,-2.32,20.16,-0.01,0.07,-0.28,1721207099949
-1.02,2.15,16.76,0.13,-0.12,-0.26,1721207099959
-2.82,-1.14,10.95,-0.05,0.05,-0.09,1721207099969
-1.72,6.00,12.70,0.33,0.04,0.08,1721207099979
2.31,3.71,-0.94,0.25,0.09,0.12,1721207099989
2.57,-2.69,5.90,-0.16,0.12,-0.13,1721207099999
-0.64,1.88,17.43,0.05,-0.06,-0.41,1721207100009
-3.12,-0.83,6.47,0.08,-0.06,-0.22,1721207100019
-2.70,-1.69,8.30,-0.11,0.13,0.09,1721207100029
-0.47,1.15,10.24,0.04,-0.02,0.20,1721207100039
1.85,1.67,8.10,-0.04,0.12,0.00,1721207100049
1.95,3.25,10.75,-0.05,0.02,-0.22,1721207100059
0.27,-2.81,14.02,-0.29,0.11,-0.25,1721207100069
-2.78,-3.78,23.73,-0.13,-0.05,-0.16,1721207100079
-3.19,4.65,6.31,0.22,-0.17,0.05,1721207100089
1.57,4.07,2.36,-0.10,0.24,0.15,1721207100099
3.00,0.54,14.73,-0.02,0.01,-0.04,1721207100109
1.14,2.88,9.00,0.14,-0.04,-0.32,1721207100119
-0.61,3.36,6.61,0.07,0.14,-0.27,1721207100129
-0.90,-0.69,10.74,-0.19,0.07,-0.01,1721207100139
-1.13,2.08,10.00,0.10,-0.16,0.16,1721207100149
3.53,-0.80,3.20,-0.01,0.19,-0.02,1721207100159
2.71,-4.49,10.68,-0.24,-0.08,-0.30,1721207100169
-1.86,0.24,15.48,-0.01,-0.06,-0.40,1721207100179
-3.05,1.44,6.22,0.02,0.10,-0.23,1721207100189
-2.65,-1.41,13.23,-0.23,0.19,0.08,1721207100199
0.51,3.23,16.51,0.12,0.14,0.11,1721207100209
3.57,-0.32,4.27,0.02,0.01,0.01,1721207100219
2.23,-1.13,9.25,-0.18,0.17,-0.31,1721207100229
0.75,0.40,14.64,0.03,0.11,-0.42,1721207100239
-2.33,0.57,7.49,0.04,0.02,-0.31,1721207100249
-3.25,0.05,8.32,0.04,0.12,-0.10,1721207100259
-1.88,-0.32,7.80,0.03,0.05,0.06,1721207100269
1.27,-1.08,10.18,-0.02,0.20,-0.01,1721207100279
2.66,-0.39,11.36,0.08,0.15,-0.23,1721207100289
-0.84,1.70,8.74,0.03,-0.01,-0.36,1721207100299
-3.59,4.53,13.25,0.06,0.01,-0.18,1721207100309
-2.70,-1.30,8.59,-0.02,0.06,0.01,1721207100319
0.28,-6.26,13.64,-0.22,0.23,0.06,1721207100329
0.62,1.19,14.55,0.10,0.02,-0.03,1721207100339
0.83,1.96,4.74,0.15,0.06,-0.19,1721207100349
-1.30,0.93,8.64,0.14,0.10,-0.28,1721207100359
-1.57,0.84,9.86,0.18,0.09,-0.05,1721207100369
-1.36,4.91,12.57,0.15,0.14,0.01,1721207100379
0.43,1.11,12.35,0.03,0.07,-0.01,1721207100389
-0.28,-1.92,8.38,0.00,-0.05,-0.10,1721207100399
-0.94,-2.34,9.60,0.08,0.18,-0.14,1721207100409
0.03,0.43,12.59,0.15,0.08,-0.15,1721207100419
-1.66,3.60,7.63,0.23,-0.07,-0.10,1721207100429
-2.08,3.70,7.90,0.15,0.17,-0.05,1721207100439
-0.77,-0.21,12.62,0.02,0.07,-0.01,1721207100449
-0.98,-1.70,11.63,0.03,-0.04,0.00,1721207100459
-0.46,-0.99,3.76,0.15,-0.00,-0.05,1721207100469
1.73,1.88,11.11,-0.01,0.27,-0.05,1721207100479
-1.12,5.84,12.38,0.16,-0.23,0.02,1721207100489
-1.35,-4.06,9.97,-0.12,0.17,-0.08,1721207100499
0.11,-4.63,17.41,0.04,0.14,-0.08,1721207100509
0.31,3.09,7.84,0.10,-0.11,0.04,1721207100519
-1.02,3.39,7.46,-0.02,0.00,0.10,1721207100529
1.42,2.01,7.06,0.30,0.07,0.13,1721207100539
3.58,-3.21,3.27,0.02,0.06,-0.02,1721207100549
0.53,0.50,12.95,-0.08,0.09,-0.22,1721207100559
-0.65,1.11,14.87,-0.08,0.05,-0.27,1721207100569
-3.79,2.68,15.41,-0.03,-0.05,-0.15,1721207100579
-3.36,0.71,7.92,0.12,-0.01,0.20,1721207100589
-0.40,-3.52,4.73,-0.10,0.08,0.31,1721207100599
1.81,2.91,12.59,-0.10,0.15,0.11,1721207100609
2.37,3.11,12.95,-0.06,-0.04,-0.10,1721207100619
-0.65,-1.63,9.95,-0.16,-0.10,-0.17,1721207100629
-2.85,1.18,10.36,0.03,-0.05,-0.04,1721207100639
-1.82,-0.20,3.10,-0.07,-0.06,0.20,1721207100649
-1.14,3.74,11.75,-0.12,0.14,0.14,1721207100659
1.89,-0.89,9.23,-0.15,-0.00,0.03,1721207100669
-0.99,-6.84,13.50,-0.42,-0.13,-0.02,1721207100679
-2.35,3.98,16.73,0.06,-0.04,-0.08,1721207100689
-0.28,-0.17,2.55,-0.27,0.16,0.07,1721207100704
-0.03,1.16,8.51,-0.27,0.19,0.15,1721207100708
1.13,-0.70,14.76,0.03,-0.05,0.11,1721207100718
0.93,3.92,7.13,0.08,-0.04,-0.02,1721207100728
-0.35,-5.59,2.14,-0.15,-0.12,0.02,1721207100738
-2.93,-3.33,14.43,-0.33,0.08,-0.06,1721207100748
-0.41,4.79,17.18,0.06,-0.01,-0.00,1721207100758
0.79,-1.24,3.88,-0.02,-0.16,0.17,1721207100768
2.09,0.82,13.62,-0.09,0.21,0.10,1721207100778
3.51,2.89,12.90,0.07,-0.08,-0.08,1721207100788
0.73,-3.13,9.01,-0.34,0.02,-0.21,1721207100798
-3.26,2.94,17.33,-0.04,-0.08,-0.22,1721207100808
-1.38,1.12,4.39,0.21,-0.11,0.12,1721207100818
0.21,-4.83,4.78,-0.14,0.16,0.20,1721207100828
1.22,-0.32,16.80,-0.05,0.01,0.04,1721207100838
1.06,6.18,13.00,0.12,-0.02,-0.21,1721207100848
0.60,-1.52,6.91,0.01,-0.02,-0.12,1721207100858
-0.95,0.34,11.93,0.12,0.07,0.01,1721207100868
1.91,-2.52,8.46,0.18,0.12,0.05,1721207100878
-0.26,2.04,9.88,0.16,0.03,-0.08,1721207100888
0.56,5.85,11.62,0.23,0.06,-0.21,1721207100898
0.95,-0.54,10.25,0.07,0.04,-0.14,1721207100908
-1.49,-0.69,12.74,0.12,0.01,-0.11,1721207100918
-0.59,-0.79,7.77,0.12,0.10,-0.06,1721207100928
-0.50,2.79,10.47,0.13,0.04,-0.02,1721207100938
1.16,1.69,8.62,0.12,0.14,-0.03,1721207100948
1.19,-1.77,7.88,0.10,0.03,-0.12,1721207100958
0.22,-5.16,9.85,-0.06,0.15,-0.21,1721207100968
-1.64,2.58,16.42,0.13,0.03,-0.25,1721207100978
-1.13,2.99,9.83,0.27,0.09,-0.04,1721207100988
-0.17,0.75,10.07,0.19,0.16,0.02,1721207100998
-0.84,0.12,10.35,0.21,0.04,-0.10,1721207101008
-1.10,-0.41,7.84,0.11,0.09,-0.17,1721207101018
-1.60,0.91,11.87,0.04,0.12,-0.14,1721207101028
-2.22,3.08,9.09,0.17,-0.00,-0.03,1721207101038
-0.80,-5.02,4.39,-0.00,0.08,0.11,1721207101048
0.37,-1.33,12.05,-0.01,0.18,0.03,1721207101058
1.49,6.48,10.16,0.20,0.05,-0.08,1721207101068
0.68,3.47,4.87,-0.09,0.01,-0.05,1721207101078
-2.10,0.03,14.46,-0.22,0.01,-0.09,1721207101088
-1.19,-6.12,12.95,-0.21,0.02,0.02,1721207101098
-0.92,1.51,14.20,-0.05,0.05,0.06,1721207101108
1.69,1.50,5.24,-0.07,0.07,0.09,1721207101118
0.96,-1.27,7.90,-0.16,-0.01,-0.03,1721207101128
-0.17,0.14,13.86,0.06,0.06,-0.16,1721207101138
-1.39,4.03,10.06,0.18,-0.07,-0.07,1721207101148
-1.41,3.87,3.58,-0.07,-0.02,0.12,1721207101158
1.19,1.82,9.87,-0.19,0.14,0.17,1721207101168
3.39,-3.63,11.26,-0.17,-0.02,0.05,1721207101178
2.14,-2.23,8.62,-0.08,-0.03,-0.30,1721207101188
-0.64,-0.76,9.80,-0.17,0.05,-0.43,1721207101198
-3.96,-0.24,12.26,-0.16,-0.01,-0.22,1721207101208
-3.64,-0.46,12.69,-0.18,0.05,0.18,1721207101218
-0.88,1.81,12.52,-0.01,0.05,0.36,1721207101228
2.85,1.21,5.98,0.03,-0.09,0.22,1721207101238
3.76,0.05,7.13,-0.11,0.07,-0.07,1721207101248
2.49,-0.40,14.69,-0.14,0.08,-0.32,1721207101258
-0.68,1.29,14.43,-0.12,-0.06,-0.27,1721207101268
-3.21,-0.59,13.47,-0.15,-0.04,-0.08,1721207101278
-2.15,-2.13,8.22,-0.00,-0.04,0.16,1721207101288
0.66,0.74,7.03,0.01,0.15,0.09,1721207101298
2.26,-0.22,12.02,0.03,0.04,-0.08,1721207101308
0.15,5.21,9.60,0.23,-0.09,-0.24,1721207101318
-1.44,0.05,4.73,0.10,0.02,-0.14,1721207101328
-2.13,-3.60,10.03,-0.02,0.11,0.03,1721207101338
0.16,-0.02,16.32,-0.03,0.03,0.11,1721207101348
0.48,0.76,11.10,0.06,-0.05,-0.10,1721207101358
-0.37,-0.14,8.40,0.09,-0.01,-0.21,1721207101368
-1.98,-2.09,10.40,0.04,0.02,-0.03,1721207101378
-0.15,1.33,13.30,0.11,0.06,0.08,1721207101388
0.76,3.09,8.34,0.23,-0.00,-0.08,1721207101398
0.16,-1.77,4.29,0.05,-0.02,-0.18,1721207101408
-1.75,2.29,10.89,0.10,0.05,-0.17,1721207101418
-0.25,1.09,10.16,0.12,0.02,-0.08,1721207101428
-0.26,-6.06,9.94,-0.18,-0.00,-0.07,1721207101438
-2.15,-3.70,15.34,-0.10,-0.03,-0.15,1721207101448
-1.24,2.96,10.97,0.19,0.03,-0.16,1721207101458
0.81,1.99,9.35,0.07,0.09,-0.07,1721207101468
-1.69,6.82,10.55,0.21,-0.19,-0.02,1721207101478
0.35,1.05,8.99,0.07,0.12,-0.14,1721207101488
-0.74,-2.35,11.15,-0.03,-0.09,-0.16,1721207101498
-3.56,0.43,4.84,0.04,-0.18,-0.07,1721207101508
-0.44,0.47,11.08,0.07,0.21,0.03,1721207101518
0.99,2.68,11.10,0.25,-0.15,0.07,1721207101528
1.05,0.81,6.82,0.08,-0.01,0.00,1721207101538
1.44,1.43,11.95,0.07,0.01,-0.11,1721207101548
1.48,3.54,12.03,0.02,-0.01,-0.18,1721207101558
-0.29,-1.81,12.33,-0.08,-0.07,-0.13,1721207101568
-0.64,-2.04,9.70,0.17,-0.09,-0.02,1721207101578
1.55,1.96,6.38,0.17,0.10,-0.02,1721207101588
0.04,2.75,8.09,0.03,-0.08,-0.12,1721207101598
-1.84,-0.72,15.42,-0.16,0.07,-0.17,1721207101608
-3.28,0.28,16.29,0.14,-0.13,-0.09,1721207101618
-2.30,1.41,1.45,0.12,-0.11,0.12,1721207101628
0.41,-3.24,6.79,-0.17,0.14,0.21,1721207101638
1.67,-0.66,10.83,0.06,-0.04,0.11,1721207101648
1.67,3.05,5.95,0.17,0.02,-0.12,1721207101658
0.56,1.51,12.32,-0.12,0.08,-0.18,1721207101668
-0.88,-1.36,18.09,-0.13,-0.07,-0.11,1721207101678
-2.25,0.19,10.96,-0.13,-0.15,-0.09,1721207101688
-3.73,1.92,4.58,-0.17,-0.10,0.02,1721207101698
-0.46,-3.11,7.91,-0.26,0.13,0.16,1721207101708
2.03,-5.28,15.14,-0.19,0.02,0.18,1721207101718
2.16,5.71,11.47,-0.02,-0.06,-0.06,1721207101728
0.79,2.07,8.67,-0.33,-0.09,-0.30,1721207101738
-3.46,-5.08,14.54,-0.42,-0.19,-0.22,1721207101748
-3.55,0.45,12.74,-0.10,-0.02,0.07,1721207101758
-2.08,-1.87,0.41,-0.06,-0.14,0.20,1721207101768
2.47,-1.21,13.10,-0.22,0.33,0.08,1721207101778
2.77,2.18,17.76,-0.08,-0.19,0.01,1721207101788
0.50,4.12,10.27,0.01,-0.12,-0.08,1721207101798
1.18,0.71,8.98,-0.09,0.04,-0.13,1721207101808
-2.09,0.40,11.64,-0.02,-0.37,0.00,1721207101818
0.23,1.19,8.56,0.05,0.08,-0.02,1721207101828
1.22,-2.17,-0.00,0.15,-0.19,-0.04,1721207101838
1.71,-5.39,10.18,-0.15,0.32,-0.07,1721207101848
0.62,4.21,25.52,0.05,-0.10,-0.01,1721207101858
-1.34,7.12,9.75,0.29,-0.29,-0.04,1721207101868
1.10,-2.21,3.91,-0.08,0.11,-0.02,1721207101878
0.33,-4.93,16.29,-0.10,-0.18,-0.03,1721207101888
-0.90,4.38,8.96,0.28,-0.14,-0.03,1721207101898
0.61,0.77,1.57,0.09,0.07,-0.06,1721207101908
-0.01,-6.32,16.04,-0.24,0.09,-0.13,1721207101918
0.19,3.14,20.70,0.16,-0.05,-0.17,1721207101928
0.28,8.06,5.76,0.30,-0.07,-0.01,1721207101938
1.99,-0.05,9.34,0.00,0.18,0.08,1721207101948
1.44,-6.79,12.39,0.22,-0.18,-0.03,1721207101958
0.02,4.68,4.47,0.31,-0.01,-0.25,1721207101968
1.25,2.29,10.54,0.15,0.14,-0.15,1721207101978
-0.81,0.82,12.08,0.12,-0.13,-0.07,1721207101988
-1.48,2.44,10.66,0.14,0.04,-0.10,1721207101998
1.30,-4.31,7.63,0.09,0.10,-0.08,1721207102008
0.96,-1.11,10.64,0.06,0.08,-0.16,1721207102018
-0.32,0.66,8.11,0.24,-0.06,-0.22,1721207102028
-0.29,0.41,7.47,0.21,0.12,-0.17,1721207102038
-0.85,3.69,9.88,0.28,0.03,-0.11,1721207102048
-0.92,-2.11,6.90,-0.02,0.01,-0.14,1721207102058
-0.12,-4.99,15.35,-0.07,0.20,-0.21,1721207102068
-0.63,4.27,14.20,0.17,-0.00,-0.13,1721207102078
0.79,4.13,9.57,-0.02,0.16,-0.03,1721207102088
0.82,-5.74,8.86,-0.03,0.07,-0.24,1721207102098
-1.47,-0.33,6.96,0.01,-0.01,-0.35,1721207102108
-1.74,4.80,10.30,-0.03,0.06,-0.08,1721207102118
-0.86,1.51,8.01,-0.16,0.00,-0.07,1721207102128
0.03,-2.80,13.58,-0.10,0.17,-0.20,1721207102138
0.24,1.60,7.96,0.14,0.03,-0.12,1721207102148
2.35,0.55,8.26,-0.28,0.26,-0.13,1721207102158
0.70,0.30,15.62,-0.08,-0.05,-0.30,1721207102168
-1.91,2.61,9.41,-0.04,0.03,-0.38,1721207102178
-2.44,4.87,15.49,-0.05,0.07,-0.12,1721207102188
0.06,-1.35,5.35,-0.13,-0.00,0.11,1721207102198
2.59,-2.54,12.58,-0.32,0.32,-0.10,1721207102208
2.34,7.18,9.71,0.21,-0.07,-0.34,1721207102218
0.97,-2.88,0.15,-0.13,0.21,-0.51,1721207102228
-5.04,-3.34,19.24,-0.10,-0.08,-0.30,1721207102238
-3.96,6.71,9.64,0.21,0.03,0.01,1721207102248
1.07,2.81,4.27,-0.17,0.22,0.22,1721207102258
3.15,-7.02,12.31,-0.31,0.11,-0.02,1721207102268
2.87,-2.40,11.53,0.17,0.13,-0.39,1721207102278
0.14,5.91,0.96,0.40,0.13,-0.44,1721207102288
-0.39,-0.19,6.74,-0.02,0.29,-0.32,1721207102298
-2.01,-2.73,27.28,-0.12,0.09,-0.08,1721207102308
-1.53,7.19,12.77,0.39,-0.06,-0.03,1721207102318
0.64,-1.21,-2.26,-0.03,0.10,-0.02,1721207102328
-0.42,-0.90,11.87,-0.10,0.32,-0.11,1721207102338
1.86,-0.05,12.99,0.17,0.21,-0.29,1721207102348
-1.79,0.89,2.12,0.19,0.05,-0.39,1721207102358
-1.28,-7.80,14.28,-0.32,0.45,-0.21,1721207102368
-1.95,6.31,30.59,0.16,-0.07,0.12,1721207102378
-0.29,6.48,0.43,0.42,-0.13,0.17,1721207102388
1.27,-10.63,1.75,-0.26,0.21,-0.03,1721207102398
-2.09,-0.30,16.34,0.04,-0.02,-0.07,1721207102408
1.39,4.09,7.58,0.35,0.25,-0.28,1721207102418
-2.03,-2.65,3.00,0.07,-0.06,-0.29,1721207102428
-3.84,-3.28,14.38,0.08,0.44,-0.10,1721207102438
0.47,5.26,21.91,0.37,0.23,0.18,1721207102448
0.96,9.66,2.66,0.45,-0.21,0.12,1721207102458
0.73,-4.03,-3.05,-0.02,0.07,-0.11,1721207102468
-0.84,-5.76,14.67,-0.24,0.24,-0.26,1721207102478
-0.46,3.73,20.32,0.23,0.20,-0.28,1721207102488
-1.84,2.34,-2.08,0.18,-0.09,-0.19,1721207102498
-1.05,-3.65,7.50,-0.21,0.34,0.03,1721207102508
1.91,-1.38,26.41,0.05,0.15,0.30,1721207102518
1.33,3.98,9.72,0.25,-0.23,0.09,1721207102528
2.33,1.29,5.99,-0.01,0.22,-0.23,1721207102538
-0.39,1.73,10.78,-0.01,-0.16,-0.15,1721207102548
-2.03,0.20,7.23,0.01,0.02,-0.06,1721207102558
0.56,-2.85,10.65,0.01,0.26,-0.11,1721207102568
0.73,0.53,11.38,0.04,0.05,-0.09,1721207102578
-0.53,5.01,12.23,0.07,0.07,-0.10,1721207102588
-0.38,1.15,5.33,0.11,0.01,-0.07,1721207102598
-1.17,-2.67,5.05,0.02,0.09,-0.03,1721207102608
-1.39,4.43,7.52,0.18,0.09,0.07,1721207102618
1.05,-0.17,6.10,-0.12,0.17,0.06,1721207102628
0.62,-4.68,14.96,-0.20,0.08,-0.00,1721207102638
-0.31,1.19,13.76,0.05,0.09,-0.11,1721207102648
-0.87,2.38,9.27,-0.16,0.09,-0.05,1721207102658
-1.82,-1.39,10.64,-0.13,-0.06,0.04,1721207102668
-1.19,-4.15,9.05,-0.21,0.11,0.11,1721207102678
-1.41,3.58,15.61,-0.07,-0.01,0.09,1721207102688
-1.15,2.43,7.69,-0.05,-0.07,0.02,1721207102698
-1.71,-0.03,9.76,-0.18,0.13,0.01,1721207102713
-1.44,2.64,10.90,-0.09,-0.04,0.02,1721207102717
-0.87,0.54,10.01,-0.24,0.05,0.05,1721207102727
-2.06,-2.78,13.13,-0.27,-0.07,0.03,1721207102737
-1.01,2.53,11.02,-0.09,0.01,0.05,1721207102747
-0.26,7.84,6.92,-0.07,-0.07,0.16,1721207102757
1.22,-0.83,8.88,-0.25,0.07,0.11,1721207102767
0.67,-7.59,13.58,-0.20,-0.01,-0.03,1721207102777
-1.86,10.06,8.99,0.17,-0.13,-0.03,1721207102787
0.24,-1.13,2.75,-0.12,-0.01,0.15,1721207102797
-0.18,-6.04,14.92,-0.27,-0.01,0.16,1721207102807
1.37,4.79,14.16,0.15,-0.08,0.02,1721207102817
0.76,1.27,6.75,-0.15,-0.09,0.06,1721207102827
-0.97,0.11,12.84,-0.12,-0.07,0.05,1721207102837
1.81,-4.95,8.41,-0.13,0.08,-0.01,1721207102847
-0.44,1.82,13.94,-0.13,-0.11,0.05,1721207102857
0.96,1.63,11.20,0.08,-0.00,0.05,1721207102867
0.94,-3.85,3.29,-0.04,-0.03,-0.14,1721207102877
-0.83,1.25,13.54,-0.07,0.02,-0.02,1721207102887
-0.14,3.06,16.17,-0.02,0.03,0.02,1721207102897
0.44,-0.94,7.66,-0.04,-0.11,-0.06,1721207102907
0.50,0.94,10.07,-0.10,0.17,-0.12,1721207102917
-0.70,-1.04,12.27,-0.10,-0.18,-0.05,1721207102927
-0.79,-1.19,11.85,-0.05,0.04,0.00,1721207102937
1.00,-0.50,10.67,-0.02,0.13,0.13,1721207102947
0.93,2.49,12.10,-0.01,-0.03,0.04,1721207102957
2.12,4.03,11.58,0.07,-0.02,-0.12,1721207102967
1.80,-3.27,8.46,-0.05,-0.03,-0.19,1721207102977
-1.21,2.49,11.85,0.09,0.07,-0.10,1721207102987
0.23,0.04,11.45,-0.00,0.14,-0.05,1721207102997
-0.22,-2.39,15.56,0.05,-0.11,-0.05,1721207103007
0.05,3.49,10.53,0.23,0.09,-0.07,1721207103017
0.84,5.56,7.58,0.25,0.08,-0.07,1721207103027
0.17,-0.43,6.46,0.12,0.04,-0.14,1721207103037
0.16,-7.12,10.12,0.08,0.14,-0.23,1721207103047
-1.69,8.76,13.00,0.43,-0.03,-0.14,1721207103057
-0.07,3.61,4.02,0.08,0.08,-0.02,1721207103067
-0.40,-6.12,14.81,-0.21,0.06,-0.07,1721207103077
-0.97,0.56,13.92,0.23,-0.01,-0.12,1721207103087
0.82,0.71,3.50,-0.01,0.15,-0.06,1721207103097
-1.39,1.04,14.06,-0.10,0.05,-0.16,1721207103107
-1.39,-1.23,12.35,0.14,0.04,-0.18,1721207103117
-1.30,3.15,9.46,0.13,0.05,0.03,1721207103127
1.13,2.76,9.35,-0.03,0.15,0.08,1721207103137
1.68,-2.25,9.40,-0.08,-0.01,-0.10,1721207103147
0.25,1.18,13.09,0.06,0.05,-0.23,1721207103157
-0.73,0.98,7.56,0.11,0.00,-0.13,1721207103167
-1.49,0.31,7.02,0.03,0.07,-0.07,1721207103177
0.50,1.32,10.77,-0.00,0.18,-0.09,1721207103187
1.04,1.45,9.49,0.06,-0.03,0.01,1721207103197
2.18,1.10,10.20,-0.06,0.25,-0.16,1721207103207
0.62,-4.25,13.19,-0.03,-0.01,-0.28,1721207103217
-2.37,2.13,8.56,0.11,-0.08,-0.13,1721207103227
-0.87,3.02,6.79,-0.06,0.16,0.09,1721207103237
-0.27,-2.56,11.92,-0.16,0.08,-0.06,1721207103247
-0.04,-2.01,12.01,-0.02,0.10,-0.17,1721207103257
0.19,-0.94,6.28,0.01,0.09,-0.07,1721207103267
0.40,2.75,13.17,-0.04,0.20,-0.08,1721207103277
0.12,3.38,8.56,0.18,0.03,-0.12,1721207103287
0.48,-2.78,7.32,-0.09,0.16,-0.08,1721207103297
-0.17,-0.85,12.97,0.08,0.08,-0.04,1721207103307
-0.31,1.56,5.26,0.04,-0.03,-0.04,1721207103317
-0.54,2.46,11.39,-0.01,0.19,-0.15,1721207103327
0.11,0.57,10.07,0.14,0.12,-0.20,1721207103337
-0.89,-1.82,5.73,-0.00,0.07,-0.08,1721207103347
-0.87,-5.42,11.26,-0.11,0.15,0.03,1721207103357
-0.43,5.79,14.83,0.17,0.09,-0.05,1721207103367
0.39,4.87,10.22,0.06,0.02,-0.17,1721207103377
-2.46,-3.37,9.10,-0.07,-0.08,-0.12,1721207103387
-2.79,-0.83,11.40,-0.01,0.13,0.00,1721207103397
-1.19,3.24,5.57,0.10,-0.00,0.09,1721207103407
0.98,-3.48,8.19,-0.22,0.18,-0.00,1721207103417
0.05,-6.54,18.16,-0.08,-0.01,-0.01,1721207103427
0.23,4.49,9.62,0.28,-0.03,-0.00,1721207103437
1.72,3.18,8.66,-0.07,0.20,-0.04,1721207103447
-2.23,2.96,11.89,0.03,-0.28,-0.08,1721207103457
-1.50,0.99,8.94,0.10,0.14,-0.15,1721207103467
-1.41,-4.77,6.29,0.01,-0.14,-0.03,1721207103477
-1.48,-1.62,10.31,0.04,0.15,0.06,1721207103487
1.84,2.60,17.07,0.09,0.22,-0.01,1721207103497
-0.53,16.25,12.60,0.34,-0.18,-0.10,1721207103507
-0.40,-1.72,3.43,-0.06,-0.02,-0.12,1721207103517
-2.78,-10.15,14.27,-0.24,-0.05,-0.01,1721207103527
-1.92,6.27,10.69,0.32,-0.06,0.15,1721207103537
1.93,-1.34,-1.55,-0.06,-0.08,0.20,1721207103547
-0.37,-1.33,13.17,-0.14,0.17,0.01,1721207103557
2.63,1.96,16.07,0.33,0.01,-0.11,1721207103567
1.41,1.83,5.95,0.04,-0.07,-0.08,1721207103577
-0.48,0.24,18.11,-0.24,0.19,-0.20,1721207103587
-0.11,1.78,19.54,0.16,-0.07,-0.11,1721207103597
-0.70,8.50,4.54,0.28,-0.14,0.06,1721207103607
-0.23,0.91,-2.00,0.09,-0.09,0.18,1721207103617
0.24,-7.74,8.42,-0.28,0.17,-0.03,1721207103627
-1.00,1.66,19.88,0.03,0.01,-0.18,1721207103637
-3.31,5.17,7.36,0.18,-0.20,-0.06,1721207103647
-2.24,2.43,7.20,-0.00,0.08,0.21,1721207103657
0.83,-7.27,0.30,0.02,-0.16,0.35,1721207103667
3.47,2.99,11.08,-0.04,0.46,0.15,1721207103677
4.62,3.04,17.85,-0.18,-0.23,-0.15,1721207103687
-3.41,-8.76,14.13,-0.35,-0.39,-0.25,1721207103697
-4.71,-0.14,16.99,0.06,0.03,-0.13,1721207103707
-1.43,7.24,-0.59,0.14,-0.12,0.11,1721207103717
1.68,-1.02,7.69,-0.41,0.30,0.17,1721207103727
2.36,-3.73,23.73,-0.12,0.00,-0.01,1721207103737
-0.71,5.70,7.48,0.25,-0.34,-0.14,1721207103747
-0.61,-0.56,1.56,-0.30,0.06,-0.14,1721207103757
-3.56,-0.86,16.81,-0.28,-0.21,-0.01,1721207103767
-2.62,-1.82,6.62,-0.05,-0.16,0.05,1721207103777
0.31,-7.21,2.32,-0.20,0.03,0.16,1721207103787
1.49,-2.40,14.22,-0.05,0.12,0.08,1721207103797
4.01,1.05,14.00,0.06,0.01,0.05,1721207103807
1.22,9.97,12.88,0.07,-0.10,-0.12,1721207103817
2.37,6.77,11.52,-0.02,0.03,-0.21,1721207103827
-0.24,-8.67,9.01,-0.24,-0.23,-0.23,1721207103837
-3.19,-2.06,9.93,-0.05,-0.04,-0.22,1721207103847
-1.36,1.28,0.90,0.06,-0.06,-0.01,1721207103857
0.05,-4.11,15.84,-0.28,0.34,0.04,1721207103867
1.04,2.91,17.92,0.17,-0.10,-0.11,1721207103877
2.09,0.66,1.27,0.18,-0.01,-0.10,1721207103887
0.79,1.27,12.89,-0.11,0.27,-0.26,1721207103897
-0.22,9.02,18.80,0.28,-0.16,-0.24,1721207103907
-1.46,-2.80,2.59,0.10,-0.05,-0.04,1721207103917
-0.16,-6.95,11.40,-0.13,0.26,-0.08,1721207103927
-0.55,3.32,15.51,0.15,-0.10,-0.12,1721207103937
-0.53,2.36,8.19,0.05,0.07,-0.13,1721207103947
-1.14,4.49,15.38,0.26,0.03,-0.08,1721207103957
0.67,4.41,5.86,0.49,0.03,0.02,1721207103967
1.79,-0.07,3.06,0.17,0.18,-0.01,1721207103977
0.49,6.91,15.18,0.16,0.08,-0.29,1721207103987
-0.54,-1.40,8.04,0.04,-0.07,-0.23,1721207103997
-2.96,-7.67,10.47,-0.10,0.08,-0.10,1721207104007
-1.11,-4.52,14.06,0.20,0.14,0.06,1721207104017
2.27,5.76,10.41,0.35,0.12,0.06,1721207104027
3.12,10.05,12.39,0.30,0.16,-0.22,1721207104037
-1.11,3.92,8.61,0.32,-0.13,-0.34,1721207104047
-3.11,-6.62,7.55,0.04,0.20,-0.23,1721207104057
-3.11,0.64,9.74,0.25,0.04,0.05,1721207104067
0.03,1.65,-2.07,0.09,0.10,0.19,1721207104077
3.59,-5.04,10.07,-0.26,0.33,-0.05,1721207104087
0.19,1.13,22.69,0.25,-0.18,-0.30,1721207104097
-1.92,0.80,2.49,0.24,-0.03,-0.27,1721207104107
-2.17,0.74,6.16,-0.26,0.26,-0.10,1721207104117
-0.64,4.68,19.23,-0.07,0.07,0.10,1721207104127
0.80,1.19,6.55,0.05,-0.05,0.06,1721207104137
1.22,-1.62,-0.14,-0.21,0.11,-0.17,1721207104147
1.79,-3.01,13.57,-0.36,0.31,-0.31,1721207104157
0.38,-2.99,19.83,-0.32,0.02,-0.20,1721207104167
-2.65,0.17,17.92,-0.14,-0.05,-0.08,1721207104177
-1.78,1.41,5.48,0.12,0.08,0.05,1721207104187
2.04,4.58,5.88,-0.05,0.23,0.13,1721207104197
2.81,2.26,9.95,-0.14,-0.11,0.13,1721207104207
0.44,-0.21,8.07,-0.16,0.02,-0.28,1721207104217
-0.32,-5.09,16.12,-0.24,0.22,-0.39,1721207104227
-3.32,-2.08,14.52,-0.03,-0.09,-0.05,1721207104237
-3.22,2.44,9.72,-0.04,0.06,0.23,1721207104247
0.68,4.81,9.93,0.04,0.05,0.24,1721207104257
3.21,5.51,8.28,0.14,0.12,0.06,1721207104267
2.08,-1.44,7.68,-0.11,-0.02,-0.18,1721207104277
-2.63,-2.18,11.18,-0.13,-0.17,-0.12,1721207104287
-2.76,1.94,10.01,0.01,0.10,0.08,1721207104297
0.59,-4.44,9.29,-0.15,-0.01,0.25,1721207104307
-0.22,-0.06,12.77,0.04,-0.06,0.14,1721207104317
1.92,1.65,11.19,0.10,0.04,-0.02,1721207104327
0.05,5.52,17.61,0.02,-0.07,-0.01,1721207104337
-2.18,2.69,8.86,0.16,-0.23,0.05,1721207104347
-1.76,-2.78,4.75,-0.00,-0.01,0.07,1721207104357
-0.19,-1.40,10.05,0.15,-0.02,0.19,1721207104367
1.23,-4.84,5.81,0.05,-0.17,0.25,1721207104377
-0.61,1.23,13.00,0.07,-0.03,0.04,1721207104387
1.57,3.18,14.82,0.22,-0.02,-0.01,1721207104397
-0.67,1.37,9.77,0.15,-0.17,0.07,1721207104407
-0.51,0.11,6.87,0.15,-0.10,0.15,1721207104417
-0.05,3.13,3.64,0.17,-0.23,0.16,1721207104427
2.09,-0.07,11.42,-0.08,0.10,0.05,1721207104437
1.48,-0.99,14.45,-0.00,-0.19,-0.07,1721207104447
-1.55,-2.05,6.86,-0.16,-0.30,-0.08,1721207104457
-2.25,-2.53,16.27,-0.29,-0.05,-0.04,1721207104467
1.02,0.13,12.32,0.12,-0.13,0.08,1721207104477
1.72,-2.89,3.30,-0.09,-0.12,0.04,1721207104487
1.10,0.81,10.07,-0.02,0.01,-0.11,1721207104497
3.06,7.25,13.43,0.17,0.03,-0.26,1721207104507
0.51,6.65,10.02,-0.02,-0.18,-0.37,1721207104517
-2.72,-4.27,13.94,-0.24,-0.11,-0.35,1721207104527
-4.75,-3.90,8.41,0.00,-0.27,-0.12,1721207104537
-2.30,2.43,5.15,0.02,0.06,-0.03,1721207104547
3.51,4.62,10.25,0.13,0.09,-0.04,1721207104557
3.04,-0.68,0.76,0.07,-0.24,-0.19,1721207104567
0.40,-0.57,9.44,-0.14,0.20,-0.51,1721207104577
0.38,3.66,19.47,0.04,0.06,-0.52,1721207104587
-2.65,3.05,6.29,-0.01,-0.19,-0.30,1721207104597
-2.35,-4.39,9.16,-0.32,0.16,-0.13,1721207104607
-0.08,-2.95,21.72,-0.10,0.09,-0.06,1721207104617
2.09,4.37,14.52,0.10,0.03,-0.17,1721207104627
1.34,1.22,7.47,-0.15,-0.03,-0.27,1721207104637
-0.79,2.52,18.68,-0.07,0.08,-0.35,1721207104647
-0.40,0.45,9.02,0.17,-0.10,-0.20,1721207104657
-1.87,-1.39,4.29,0.12,-0.16,-0.13,1721207105194
-0.95,-4.07,-0.21,-0.08,0.03,-0.03,1721207105199
-0.37,-1.21,13.52,-0.36,0.25,0.12,1721207105209
0.85,11.69,23.99,0.21,0.07,-0.07,1721207105219
0.66,7.31,-3.23,0.32,-0.25,-0.16,1721207105229
-2.39,-13.16,-10.64,-0.58,-0.01,-0.06,1721207105239
2.27,-17.54,21.64,-0.74,0.61,0.07,1721207105249
0.78,7.02,33.01,0.20,-0.02,-0.09,1721207105259
0.71,8.67,0.65,0.17,-0.21,-0.27,1721207105269
-2.69,0.28,4.28,-0.22,0.19,-0.21,1721207105279
-2.97,-7.77,10.07,-0.10,-0.00,0.19,1721207105289
0.97,0.69,13.51,-0.12,0.25,0.19,1721207105299
3.68,3.51,9.59,0.10,-0.14,-0.07,1721207105309
0.26,-1.13,-0.59,0.01,-0.14,-0.28,1721207105319
-1.04,-7.27,8.62,-0.15,0.27,-0.23,1721207105329
-1.00,-3.87,25.53,-0.09,0.10,0.02,1721207105339
-2.01,13.86,16.62,0.36,-0.13,0.01,1721207105348
-0.21,1.83,-3.39,-0.02,-0.15,-0.03,1721207105358
-1.21,-5.71,13.78,-0.30,0.34,0.00,1721207105367
2.18,0.10,21.54,0.16,0.09,0.06,1721207105377
1.81,12.89,8.44,0.08,-0.05,-0.16,1721207105386
-0.96,3.36,7.51,-0.15,-0.11,-0.22,1721207105396
-1.87,-15.54,11.67,-0.31,0.03,-0.11,1721207105405
-2.14,-4.70,16.35,-0.01,-0.05,0.13,1721207105415
0.14,9.21,6.85,0.22,-0.05,0.15,1721207105425
3.45,4.26,8.76,0.03,0.22,-0.07,1721207105435
-0.34,-0.17,7.35,0.16,-0.22,-0.16,1721207105444
-0.30,-6.24,9.85,0.00,0.28,-0.23,1721207105454
0.65,-0.42,19.10,0.08,0.03,-0.16,1721207105463
-1.36,11.98,4.43,0.51,-0.07,-0.11,1721207105473
1.77,-1.74,0.88,0.07,0.11,-0.06,1721207105482
-3.04,-6.42,11.03,-0.08,-0.03,-0.30,1721207105492
-0.57,1.38,12.92,0.27,0.32,-0.34,1721207105502
-0.98,6.39,6.09,0.13,-0.00,-0.25,1721207105512
-4.29,4.53,6.64,0.02,-0.00,-0.12,1721207105522
-2.90,-6.07,2.45,-0.08,0.01,-0.07,1721207105532
-1.12,-4.24,9.86,-0.06,0.21,-0.05,1721207105542
1.25,0.70,11.83,0.01,0.06,-0.03,1721207105552
0.31,2.03,14.55,-0.19,-0.04,-0.08,1721207105562
-0.45,1.97,21.34,-0.05,0.09,-0.11,1721207105572
2.04,-1.57,16.27,0.01,0.08,-0.13,1721207105582
0.39,6.60,4.95,0.12,-0.19,-0.06,1721207105592
2.03,6.22,9.42,-0.09,0.31,-0.08,1721207105602
0.80,0.84,10.94,0.08,-0.15,-0.17,1721207105612
-0.96,-2.35,7.00,0.13,0.11,-0.27,1721207105622
-2.49,-1.25,10.01,0.05,0.02,-0.17,1721207105632
-4.77,5.22,12.11,0.13,-0.01,-0.03,1721207105642
-4.41,2.13,1.04,0.18,-0.09,0.19,1721207105652
-0.74,-0.89,15.35,-0.04,0.46,0.18,1721207105662
2.45,1.78,16.66,0.24,-0.02,0.26,1721207105672
2.42,4.33,2.46,0.11,-0.09,0.14,1721207105682
2.11,-1.70,5.62,-0.25,0.09,-0.05,1721207105692
-0.36,-4.05,16.99,-0.23,-0.11,-0.14,1721207105702
-2.18,-1.61,11.91,0.19,-0.06,-0.06,1721207105712
-0.21,0.69,4.99,0.10,0.16,0.01,1721207105722
-1.07,6.66,7.79,0.02,-0.09,0.04,1721207105732
-1.21,3.11,4.28,-0.19,-0.02,-0.03,1721207105742
-0.88,-10.10,14.32,-0.47,0.19,-0.11,1721207105752
-3.31,-5.17,17.65,-0.04,-0.07,-0.10,1721207105762
-2.38,2.12,0.75,0.07,-0.06,0.14,1721207105772
0.34,0.23,8.57,-0.37,0.17,0.25,1721207105782
2.05,-3.35,19.64,-0.23,-0.10,0.15,1721207105792
1.92,1.52,10.39,0.06,-0.09,-0.03,1721207105802
0.96,1.59,3.73,-0.18,-0.01,-0.12,1721207105812
-1.70,2.37,11.81,-0.28,-0.09,-0.06,1721207105822
-1.40,1.48,12.49,-0.17,0.04,-0.06,1721207105832
-0.45,-6.96,4.42,-0.24,-0.10,0.09,1721207105842
0.41,-4.54,11.13,-0.16,0.18,0.08,1721207105852
2.36,1.89,14.93,-0.03,0.01,0.09,1721207105862
0.53,4.60,14.28,-0.12,-0.07,-0.07,1721207105872
0.36,9.09,13.83,0.03,-0.00,-0.07,1721207105882
-0.02,2.08,8.32,0.02,-0.02,-0.11,1721207105892
-1.31,-6.43,6.82,-0.13,-0.05,-0.06,1721207105902
-2.28,0.46,12.82,0.00,0.07,-0.05,1721207105912
0.13,0.39,13.75,0.03,0.04,0.04,1721207105922
0.54,0.89,13.07,0.11,0.03,0.07,1721207105932
1.63,2.71,8.75,0.24,0.02,-0.04,1721207105942
0.47,0.86,10.17,0.13,-0.03,-0.12,1721207105952
-1.51,3.61,12.93,0.25,0.05,-0.09,1721207105962
-0.51,1.80,7.46,0.31,-0.00,0.02,1721207105972
0.32,-3.72,3.08,0.24,0.01,0.12,1721207105982
3.48,0.58,9.90,0.25,0.24,0.02,1721207105992
2.49,0.34,12.39,0.16,-0.02,-0.21,1721207106002
-1.10,-3.17,15.92,-0.01,-0.06,-0.23,1721207106012
-2.09,3.81,17.32,0.32,0.04,-0.09,1721207106022
0.37,6.64,1.69,0.44,0.15,0.12,1721207106032
2.36,-2.15,1.22,0.07,0.15,0.06,1721207106042
0.28,1.37,11.83,0.15,-0.04,-0.19,1721207106052
-0.54,-1.40,5.62,0.21,0.07,-0.24,1721207106062
-1.60,-5.48,11.40,-0.09,0.19,-0.13,1721207106072
-2.84,1.16,19.02,0.13,-0.06,0.01,1721207106082
-1.06,3.00,8.44,0.20,0.01,0.12,1721207106092
1.35,1.14,8.75,-0.01,0.21,0.03,1721207106102
0.60,0.40,9.88,0.05,-0.03,-0.15,1721207106112
-1.32,0.94,7.82,0.03,0.11,-0.26,1721207106122
-1.93,0.39,10.11,0.01,0.10,-0.16,1721207106132
-1.90,-1.71,10.32,-0.01,0.01,0.07,1721207106142
-0.97,0.24,9.60,0.01,0.02,0.18,1721207106152
1.87,4.36,10.18,0.11,0.07,0.08,1721207106162
2.74,3.10,8.43,0.03,0.04,-0.11,1721207106172
0.64,1.80,8.43,-0.08,-0.02,-0.25,1721207106182
-1.53,1.13,12.35,-0.08,-0.02,-0.13,1721207106192
-1.59,-0.79,7.42,0.00,0.02,0.04,1721207106202
0.14,-1.60,8.48,-0.17,0.14,0.01,1721207106212
0.05,2.24,14.64,-0.09,-0.02,-0.04,1721207106222
-0.12,3.03,9.44,-0.01,-0.01,-0.11,1721207106232
-0.75,-5.60,8.63,-0.26,0.05,-0.11,1721207106242
-1.87,-0.84,13.26,-0.08,-0.01,0.01,1721207106252
0.37,1.39,6.68,0.00,0.06,0.12,1721207106262
2.72,0.65,13.80,-0.16,0.15,-0.04,1721207106272
1.26,1.48,13.39,0.06,-0.09,-0.18,1721207106282
-0.08,-0.53,6.14,-0.10,0.05,-0.11,1721207106292
-0.85,-1.48,11.65,-0.17,0.09,-0.07,1721207106302
-0.10,-1.54,10.29,-0.01,0.05,-0.07,1721207106312
0.04,1.78,8.30,0.02,0.03,-0.06,1721207106322
-0.86,1.60,4.99,0.08,0.02,-0.08,1721207106332
0.27,-0.58,8.13,-0.07,0.15,-0.03,1721207106342
0.55,-0.85,13.06,-0.16,0.07,0.01,1721207106352
-0.39,-0.43,13.27,-0.10,0.00,-0.09,1721207106362
0.34,2.03,10.10,0.00,0.05,-0.13,1721207106372
0.27,-4.38,7.04,-0.15,0.06,-0.11,1721207106382
-1.65,-0.23,14.74,-0.04,0.00,-0.04,1721207106392
0.14,4.26,14.41,0.02,0.15,-0.08,1721207106402
-0.87,2.53,12.37,-0.04,0.02,-0.14,1721207106412
-2.22,-0.15,10.80,0.05,0.04,-0.12,1721207106422
-0.66,0.28,7.50,0.17,0.07,0.06,1721207106432
0.39,0.56,8.40,0.02,0.02,0.10,1721207106442
-0.66,2.23,11.18,0.09,-0.07,-0.06,1721207106452
0.23,1.06,10.82,0.20,0.08,-0.13,1721207106462
-0.20,-2.75,8.93,0.02,-0.04,-0.06,1721207106472
-2.59,1.72,15.22,0.06,0.04,-0.07,1721207106482
-1.04,4.70,7.88,0.29,-0.09,-0.05,1721207106492
0.56,-1.35,8.66,0.02,0.18,-0.08,1721207106502
-2.46,-0.50,12.59,0.16,-0.19,0.01,1721207106512
-1.37,-0.30,4.38,0.19,0.12,-0.03,1721207106522
1.12,-0.23,12.41,-0.03,0.14,-0.07,1721207106532
-0.82,4.39,16.78,0.18,-0.21,0.04,1721207106542
-1.23,1.87,5.71,0.16,-0.08,-0.02,1721207106552
-1.68,0.65,6.93,0.16,-0.01,-0.00,1721207106562
-0.39,-3.95,5.91,0.08,-0.02,0.11,1721207106572
-0.18,-1.37,8.64,0.04,-0.04,0.09,1721207106582
1.37,3.70,11.06,0.30,-0.02,-0.02,1721207106592
2.66,3.61,9.78,0.26,0.11,-0.10,1721207106602
0.86,4.37,12.03,0.15,-0.06,-0.06,1721207106612
-0.50,3.52,8.00,0.05,-0.10,-0.11,1721207106622
-1.82,-2.55,8.24,-0.23,-0.06,-0.18,1721207106632
-4.35,-0.56,13.05,0.01,-0.18,-0.01,1721207106642
-0.35,-3.51,7.55,0.04,0.08,0.15,1721207106652
1.23,1.19,12.32,0.08,0.05,0.13,1721207106662
1.85,4.47,8.78,0.13,-0.06,-0.04,1721207106672
-0.16,1.61,10.61,-0.09,-0.00,-0.25,1721207106682
-2.21,1.83,12.29,0.16,-0.19,-0.00,1721207106692
-1.27,-1.15,4.30,0.04,-0.07,0.14,1721207106702
-0.03,0.46,11.65,-0.01,-0.05,0.15,1721207106712
2.10,2.93,12.25,0.09,-0.03,-0.04,1721207106722
1.32,-0.46,11.80,-0.05,0.02,-0.23,1721207106732
-3.88,3.97,9.74,0.09,-0.11,-0.25,1721207106742
-3.18,-2.76,6.90,-0.08,-0.00,-0.11,1721207106752
-1.79,-2.02,6.55,0.06,-0.15,0.23,1721207106762
1.38,6.91,1.21,0.18,0.05,0.36,1721207106772
5.24,-1.32,5.64,-0.24,0.08,0.05,1721207106782
2.83,-9.33,20.25,-0.40,-0.12,-0.41,1721207106792
-2.25,-0.77,18.67,0.01,-0.13,-0.45,1721207106802
-5.74,4.63,9.74,-0.19,-0.03,-0.23,1721207106812
-4.57,2.83,14.18,-0.16,-0.09,0.21,1721207106822
-0.60,-3.43,5.29,-0.09,-0.16,0.44,1721207106832
2.60,-0.64,3.78,-0.04,0.05,0.17,1721207106842
6.17,-2.11,8.62,-0.19,0.09,-0.11,1721207106852
1.10,-0.35,16.52,-0.17,-0.16,-0.33,1721207106862
-2.69,2.04,10.18,0.11,-0.17,-0.24,1721207106872
-0.45,-1.30,2.46,0.05,-0.03,0.13,1721207106882
1.00,-1.15,10.40,-0.07,0.09,0.10,1721207106892
1.71,-0.20,17.20,-0.10,-0.03,-0.14,1721207106902
-0.84,8.96,14.57,0.09,-0.17,-0.28,1721207106912
-1.05,-3.68,4.70,-0.18,-0.05,-0.08,1721207106922
-2.12,-1.92,17.80,-0.18,0.21,-0.08,1721207106932
-0.60,4.79,7.96,0.30,-0.21,-0.01,1721207106942
1.61,-5.71,1.51,-0.16,0.11,0.06,1721207106952
-0.40,-1.63,20.75,-0.05,-0.11,-0.08,1721207106962
0.43,6.46,12.98,0.30,-0.11,-0.11,1721207106972
0.23,9.19,4.83,0.17,0.05,0.01,1721207106982
0.63,-3.67,7.99,-0.07,0.03,-0.11,1721207106992
-0.70,-8.00,14.12,-0.03,-0.01,-0.22,1721207107002
-1.10,4.75,11.57,0.32,0.06,-0.10,1721207107012
1.86,2.37,7.72,0.20,0.10,0.06,1721207107022
1.87,1.88,14.58,0.29,0.01,-0.07,1721207107032
1.92,3.84,8.49,0.29,-0.01,-0.27,1721207107042
-0.28,9.32,13.10,0.26,0.03,-0.26,1721207107052
-0.12,-1.89,4.94,0.18,0.06,-0.28,1721207107062
-0.97,-10.54,1.98,0.00,0.10,-0.20,1721207107072
-2.44,4.30,10.29,0.24,0.07,-0.09,1721207107082
1.47,3.50,10.84,0.15,0.25,-0.08,1721207107092
0.27,-0.50,15.64,0.17,-0.07,-0.21,1721207107102
-2.03,-1.68,6.37,0.07,-0.05,-0.14,1721207107112
-2.01,2.34,18.77,-0.11,0.26,-0.10,1721207107122
0.47,6.07,13.04,0.44,0.00,-0.14,1721207107132
0.95,-3.96,-10.72,0.04,-0.05,-0.08,1721207107142
0.06,1.73,8.63,-0.23,0.41,-0.24,1721207107152
2.45,-2.38,15.16,-0.14,0.13,-0.41,1721207107162
-1.59,-2.71,23.93,-0.15,0.01,-0.35,1721207107172
-3.25,7.61,9.79,0.39,-0.03,-0.05,1721207107182
2.69,-2.14,-1.43,-0.30,0.36,0.14,1721207107197
2.73,-1.40,8.93,-0.24,0.42,0.04,1721207107201
6.49,-2.67,11.37,-0.00,0.03,-0.25,1721207107211
0.20,5.41,11.28,0.06,-0.03,-0.48,1721207107221
-1.68,-0.44,6.53,-0.23,0.17,-0.46,1721207107231
-3.83,-10.32,24.22,-0.44,0.15,-0.10,1721207107241
-2.27,8.14,20.11,0.38,-0.00,0.21,1721207107251
2.67,14.72,-10.22,0.16,0.06,0.21,1721207107261
5.36,-7.59,5.63,-0.60,0.49,-0.22,1721207107271
2.11,-11.63,26.65,-0.07,0.13,-0.49,1721207107281
-2.95,7.68,8.72,0.20,-0.04,-0.37,1721207107291
-2.82,1.88,3.17,-0.28,0.33,-0.07,1721207107301
-2.23,0.26,18.88,0.03,0.11,0.11,1721207107311
0.73,0.92,6.19,0.20,0.05,0.23,1721207107321
2.73,-3.76,2.35,-0.20,0.13,0.06,1721207107331
3.01,-1.08,19.25,-0.25,0.29,-0.31,1721207107341
0.04,8.06,15.06,0.26,0.02,-0.49,1721207107351
-3.14,-3.33,0.46,0.03,0.18,-0.24,1721207107361
-3.32,-3.09,12.58,-0.04,0.27,0.13,1721207107371
1.41,4.74,9.54,0.31,0.10,0.30,1721207107381
4.09,5.26,7.77,-0.04,0.26,-0.03,1721207107391
1.21,0.53,14.98,-0.07,-0.02,-0.36,1721207107401
-3.76,-4.67,7.70,0.01,0.03,-0.26,1721207107411
-4.63,-1.96,7.20,-0.06,0.18,0.01,1721207107421
-0.78,-4.21,5.27,-0.07,0.19,0.23,1721207107431
2.08,-5.58,24.91,-0.35,0.43,0.01,1721207107441
1.67,12.33,28.07,0.40,0.02,-0.17,1721207107451
0.08,2.78,-0.75,0.22,-0.19,-0.07,1721207107461
-3.58,-3.33,5.17,-0.16,0.28,0.06,1721207107471
-0.04,2.15,8.11,0.26,0.08,0.09,1721207107481
3.08,-1.21,6.46,-0.00,0.10,-0.06,1721207107491
-1.67,1.73,14.28,0.15,-0.02,-0.23,1721207107501
-2.14,2.15,5.72,0.25,0.08,-0.09,1721207107511
-1.73,2.03,7.90,-0.09,0.15,0.07,1721207107521
-1.83,7.01,11.61,0.15,-0.01,0.11,1721207107531
0.64,-7.81,5.38,-0.15,0.05,-0.04,1721207107541
-0.08,-11.07,13.87,-0.22,0.05,-0.09,1721207107551
-2.59,2.26,8.74,0.21,-0.16,-0.00,1721207107561
-1.47,8.12,7.44,0.02,0.25,-0.02,1721207107571
-2.34,12.20,17.37,0.14,-0.06,0.05,1721207107581
-1.75,-3.85,3.01,0.02,-0.21,0.19,1721207107591
3.29,-11.19,12.72,-0.27,0.40,0.14,1721207107601
0.79,6.00,10.04,0.08,-0.39,-0.00,1721207107611
1.87,1.09,6.50,-0.17,0.28,-0.21,1721207107621
-0.27,4.17,17.27,0.21,-0.11,-0.06,1721207107631
-0.76,-0.46,0.85,0.24,-0.13,0.09,1721207107641
-0.19,3.97,13.22,-0.19,0.39,-0.09,1721207107651
1.09,2.80,20.03,-0.08,-0.04,-0.22,1721207107661
-3.32,0.46,4.72,-0.08,-0.23,-0.13,1721207107671
-2.69,-0.82,5.28,0.08,0.18,0.16,1721207107681
0.20,0.64,9.57,0.00,0.07,0.30,1721207107691
0.92,2.03,13.16,-0.10,-0.06,0.14,1721207107701
1.90,1.84,16.86,-0.13,0.15,-0.23,1721207107711
-0.28,7.03,19.69,-0.00,-0.10,-0.21,1721207107721
-3.91,0.11,1.37,0.12,-0.26,0.09,1721207107731
-0.23,-5.97,1.15,-0.05,0.28,0.18,1721207107741
2.36,5.07,11.26,0.15,0.09,0.08,1721207107751
1.87,2.69,6.87,-0.14,-0.15,-0.12,1721207107761
-3.02,-4.26,20.07,-0.25,-0.05,-0.34,1721207107771
-4.10,-1.64,9.62,0.20,-0.10,-0.12,1721207107781
-1.31,0.97,5.37,-0.16,0.26,0.22,1721207107791
-0.47,-1.33,8.81,-0.12,-0.18,0.25,1721207107801
1.78,-3.29,12.50,-0.11,0.18,0.06,1721207107811
2.24,3.83,14.38,0.11,0.00,-0.09,1721207107821
0.46,-1.20,6.67,-0.18,-0.09,-0.09,1721207107831
-1.99,-4.09,15.50,-0.26,-0.03,-0.03,1721207107841
-2.17,0.83,10.18,0.03,-0.13,0.08,1721207107851
-1.15,2.07,-2.07,-0.02,-0.07,0.15,1721207107861
3.00,-11.03,9.05,-0.43,0.31,0.05,1721207107871
1.13,-1.44,28.35,-0.05,-0.06,-0.07,1721207107881
-0.24,9.55,4.24,0.34,-0.21,0.00,1721207107891
1.27,-2.24,1.03,-0.38,0.25,-0.02,1721207107901
-1.36,2.09,23.60,-0.11,-0.26,0.02,1721207107911
-1.06,2.25,4.98,0.16,-0.16,-0.04,1721207107921
0.40,-7.48,-0.17,-0.30,0.18,-0.09,1721207107931
-3.63,-2.40,16.67,-0.29,-0.11,-0.11,1721207107941
-2.46,4.01,15.61,0.09,0.03,0.00,1721207107951
-0.19,4.90,9.40,0.14,0.06,0.24,1721207107961
2.11,0.48,10.48,-0.01,0.05,0.19,1721207107971
1.80,1.91,13.75,0.01,-0.11,-0.05,1721207107981
1.07,5.16,11.48,0.14,0.10,-0.07,1721207107991
-0.96,1.02,8.40,0.05,-0.08,0.06,1721207108001
-0.65,-5.13,11.41,0.06,-0.08,0.15,1721207108011
1.29,4.25,10.53,0.29,0.11,0.07,1721207108021
3.11,5.88,6.75,0.18,0.04,-0.01,1721207108031
1.03,0.57,13.61,0.02,0.05,-0.16,1721207108041
-0.84,-2.60,8.18,0.28,-0.07,-0.15,1721207108051
-1.82,2.02,3.60,0.34,0.12,-0.01,1721207108061
0.39,-2.06,8.59,0.11,0.11,0.11,1721207108071
-1.20,10.61,14.66,0.35,-0.10,-0.02,1721207108081
0.87,2.21,5.82,0.11,0.06,-0.02,1721207108091
-0.51,-8.78,16.74,-0.26,0.04,-0.03,1721207108101
-2.85,-2.15,13.00,0.17,-0.15,-0.04,1721207108111
-1.07,-2.28,0.52,-0.02,0.06,0.13,1721207108121
0.31,3.08,10.48,0.12,0.08,0.08,1721207108131
1.80,3.12,1.68,0.32,-0.15,0.11,1721207108141
0.16,-1.65,5.25,-0.13,0.03,-0.02,1721207108151
-0.38,-3.14,18.77,-0.18,0.06,-0.15,1721207108161
-0.96,2.22,14.96,-0.07,-0.07,0.01,1721207108171
0.17,3.89,11.97,-0.18,0.02,0.21,1721207108181
2.38,1.02,10.33,-0.03,-0.06,0.01,1721207108191
2.42,-1.77,5.90,-0.05,-0.02,-0.24,1721207108201
-1.92,1.01,12.18,-0.18,-0.04,-0.36,1721207108211
-4.92,-0.39,16.73,-0.10,-0.04,-0.21,1721207108221
-4.87,4.19,10.22,0.30,-0.15,0.16,1721207108231
-0.30,0.75,-0.26,0.21,-0.02,0.51,1721207108241
4.50,4.30,11.26,0.15,0.17,0.36,1721207108251
7.27,7.02,12.65,0.18,-0.10,-0.08,1721207108261
3.34,-6.51,10.96,-0.35,-0.21,-0.57,1721207108271
-3.20,-0.50,26.51,0.05,-0.06,-0.68,1721207108281
-5.41,6.47,3.87,0.55,-0.20,-0.24,1721207108291
-3.74,-2.40,-0.34,-0.04,0.11,0.28,1721207108301
0.63,-0.58,10.91,0.22,0.03,0.28,1721207108311
4.40,0.28,3.12,0.13,-0.00,-0.22,1721207108321
-1.93,2.62,11.63,-0.07,-0.15,-0.49,1721207108331
-5.08,3.40,13.76,0.03,-0.00,-0.12,1721207108341
-1.66,-3.97,11.38,-0.16,0.02,0.35,1721207108351
3.54,-8.95,3.18,-0.09,-0.08,0.40,1721207108361
10.02,-5.34,17.93,-0.33,0.50,-0.12,1721207108371
4.31,7.44,26.49,0.35,-0.51,-0.47,1721207108381
-3.48,3.01,-5.81,0.22,-0.22,-0.62,1721207108391
-5.83,-1.43,12.63,-0.24,0.40,-0.18,1721207108401
-1.78,0.97,14.36,0.19,-0.00,0.42,1721207108411
3.35,-1.37,1.83,-0.20,0.02,0.26,1721207108421
3.10,-0.87,7.75,-0.13,-0.11,-0.22,1721207108431
2.89,-1.52,12.12,-0.17,0.31,-0.64,1721207108441
-2.54,-2.76,19.89,-0.29,-0.10,-0.51,1721207108451
-6.80,-2.68,10.20,-0.02,-0.26,-0.02,1721207108461
-1.19,-4.98,8.17,-0.25,0.33,0.19,1721207108471
0.89,-2.67,12.27,-0.08,-0.15,0.06,1721207108481
1.19,4.76,5.03,0.14,0.02,-0.24,1721207108491
0.86,-2.74,3.31,-0.12,-0.02,-0.29,1721207108501
-3.63,-0.22,12.97,-0.11,0.03,-0.22,1721207108511
-0.35,7.72,21.71,0.05,0.29,-0.12,1721207108521
0.00,2.94,18.25,-0.03,-0.16,-0.01,1721207108531
-1.62,2.31,6.62,0.09,-0.18,-0.05,1721207108541
-0.58,-0.86,-0.67,-0.04,-0.03,-0.12,1721207108551
-2.06,2.84,13.13,-0.13,0.09,-0.23,1721207108561
-1.12,0.91,17.51,0.15,-0.07,-0.09,1721207108571
-4.16,-2.27,0.49,0.08,-0.34,0.01,1721207108581
-0.67,0.49,13.18,-0.01,0.46,-0.01,1721207108591
1.23,7.63,17.18,0.21,-0.24,0.10,1721207108601
0.06,4.75,7.09,0.13,-0.14,0.02,1721207108611
2.91,-3.89,13.10,-0.01,0.10,-0.03,1721207108621
1.42,3.38,15.58,0.16,-0.25,-0.06,1721207108631
0.74,7.04,8.80,0.13,-0.08,-0.25,1721207108641
-0.74,-1.94,0.14,0.14,-0.25,-0.17,1721207108651
1.55,2.52,9.29,0.15,0.34,-0.13,1721207108661
0.30,-3.37,-2.64,0.23,-0.54,0.05,1721207108671
-3.29,-0.24,5.37,-0.13,0.40,-0.18,1721207108681
-0.98,5.84,9.70,0.23,-0.11,-0.12,1721207108691
0.08,-6.69,3.33,-0.40,-0.02,0.02,1721207108701
-2.35,-1.72,31.93,-0.16,0.21,-0.01,1721207108711
0.27,0.31,8.35,0.39,-0.26,-0.07,1721207108721
1.49,4.14,8.34,-0.35,0.33,-0.14,1721207108731
1.46,0.81,25.87,-0.23,-0.13,0.09,1721207108741
-0.37,0.17,4.52,0.18,-0.28,-0.00,1721207108751
1.13,-0.41,-0.50,-0.16,0.22,-0.24,1721207108761
-2.53,2.37,9.03,-0.20,-0.17,-0.31,1721207108771
-2.59,-1.04,13.56,-0.16,0.11,-0.16,1721207108781
-1.93,-3.22,11.48,-0.10,-0.09,-0.01,1721207108791
-1.71,4.04,9.00,0.01,0.00,0.02,1721207108801
2.43,-2.95,10.15,-0.31,0.10,0.01,1721207108811
-1.43,-0.31,18.51,-0.20,-0.16,-0.19,1721207108821
-2.23,3.41,11.82,0.07,-0.02,-0.19,1721207108831
-0.06,1.19,5.35,0.01,-0.05,0.07,1721207108841
0.43,1.23,9.31,-0.06,0.06,0.01,1721207108851
1.12,-2.01,3.83,-0.05,-0.13,-0.15,1721207108861
-1.92,-1.42,9.41,-0.16,0.05,-0.16,1721207108871
-1.51,-1.44,13.30,-0.04,0.07,-0.06,1721207108881
-0.91,4.23,9.68,0.15,-0.17,0.15,1721207108891
0.92,2.61,1.76,-0.10,-0.03,0.11,1721207108901
1.11,-8.08,11.04,-0.54,0.01,-0.11,1721207108911
-0.37,0.30,25.20,-0.12,-0.04,-0.34,1721207108921
-1.14,1.53,8.31,0.08,-0.24,0.05,1721207108931
-1.14,-1.67,7.35,-0.37,0.14,0.16,1721207108941
0.64,0.54,17.91,-0.11,0.05,-0.01,1721207108951
1.76,1.39,10.00,0.08,-0.06,-0.11,1721207108961
0.67,2.94,7.68,-0.03,-0.01,-0.14,1721207108971
0.79,-4.51,6.80,-0.06,-0.07,-0.06,1721207108981
-0.55,4.44,13.60,0.11,0.05,0.02,1721207108991
0.98,1.64,11.48,0.02,0.04,-0.09,1721207109001
-0.95,-0.04,6.57,0.14,-0.30,0.03,1721207109011
3.38,1.05,10.15,0.05,0.43,-0.08,1721207109021
2.87,-0.87,13.56,0.13,-0.18,-0.10,1721207109031
-1.38,6.22,13.50,0.19,0.05,-0.22,1721207109041
1.26,1.20,9.68,0.26,0.15,-0.22,1721207109051
0.97,7.52,6.84,0.34,-0.02,-0.12,1721207109061
2.56,-2.62,5.07,-0.06,0.22,-0.18,1721207109071
0.11,-3.75,19.91,-0.06,0.07,-0.53,1721207109081
-2.28,0.90,11.18,0.37,-0.04,-0.40,1721207109091
-1.76,-0.51,0.91,0.03,0.16,-0.07,1721207109101
-1.17,0.32,18.20,-0.03,0.18,-0.15,1721207109111
0.01,0.15,13.91,0.29,0.05,-0.30,1721207109121
-2.06,4.46,2.54,0.31,-0.01,-0.21,1721207109131
-0.06,-1.14,5.48,-0.05,0.35,-0.11,1721207109141
0.83,-3.32,18.64,0.02,0.14,-0.12,1721207109151
-0.48,7.92,11.93,0.37,-0.03,-0.17,1721207109161
-0.10,2.83,-2.71,-0.00,0.03,-0.15,1721207109171
0.23,-2.44,9.12,-0.28,0.25,-0.24,1721207109181
0.80,-3.49,14.99,0.00,0.15,-0.34,1721207109191
-0.68,2.45,1.22,-0.00,0.10,-0.24,1721207109206
0.00,1.28,3.01,-0.10,0.19,-0.22,1721207109210
-1.30,1.03,12.76,-0.05,0.14,-0.25,1721207109220
-0.92,0.90,11.50,-0.04,0.19,-0.29,1721207109230
-1.65,-1.10,9.26,-0.19,0.01,-0.14,1721207109240
-1.07,-1.68,17.82,-0.37,0.24,-0.10,1721207109250
0.56,1.16,19.38,0.11,0.21,-0.27,1721207109260
0.65,5.11,4.07,0.10,0.08,-0.23,1721207109270
-0.71,-0.73,8.41,-0.18,0.19,-0.20,1721207109280
-1.41,-5.85,6.03,-0.04,0.04,-0.14,1721207109290
-2.23,3.61,11.99,0.07,0.33,-0.09,1721207109300
1.64,-2.11,4.46,0.02,0.11,-0.03,1721207109310
-1.01,2.59,14.26,-0.10,0.19,-0.19,1721207109320
1.33,7.27,11.89,0.27,0.22,-0.24,1721207109330
1.61,-0.38,-3.50,0.06,0.03,-0.20,1721207109340
1.44,-10.44,12.73,-0.58,0.45,-0.23,1721207109350
-1.43,1.65,31.95,0.04,-0.02,-0.28,1721207109360
-4.26,9.51,-0.55,0.42,-0.13,-0.35,1721207109370
-5.62,-4.08,-7.01,-0.26,0.17,-0.18,1721207109380
-8.07,-3.98,20.11,-0.27,0.38,0.21,1721207109390
2.34,4.42,17.75,0.16,0.31,0.22,1721207109400
4.35,-1.82,0.01,-0.07,-0.09,-0.02,1721207109410
1.47,-5.43,15.11,-0.38,0.41,-0.35,1721207109420
-0.18,7.46,29.65,0.08,-0.18,-0.09,1721207109430
-4.36,5.95,0.97,0.17,-0.24,0.04,1721207109440
-2.99,-11.48,6.00,-0.32,0.26,0.21,1721207109450
-2.06,4.60,17.28,0.03,-0.05,0.33,1721207109460
2.98,7.29,7.43,0.12,0.09,0.13,1721207109470
0.41,5.76,2.84,0.11,-0.06,-0.16,1721207109480
-0.50,-5.69,4.52,-0.04,0.11,-0.17,1721207109490
-1.64,-14.61,9.65,-0.37,-0.13,0.28,1721207109500
-1.75,7.65,14.32,0.09,0.15,0.24,1721207109510
5.25,-1.10,12.40,-0.10,0.16,0.02,1721207109520
-3.10,5.20,9.68,0.15,-0.56,0.06,1721207109530
1.96,8.55,5.98,0.31,0.49,0.04,1721207109540
1.32,1.53,7.94,-0.11,-0.16,-0.01,1721207109550
-1.46,-4.94,16.93,-0.41,0.18,-0.07,1721207109560
0.07,1.41,20.89,0.04,0.05,-0.03,1721207109570
-0.89,2.55,3.52,0.06,-0.23,-0.09,1721207109580
-2.56,-3.22,8.04,-0.05,0.06,0.06,1721207109590
-2.79,5.42,9.24,0.28,-0.12,0.29,1721207109600
3.01,9.19,11.10,0.12,0.31,0.16,1721207109610
1.13,0.52,15.73,-0.04,-0.40,0.02,1721207109620
-2.00,2.17,5.83,0.26,-0.24,-0.05,1721207109630
2.89,-7.69,4.13,-0.11,0.22,0.04,1721207109640
-2.41,5.79,13.07,-0.02,-0.19,-0.01,1721207109650
2.64,3.49,16.54,0.19,0.25,-0.09,1721207109660
0.27,-4.45,13.28,0.04,-0.31,-0.04,1721207109670
-4.24,2.18,7.58,0.23,-0.17,0.02,1721207109680
0.59,7.34,2.20,0.32,0.10,0.13,1721207109690
2.59,6.90,8.56,0.20,0.06,0.07,1721207109700
2.58,-0.21,6.00,0.30,-0.11,-0.04,1721207109710
0.05,-4.53,2.06,0.00,-0.08,-0.24,1721207109720
-3.04,-1.40,13.11,-0.35,0.12,-0.35,1721207109730
-3.27,-3.83,23.05,-0.19,0.00,-0.20,1721207109740
-2.51,-2.29,12.02,0.11,-0.08,0.12,1721207109750
0.32,7.74,5.60,0.24,0.05,0.30,1721207109760
4.92,4.02,5.76,0.13,0.04,0.23,1721207109770
5.62,-0.77,13.96,-0.12,0.10,-0.31,1721207109780
0.19,3.40,12.69,0.04,-0.28,-0.69,1721207109790
-5.92,-2.49,0.99,-0.20,-0.18,-0.46,1721207109800
-7.39,-7.44,17.10,-0.41,0.11,0.02,1721207109810
-2.05,3.92,21.08,0.27,0.01,0.25,1721207109820
3.82,2.79,-4.27,0.16,-0.07,0.15,1721207109830
4.18,-2.72,8.85,-0.36,0.28,-0.24,1721207109840
1.78,3.47,28.46,0.02,-0.19,-0.40,1721207109850
-2.69,2.55,3.99,0.30,-0.33,-0.33,1721207109860
-3.56,-6.24,-7.50,-0.13,0.08,-0.13,1721207109870
-3.90,-3.04,18.86,-0.23,0.35,0.02,1721207109880
1.46,-1.16,20.79,0.02,0.00,-0.07,1721207109890
0.70,2.09,3.74,0.10,-0.23,-0.13,1721207109900
1.45,0.41,8.45,-0.07,0.39,-0.24,1721207109910
1.64,0.74,22.47,-0.05,0.15,-0.31,1721207109920
-1.91,0.11,7.61,-0.02,-0.33,-0.27,1721207109930
-3.52,1.19,-6.84,-0.02,0.15,-0.16,1721207109940
2.10,-10.30,11.79,-0.41,0.45,-0.04,1721207109950
0.18,-0.26,26.30,-0.04,-0.10,-0.14,1721207109960
-1.57,2.15,4.76,0.14,-0.16,-0.28,1721207109970
-0.63,1.59,14.69,-0.31,0.44,-0.24,1721207109980
-0.82,6.53,20.40,-0.03,-0.04,-0.05,1721207109990
-1.91,-1.21,4.99,-0.08,-0.09,-0.05,1721207110000
-0.07,-5.45,9.93,-0.24,0.27,-0.07,1721207110010
-0.99,6.86,11.19,0.12,-0.08,-0.01,1721207110020
1.12,-0.89,7.13,-0.15,0.18,-0.04,1721207110030
-0.48,2.34,15.51,0.02,-0.08,-0.05,1721207110040
-0.96,6.42,9.40,0.18,0.11,-0.09,1721207110050
0.14,-2.08,6.49,-0.06,0.04,-0.04,1721207110060
-2.37,-0.35,12.27,0.00,-0.04,0.03,1721207110070
-1.39,2.88,6.03,0.17,0.04,0.09,1721207110080
0.19,2.55,9.56,0.14,0.10,0.12,1721207110090
2.81,1.21,11.99,0.17,0.10,0.05,1721207110100
1.86,-0.49,13.86,0.01,-0.04,-0.13,1721207110110
-1.23,7.02,14.69,0.13,-0.05,-0.11,1721207110120
0.40,3.25,6.80,0.14,0.04,0.10,1721207110130
1.40,-2.92,5.40,0.11,0.05,0.18,1721207110140
3.17,-2.47,6.15,0.15,0.14,-0.05,1721207110150
1.93,1.90,10.37,0.12,0.07,-0.29,1721207110160
-1.20,0.13,10.42,-0.01,-0.00,-0.20,1721207110170
-3.50,-2.57,15.74,0.00,0.06,0.07,1721207110180
-0.49,1.50,14.59,0.20,0.11,0.26,1721207110190
3.61,5.83,6.31,0.26,0.06,0.26,1721207110200
4.22,-0.74,7.81,-0.07,0.10,-0.08,1721207110210
-0.19,-2.26,12.69,0.03,-0.09,-0.40,1721207110220
-2.63,-0.38,8.04,0.12,0.12,-0.25,1721207110230
-2.90,1.12,12.58,0.04,0.09,0.12,1721207110240
-1.21,2.22,12.83,0.20,-0.03,0.25,1721207110250
1.77,0.36,0.65,0.19,0.03,0.14,1721207110260
3.06,3.36,9.83,0.02,0.23,-0.08,1721207110270
1.72,0.23,11.19,0.05,-0.10,-0.26,1721207110280
-2.38,-1.58,9.17,0.13,-0.01,-0.14,1721207110290
-1.23,-3.92,6.28,-0.01,0.13,0.06,1721207110300
-0.44,3.65,16.68,-0.04,0.08,0.14,1721207110310
1.96,4.13,15.99,0.11,0.02,0.02,1721207110320
0.82,-4.89,6.72,0.03,-0.03,-0.15,1721207110330
-1.66,-0.83,9.67,-0.02,0.11,-0.16,1721207110340
-2.55,11.71,13.64,0.14,-0.06,0.04,1721207110350
-0.16,1.42,9.03,0.15,0.09,0.15,1721207110360
1.76,-14.48,0.51,0.01,-0.05,0.08,1721207110370
-3.60,10.66,11.17,0.13,0.12,-0.10,1721207110380
1.82,6.08,11.93,0.03,0.12,-0.12,1721207110390
-1.26,-4.35,11.77,0.04,-0.20,-0.07,1721207110400
-0.70,-3.56,5.31,0.06,0.11,0.04,1721207110410
-0.85,5.74,8.01,0.00,-0.09,0.17,1721207110420
1.27,-2.96,9.71,-0.30,0.14,0.01,1721207110430
-0.08,-3.99,14.16,-0.07,-0.15,-0.07,1721207110440
-1.17,0.56,7.84,0.04,-0.01,0.00,1721207110450
-0.23,1.86,6.60,-0.13,0.11,-0.01,1721207110460
-1.48,3.66,15.43,-0.06,-0.06,0.01,1721207110470
0.05,-3.46,10.71,-0.17,0.03,0.01,1721207110480
-1.87,6.12,13.40,-0.06,-0.12,0.09,1721207110490
1.54,1.12,7.97,-0.12,0.10,0.03,1721207110500
0.62,-5.30,12.66,-0.31,-0.05,-0.08,1721207110510
-1.86,2.75,14.52,0.02,-0.15,-0.11,1721207110520
-1.27,4.29,-3.46,0.08,-0.07,0.07,1721207110530
1.30,-4.65,9.13,-0.33,0.29,0.09,1721207110540
2.24,-2.83,31.83,-0.01,-0.02,0.03,1721207110550
-0.24,13.72,10.90,0.50,-0.35,-0.12,1721207110560
-0.55,-0.77,-12.61,-0.19,-0.13,-0.03,1721207110570
3.77,-22.15,17.50,-0.48,0.34,0.04,1721207110580
2.43,0.64,31.28,0.24,0.00,-0.15,1721207110590
-0.27,11.65,-3.35,0.33,-0.49,-0.16,1721207110600
-1.30,-0.70,10.54,-0.13,0.50,-0.22,1721207110610
-0.06,-4.62,21.48,0.28,-0.10,-0.01,1721207110620
-0.54,3.69,4.56,0.20,-0.23,0.14,1721207110630
1.88,2.65,5.08,0.08,0.03,0.24,1721207110640
