AccX,AccY,AccZ,GyrX,GyrY,GyrZ,Time
-2.81,-0.42,12.40,-0.04,0.03,-0.13,1721206432133
-2.47,1.01,14.43,0.09,0.01,-0.09,1721206432138
-3.28,0.39,8.58,0.10,0.02,0.04,1721206432148
-3.34,2.01,10.55,0.06,-0.01,0.16,1721206432158
-3.21,5.18,8.52,0.19,-0.03,0.28,1721206432168
0.07,0.00,5.21,-0.16,0.07,0.37,1721206432178
1.58,1.39,14.87,-0.04,0.05,0.29,1721206432188
3.43,1.05,8.59,0.09,0.04,0.03,1721206432198
0.51,-0.91,9.45,-0.08,-0.00,-0.15,1721206432208
-2.95,-1.25,10.74,0.03,0.02,-0.02,1721206432218
-2.73,-2.61,9.40,-0.04,0.04,0.22,1721206432228
-2.07,-3.95,9.42,-0.06,-0.12,0.38,1721206432238
-1.83,0.68,8.18,0.02,0.00,0.29,1721206432248
1.04,-4.68,9.77,-0.21,0.14,0.10,1721206432258
-1.93,-3.98,15.19,0.01,-0.27,0.05,1721206432268
-3.10,-7.16,11.48,-0.03,-0.02,0.16,1721206432278
-2.03,-4.55,15.58,0.17,-0.12,0.53,1721206432288
1.32,-1.93,5.90,0.03,0.05,0.59,1721206432298
0.92,0.28,10.94,-0.09,-0.09,0.24,1721206432308
-1.76,3.27,8.70,0.05,-0.33,0.06,1721206432318
-1.47,-4.30,3.98,-0.35,0.06,0.22,1721206432328
-2.92,-3.96,19.65,-0.03,-0.31,0.41,1721206432338
0.13,-2.52,12.46,0.14,-0.10,0.51,1721206432348
3.73,0.97,10.80,0.21,-0.31,0.58,1721206432358
4.21,3.39,6.36,0.18,-0.07,0.41,1721206432368
1.79,2.23,11.85,0.01,-0.10,0.18,1721206432378
-3.37,1.88,5.61,0.10,-0.30,0.09,1721206432388
-1.32,-2.49,6.58,-0.32,0.18,0.17,1721206432398
1.86,-6.51,18.21,0.06,-0.34,0.46,1721206432408
2.99,1.71,15.06,0.21,-0.04,0.35,1721206432418
3.97,-2.58,10.40,0.15,-0.18,0.29,1721206432428
-3.07,0.39,3.57,0.01,-0.32,0.13,1721206432438
-3.01,-5.12,7.36,-0.25,0.01,0.12,1721206432448
-5.09,-5.13,13.56,0.05,-0.45,0.33,1721206432458
-2.41,-3.78,6.69,0.03,-0.16,0.51,1721206432468
1.86,-3.52,11.80,-0.04,-0.08,0.52,1721206432478
1.80,-4.63,16.81,-0.15,-0.17,0.21,1721206432488
-0.24,0.74,18.80,0.25,-0.33,0.13,1721206432498
1.20,-0.88,3.43,0.01,-0.24,0.32,1721206432508
0.70,1.88,12.65,-0.15,-0.17,0.27,1721206432518
-0.06,-2.91,10.16,-0.05,-0.27,-0.04,1721206432528
-2.39,1.55,7.77,0.08,-0.32,0.16,1721206432538
0.15,1.25,3.32,-0.05,-0.15,0.43,1721206432548
4.13,0.49,13.25,-0.13,-0.00,0.30,1721206432558
3.01,-0.50,11.33,-0.01,-0.29,0.06,1721206432568
-0.56,3.02,12.62,0.02,-0.14,-0.02,1721206432578
1.74,1.06,7.43,0.00,-0.10,0.36,1721206432588
5.41,2.74,10.48,-0.12,0.04,0.48,1721206432598
8.83,1.71,8.88,0.04,-0.10,0.20,1721206432608
9.74,1.63,8.88,-0.11,0.10,-0.31,1721206432618
2.96,5.22,12.55,-0.01,-0.21,-0.57,1721206432628
-2.27,0.21,8.45,-0.17,-0.03,-0.48,1721206432638
-3.66,-2.52,12.67,-0.16,-0.02,-0.08,1721206432648
-1.77,0.88,12.93,-0.01,0.04,0.11,1721206432658
3.74,-0.44,7.37,-0.04,0.05,0.09,1721206432668
3.32,-2.68,7.86,-0.15,-0.01,-0.29,1721206432678
0.16,-4.77,9.46,-0.03,-0.02,-0.55,1721206432688
-0.19,-2.67,15.15,0.13,0.15,-0.32,1721206432698
-1.90,-0.29,10.70,0.16,0.06,-0.12,1721206432708
1.16,0.79,9.32,0.12,0.03,-0.05,1721206432718
4.91,-2.39,11.08,-0.07,0.27,-0.25,1721206432728
3.97,-1.42,14.65,-0.04,0.03,-0.47,1721206432738
2.10,-5.08,10.23,-0.02,0.05,-0.64,1721206432748
-4.09,-1.75,11.64,-0.08,0.02,-0.76,1721206432758
-1.24,-1.10,8.87,-0.07,0.31,-0.46,1721206432768
-0.63,-3.71,11.20,-0.08,0.16,-0.25,1721206432778
0.45,-5.72,9.65,-0.00,0.09,-0.45,1721206432788
-0.35,-2.75,14.65,-0.20,0.53,-0.87,1721206432798
-0.68,0.55,16.15,0.18,0.07,-0.80,1721206432808
-4.85,-7.15,4.08,-0.06,-0.04,-0.40,1721206432818
-6.06,0.53,15.92,-0.07,0.32,-0.38,1721206432828
1.64,-3.46,9.08,0.08,0.27,-0.38,1721206432838
-0.71,-0.02,13.97,-0.08,0.15,-0.67,1721206432848
-4.90,0.09,7.97,0.20,-0.22,-0.67,1721206432858
-5.30,2.63,6.70,-0.03,0.19,-0.43,1721206432868
-1.69,0.59,16.49,-0.06,0.19,-0.19,1721206432878
-2.40,1.87,6.99,0.15,-0.18,-0.09,1721206432888
0.09,-4.70,5.48,-0.12,0.27,-0.16,1721206432898
-1.75,5.08,15.37,0.22,0.06,-0.23,1721206432908
1.87,0.04,5.82,0.17,0.16,-0.30,1721206432918
-0.79,2.46,16.24,-0.02,0.01,-0.26,1721206432928
-1.87,5.62,11.00,0.38,-0.08,-0.19,1721206432938
-1.02,-0.53,4.51,-0.15,0.18,-0.13,1721206432948
-2.52,8.27,18.28,0.13,-0.06,-0.05,1721206432958
0.60,-0.05,-6.86,0.18,-0.16,-0.04,1721206432968
-0.07,3.34,7.88,-0.23,0.31,-0.13,1721206432978
1.37,5.13,3.44,0.08,0.00,-0.23,1721206432988
-1.12,-1.45,11.53,-0.36,0.24,-0.24,1721206432998
-2.90,-1.28,18.25,0.16,-0.14,-0.10,1721206433008
-1.89,-5.86,2.29,-0.09,-0.04,-0.04,1721206433018
-2.89,-1.79,15.78,-0.09,0.19,-0.23,1721206433028
-1.05,-4.84,10.57,0.16,-0.05,-0.26,1721206433038
-5.28,-3.76,10.45,0.10,-0.17,-0.11,1721206433048
-2.70,-0.43,8.43,0.12,0.05,0.21,1721206433058
1.65,-1.70,7.35,-0.14,-0.07,0.32,1721206433068
4.95,-2.55,12.92,-0.20,0.14,0.14,1721206433078
4.42,-7.79,13.03,-0.14,-0.05,-0.11,1721206433088
-0.63,-7.78,7.21,-0.13,-0.12,-0.12,1721206433098
-1.70,-3.98,8.25,-0.13,0.05,0.16,1721206433108
0.69,-3.76,6.94,-0.14,-0.01,0.38,1721206433118
2.40,-3.94,13.00,-0.31,0.14,0.30,1721206433128
1.68,-8.59,11.26,-0.32,-0.09,0.14,1721206433138
0.03,-4.06,13.15,-0.35,0.02,-0.01,1721206433148
-0.32,-1.31,14.84,-0.19,-0.03,0.08,1721206433158
-0.21,-0.67,8.94,-0.22,-0.07,0.26,1721206433168
-1.16,3.89,11.63,-0.26,0.16,0.13,1721206433178
-0.02,-1.26,10.91,-0.12,0.00,0.05,1721206433188
1.55,-3.71,13.80,-0.21,0.11,0.17,1721206433198
0.39,5.45,14.68,0.09,-0.04,0.19,1721206433208
1.14,4.08,6.96,0.10,-0.01,0.10,1721206433218
1.77,6.32,13.78,0.21,0.07,0.04,1721206433228
0.33,3.87,8.11,0.27,-0.03,0.01,1721206433238
-0.99,-0.92,14.42,0.05,0.08,-0.01,1721206433248
-0.21,3.62,13.27,0.48,-0.04,0.25,1721206433258
2.68,1.87,1.91,0.20,0.17,0.24,1721206433268
3.49,3.92,9.45,0.15,0.00,0.05,1721206433278
3.09,-0.27,6.11,0.06,0.04,-0.25,1721206433288
-0.95,2.50,14.48,0.04,0.02,-0.35,1721206433298
-1.98,3.75,9.57,0.24,0.03,-0.06,1721206433308
0.35,-0.11,8.26,-0.10,0.23,0.18,1721206433318
1.33,-2.20,12.28,-0.07,0.00,0.02,1721206433328
1.20,2.62,13.43,-0.05,0.07,-0.21,1721206433338
-0.04,1.09,8.85,0.11,-0.03,-0.10,1721206433348
0.24,-0.05,4.17,-0.08,0.16,0.01,1721206433358
0.85,-2.75,9.78,-0.09,0.10,0.05,1721206433368
0.91,-4.76,12.08,0.03,0.08,-0.09,1721206433378
-0.51,8.40,13.53,0.29,-0.02,-0.17,1721206433388
1.86,-0.08,4.42,-0.17,0.11,-0.23,1721206433398
-1.70,-5.81,11.71,-0.25,-0.13,-0.24,1721206433408
1.39,-4.29,9.26,-0.02,0.28,-0.34,1721206433418
-0.61,-2.93,13.59,0.06,0.09,-0.77,1721206433428
-7.00,3.95,13.21,0.12,-0.28,-0.89,1721206433438
-11.54,-4.28,7.92,-0.21,-0.02,-0.12,1721206433448
-5.43,-3.18,14.03,-0.06,0.15,0.58,1721206433458
6.83,-2.93,3.25,0.12,0.26,0.62,1721206433468
8.15,-0.45,9.29,-0.25,0.04,-0.27,1721206433478
3.71,0.68,12.77,-0.05,-0.15,-1.10,1721206433488
-3.87,-3.29,12.85,-0.24,-0.05,-0.91,1721206433498
-8.91,4.65,17.04,-0.03,-0.07,-0.37,1721206433508
-5.71,-3.14,4.09,-0.01,-0.10,0.10,1721206433518
1.88,0.22,11.99,-0.19,0.44,0.17,1721206433528
3.24,-1.44,7.59,0.00,-0.18,-0.17,1721206433538
1.09,-0.24,9.08,-0.22,0.17,-0.62,1721206433548
-4.21,2.32,16.82,-0.15,-0.16,-0.59,1721206433558
-6.92,-1.41,11.11,-0.18,-0.04,-0.24,1721206433568
-3.71,0.28,13.02,-0.15,-0.01,0.30,1721206433578
2.05,-2.22,7.59,-0.17,0.13,0.34,1721206433588
4.26,-2.79,7.88,-0.05,0.01,0.00,1721206433598
3.49,-2.69,5.06,-0.00,0.04,-0.41,1721206433608
-2.34,-3.01,4.44,0.15,-0.16,-0.50,1721206433618
-3.02,-1.66,11.44,0.15,0.21,-0.23,1721206433628
-2.19,12.79,21.36,0.38,-0.01,0.07,1721206433638
-1.72,11.05,5.28,0.27,-0.16,0.09,1721206433648
0.87,-7.58,3.12,-0.26,0.13,0.06,1721206433658
1.01,-8.19,13.19,-0.23,0.05,-0.06,1721206433668
1.77,5.39,15.04,0.28,0.00,-0.13,1721206433678
-0.08,8.85,5.48,0.34,-0.15,-0.16,1721206433688
-1.55,1.41,5.56,-0.12,0.02,-0.09,1721206433698
1.18,-6.39,19.01,-0.28,0.25,0.00,1721206433708
1.82,-5.05,14.90,-0.10,-0.14,-0.08,1721206433718
-0.58,7.26,8.55,0.20,-0.03,-0.35,1721206433728
-0.02,2.51,4.41,0.17,0.00,-0.21,1721206433738
-1.08,-8.39,10.65,-0.16,0.11,0.07,1721206433748
-2.53,0.45,15.77,0.01,-0.06,0.06,1721206433758
1.42,8.96,14.64,0.09,0.18,-0.16,1721206433768
0.04,7.13,10.55,0.13,-0.17,-0.20,1721206433778
-1.64,-3.57,8.55,-0.09,0.07,-0.13,1721206433788
-2.63,0.18,14.26,0.09,-0.06,0.02,1721206433798
-1.29,2.33,14.40,-0.06,0.03,0.12,1721206433808
-0.90,11.14,17.32,0.20,-0.11,0.22,1721206433818
0.06,-0.87,3.95,0.31,-0.11,0.24,1721206433828
1.54,0.24,5.52,0.34,0.05,0.16,1721206433838
2.61,1.87,6.26,0.43,0.07,-0.05,1721206433848
-0.84,9.71,9.35,0.41,-0.08,-0.21,1721206433858
-2.87,-0.03,-2.69,0.36,-0.30,0.12,1721206433868
-0.38,-4.28,4.23,0.04,0.32,0.35,1721206433878
4.08,-9.98,19.13,-0.15,-0.00,0.15,1721206433888
0.87,4.57,17.84,0.22,-0.21,-0.21,1721206433898
0.95,8.19,6.39,0.25,0.15,-0.23,1721206433908
-2.13,-3.49,-0.26,-0.16,-0.29,0.16,1721206433918
-2.55,-6.96,11.90,-0.44,0.24,0.14,1721206433928
0.45,-4.44,23.27,-0.03,-0.03,-0.14,1721206433938
-1.96,2.62,6.89,-0.09,-0.36,-0.18,1721206433948
-4.63,11.22,8.11,-0.16,-0.18,0.17,1721206433958
0.96,-7.74,1.79,-0.35,0.12,0.44,1721206433968
2.17,-10.21,8.17,-0.28,-0.08,0.11,1721206433978
1.72,-1.58,7.06,0.07,-0.10,-0.13,1721206433988
-0.80,2.14,9.45,-0.10,-0.18,-0.02,1721206433998
2.18,1.72,13.84,-0.07,0.01,0.26,1721206434008
4.46,3.15,12.72,-0.21,-0.01,0.19,1721206434018
3.55,2.56,11.13,-0.29,-0.07,-0.26,1721206434028
0.43,-9.20,7.42,-0.41,-0.20,-0.59,1721206434038
-3.93,-3.61,14.18,-0.38,-0.15,-0.35,1721206434048
-4.05,2.50,14.23,-0.15,0.02,0.16,1721206434058
-0.67,0.98,11.37,-0.17,0.03,0.33,1721206434068
3.19,1.64,9.72,-0.16,-0.05,0.08,1721206434078
3.89,1.03,10.16,-0.20,-0.03,-0.30,1721206434088
-0.36,-1.86,11.52,-0.18,-0.17,-0.43,1721206434098
-2.64,-1.28,12.70,-0.12,-0.02,-0.24,1721206434108
-2.10,-0.44,7.55,0.14,-0.06,0.04,1721206434118
1.09,-1.51,10.15,-0.01,0.12,0.09,1721206434128
2.57,0.30,8.52,0.18,-0.05,-0.17,1721206434143
2.22,1.43,9.02,0.13,0.03,-0.28,1721206434147
-0.20,2.06,12.70,0.25,-0.07,-0.33,1721206434157
-0.79,-2.26,8.77,0.21,0.02,-0.13,1721206434167
-0.21,2.89,16.91,0.18,0.09,-0.10,1721206434177
1.37,0.44,14.05,0.16,-0.04,-0.16,1721206434187
1.42,6.43,15.82,0.30,0.09,-0.20,1721206434197
2.42,-2.63,5.29,0.19,0.04,-0.22,1721206434207
0.59,3.58,9.50,0.31,0.08,-0.35,1721206434217
0.58,-1.81,6.92,0.26,0.10,-0.41,1721206434227
-1.81,-0.12,14.14,0.25,0.11,-0.31,1721206434237
-1.48,1.25,9.70,0.39,0.11,-0.12,1721206434247
0.37,1.21,13.90,0.22,0.22,-0.13,1721206434257
0.26,3.05,12.43,0.36,0.03,-0.23,1721206434267
0.02,0.13,10.18,0.22,0.18,-0.25,1721206434277
-0.57,-0.58,8.48,0.28,0.06,-0.20,1721206434287
-0.37,-2.01,8.90,0.08,0.18,-0.22,1721206434297
-1.47,4.50,14.01,0.40,0.05,-0.24,1721206434307
-0.60,-1.86,3.48,0.14,0.13,-0.20,1721206434317
-1.92,3.09,13.50,0.22,0.10,-0.18,1721206434327
-0.25,-0.31,5.30,0.18,0.12,-0.11,1721206434337
-0.28,4.38,13.19,0.12,0.18,-0.16,1721206434347
0.48,0.76,0.83,0.17,-0.00,-0.19,1721206434357
-0.60,-0.46,7.16,-0.13,0.21,-0.26,1721206434367
-1.54,-0.95,6.94,0.05,-0.02,-0.20,1721206434377
-0.13,-2.48,4.62,-0.25,0.16,-0.09,1721206434387
0.47,0.77,11.73,-0.03,0.07,-0.11,1721206434397
1.05,-1.02,6.22,-0.11,0.12,-0.24,1721206434407
-1.58,1.18,11.52,-0.19,0.01,-0.23,1721206434417
-1.14,-1.15,12.40,-0.25,0.14,-0.12,1721206434427
0.72,-3.17,15.67,-0.24,0.15,-0.02,1721206434437
1.01,-0.80,7.70,-0.13,-0.09,-0.01,1721206434447
1.98,0.30,10.40,-0.34,0.23,-0.25,1721206434457
-0.18,2.23,12.97,-0.11,-0.08,-0.31,1721206434467
-2.70,-4.01,6.93,-0.25,0.11,-0.27,1721206434477
-3.96,-0.72,13.52,-0.20,-0.01,0.03,1721206434487
-0.80,3.39,15.82,-0.18,0.23,0.13,1721206434497
1.50,7.36,12.23,-0.03,-0.05,0.18,1721206434507
2.76,-5.78,3.47,-0.29,0.12,-0.06,1721206434517
0.94,-2.67,10.98,-0.20,-0.02,-0.26,1721206434527
0.15,1.00,9.33,-0.07,0.13,-0.33,1721206434537
-1.50,4.11,17.29,-0.09,0.07,-0.26,1721206434547
-3.59,0.53,9.76,0.08,-0.09,-0.06,1721206434557
-2.34,1.12,9.67,-0.03,0.18,0.15,1721206434567
2.19,-2.99,10.32,-0.04,0.08,0.19,1721206434577
4.10,2.75,14.08,-0.02,0.16,-0.14,1721206434587
0.97,2.64,8.41,0.13,-0.14,-0.42,1721206434597
-3.67,-0.08,8.27,0.03,0.09,-0.33,1721206434607
-4.14,-0.02,8.94,0.12,0.08,0.03,1721206434617
-0.14,-2.39,10.83,-0.12,0.14,0.21,1721206434627
1.53,2.14,10.44,0.11,-0.06,0.06,1721206434637
2.86,-3.06,6.55,-0.14,0.16,-0.22,1721206434647
-0.16,-1.58,11.37,0.01,-0.10,-0.33,1721206434657
-1.79,-4.41,7.96,-0.09,0.10,-0.25,1721206434667
-2.25,2.91,18.94,0.02,0.08,-0.15,1721206434677
-0.67,1.21,11.15,0.05,0.02,-0.07,1721206434687
-1.18,1.87,1.03,-0.04,-0.07,-0.03,1721206434697
3.47,-9.84,16.71,-0.37,0.54,-0.15,1721206434707
1.82,3.83,18.75,0.18,-0.20,-0.12,1721206434717
-0.46,-0.55,4.05,-0.23,0.13,-0.65,1721206434727
-5.88,7.47,19.04,0.08,-0.19,-0.56,1721206434737
-4.33,-7.68,2.62,0.04,-0.01,0.25,1721206434747
1.62,5.77,18.72,0.02,0.54,0.41,1721206434757
4.19,5.48,3.62,0.32,-0.26,-0.32,1721206434767
-0.21,-2.39,5.90,-0.23,0.18,-0.70,1721206434777
-2.22,0.33,19.67,0.16,0.01,-0.18,1721206434787
-2.58,-0.30,7.27,0.11,0.01,0.07,1721206434797
-0.63,6.00,11.96,0.16,0.10,0.00,1721206434807
2.75,3.74,8.20,0.24,0.11,-0.01,1721206434817
2.71,-0.94,7.32,-0.01,0.08,-0.20,1721206434827
1.40,-2.26,16.66,-0.09,0.10,-0.42,1721206434837
-1.67,5.43,13.07,0.24,-0.04,-0.34,1721206434847
-0.95,2.40,11.61,-0.05,0.33,-0.24,1721206434857
-2.07,0.04,7.27,0.15,-0.17,0.02,1721206434867
1.14,0.57,6.94,0.06,0.36,0.01,1721206434877
2.15,-0.72,4.35,0.09,-0.08,-0.19,1721206434887
-0.59,-1.67,7.09,-0.15,0.22,-0.37,1721206434897
-0.90,2.66,16.67,0.14,0.11,-0.33,1721206434907
-1.93,-2.20,3.55,-0.01,-0.06,-0.17,1721206434917
-2.73,-1.71,11.32,-0.16,0.29,-0.17,1721206434927
-0.03,-0.27,12.13,0.04,0.12,-0.17,1721206434937
-0.94,3.79,10.63,0.07,0.13,-0.16,1721206434947
-1.06,-1.65,7.75,-0.08,0.10,-0.13,1721206434957
-1.29,-3.02,8.99,-0.11,0.15,-0.14,1721206434967
-0.16,-1.66,11.25,-0.08,0.18,-0.13,1721206434977
-0.05,0.18,10.35,-0.12,0.11,-0.18,1721206434987
-0.86,1.22,10.76,-0.03,0.11,-0.19,1721206434997
1.44,-3.23,10.45,-0.11,0.26,-0.16,1721206435007
-0.66,2.87,8.43,-0.05,0.09,-0.27,1721206435017
-2.63,1.08,11.77,-0.19,0.21,-0.33,1721206435027
-3.22,-1.04,11.69,-0.11,0.07,-0.16,1721206435037
-1.59,-2.28,10.54,-0.13,0.25,-0.01,1721206435047
-0.87,1.77,12.40,0.01,0.14,0.02,1721206435057
0.67,-1.14,9.15,-0.11,0.16,-0.15,1721206435067
-0.66,2.37,16.00,-0.04,0.16,-0.24,1721206435077
-1.70,1.70,12.83,0.12,0.13,-0.19,1721206435087
-1.52,2.38,7.86,0.23,0.17,-0.05,1721206435097
-1.25,-2.60,7.58,0.09,0.19,0.03,1721206435107
-1.38,1.65,13.07,0.27,0.12,0.00,1721206435117
0.13,0.63,6.25,0.29,0.13,-0.02,1721206435127
0.57,5.57,13.26,0.25,0.15,0.02,1721206435137
1.98,1.98,7.57,0.30,0.15,0.05,1721206435147
2.24,-5.06,6.68,0.07,0.25,-0.09,1721206435157
-1.51,-1.47,10.40,0.19,0.04,-0.26,1721206435167
-2.73,-2.53,8.26,0.09,0.18,-0.10,1721206435177
-2.50,3.22,13.48,0.21,0.19,0.19,1721206435187
1.83,0.76,4.42,0.30,0.24,0.27,1721206435197
3.25,-8.04,2.20,-0.06,0.17,0.06,1721206435207
-0.26,1.47,15.60,-0.03,0.16,-0.30,1721206435217
-1.69,4.58,14.73,0.23,0.13,-0.14,1721206435227
-1.40,0.90,5.20,0.02,0.22,0.09,1721206435237
0.11,-6.97,5.43,-0.18,0.18,0.21,1721206435247
1.22,-1.17,14.61,-0.22,0.31,0.01,1721206435257
0.22,4.02,17.76,0.06,0.11,-0.19,1721206435267
-1.82,1.66,4.24,0.08,0.08,0.00,1721206435277
-0.56,-0.44,5.40,-0.08,0.30,0.19,1721206435287
1.09,-1.66,13.61,-0.12,0.28,-0.01,1721206435297
-0.78,3.76,16.69,0.06,0.08,-0.09,1721206435307
-2.59,2.21,8.00,0.03,0.15,0.05,1721206435317
-1.60,0.80,8.71,-0.06,0.24,0.23,1721206435327
1.55,-1.88,10.23,-0.01,0.26,0.26,1721206435337
1.77,1.72,9.36,-0.01,0.12,0.02,1721206435347
-0.37,3.29,12.86,-0.07,0.18,-0.13,1721206435357
-2.13,2.11,15.64,0.05,0.13,0.07,1721206435367
-0.80,-1.02,7.01,0.05,0.14,0.27,1721206435377
0.92,4.30,9.57,0.02,0.24,0.25,1721206435387
2.73,2.78,9.06,0.04,0.15,-0.02,1721206435397
-0.94,1.52,8.80,-0.02,0.05,-0.11,1721206435407
-2.94,0.66,10.30,0.00,0.16,0.04,1721206435417
-2.01,-1.41,10.67,-0.08,0.19,0.22,1721206435427
-0.68,1.54,7.87,-0.04,-0.03,0.34,1721206435437
2.11,0.97,10.50,-0.14,0.29,0.26,1721206435447
3.06,-1.87,11.11,-0.09,0.03,0.03,1721206435457
0.52,-2.50,14.98,-0.14,0.00,-0.01,1721206435467
-1.01,4.30,10.04,0.16,0.08,0.08,1721206435477
-0.60,5.35,8.43,-0.13,0.28,-0.03,1721206435487
-3.16,-5.88,9.25,-0.13,-0.12,0.27,1721206435497
-1.47,-0.12,9.11,-0.02,0.24,0.39,1721206435507
3.49,-2.23,7.53,-0.02,0.13,0.23,1721206435517
1.75,-2.21,11.82,-0.27,0.02,-0.01,1721206435527
-2.17,5.37,18.57,0.12,0.07,-0.11,1721206435537
-3.09,3.01,4.33,0.16,-0.04,0.15,1721206435547
-1.00,-2.59,6.85,-0.08,0.18,0.48,1721206435557
2.70,-2.84,13.69,-0.11,0.15,0.43,1721206435567
3.74,4.67,14.28,0.04,0.10,-0.04,1721206435577
0.63,3.03,7.54,0.10,-0.10,-0.27,1721206435587
-3.72,-1.86,3.66,-0.02,0.00,-0.09,1721206435597
-4.84,-4.04,13.13,-0.06,0.11,0.36,1721206435607
-0.59,3.85,14.85,0.12,0.19,0.38,1721206435617
1.62,2.73,10.78,0.03,-0.07,0.26,1721206435627
0.95,3.69,10.34,0.02,0.04,0.08,1721206435637
1.22,-6.45,10.81,-0.08,0.02,0.10,1721206435647
-1.32,2.14,12.99,0.18,-0.02,0.12,1721206435657
-0.93,1.17,4.92,0.13,-0.01,0.14,1721206435667
-3.15,1.34,10.76,0.06,-0.05,0.27,1721206435677
-0.06,-1.37,8.37,0.08,0.08,0.34,1721206435687
1.58,-0.62,13.20,0.05,0.03,0.29,1721206435697
1.53,-1.93,8.69,0.02,-0.08,0.13,1721206435707
-1.10,3.84,12.26,0.10,-0.08,-0.03,1721206435717
-1.20,-3.78,6.78,-0.01,-0.05,0.15,1721206435727
-1.63,-0.35,12.79,0.01,-0.02,0.32,1721206435737
1.02,-1.75,6.44,0.06,-0.06,0.30,1721206435747
-0.40,2.19,5.07,-0.07,-0.16,0.18,1721206435757
0.85,-5.67,11.64,-0.25,0.10,0.08,1721206435767
0.53,-1.41,22.46,-0.05,-0.05,0.17,1721206435777
-1.65,3.88,6.39,0.16,-0.26,0.13,1721206435787
-2.30,3.50,1.91,-0.12,-0.09,0.20,1721206435797
0.37,-5.82,10.58,-0.27,0.01,0.36,1721206435807
1.92,-0.92,14.62,-0.02,-0.12,0.33,1721206435817
2.53,1.60,4.63,0.02,-0.21,0.15,1721206435827
1.05,-0.30,4.52,-0.23,-0.04,0.04,1721206435837
2.04,-1.08,21.50,-0.22,0.15,0.10,1721206435847
0.40,2.50,19.49,0.03,-0.17,0.04,1721206435857
-3.00,4.06,3.60,-0.04,-0.37,0.09,1721206435867
-1.72,1.07,10.60,-0.34,0.15,0.25,1721206435877
0.73,0.67,15.65,-0.16,-0.18,0.33,1721206435887
1.11,1.36,7.07,-0.13,-0.22,0.24,1721206435897
0.90,0.75,9.48,-0.25,-0.02,0.05,1721206435907
-0.21,5.04,15.05,-0.08,-0.16,0.05,1721206435917
-1.27,2.85,8.16,-0.16,-0.21,0.15,1721206435927
-0.41,-0.28,11.74,-0.28,-0.08,0.22,1721206435937
0.72,4.60,12.95,-0.10,-0.09,0.14,1721206435947
0.89,1.22,9.28,-0.23,-0.13,0.06,1721206435957
-1.90,1.27,10.30,-0.20,-0.21,-0.03,1721206435967
-1.67,-0.15,9.11,-0.14,-0.16,0.05,1721206435977
-0.97,-1.35,7.95,-0.20,-0.10,0.15,1721206435987
0.11,-1.73,8.41,-0.16,-0.12,0.16,1721206435997
1.72,-1.46,9.77,-0.14,-0.08,0.05,1721206436007
0.50,-3.38,7.31,-0.08,-0.25,-0.05,1721206436017
-0.77,-4.42,11.82,-0.21,-0.01,-0.05,1721206436027
-0.47,0.33,15.38,0.06,-0.17,0.06,1721206436037
-0.43,1.80,6.58,0.11,-0.14,0.01,1721206436047
-0.20,-5.39,6.61,0.04,-0.17,0.01,1721206436057
-0.27,-0.79,12.03,0.07,-0.06,0.07,1721206436067
0.33,2.68,12.12,0.22,-0.08,-0.02,1721206436077
-0.16,0.69,9.13,0.17,-0.21,-0.04,1721206436087
-0.56,0.50,10.18,0.06,-0.10,-0.09,1721206436097
1.00,2.18,13.84,-0.01,-0.05,-0.02,1721206436107
-0.42,2.46,13.84,-0.02,-0.13,-0.12,1721206436117
-0.10,-3.75,8.82,-0.09,-0.09,-0.14,1721206436127
-0.26,-1.89,10.81,0.01,-0.09,-0.13,1721206436137
-0.18,3.41,15.52,0.05,-0.06,-0.15,1721206436152
-0.43,8.52,15.60,0.17,-0.06,-0.09,1721206436156
0.14,1.31,8.96,0.24,-0.04,-0.13,1721206436166
-0.61,1.06,12.51,0.01,0.01,-0.30,1721206436176
0.11,-0.19,16.44,0.11,-0.06,-0.19,1721206436186
-0.72,5.73,8.99,0.42,-0.07,-0.05,1721206436196
1.11,-3.27,7.26,0.23,0.10,-0.08,1721206436206
1.13,5.86,12.64,0.61,-0.06,-0.16,1721206436216
1.17,-1.09,4.23,0.55,0.02,-0.31,1721206436226
-1.95,6.63,10.91,0.48,-0.01,-0.32,1721206436236
-1.83,1.89,2.54,0.53,-0.07,-0.14,1721206436246
-0.67,-5.69,1.84,0.26,0.11,-0.01,1721206436256
0.34,-1.95,5.97,0.33,-0.05,0.11,1721206436266
1.52,2.95,0.72,0.34,0.04,-0.01,1721206436276
2.71,-0.81,3.65,-0.10,0.05,-0.07,1721206436286
0.80,-0.94,12.27,-0.16,0.07,-0.21,1721206436296
-1.80,-4.44,10.47,-0.08,-0.07,-0.27,1721206436306
-3.56,-0.81,13.93,-0.15,0.08,-0.11,1721206436316
-2.16,-4.64,15.28,-0.18,0.00,0.21,1721206436326
0.14,-5.31,18.51,-0.15,0.05,0.17,1721206436336
2.12,-0.70,12.79,0.20,-0.04,0.03,1721206436346
4.23,4.80,3.36,0.08,0.14,0.02,1721206436356
3.14,1.15,2.99,-0.26,0.07,-0.17,1721206436366
-0.41,-6.87,13.78,-0.37,0.05,-0.40,1721206436376
-3.36,0.51,21.10,0.07,-0.06,-0.24,1721206436386
-2.26,3.69,12.13,0.03,0.06,0.17,1721206436396
-0.22,4.13,5.36,-0.10,-0.04,0.25,1721206436406
2.21,2.85,8.50,-0.30,0.20,-0.02,1721206436416
1.10,-2.06,11.21,-0.21,-0.10,-0.20,1721206436426
-1.90,0.25,11.67,-0.22,-0.04,-0.18,1721206436436
-2.58,2.46,12.06,-0.15,-0.01,-0.05,1721206436446
-2.10,1.87,13.49,-0.18,0.03,0.14,1721206436456
-0.66,0.92,11.62,-0.09,-0.03,0.19,1721206436466
1.26,-0.51,5.24,-0.12,-0.03,0.12,1721206436476
2.23,3.96,12.99,-0.12,0.13,-0.03,1721206436486
2.07,1.57,12.99,-0.03,-0.10,-0.14,1721206436496
-0.38,-2.25,8.22,-0.16,-0.03,-0.18,1721206436506
-2.32,-0.16,12.66,-0.11,-0.05,-0.12,1721206436516
-2.49,-1.85,9.53,-0.06,-0.09,0.00,1721206436526
-0.92,3.74,11.20,0.11,-0.01,0.10,1721206436536
1.10,-1.72,8.41,0.00,-0.04,0.11,1721206436546
0.86,2.83,13.94,0.03,0.03,-0.05,1721206436556
0.69,-0.57,7.05,0.02,-0.14,-0.03,1721206436566
-0.36,1.28,5.41,-0.07,-0.02,0.02,1721206436576
2.47,-4.31,6.66,-0.13,0.06,-0.00,1721206436586
1.67,-2.66,11.84,-0.03,-0.08,-0.09,1721206436596
0.16,-0.21,7.04,0.03,-0.08,-0.15,1721206436606
-1.19,2.91,11.79,-0.16,0.08,-0.16,1721206436616
-0.72,-3.42,15.44,-0.26,0.05,-0.08,1721206436626
-2.39,-0.35,16.51,-0.12,-0.12,0.02,1721206436636
-0.99,-1.69,3.88,-0.02,-0.11,0.05,1721206436646
-0.89,-4.13,5.35,-0.13,-0.05,0.06,1721206436656
0.45,-2.75,12.45,-0.12,0.07,-0.04,1721206436666
-0.34,1.19,11.82,0.08,-0.12,-0.10,1721206436676
0.23,0.71,6.78,-0.06,-0.04,0.01,1721206436686
-0.55,-2.69,14.02,-0.19,-0.06,0.06,1721206436696
0.23,7.05,15.59,-0.02,0.01,-0.05,1721206436706
1.60,0.23,10.29,-0.03,-0.10,-0.21,1721206436716
-0.96,-0.74,8.11,-0.13,-0.19,-0.23,1721206436726
-2.89,0.72,7.78,-0.15,-0.11,-0.13,1721206436736
-2.02,-1.01,10.94,-0.18,-0.08,-0.02,1721206436746
0.98,0.06,11.35,-0.13,-0.07,0.01,1721206436756
2.04,-4.09,13.36,-0.22,-0.07,-0.06,1721206436766
0.31,3.27,15.81,-0.03,-0.07,-0.23,1721206436776
-1.30,2.25,11.79,0.05,-0.11,-0.38,1721206436786
-4.25,-0.91,10.01,0.15,-0.19,-0.18,1721206436796
-1.62,-3.19,8.32,0.27,0.07,0.07,1721206436806
1.18,2.94,12.36,0.43,-0.02,0.15,1721206436816
3.01,6.81,9.31,0.55,-0.08,0.03,1721206436826
3.56,2.60,10.38,0.38,-0.00,-0.31,1721206436836
0.57,6.14,12.90,0.51,-0.17,-0.47,1721206436846
-1.98,1.28,4.51,0.29,-0.15,-0.29,1721206436856
-4.11,2.24,8.01,0.21,-0.06,-0.12,1721206436866
-1.02,-1.43,5.94,0.16,0.04,-0.02,1721206436876
0.46,-1.33,5.17,0.13,-0.08,-0.01,1721206436886
2.06,-2.52,8.43,0.10,0.05,-0.08,1721206436896
1.72,-1.07,13.15,0.04,-0.01,-0.21,1721206436906
-0.11,-0.21,16.63,0.08,-0.08,-0.25,1721206436916
-0.85,1.61,15.77,0.14,-0.03,-0.19,1721206436926
-1.46,-3.00,10.04,-0.15,-0.09,-0.13,1721206436936
-1.75,0.18,15.27,-0.00,-0.06,-0.16,1721206436946
0.11,-1.79,7.63,0.03,-0.00,-0.20,1721206436956
-1.85,5.12,9.46,0.22,-0.09,-0.17,1721206436966
-1.13,-0.28,6.23,0.04,0.13,-0.21,1721206436976
-2.41,1.63,9.13,0.19,-0.22,-0.20,1721206436986
-0.69,-1.65,4.24,0.07,0.13,-0.20,1721206436996
-2.42,4.21,11.02,0.10,-0.20,-0.19,1721206437006
-0.41,2.39,7.55,0.25,0.05,-0.03,1721206437016
1.18,-6.12,-2.48,0.24,-0.04,-0.07,1721206437026
0.78,-0.69,1.02,0.04,0.04,-0.34,1721206437036
0.04,2.93,15.63,-0.08,0.25,-0.24,1721206437046
-1.48,-6.44,13.08,-0.20,-0.21,-0.15,1721206437056
-0.56,-8.21,19.00,-0.35,0.05,-0.08,1721206437066
0.60,0.86,18.79,-0.08,0.01,-0.17,1721206437076
-0.20,8.61,8.50,-0.08,-0.12,-0.22,1721206437086
-0.45,-1.17,5.22,-0.36,0.10,-0.18,1721206437096
-1.10,-4.83,11.34,-0.18,0.04,-0.16,1721206437106
0.93,-1.70,11.56,-0.04,0.17,-0.16,1721206437116
-1.07,3.16,7.71,0.00,-0.14,-0.09,1721206437126
1.04,-4.24,6.07,-0.33,0.13,0.02,1721206437136
2.88,-2.58,15.53,-0.09,0.10,-0.23,1721206437146
2.60,7.36,8.15,0.42,-0.07,-0.37,1721206437156
0.68,-1.30,-0.14,0.04,0.10,-0.35,1721206437166
-2.94,-6.49,13.15,-0.26,0.15,-0.31,1721206437176
-4.20,-0.65,15.91,0.08,0.02,-0.21,1721206437186
-1.62,7.98,7.47,0.18,0.03,0.09,1721206437196
3.44,-2.69,7.40,-0.24,0.27,0.19,1721206437206
5.12,-11.28,17.20,-0.36,0.22,-0.26,1721206437216
0.85,5.26,17.66,0.09,-0.06,-0.60,1721206437226
-2.09,5.42,4.95,0.01,0.12,-0.39,1721206437236
-3.06,-4.92,12.38,-0.38,0.20,-0.03,1721206437246
0.16,-3.51,18.14,-0.01,0.23,-0.09,1721206437256
2.42,5.97,7.99,0.31,0.14,-0.19,1721206437266
1.33,6.99,5.81,0.15,0.16,-0.16,1721206437276
1.54,-5.35,14.54,-0.09,0.35,-0.40,1721206437286
-2.88,2.32,15.15,0.32,0.01,-0.48,1721206437296
-4.13,7.29,6.69,0.24,0.21,-0.17,1721206437306
-1.40,2.47,10.99,-0.04,0.26,0.16,1721206437316
0.44,-1.88,18.13,-0.05,0.26,-0.07,1721206437326
1.08,4.49,9.12,0.28,0.01,-0.17,1721206437336
-0.13,6.52,-0.62,0.18,0.13,-0.07,1721206437346
1.14,-0.53,8.66,-0.20,0.32,-0.14,1721206437356
-1.59,-5.66,18.18,-0.11,-0.01,-0.26,1721206437366
-4.20,7.38,7.33,0.31,-0.02,-0.11,1721206437376
-1.98,3.58,-3.10,-0.18,0.18,0.22,1721206437386
-1.88,-8.77,20.51,-0.66,0.39,0.19,1721206437396
2.14,-2.41,27.97,-0.01,0.01,-0.08,1721206437406
1.73,6.24,2.09,0.33,-0.19,-0.02,1721206437416
0.22,0.54,-4.31,-0.29,0.16,-0.01,1721206437426
5.42,-12.05,12.19,-0.59,0.28,-0.16,1721206437436
-1.75,-1.83,20.46,0.20,0.02,-0.16,1721206437446
-0.51,9.32,3.38,0.48,-0.02,0.01,1721206437456
-0.32,-1.29,-5.04,-0.21,0.04,0.08,1721206437466
-7.30,-16.31,20.76,-0.67,0.45,-0.08,1721206437476
0.43,0.39,27.49,0.29,-0.08,-0.16,1721206437486
1.19,9.74,-2.40,0.35,-0.05,-0.02,1721206437496
-0.89,4.04,6.14,-0.16,0.18,-0.03,1721206437506
-3.11,-11.69,21.60,-0.25,-0.11,-0.11,1721206437516
-2.22,-1.32,18.06,-0.12,0.03,-0.03,1721206437526
-0.37,12.13,7.46,0.13,-0.00,0.17,1721206437536
2.71,-3.33,7.65,-0.34,0.20,0.16,1721206437546
1.85,-8.47,20.14,-0.12,-0.02,-0.06,1721206437556
-0.83,13.22,9.59,0.43,-0.09,-0.16,1721206437566
-0.17,1.18,4.67,0.03,0.12,-0.04,1721206437576
-2.93,-1.51,23.38,-0.22,-0.04,0.05,1721206437586
-1.59,3.58,14.99,0.24,-0.08,0.07,1721206437596
1.11,6.44,4.79,0.31,0.08,0.13,1721206437606
0.58,-3.46,7.85,0.17,-0.11,0.17,1721206437616
1.22,2.41,16.47,0.34,0.14,-0.11,1721206437626
0.53,2.09,5.34,0.56,-0.27,-0.13,1721206437636
-2.66,7.65,3.12,0.45,0.14,-0.04,1721206437646
-1.10,-3.57,5.14,0.31,-0.07,0.10,1721206437656
-0.60,-7.99,13.31,0.01,0.01,0.10,1721206437666
-0.27,4.96,5.40,0.48,-0.23,0.01,1721206437676
2.11,8.11,-6.12,0.32,0.18,-0.05,1721206437686
0.13,-13.93,-5.03,-0.45,-0.22,-0.05,1721206437696
-7.82,-15.65,31.90,-0.36,0.69,-0.23,1721206437706
-1.24,1.11,27.07,0.52,-0.30,-0.31,1721206437716
-1.10,7.75,-5.65,0.15,-0.17,-0.06,1721206437726
0.63,-10.01,7.93,-0.64,0.23,0.13,1721206437736
0.14,-2.73,29.15,-0.06,0.05,-0.04,1721206437746
3.03,4.81,7.67,0.58,-0.18,-0.25,1721206437756
1.82,6.72,-2.33,-0.23,0.02,-0.35,1721206437766
-8.01,-9.90,16.37,-0.63,-0.03,-0.34,1721206437776
-2.35,0.40,22.24,-0.01,-0.15,-0.21,1721206437786
0.03,8.88,2.27,0.00,-0.02,-0.13,1721206437796
-1.52,2.35,8.02,-0.44,0.01,-0.20,1721206437806
-1.30,-5.44,18.41,-0.27,0.10,-0.14,1721206437816
-1.10,7.64,12.23,0.08,-0.12,-0.15,1721206437826
0.64,5.57,6.97,-0.20,-0.02,-0.10,1721206437836
-0.86,-2.22,13.51,-0.18,-0.09,-0.10,1721206437846
-0.74,-0.03,13.46,0.12,-0.01,-0.17,1721206437856
0.64,8.96,10.96,0.30,0.05,-0.12,1721206437866
0.39,3.07,9.05,0.04,-0.00,-0.16,1721206437876
-0.18,0.34,18.36,0.12,0.08,-0.27,1721206437886
-1.27,2.69,5.37,0.36,-0.11,-0.35,1721206437896
-2.21,7.25,4.30,0.29,0.14,-0.13,1721206437906
-0.18,-2.34,5.47,0.14,0.12,-0.02,1721206437916
-0.33,-5.91,11.19,0.02,-0.03,-0.13,1721206437926
0.96,4.57,9.68,0.37,0.05,-0.25,1721206437936
2.31,5.80,-0.87,0.20,0.15,-0.21,1721206437946
0.50,-9.50,4.72,-0.36,0.04,-0.16,1721206437956
-0.76,-7.52,21.50,-0.21,0.02,-0.33,1721206437966
-1.38,-0.63,10.37,0.34,-0.02,-0.32,1721206437976
-1.96,3.80,0.82,-0.08,0.15,-0.23,1721206437986
-2.48,-4.23,14.13,-0.40,-0.01,0.03,1721206437996
-0.65,-6.15,21.01,-0.25,0.20,0.02,1721206438006
0.46,3.43,10.16,0.17,-0.07,-0.16,1721206438016
-0.38,2.67,-2.09,-0.07,-0.04,-0.14,1721206438026
-2.15,-5.62,15.15,-0.43,0.32,-0.20,1721206438036
-0.49,0.86,17.71,-0.07,-0.17,-0.14,1721206438046
-0.23,7.31,1.24,0.11,0.13,-0.00,1721206438056
1.38,-2.89,5.02,-0.31,0.13,-0.01,1721206438066
-0.26,-5.62,22.63,-0.33,0.11,-0.17,1721206438076
-0.85,7.57,12.92,0.18,-0.04,-0.23,1721206438086
-0.39,0.62,-1.09,-0.02,0.05,-0.02,1721206438096
-0.79,-6.11,16.50,-0.25,0.19,-0.08,1721206438106
-0.31,2.27,17.77,0.26,-0.05,-0.10,1721206438116
0.42,5.81,3.27,0.28,0.10,0.03,1721206438126
-0.43,-4.37,8.60,-0.13,0.12,0.10,1721206438136
-0.64,1.38,19.18,0.05,0.12,-0.11,1721206438146
-0.62,4.44,4.67,0.19,0.16,-0.07,1721206438161
-0.15,-0.29,3.66,0.08,0.04,-0.03,1721206438165
0.42,-1.53,11.04,0.02,0.17,0.06,1721206438175
0.06,0.11,16.77,0.11,0.11,-0.08,1721206438185
-1.21,4.43,9.32,0.34,-0.05,-0.02,1721206438195
-0.22,-2.46,-1.30,0.06,0.12,0.07,1721206438205
-0.21,-1.89,13.46,-0.12,0.17,-0.01,1721206438215
-0.30,0.25,19.64,0.17,0.03,-0.11,1721206438225
-2.50,2.60,7.19,0.30,-0.12,-0.05,1721206438235
-0.43,-0.43,5.09,-0.01,0.14,0.30,1721206438245
3.04,-2.40,17.24,-0.23,0.19,0.15,1721206438255
1.82,8.45,18.72,0.31,-0.12,-0.20,1721206438265
1.58,6.50,-4.32,0.22,0.03,-0.14,1721206438275
-0.52,-7.12,3.22,-0.49,0.16,-0.08,1721206438285
-0.80,-2.27,28.00,-0.22,0.24,-0.24,1721206438295
-1.76,7.11,7.16,0.33,-0.21,-0.18,1721206438305
-1.99,-1.00,-5.97,-0.34,0.15,-0.03,1721206438315
7.24,-4.36,14.65,-0.51,0.35,-0.06,1721206438325
1.41,-1.06,16.71,0.10,-0.03,-0.02,1721206438335
-1.07,0.33,2.30,0.05,-0.12,-0.06,1721206438345
-0.51,-2.65,8.72,-0.17,0.23,-0.08,1721206438355
-0.34,-0.63,17.87,0.06,-0.04,-0.05,1721206438365
0.02,5.58,9.91,0.27,-0.06,0.03,1721206438375
1.78,3.26,5.37,-0.00,0.14,0.03,1721206438385
2.82,0.02,12.88,-0.20,0.08,-0.05,1721206438395
2.71,0.87,15.84,-0.19,0.03,-0.04,1721206438405
2.37,3.18,7.41,-0.07,0.03,-0.25,1721206438415
-0.18,-0.35,4.24,-0.15,0.02,-0.39,1721206438425
-2.75,-4.78,10.52,-0.19,0.10,-0.36,1721206438435
-3.36,4.53,15.94,0.03,0.03,-0.15,1721206438445
-2.51,7.52,10.08,0.03,0.05,0.08,1721206438455
1.00,1.81,14.65,-0.32,0.23,0.22,1721206438465
3.56,1.29,20.08,-0.22,0.08,0.13,1721206438475
3.16,3.90,9.30,-0.08,-0.09,-0.11,1721206438485
3.12,-0.14,8.82,-0.32,0.26,-0.51,1721206438495
-2.22,-7.11,13.42,-0.25,-0.26,-0.45,1721206438505
-6.15,-1.28,8.83,0.11,0.05,-0.15,1721206438515
-2.32,-7.24,4.79,0.01,0.25,0.03,1721206438525
-3.14,2.09,8.60,0.23,-0.17,0.25,1721206438535
3.75,3.58,4.52,0.39,0.35,0.10,1721206438545
1.10,-6.42,-5.06,0.09,-0.44,-0.12,1721206438555
-1.48,-2.41,4.39,0.06,0.37,-0.33,1721206438565
1.48,-3.44,8.88,-0.07,-0.10,-0.16,1721206438575
-6.43,-2.95,18.39,-0.31,-0.07,-0.15,1721206438585
-3.28,-1.49,18.27,0.16,0.09,0.05,1721206438595
1.49,-1.50,6.08,0.05,0.09,0.15,1721206438605
3.04,6.09,16.28,-0.06,0.13,0.06,1721206438615
1.94,-2.43,5.04,0.01,-0.34,-0.03,1721206438625
-1.03,-4.13,10.85,-0.32,0.37,-0.26,1721206438635
1.12,-0.10,21.59,-0.05,-0.04,-0.10,1721206438645
-0.79,0.38,15.52,-0.24,-0.21,-0.04,1721206438655
-1.11,4.08,21.49,-0.26,0.04,-0.12,1721206438665
-1.21,4.60,17.05,0.04,-0.13,-0.08,1721206438675
-1.86,1.93,12.50,-0.00,0.01,-0.04,1721206438685
-1.59,4.89,12.96,0.15,-0.07,0.06,1721206438695
-1.36,14.18,9.19,0.62,0.02,0.02,1721206438705
0.34,1.46,-2.21,0.88,-0.20,0.01,1721206438715
0.05,-0.99,2.97,0.66,0.23,-0.02,1721206438725
0.21,11.00,10.62,0.93,-0.14,-0.06,1721206438735
-0.06,9.40,2.85,0.82,0.05,-0.18,1721206438745
-1.10,-2.86,1.17,0.54,-0.16,-0.09,1721206438755
-1.59,2.83,6.37,0.42,0.09,0.08,1721206438765
0.60,3.17,7.26,0.38,-0.04,0.12,1721206438775
0.75,-1.09,9.90,0.04,0.10,-0.08,1721206438785
-1.41,-1.90,10.44,0.22,-0.23,-0.16,1721206438795
-0.32,0.02,5.20,0.12,0.12,-0.01,1721206438805
-1.08,-6.04,8.45,-0.26,-0.13,-0.00,1721206438815
-3.01,1.60,21.08,0.03,-0.08,-0.10,1721206438825
-0.80,-1.94,7.72,0.28,-0.14,-0.08,1721206438835
-2.16,0.99,4.38,-0.05,-0.14,0.03,1721206438845
-0.19,-0.62,12.66,-0.23,0.02,0.10,1721206438855
1.16,0.62,14.42,0.00,-0.16,0.07,1721206438865
2.55,-2.94,7.01,0.03,-0.01,0.01,1721206438875
1.86,1.19,2.87,0.07,-0.11,-0.10,1721206438885
2.96,0.66,4.23,-0.12,0.06,-0.17,1721206438895
0.42,-1.14,9.76,-0.16,-0.12,-0.28,1721206438905
-1.16,-3.06,8.32,-0.06,-0.11,-0.16,1721206438915
-1.19,-2.15,0.97,-0.11,-0.06,-0.02,1721206438925
-0.36,-2.02,5.72,-0.38,0.03,-0.05,1721206438935
1.13,-5.81,16.96,-0.42,0.08,-0.10,1721206438945
-2.12,-3.39,16.74,-0.12,-0.17,-0.10,1721206438955
-0.50,-1.62,14.49,-0.30,0.12,-0.01,1721206438965
-0.12,-1.30,21.27,-0.36,-0.08,-0.07,1721206438975
-0.53,-0.02,15.08,-0.19,-0.10,0.00,1721206438985
1.38,1.75,8.02,-0.28,0.20,-0.01,1721206438995
1.31,-4.30,7.39,-0.29,-0.11,-0.11,1721206439005
1.07,2.63,8.73,-0.05,0.03,-0.17,1721206439015
1.89,-0.38,8.61,-0.24,0.14,-0.34,1721206439025
-1.34,1.92,18.21,-0.26,-0.08,-0.44,1721206439035
-3.22,7.38,11.24,0.10,-0.01,-0.28,1721206439045
-0.83,-3.86,8.25,-0.32,0.20,-0.13,1721206439055
-0.68,9.55,18.04,0.11,-0.01,-0.06,1721206439065
2.90,-1.99,1.87,0.07,0.14,-0.15,1721206439075
1.51,-2.30,12.61,-0.21,0.10,-0.35,1721206439085
-0.74,2.65,15.09,0.13,-0.07,-0.52,1721206439095
-1.00,3.58,8.54,0.14,0.13,-0.37,1721206439105
-2.09,0.95,6.26,0.15,0.01,-0.17,1721206439115
-1.28,-3.21,6.30,0.03,0.15,-0.09,1721206439125
-0.40,-2.89,13.63,0.16,0.16,-0.23,1721206439135
-1.17,-3.56,9.86,0.31,-0.02,-0.18,1721206439145
-1.78,2.47,13.76,0.48,0.17,-0.11,1721206439155
0.51,4.27,10.43,0.53,0.13,0.02,1721206439165
1.88,7.99,8.31,0.40,0.14,0.06,1721206439175
4.36,4.29,13.24,0.09,0.31,-0.13,1721206439185
3.45,7.44,11.14,0.18,0.10,-0.34,1721206439195
1.09,-2.91,7.16,-0.11,0.20,-0.67,1721206439205
-3.04,-3.35,14.49,0.17,0.10,-0.53,1721206439215
-3.68,-1.01,4.68,0.32,0.21,-0.28,1721206439225
-3.06,1.82,13.59,0.14,0.30,-0.10,1721206439235
-3.33,6.78,18.41,0.39,0.10,-0.01,1721206439245
-2.34,4.74,12.53,0.21,0.19,0.13,1721206439255
0.38,1.68,11.00,0.16,0.15,0.37,1721206439265
5.10,-2.03,10.92,0.02,0.36,0.24,1721206439275
6.79,-0.62,7.17,0.23,0.10,0.00,1721206439285
4.49,5.49,7.91,0.23,0.23,-0.44,1721206439295
0.36,1.22,4.02,0.23,0.07,-0.65,1721206439305
-6.98,2.26,8.96,0.12,0.15,-0.53,1721206439315
-8.26,0.61,3.77,0.17,0.11,0.01,1721206439325
-5.44,2.88,0.69,0.03,0.16,0.46,1721206439335
0.83,-1.76,-5.60,-0.15,0.12,0.47,1721206439345
3.34,-0.72,-0.85,-0.28,0.13,0.12,1721206439355
4.32,-2.18,8.76,-0.58,0.19,-0.23,1721206439365
-3.14,-1.72,26.52,-0.23,-0.11,-0.24,1721206439375
-6.72,-10.33,22.60,-0.14,-0.08,0.13,1721206439385
-3.92,-1.26,30.73,0.22,0.05,0.64,1721206439395
4.97,-0.72,2.88,0.38,-0.04,0.83,1721206439405
11.09,3.14,-3.38,-0.09,0.32,0.45,1721206439415
13.63,3.13,8.21,-0.23,0.38,-0.32,1721206439425
4.40,0.59,10.51,-0.01,-0.43,-0.75,1721206439435
-3.82,-4.24,5.54,-0.20,0.24,-0.75,1721206439445
-7.43,-7.13,19.85,-0.25,0.11,-0.24,1721206439455
-5.76,3.44,27.15,0.31,0.10,0.39,1721206439465
1.13,5.65,2.29,0.24,0.16,0.48,1721206439475
5.85,4.14,6.40,-0.16,0.35,0.04,1721206439485
4.66,-4.02,9.38,-0.23,0.07,-0.40,1721206439495
-2.59,1.87,12.60,0.10,0.01,-0.47,1721206439505
-3.79,0.94,0.57,0.01,0.15,-0.23,1721206439515
-4.23,5.21,14.99,-0.14,0.22,0.01,1721206439525
0.01,-0.30,14.72,0.01,0.19,0.04,1721206439535
0.47,0.92,10.13,-0.03,0.04,-0.12,1721206439545
-1.13,4.82,13.43,-0.07,0.17,-0.28,1721206439555
-3.14,1.69,5.82,0.03,-0.00,-0.19,1721206439565
-2.10,-5.52,5.92,-0.18,0.24,0.00,1721206439575
0.66,-3.87,17.30,0.09,0.22,0.15,1721206439585
0.93,5.36,12.62,0.29,0.03,-0.05,1721206439595
-1.03,11.04,7.57,0.11,0.09,-0.26,1721206439605
-0.16,-2.22,3.61,-0.26,0.13,-0.07,1721206439615
-1.58,-3.78,16.19,-0.16,0.14,0.04,1721206439625
1.58,-5.69,15.21,0.08,0.14,-0.04,1721206439635
1.08,10.31,12.26,0.45,0.14,-0.23,1721206439645
2.79,2.68,-3.42,-0.01,0.22,-0.22,1721206439655
-2.34,-2.78,7.71,-0.45,0.08,-0.23,1721206439665
-1.53,-1.52,19.16,0.12,0.31,-0.36,1721206439675
-3.05,-0.92,7.48,0.22,0.07,-0.07,1721206439685
-2.81,2.39,4.92,-0.08,0.18,0.19,1721206439695
1.70,-1.80,10.57,0.01,0.25,0.16,1721206439705
5.00,0.56,11.73,0.11,0.37,-0.09,1721206439715
2.59,4.35,9.42,0.04,0.08,-0.35,1721206439725
-0.93,-3.21,12.44,-0.18,0.16,-0.41,1721206439735
-4.07,-3.45,16.66,-0.01,0.15,-0.14,1721206439745
-1.42,1.95,13.77,0.21,0.33,0.05,1721206439755
2.16,1.55,8.06,0.16,0.16,0.08,1721206439765
2.66,4.58,3.33,0.08,0.28,-0.19,1721206439775
2.43,-0.71,3.01,-0.26,0.45,-0.51,1721206439785
-5.04,-0.42,15.49,-0.10,0.01,-0.48,1721206439795
-6.51,-1.68,10.60,0.18,0.24,-0.07,1721206439805
-2.51,-1.86,8.11,0.01,0.36,0.24,1721206439815
-0.21,5.46,15.39,-0.01,0.23,0.15,1721206439825
2.04,2.97,10.72,0.03,0.21,-0.06,1721206439835
1.38,-3.48,4.90,-0.11,0.16,-0.21,1721206439845
-0.60,0.72,12.52,-0.00,0.29,-0.23,1721206439855
-0.56,1.32,9.26,0.06,0.25,-0.06,1721206439865
-2.44,3.87,11.25,0.01,0.21,-0.11,1721206439875
-2.10,0.09,5.95,-0.07,0.26,-0.12,1721206439885
-3.58,0.61,10.23,-0.14,0.21,0.02,1721206439895
-2.57,-1.37,7.29,-0.06,0.14,0.18,1721206439905
-1.08,1.70,12.57,-0.08,0.34,0.17,1721206439915
0.45,0.68,10.06,0.04,0.14,0.16,1721206439925
-0.11,-0.73,11.42,-0.19,0.23,0.08,1721206439935
-0.68,-0.14,13.63,-0.01,0.04,0.23,1721206439945
0.28,2.52,10.22,-0.01,0.26,0.27,1721206439955
1.30,0.58,6.59,-0.03,0.10,0.23,1721206439965
1.12,0.58,10.80,-0.11,0.23,0.09,1721206439975
1.38,3.00,13.21,-0.01,0.22,0.07,1721206439985
-2.03,11.08,7.42,0.11,-0.01,0.07,1721206439995
-1.60,4.28,9.28,-0.43,0.26,0.13,1721206440005
-1.53,-4.83,17.73,-0.29,0.05,0.26,1721206440015
-1.05,0.19,12.49,-0.23,0.20,0.15,1721206440025
-2.70,0.34,7.62,-0.08,-0.11,0.21,1721206440035
-3.48,0.75,4.57,-0.27,0.07,0.30,1721206440045
-1.58,-4.31,12.03,-0.32,0.16,0.43,1721206440055
-1.35,-4.22,17.79,-0.04,0.01,0.51,1721206440065
-0.98,-2.39,6.67,0.13,-0.14,0.65,1721206440075
2.16,0.86,9.86,-0.00,0.17,0.70,1721206440085
5.59,0.74,8.94,0.14,-0.06,0.63,1721206440095
5.57,-1.01,7.23,0.02,0.04,0.29,1721206440105
2.21,3.87,10.06,0.18,-0.07,0.02,1721206440115
-0.60,-3.15,7.07,-0.06,-0.01,-0.04,1721206440125
-4.49,0.91,18.45,0.09,-0.08,0.11,1721206440135
-3.08,9.79,11.31,0.56,0.05,0.39,1721206440145
1.54,-1.97,0.87,-0.14,0.09,0.51,1721206440155
1.92,-0.45,11.84,0.05,-0.36,0.15,1721206440170
2.13,-2.02,7.69,-0.06,-0.06,-0.01,1721206440174
-3.99,-6.09,13.85,-0.26,-0.27,-0.03,1721206440184
-3.74,0.87,17.54,0.16,0.05,0.23,1721206440194
-0.26,1.88,16.01,0.12,-0.01,0.56,1721206440204
1.08,0.29,14.37,0.14,-0.26,0.59,1721206440214
3.85,6.69,16.51,0.32,0.12,0.27,1721206440224
3.82,-0.82,4.36,0.24,-0.23,0.23,1721206440234
-1.32,2.55,0.85,0.22,-0.22,0.41,1721206440244
6.00,-0.21,5.26,0.16,0.34,0.51,1721206440254
5.09,6.45,8.84,0.36,-0.21,0.23,1721206440264
2.45,4.73,-2.34,0.02,-0.03,-0.19,1721206440274
-4.54,-0.61,9.41,-0.15,-0.07,-0.28,1721206440284
-7.18,-2.35,5.69,-0.04,-0.23,0.18,1721206440294
-4.28,0.30,2.62,-0.10,-0.04,0.70,1721206440304
1.74,3.31,8.99,-0.16,0.09,0.52,1721206440314
3.46,0.04,5.80,-0.24,-0.27,0.13,1721206440324
-0.56,-2.27,14.12,-0.38,-0.11,-0.17,1721206440334
-4.52,-2.28,10.89,-0.17,-0.40,0.07,1721206440344
-4.62,0.53,19.27,-0.33,-0.09,0.43,1721206440354
-0.21,-2.70,12.89,0.02,-0.36,0.64,1721206440364
5.25,-16.06,9.21,-0.48,0.03,0.34,1721206440374
2.15,-3.28,31.95,0.36,-0.39,0.01,1721206440384
0.36,13.39,10.45,0.80,-0.32,0.02,1721206440394
-1.03,9.75,-3.39,-0.26,-0.13,0.26,1721206440404
-2.80,-5.24,9.57,-0.62,-0.08,0.33,1721206440414
1.13,-13.39,21.78,-0.28,-0.14,0.14,1721206440424
0.53,4.54,9.55,0.33,-0.51,0.21,1721206440434
1.47,16.35,2.12,0.14,-0.05,0.09,1721206440444
2.51,5.16,0.53,-0.19,-0.18,0.10,1721206440454
-0.46,-2.06,10.78,-0.48,-0.16,-0.01,1721206440464
-0.47,-1.65,16.87,-0.25,-0.15,-0.01,1721206440474
-1.23,2.21,12.19,0.03,-0.32,0.17,1721206440484
1.66,5.69,3.85,0.08,-0.18,0.30,1721206440494
5.93,-4.32,5.85,-0.32,0.03,0.16,1721206440504
2.35,0.88,18.61,-0.07,-0.18,-0.37,1721206440514
-3.17,1.02,11.01,0.07,-0.23,-0.56,1721206440524
-8.31,3.73,10.07,0.07,-0.23,-0.10,1721206440534
-3.98,0.48,7.51,0.04,-0.07,0.68,1721206440544
5.40,-2.19,10.62,-0.20,0.09,0.73,1721206440554
8.22,10.02,17.14,-0.10,-0.01,-0.07,1721206440564
5.85,1.40,5.36,-0.11,-0.37,-0.71,1721206440574
-2.42,-8.04,12.39,-0.45,-0.14,-0.73,1721206440584
-5.88,6.61,12.16,0.40,-0.22,-0.23,1721206440594
-1.50,3.87,-3.22,0.04,0.02,0.13,1721206440604
-3.00,-8.05,11.19,-0.37,0.01,0.10,1721206440614
2.05,3.62,25.87,-0.01,0.04,-0.29,1721206440624
1.36,5.03,7.14,0.25,-0.24,-0.34,1721206440634
-0.72,2.09,4.37,-0.14,0.02,-0.19,1721206440644
0.70,2.61,13.07,-0.17,0.04,-0.07,1721206440654
0.63,-13.04,9.78,-0.25,-0.07,-0.50,1721206440664
-9.76,5.12,13.88,0.03,-0.38,-0.76,1721206440674
-9.84,-3.91,7.07,-0.27,0.07,-0.04,1721206440684
-2.36,1.18,13.49,0.13,-0.22,1.21,1721206440694
14.39,5.90,2.88,0.25,0.58,1.02,1721206440704
15.30,0.26,6.38,-0.22,0.11,-0.17,1721206440714
9.34,1.65,12.61,-0.12,-0.02,-1.68,1721206440724
-1.02,4.20,14.67,-0.09,-0.68,-2.19,1721206440734
-20.81,-2.43,6.76,-0.09,-0.39,-1.26,1721206440744
-18.98,-4.11,15.17,-0.27,0.26,0.30,1721206440754
-7.99,-0.25,17.96,-0.09,0.07,1.16,1721206440764
4.51,7.68,2.87,0.31,0.21,1.25,1721206440774
13.01,-10.82,3.87,-0.18,0.17,0.35,1721206440784
7.02,11.22,8.92,0.07,0.34,-0.61,1721206440794
12.34,3.43,18.47,0.11,0.07,-1.21,1721206440804
-6.72,-0.06,4.21,-0.03,-1.02,-1.05,1721206440814
-9.17,0.70,5.14,0.06,0.69,-0.55,1721206440824
-3.55,-3.07,19.07,0.01,0.21,-0.00,1721206440834
-3.35,-2.55,11.87,0.32,-0.36,0.37,1721206440844
1.76,-1.40,6.71,0.03,0.30,0.14,1721206440854
4.25,4.46,15.53,0.14,0.11,-0.22,1721206440864
1.53,5.25,9.54,0.16,-0.12,-0.40,1721206440874
-2.21,-5.37,3.00,0.00,-0.16,-0.20,1721206440884
-1.71,-5.15,12.15,-0.01,0.27,-0.03,1721206440894
1.46,-0.10,16.34,0.23,0.06,-0.09,1721206440904
0.72,-1.58,8.86,0.08,-0.09,-0.23,1721206440914
-0.44,5.79,8.96,0.12,0.09,-0.41,1721206440924
-2.12,-2.88,10.00,-0.11,0.00,-0.44,1721206440934
-5.27,0.27,13.36,0.05,-0.12,-0.20,1721206440944
-2.17,-2.33,5.46,-0.00,0.13,-0.01,1721206440954
-0.65,1.13,11.73,-0.03,0.07,-0.11,1721206440964
0.72,1.81,13.17,0.08,-0.00,-0.29,1721206440974
-3.21,-1.66,4.54,0.03,-0.29,-0.21,1721206440984
-1.30,2.93,12.84,0.11,0.41,-0.14,1721206440994
-0.31,0.02,13.68,0.07,-0.14,-0.08,1721206441004
-3.33,6.39,7.96,0.18,-0.33,0.11,1721206441014
1.45,-3.03,7.53,-0.07,0.20,0.11,1721206441024
0.51,5.14,16.85,0.11,-0.20,-0.06,1721206441034
1.58,3.16,5.13,0.16,-0.05,-0.17,1721206441044
-1.75,-1.01,5.56,-0.10,-0.14,-0.17,1721206441054
-2.81,0.68,13.53,-0.01,-0.01,-0.05,1721206441064
-0.18,-0.86,11.20,0.12,-0.02,0.16,1721206441074
-0.15,5.15,10.86,0.08,-0.04,0.11,1721206441084
1.15,4.40,8.96,0.02,-0.12,0.07,1721206441094
-0.16,1.42,8.31,-0.14,-0.14,-0.05,1721206441104
-1.05,-5.03,8.15,-0.09,-0.14,0.03,1721206441114
-1.23,-2.25,11.85,-0.03,-0.01,0.13,1721206441124
0.12,3.46,12.20,0.09,-0.13,0.15,1721206441134
-0.36,5.14,7.83,-0.01,-0.21,0.02,1721206441144
-1.47,-3.23,11.29,-0.29,-0.08,-0.12,1721206441154
-3.82,-1.28,15.78,-0.11,-0.27,0.01,1721206441164
-2.47,-1.79,6.02,-0.06,-0.19,0.22,1721206441174
-0.99,2.32,7.36,0.08,-0.14,0.36,1721206441184
3.00,-3.59,2.81,-0.13,-0.10,0.28,1721206441194
1.98,0.07,12.51,-0.04,-0.20,-0.03,1721206441204
1.36,0.56,15.69,-0.04,-0.14,-0.07,1721206441214
-1.40,4.30,11.57,-0.09,-0.33,0.08,1721206441224
-0.11,-3.40,8.22,-0.25,-0.11,0.18,1721206441234
1.73,-6.50,13.76,-0.13,-0.20,0.16,1721206441244
4.01,-1.38,11.32,0.02,-0.10,-0.01,1721206441254
2.99,5.12,7.29,0.09,-0.21,-0.05,1721206441264
0.61,5.65,7.69,-0.03,-0.10,-0.14,1721206441274
-1.12,-2.44,12.80,-0.17,-0.18,-0.28,1721206441284
-1.97,-2.21,14.36,-0.09,-0.21,-0.11,1721206441294
0.66,-8.71,8.92,-0.20,-0.13,0.07,1721206441304
2.82,4.64,13.47,0.20,-0.05,-0.03,1721206441314
5.30,-0.90,0.86,0.19,-0.09,-0.39,1721206441324
0.45,-5.18,8.41,-0.16,-0.05,-0.64,1721206441334
-3.13,-6.40,18.85,-0.05,-0.00,-0.50,1721206441344
-4.07,3.95,17.47,0.24,-0.12,-0.19,1721206441354
0.59,4.81,2.14,0.26,0.02,0.13,1721206441364
5.56,-0.70,6.47,-0.10,0.18,-0.08,1721206441374
4.81,-2.09,17.26,-0.08,0.03,-0.58,1721206441384
0.31,2.62,11.27,0.21,-0.07,-0.83,1721206441394
-2.11,-0.60,5.95,-0.03,0.12,-0.58,1721206441404
-4.26,1.28,16.72,-0.10,0.08,-0.35,1721206441414
-2.40,1.33,15.02,0.14,0.07,-0.25,1721206441424
1.60,0.39,6.47,0.13,0.21,-0.18,1721206441434
2.35,5.85,9.01,0.26,0.14,-0.41,1721206441444
0.21,2.56,7.62,0.13,0.17,-0.66,1721206441454
-4.20,0.41,12.69,0.10,0.04,-0.57,1721206441464
-3.52,-1.19,10.41,0.18,0.14,-0.14,1721206441474
1.03,-0.63,12.33,0.03,0.32,0.01,1721206441484
2.82,3.02,14.07,0.15,0.10,-0.26,1721206441494
1.51,4.07,5.71,0.27,0.09,-0.50,1721206441504
-0.95,0.62,4.20,0.14,0.21,-0.53,1721206441514
-2.89,-1.68,6.52,0.12,0.08,-0.31,1721206441524
-2.83,0.06,7.69,0.16,0.19,-0.13,1721206441534
-1.25,7.35,10.23,0.13,0.17,-0.09,1721206441544
-0.35,8.51,5.65,-0.00,0.06,-0.14,1721206441554
0.27,-4.81,8.85,-0.49,0.18,-0.23,1721206441564
0.47,-9.22,24.69,-0.24,0.20,-0.26,1721206441574
1.60,-2.82,10.26,0.28,-0.00,-0.15,1721206441584
2.03,8.92,4.51,0.05,0.25,-0.28,1721206441594
0.18,-0.29,3.63,-0.22,0.03,-0.52,1721206441604
-5.88,-9.03,15.96,-0.30,0.07,-0.36,1721206441614
-4.44,-0.66,19.43,0.20,0.14,0.13,1721206441624
1.76,5.12,4.62,0.13,0.15,0.33,1721206441634
5.13,-0.85,7.47,-0.25,0.22,-0.09,1721206441644
1.86,-6.51,11.73,-0.06,-0.10,-0.47,1721206441654
-1.20,4.83,14.67,0.04,0.24,-0.52,1721206441664
-1.87,2.49,11.83,-0.01,0.12,-0.39,1721206441674
-4.82,3.91,11.89,0.03,0.01,-0.22,1721206441684
-2.24,-2.06,5.54,-0.01,0.17,0.00,1721206441694
-0.01,-0.06,7.30,0.15,0.09,0.15,1721206441704
4.47,3.16,8.32,0.14,0.36,-0.21,1721206441714
1.50,2.04,5.25,0.13,-0.07,-0.56,1721206441724
-5.75,-0.36,4.61,-0.01,-0.02,-0.48,1721206441734
-4.80,-7.15,14.16,-0.16,0.34,-0.15,1721206441744
-2.29,-1.48,26.79,0.05,0.10,0.21,1721206441754
2.84,5.18,13.74,0.32,0.08,0.25,1721206441764
5.43,-0.11,1.35,0.08,0.19,-0.16,1721206441774
2.57,-4.64,10.48,-0.10,0.19,-0.60,1721206441784
-1.97,6.90,22.18,0.37,0.09,-0.64,1721206441794
-4.91,3.45,-0.01,0.36,-0.17,-0.34,1721206441804
-4.60,-4.95,1.45,-0.09,0.30,-0.07,1721206441814
0.89,-6.57,14.66,-0.00,0.27,0.09,1721206441824
1.59,7.91,12.71,0.39,0.09,-0.16,1721206441834
2.78,2.08,-0.50,0.16,0.02,-0.52,1721206441844
-3.92,-3.29,-0.21,-0.28,-0.02,-0.62,1721206441854
-5.49,-8.91,16.89,-0.35,0.47,-0.41,1721206441864
-2.95,-0.24,23.02,0.20,-0.01,0.10,1721206441874
0.84,3.43,3.04,0.16,0.11,0.22,1721206441884
3.49,-0.19,6.37,-0.20,0.20,-0.18,1721206441894
1.69,2.34,19.80,-0.05,0.18,-0.46,1721206441904
0.26,0.46,7.00,0.09,-0.02,-0.46,1721206441914
-3.96,0.86,1.42,-0.11,0.04,-0.46,1721206441924
-3.53,-4.12,12.53,-0.22,0.25,-0.15,1721206441934
-0.93,-0.74,20.67,0.05,0.21,0.17,1721206441944
0.19,5.58,7.77,0.21,-0.00,-0.13,1721206441954
-1.18,2.76,3.08,-0.10,0.13,-0.29,1721206441964
-2.66,2.85,14.04,-0.09,0.20,-0.05,1721206441974
-1.04,-1.19,9.10,-0.04,0.05,0.21,1721206441984
1.18,2.32,15.09,-0.05,0.16,0.20,1721206441994
2.81,2.88,6.97,0.13,-0.10,0.05,1721206442004
1.64,-2.69,2.84,-0.23,0.06,-0.20,1721206442014
-0.60,1.93,18.30,-0.11,0.22,-0.31,1721206442024
-1.91,2.11,13.35,0.13,0.03,-0.11,1721206442034
-2.47,1.08,9.28,-0.05,0.09,0.09,1721206442044
-0.62,2.36,9.77,-0.06,0.17,0.05,1721206442054
0.66,0.98,10.34,-0.16,0.09,-0.08,1721206442064
-0.19,-0.40,10.71,-0.12,0.05,-0.12,1721206442074
-1.80,-1.81,8.32,-0.00,0.09,-0.10,1721206442084
-2.57,0.51,8.49,-0.03,0.13,-0.03,1721206442094
-0.74,1.89,12.39,-0.06,0.12,0.03,1721206442104
0.61,0.94,12.48,-0.08,0.07,0.06,1721206442114
0.85,2.79,9.25,0.10,0.19,-0.18,1721206442638
0.58,5.66,10.87,0.36,-0.01,-0.09,1721206442643
0.76,-9.70,15.62,-0.12,0.05,-0.02,1721206442652
-2.15,7.33,18.58,0.13,0.01,0.06,1721206442662
1.95,7.88,6.38,0.38,0.23,-0.09,1721206442672
-1.56,-7.40,1.72,0.10,-0.22,-0.02,1721206442682
-1.06,3.04,17.17,0.29,0.38,-0.12,1721206442692
0.79,4.54,1.81,0.84,-0.24,-0.11,1721206442702
-2.72,-6.24,-2.65,0.17,0.10,-0.03,1721206442712
-0.79,-0.79,17.25,0.17,-0.06,0.06,1721206442722
-2.35,11.27,2.03,0.52,-0.07,0.13,1721206442732
1.64,-5.86,-1.89,-0.22,0.21,0.02,1721206442742
-6.95,-16.39,33.84,-0.47,0.34,-0.12,1721206442752
2.45,12.92,17.42,0.71,-0.22,-0.20,1721206442762
0.09,-0.21,-22.72,-0.31,-0.11,-0.11,1721206442772
-4.61,-10.61,22.61,-1.14,0.46,-0.12,1721206442782
3.35,2.90,34.12,0.29,-0.62,0.19,1721206442792
2.61,-7.35,-13.61,-0.29,-0.13,0.16,1721206442802
3.34,-2.71,17.36,-0.42,0.66,-0.04,1721206442812
1.68,3.26,20.61,0.14,-0.35,-0.18,1721206442822
-0.90,-0.15,6.45,-0.54,0.12,-0.24,1721206442832
-3.72,3.46,21.85,-0.17,-0.06,-0.03,1721206442842
-1.99,-2.18,4.60,-0.14,-0.08,0.11,1721206442852
-2.20,0.91,10.77,-0.43,0.18,0.07,1721206442862
-0.44,6.79,14.69,-0.11,-0.07,0.08,1721206442872
0.85,6.29,6.10,-0.02,-0.02,0.14,1721206442882
1.43,-2.95,5.93,-0.11,-0.01,0.12,1721206442892
1.19,-1.89,11.14,-0.11,0.04,-0.06,1721206442902
0.32,1.58,12.82,-0.09,-0.00,-0.15,1721206442912
-2.37,1.66,11.55,-0.14,-0.07,-0.08,1721206442922
-2.41,2.46,14.89,-0.00,0.06,0.11,1721206442932
0.45,1.56,11.53,0.01,0.04,0.15,1721206442942
0.28,2.96,12.23,-0.13,-0.00,-0.07,1721206442952
-0.91,1.62,14.24,-0.15,-0.05,-0.19,1721206442962
-3.10,2.92,10.24,-0.04,-0.08,-0.07,1721206442972
-2.24,-0.15,8.14,-0.02,-0.02,0.27,1721206442982
0.64,0.87,12.64,-0.09,0.10,0.26,1721206442992
1.70,3.24,11.90,-0.06,-0.11,0.03,1721206443002
2.12,0.33,6.61,-0.11,-0.07,-0.02,1721206443012
2.15,-0.92,11.91,-0.10,0.05,-0.02,1721206443022
-0.70,0.11,8.20,0.00,-0.10,-0.12,1721206443032
-2.08,-3.85,9.34,-0.14,-0.01,-0.07,1721206443042
-1.06,-2.96,11.11,-0.03,-0.02,0.06,1721206443052
0.20,2.83,11.44,0.05,0.03,0.00,1721206443062
0.00,8.99,12.09,0.11,-0.02,0.07,1721206443072
-0.55,-10.26,2.21,-0.02,-0.09,-0.06,1721206443082
-1.42,-10.04,8.17,-0.04,0.12,-0.20,1721206443092
-2.50,5.36,9.44,0.42,-0.22,-0.03,1721206443102
-1.66,4.11,4.67,0.36,-0.03,0.33,1721206443112
3.12,-3.67,10.76,0.18,0.09,0.48,1721206443122
3.36,-4.22,10.20,0.10,-0.04,0.03,1721206443132
2.21,-5.05,12.72,-0.00,-0.07,-0.36,1721206443142
-2.47,-0.11,17.18,0.10,-0.21,-0.36,1721206443152
-4.55,7.90,11.46,0.39,-0.13,0.13,1721206443162
-0.32,-0.92,8.06,0.02,0.19,0.45,1721206443172
3.03,-5.71,17.94,-0.29,0.06,0.25,1721206443182
1.67,0.07,15.70,-0.25,-0.19,-0.06,1721206443192
0.05,-3.03,10.74,-0.21,-0.05,-0.20,1721206443202
-0.72,-0.24,10.63,0.23,-0.11,0.03,1721206443212
1.53,0.12,8.72,0.32,0.16,0.02,1721206443222
0.13,26.95,16.91,0.41,-0.11,0.06,1721206443232
0.74,15.17,17.81,0.45,0.23,0.11,1721206443242
1.75,-33.01,-7.25,0.27,-0.30,0.06,1721206443252
5.26,1.00,12.64,-0.12,0.82,-0.29,1721206443262
6.73,10.52,15.58,0.52,-0.32,0.08,1721206443272
-0.95,11.38,-8.80,1.20,-0.15,0.08,1721206443282
3.63,6.82,-2.19,1.00,0.37,-0.06,1721206443292
3.22,8.32,9.83,0.24,-0.03,-0.26,1721206443302
-0.72,0.21,18.59,-0.05,-0.05,-0.30,1721206443312
-3.14,-2.72,6.80,0.12,-0.02,-0.18,1721206443322
-2.01,-6.48,1.92,-0.27,0.03,0.31,1721206443332
3.76,4.62,6.29,0.28,0.28,0.36,1721206443342
7.39,-18.70,-8.17,-0.51,-0.02,-0.15,1721206443352
5.21,-1.59,24.66,-0.54,0.34,-0.99,1721206443362
-6.85,2.40,19.43,0.39,-0.18,-0.56,1721206443372
-8.09,7.93,18.98,-0.36,0.21,0.37,1721206443382
0.11,10.06,12.47,0.11,0.01,0.90,1721206443392
7.62,-8.70,-13.00,-0.73,0.15,0.50,1721206443402
9.04,9.92,10.85,-0.36,0.58,-0.57,1721206443412
2.23,-18.95,-13.59,-0.62,-0.82,-0.99,1721206443422
-19.95,-24.81,30.86,-0.77,0.36,-0.98,1721206443432
-10.82,17.88,43.05,0.69,-0.17,-0.20,1721206443442
-9.40,7.77,-31.26,-0.09,-0.27,1.02,1721206443452
6.00,2.21,12.68,-0.81,1.37,1.18,1721206443462
13.47,-2.00,20.69,0.21,-0.52,0.61,1721206443472
14.65,4.48,-9.40,0.48,0.06,-0.64,1721206443482
4.91,-5.78,2.34,-0.33,-0.03,-1.34,1721206443492
-9.76,-4.75,29.67,-0.62,-0.37,-1.05,1721206443502
-10.92,13.22,27.58,0.02,-0.09,-0.11,1721206443512
-7.71,-6.52,0.40,-0.29,-0.07,0.84,1721206443522
3.46,-9.37,13.18,-0.43,0.45,1.12,1721206443532
9.73,3.46,13.79,0.17,0.21,0.41,1721206443542
9.40,9.70,-0.33,0.23,-0.07,-0.37,1721206443552
3.80,-9.23,10.59,-0.26,0.17,-0.97,1721206443562
-2.72,-6.96,26.53,-0.08,-0.27,-0.81,1721206443572
-7.66,5.47,12.89,0.13,-0.03,-0.26,1721206443582
-4.36,-3.21,10.68,0.06,0.22,0.47,1721206443592
0.77,4.71,19.95,0.40,0.24,0.51,1721206443602
2.52,9.52,8.59,0.68,-0.03,0.05,1721206443612
4.14,4.59,0.63,0.63,0.10,-0.39,1721206443622
-0.23,-1.51,4.93,0.47,0.03,-0.63,1721206443632
-4.08,-3.40,15.33,0.37,-0.13,-0.50,1721206443642
-7.74,0.28,2.98,0.50,-0.14,-0.06,1721206443652
-4.61,11.93,-9.69,0.87,0.13,0.35,1721206443662
1.36,-12.94,-6.69,0.03,0.22,0.52,1721206443672
-1.04,-4.02,34.42,-0.35,0.55,-0.05,1721206443682
1.67,11.97,30.52,0.86,-0.56,-0.55,1721206443692
0.34,-5.67,-13.11,-0.31,-0.00,-0.71,1721206443702
3.87,-3.12,29.64,-1.03,0.17,-0.32,1721206443712
-0.51,8.30,16.34,0.60,0.02,-0.02,1721206443722
-1.01,3.13,-16.41,0.18,0.09,0.19,1721206443732
0.96,-2.10,18.33,-0.25,0.53,0.06,1721206443742
4.30,9.47,15.10,0.28,-0.22,-0.11,1721206443752
0.15,4.60,-5.68,0.17,0.06,-0.32,1721206443762
-5.61,1.24,8.00,-0.21,0.13,-0.33,1721206443772
-4.90,-1.83,9.50,-0.03,0.02,0.03,1721206443782
-4.07,-2.09,0.62,-0.11,-0.10,0.39,1721206443792
1.21,-4.79,9.52,-0.41,0.27,0.41,1721206443802
5.03,2.46,20.75,-0.09,0.06,0.18,1721206443812
4.78,0.74,8.80,-0.06,-0.13,-0.16,1721206443822
-0.12,0.50,12.39,-0.34,0.08,-0.41,1721206443832
-3.04,-0.75,13.62,-0.28,-0.12,-0.23,1721206443842
-3.75,0.11,11.37,-0.24,-0.05,0.02,1721206443852
-0.75,-0.78,8.89,-0.22,0.02,0.18,1721206443862
-0.80,-1.09,6.64,-0.27,-0.09,0.06,1721206443872
-1.27,-1.24,10.70,-0.43,0.09,-0.11,1721206443882
-2.65,3.56,17.13,-0.33,-0.10,-0.11,1721206443892
-2.99,2.37,8.77,-0.19,-0.22,0.18,1721206443902
0.17,-2.33,5.46,-0.41,0.11,0.26,1721206443912
1.51,-1.91,12.23,-0.29,-0.16,0.22,1721206443922
1.05,-0.33,11.55,-0.25,-0.05,-0.06,1721206443932
-0.80,-1.28,13.87,-0.32,-0.20,-0.03,1721206443942
0.59,4.61,15.05,-0.14,-0.06,0.13,1721206443952
-0.36,-2.67,9.79,-0.20,-0.17,0.12,1721206443962
-1.56,-4.12,12.73,-0.20,-0.11,0.05,1721206443972
-0.03,6.08,13.50,0.14,-0.09,0.04,1721206443982
1.24,0.58,7.46,0.30,-0.15,0.11,1721206443992
-0.42,0.47,10.26,0.14,-0.07,-0.01,1721206444002
-0.14,2.95,15.31,0.15,-0.09,0.04,1721206444012
0.26,1.03,9.73,0.22,-0.28,0.12,1721206444022
-0.17,1.06,5.43,0.23,-0.05,0.06,1721206444032
1.14,-2.76,9.92,0.18,-0.02,0.18,1721206444042
1.50,0.10,15.62,0.24,-0.06,0.17,1721206444052
1.32,2.45,6.46,0.25,-0.20,0.02,1721206444062
1.38,-4.10,5.02,0.00,-0.15,-0.02,1721206444072
1.79,-3.11,15.70,-0.02,0.07,0.05,1721206444082
0.96,0.14,14.91,0.17,-0.16,0.09,1721206444092
1.14,-0.79,5.72,0.18,-0.03,-0.04,1721206444102
0.98,-2.66,6.65,0.03,-0.01,-0.08,1721206444112
-1.35,1.18,18.72,0.01,-0.11,-0.13,1721206444122
-0.51,4.74,12.25,0.36,-0.09,0.10,1721206444132
2.04,-3.16,2.21,0.08,0.07,0.22,1721206444142
3.25,-4.35,14.71,-0.11,0.04,-0.01,1721206444152
1.23,8.26,13.67,0.34,-0.18,-0.29,1721206444162
-0.46,1.60,-1.59,0.16,-0.08,-0.20,1721206444172
-2.06,-4.58,8.41,-0.03,0.14,0.10,1721206444182
1.33,-3.44,13.49,0.20,0.01,-0.01,1721206444192
2.01,2.29,7.08,0.22,-0.03,-0.21,1721206444202
0.44,5.15,7.56,0.08,-0.04,-0.20,1721206444212
0.53,1.23,14.98,-0.07,0.08,-0.16,1721206444222
-0.11,-0.51,15.39,0.03,0.00,-0.24,1721206444232
-0.29,-1.43,9.51,-0.09,0.04,-0.30,1721206444242
-1.36,2.24,10.17,-0.13,-0.01,-0.30,1721206444252
-0.25,-0.13,9.53,-0.10,0.12,-0.22,1721206444262
-0.35,1.65,8.94,0.08,0.03,-0.20,1721206444272
-0.46,0.96,7.29,-0.06,0.06,-0.22,1721206444282
-0.74,0.29,10.02,-0.10,0.04,-0.32,1721206444292
0.42,-3.42,10.80,-0.24,0.11,-0.27,1721206444302
1.86,3.17,13.63,-0.01,0.16,-0.22,1721206444312
1.70,5.87,10.07,0.10,0.08,-0.37,1721206444322
-1.20,1.47,11.51,-0.12,0.07,-0.53,1721206444332
-2.89,-2.24,11.67,-0.19,0.09,-0.48,1721206444342
-2.32,-1.04,13.68,-0.19,0.17,-0.24,1721206444352
-1.15,-0.50,8.36,-0.01,0.09,-0.13,1721206444362
0.14,-2.48,5.93,0.06,0.20,-0.19,1721206444372
0.01,-0.71,5.39,0.17,0.13,-0.38,1721206444382
-1.50,0.91,7.28,0.05,0.14,-0.40,1721206444392
-2.05,-1.81,12.10,-0.02,0.10,-0.22,1721206444402
-1.74,-2.60,13.09,0.07,0.10,-0.05,1721206444412
0.44,-0.25,11.88,0.18,0.21,-0.21,1721206444422
0.39,-4.95,5.59,0.10,-0.08,-0.25,1721206444432
-2.27,3.20,11.67,0.19,0.16,-0.30,1721206444442
-0.75,7.52,12.66,0.34,0.17,-0.22,1721206444452
-3.72,1.26,6.27,0.06,-0.08,-0.07,1721206444462
-3.05,-5.86,15.79,-0.19,0.24,0.03,1721206444472
0.13,-4.84,15.23,-0.14,-0.07,0.14,1721206444482
0.81,8.13,2.72,0.31,0.02,0.05,1721206444492
5.76,-5.90,7.30,-0.13,0.28,-0.11,1721206444502
-1.83,-1.37,15.28,-0.12,-0.56,-0.34,1721206444512
-0.45,5.53,15.74,0.20,0.57,-0.31,1721206444522
-0.42,0.66,11.17,0.01,-0.03,-0.11,1721206444532
-2.43,0.50,16.01,-0.05,0.07,-0.05,1721206444542
-0.10,5.41,11.65,0.33,-0.03,-0.05,1721206444552
0.45,6.05,1.91,0.39,-0.02,-0.16,1721206444562
0.85,-3.62,5.87,0.14,0.19,-0.29,1721206444572
-2.49,1.48,9.92,0.32,-0.14,-0.28,1721206444582
-3.27,4.07,1.36,0.29,0.08,-0.14,1721206444592
-2.06,-3.83,2.50,0.07,0.07,0.10,1721206444602
-1.08,4.47,7.21,0.23,0.12,0.12,1721206444612
2.94,1.61,2.12,0.10,0.11,0.01,1721206444622
1.41,-5.14,5.75,-0.30,0.02,-0.24,1721206444632
-1.65,-0.62,14.58,-0.10,-0.16,-0.40,1721206444647
-0.72,-3.71,13.90,-0.16,-0.01,-0.32,1721206444651
-4.47,-0.92,15.98,-0.12,-0.03,-0.18,1721206444661
-2.21,-2.76,11.70,-0.13,0.13,-0.04,1721206444671
-1.77,2.89,13.29,-0.08,-0.06,0.04,1721206444681
0.88,1.88,7.25,-0.14,0.07,0.09,1721206444691
1.77,-0.57,9.06,-0.22,0.05,0.02,1721206444701
1.14,2.26,11.97,-0.19,0.05,-0.17,1721206444711
-1.18,5.08,13.12,-0.18,-0.07,-0.23,1721206444721
-2.45,-1.26,7.30,-0.26,-0.08,-0.01,1721206444731
-3.11,-4.11,10.60,-0.39,0.02,0.18,1721206444741
0.59,1.39,14.95,-0.19,0.00,0.36,1721206444751
3.25,1.79,10.79,-0.12,0.03,0.16,1721206444761
1.59,3.08,9.67,-0.05,-0.08,-0.16,1721206444771
1.15,3.85,12.32,-0.08,0.04,-0.32,1721206444781
-1.58,5.90,14.56,-0.02,-0.15,-0.19,1721206444791
-3.82,-1.00,9.36,-0.04,0.06,-0.00,1721206444801
-3.82,-4.32,8.52,0.03,-0.08,0.14,1721206444811
0.06,-3.64,10.89,0.00,0.00,0.31,1721206444821
1.17,3.76,13.60,0.19,-0.03,0.29,1721206444831
0.82,-0.72,3.12,0.18,-0.14,0.13,1721206444841
1.76,1.69,10.26,0.11,0.08,-0.12,1721206444851
0.82,2.70,16.07,0.17,-0.18,-0.07,1721206444861
0.61,3.46,8.40,0.19,0.05,0.06,1721206444871
1.41,-4.05,7.40,0.00,0.09,0.03,1721206444881
-1.64,-0.33,11.43,-0.03,-0.23,-0.10,1721206444891
0.29,0.59,14.10,-0.02,0.07,-0.14,1721206444901
0.85,-3.29,9.21,0.07,-0.07,0.09,1721206444911
-0.36,-2.15,7.03,-0.00,0.04,0.05,1721206444921
-0.41,3.55,10.70,0.13,-0.01,0.05,1721206444931
1.39,1.06,8.28,0.07,-0.00,0.10,1721206444941
2.75,-3.74,9.27,0.11,0.02,-0.04,1721206444951
2.41,-2.17,5.42,0.19,-0.04,-0.16,1721206444961
-1.48,1.12,9.96,-0.02,0.02,-0.28,1721206444971
-2.10,10.49,17.31,0.31,-0.04,-0.04,1721206444981
0.08,-10.88,6.97,-0.27,0.09,0.07,1721206444991
0.18,5.40,15.99,0.03,-0.08,0.09,1721206445001
4.17,2.57,5.32,0.08,0.18,-0.17,1721206445011
0.31,-2.84,9.75,-0.09,-0.18,-0.27,1721206445021
-2.40,4.51,5.64,0.27,0.09,-0.14,1721206445031
0.62,-0.64,8.76,0.02,0.30,-0.14,1721206445041
-0.39,-5.62,17.49,-0.10,-0.12,-0.17,1721206445051
-1.07,4.69,17.40,0.02,0.13,-0.12,1721206445061
0.32,0.96,11.70,-0.04,0.03,-0.06,1721206445071
0.10,4.50,14.84,0.08,0.11,-0.10,1721206445081
1.58,-1.17,8.00,0.07,0.10,-0.22,1721206445091
-0.53,5.73,9.72,0.14,0.03,-0.30,1721206445101
-0.64,-1.54,8.85,-0.04,0.17,-0.27,1721206445111
-2.16,-0.17,12.73,0.14,-0.03,-0.07,1721206445121
0.42,4.05,3.42,0.31,0.18,0.07,1721206445131
3.17,-3.20,-0.17,0.05,0.16,-0.02,1721206445141
2.48,1.39,6.88,0.02,0.08,-0.35,1721206445151
0.97,-1.93,15.87,-0.11,0.23,-0.56,1721206445161
-4.30,0.81,13.97,0.09,-0.06,-0.37,1721206445171
-4.03,1.15,7.64,-0.14,0.19,-0.03,1721206445181
0.40,-0.72,13.19,-0.27,0.17,0.12,1721206445191
3.27,2.42,13.91,-0.14,0.16,-0.09,1721206445201
2.56,-0.25,6.86,-0.22,0.09,-0.43,1721206445211
-2.38,-3.42,10.19,-0.30,0.10,-0.52,1721206445221
-4.42,-5.34,9.85,-0.17,0.11,-0.27,1721206445231
-2.89,1.78,11.56,-0.16,0.18,0.06,1721206445241
0.47,4.73,12.29,-0.09,0.21,0.16,1721206445251
1.48,-1.31,11.72,-0.25,0.11,-0.02,1721206445261
0.92,1.93,12.25,-0.15,0.10,-0.26,1721206445271
2.03,-1.78,8.42,-0.24,0.12,-0.30,1721206445281
-0.82,0.86,14.69,-0.17,0.16,-0.33,1721206445291
-2.06,0.95,14.07,-0.01,0.11,-0.29,1721206445301
-3.27,-0.50,5.97,0.09,-0.01,0.03,1721206445311
-0.99,4.02,12.28,-0.06,0.35,0.10,1721206445321
2.15,-0.46,11.50,0.00,0.08,-0.01,1721206445331
0.49,0.00,2.61,0.04,0.06,-0.22,1721206445341
2.19,-3.21,7.30,-0.03,0.33,-0.32,1721206445351
0.08,-7.64,11.54,-0.03,0.03,-0.16,1721206445361
-3.71,-1.17,14.75,0.02,0.14,-0.19,1721206445371
-1.67,4.89,12.72,0.21,0.24,-0.16,1721206445381
-0.48,0.92,10.90,0.08,0.14,-0.08,1721206445391
-0.86,-1.71,9.28,0.08,0.11,0.00,1721206445401
-0.96,-1.85,4.01,0.29,0.13,-0.02,1721206445411
0.60,-2.12,5.20,0.17,0.21,-0.08,1721206445421
0.78,1.13,15.09,0.21,0.15,-0.11,1721206445431
-0.85,-1.73,12.34,0.34,0.03,-0.07,1721206445441
-1.96,2.61,9.57,0.27,0.16,-0.05,1721206445451
0.15,7.59,15.28,0.26,0.25,0.00,1721206445461
-0.63,4.84,12.66,0.21,-0.07,0.00,1721206445471
-2.72,-0.46,5.53,0.08,0.01,-0.06,1721206445481
-1.08,-2.49,13.95,-0.14,0.29,-0.06,1721206445491
-3.90,1.16,14.02,-0.07,-0.23,0.01,1721206445501
-4.11,0.83,6.30,0.08,0.01,0.13,1721206445511
1.01,0.18,13.25,0.05,0.26,0.35,1721206445521
3.03,9.30,13.72,0.39,-0.05,0.35,1721206445531
3.85,6.85,6.34,0.29,0.11,-0.02,1721206445541
-0.90,4.42,4.58,0.21,-0.18,-0.28,1721206445551
-3.04,-1.99,6.21,0.03,0.05,-0.10,1721206445561
-4.39,-1.19,9.35,0.12,-0.07,0.34,1721206445571
-0.69,6.70,8.03,0.27,0.09,0.38,1721206445581
2.37,-1.74,1.04,0.11,-0.08,0.32,1721206445591
3.61,-7.59,3.56,-0.08,0.16,0.18,1721206445601
2.30,6.30,13.41,0.14,0.06,-0.07,1721206445611
-0.39,4.81,4.73,0.15,-0.16,-0.18,1721206445621
-1.58,-1.96,3.61,-0.11,0.04,0.08,1721206445631
1.16,-7.67,6.84,-0.35,0.07,0.30,1721206445641
-0.08,-5.17,16.30,-0.46,0.03,-0.00,1721206445651
-2.46,1.80,22.50,-0.14,-0.07,-0.26,1721206445661
-2.96,-1.86,10.70,-0.09,-0.22,0.10,1721206445671
-1.75,-2.68,10.04,-0.43,0.08,0.39,1721206445681
1.37,3.11,12.54,-0.24,0.05,0.23,1721206445691
3.92,2.51,11.19,-0.32,0.03,-0.01,1721206445701
0.09,1.79,12.04,-0.29,-0.21,-0.14,1721206445711
-1.71,-6.40,4.11,-0.36,-0.10,-0.02,1721206445721
-2.98,-4.96,13.73,-0.41,0.04,0.12,1721206445731
-1.03,-6.65,13.53,-0.33,-0.18,0.15,1721206445741
-0.01,-1.92,11.36,-0.16,-0.05,0.19,1721206445751
-0.70,-4.56,10.58,-0.13,-0.07,0.10,1721206445761
-0.25,4.41,13.53,0.23,-0.13,0.12,1721206445771
2.82,8.95,7.21,0.69,0.04,0.02,1721206445781
1.26,2.12,7.67,0.29,-0.10,0.11,1721206445791
-2.15,7.00,18.11,-0.00,0.07,-0.11,1721206445801
0.82,-5.05,12.29,-0.07,-0.16,-0.13,1721206445811
-0.53,-3.22,7.41,-0.03,-0.15,0.08,1721206445821
0.11,-2.19,8.44,0.07,0.03,0.16,1721206445831
0.91,2.39,12.73,0.16,0.08,0.13,1721206445841
1.30,3.43,11.45,0.16,-0.17,0.11,1721206445851
3.07,-0.52,12.50,-0.02,0.05,0.04,1721206445861
2.21,3.91,14.09,0.02,-0.07,-0.14,1721206445871
-0.32,-2.20,9.25,-0.10,-0.07,-0.24,1721206445881
-2.90,-2.52,16.50,-0.01,-0.07,-0.08,1721206445891
-1.05,6.50,14.94,0.31,0.02,0.12,1721206445901
0.97,-0.22,7.49,0.03,-0.08,0.15,1721206445911
-1.07,10.71,12.22,0.33,-0.11,0.05,1721206445921
3.22,7.62,2.38,0.58,0.08,0.01,1721206445931
0.65,-1.63,-9.73,0.40,-0.29,0.35,1721206445941
4.76,-2.17,-4.72,0.22,0.46,0.12,1721206445951
3.54,-1.12,-0.23,0.27,-0.23,-0.26,1721206445961
-1.71,-1.04,9.87,-0.25,-0.16,-0.39,1721206445971
-3.06,-4.54,25.03,-0.31,0.03,-0.13,1721206445981
-2.38,-4.64,25.05,-0.23,0.03,0.24,1721206445991
2.11,7.87,10.64,0.06,-0.07,0.49,1721206446001
7.31,1.74,-0.47,-0.41,0.21,0.09,1721206446011
5.11,-5.48,15.14,-0.53,0.04,-0.53,1721206446021
-2.02,-1.20,12.44,-0.06,-0.21,-0.85,1721206446031
-8.64,4.47,6.90,-0.05,0.03,-0.53,1721206446041
-9.21,-1.98,11.38,-0.17,0.00,0.29,1721206446051
-3.48,-2.21,11.24,-0.17,0.10,0.75,1721206446061
5.74,8.24,12.83,-0.18,0.23,0.61,1721206446071
8.54,1.92,9.19,-0.15,-0.03,0.18,1721206446081
7.84,-0.76,8.52,-0.22,0.06,-0.55,1721206446091
1.62,0.43,9.18,-0.06,-0.20,-0.98,1721206446101
-4.74,-2.07,10.66,-0.04,-0.14,-0.83,1721206446111
-8.36,1.12,14.30,0.02,0.03,-0.28,1721206446121
-7.63,2.83,9.54,0.21,-0.05,0.20,1721206446131
-1.26,1.45,10.31,-0.00,0.23,0.49,1721206446141
4.18,-4.45,10.54,-0.09,0.06,0.22,1721206446151
6.40,-3.96,11.51,-0.07,0.03,-0.24,1721206446161
3.16,1.74,12.82,0.10,-0.04,-0.66,1721206446171
-1.60,2.71,10.81,0.12,-0.05,-0.53,1721206446181
-4.32,-1.96,15.23,0.14,0.06,-0.24,1721206446191
-2.35,0.43,8.16,0.15,-0.05,0.24,1721206446201
1.34,0.96,8.97,0.10,0.21,0.17,1721206446211
3.08,-3.03,10.24,0.13,-0.05,-0.31,1721206446221
0.01,-1.21,6.38,0.17,-0.10,-0.54,1721206446231
-2.00,3.15,8.75,0.34,0.19,-0.31,1721206446241
-3.42,-2.64,8.33,0.04,0.01,-0.04,1721206446251
-2.28,-1.08,16.37,0.07,0.15,-0.06,1721206446261
-0.73,3.30,7.67,0.22,-0.21,-0.02,1721206446271
0.14,3.18,8.50,0.06,0.22,-0.13,1721206446281
0.48,5.05,7.10,0.32,-0.02,-0.21,1721206446291
-1.48,-7.55,4.07,-0.10,-0.04,-0.37,1721206446301
-2.78,1.78,18.89,-0.03,0.09,-0.14,1721206446311
-1.55,-3.08,8.88,0.03,-0.13,-0.05,1721206446321
-1.18,1.35,12.82,0.05,0.22,-0.07,1721206446331
2.74,5.05,7.82,0.46,-0.03,0.12,1721206446341
3.99,1.87,4.85,-0.05,0.20,-0.02,1721206446351
2.21,3.39,17.46,0.05,0.05,-0.55,1721206446361
-1.26,-1.23,7.50,0.03,-0.13,-0.47,1721206446371
-3.69,1.82,14.38,-0.11,0.17,-0.18,1721206446381
-1.43,-1.57,12.55,0.07,0.04,-0.05,1721206446391
-2.98,-0.05,3.00,0.10,-0.08,-0.11,1721206446401
-2.55,4.76,5.41,0.09,0.20,-0.09,1721206446411
0.27,-1.74,10.23,-0.04,0.05,0.06,1721206446421
-0.96,3.79,12.74,0.12,-0.05,0.03,1721206446431
1.17,2.92,8.95,-0.05,0.00,-0.04,1721206446441
1.10,-1.48,9.11,-0.17,-0.16,0.08,1721206446451
-1.17,-5.45,7.14,-0.28,0.04,-0.13,1721206446461
-2.14,-1.85,15.75,-0.16,0.04,-0.20,1721206446471
-1.14,0.66,10.54,0.06,-0.14,0.08,1721206446481
-0.48,0.01,9.45,-0.17,0.08,0.13,1721206446491
-1.01,3.96,13.92,-0.03,-0.08,0.08,1721206446501
0.90,7.33,5.35,0.21,0.03,-0.03,1721206446511
1.31,-7.10,3.63,-0.32,-0.03,-0.15,1721206446521
-2.93,-4.08,18.56,-0.27,-0.19,-0.03,1721206446531
-2.12,0.11,9.20,0.07,-0.12,0.09,1721206446541
-0.22,-1.78,6.51,-0.30,0.03,0.17,1721206446551
1.40,-1.94,20.61,-0.28,-0.03,0.13,1721206446561
0.11,2.60,10.57,0.04,-0.29,-0.00,1721206446571
-0.58,0.79,0.22,-0.09,0.03,-0.08,1721206446581
0.63,-3.49,14.96,-0.20,0.06,-0.02,1721206446591
0.08,-0.91,16.72,0.06,-0.10,0.03,1721206446601
-0.58,3.58,8.28,0.08,-0.08,-0.02,1721206446611
0.17,-2.17,8.70,-0.15,0.03,0.01,1721206446621
-0.75,2.17,17.41,0.01,-0.08,-0.06,1721206446631
0.64,2.12,7.25,0.21,-0.06,-0.01,1721206446641
2.59,-1.72,7.28,0.03,0.08,0.12,1721206446656
2.19,-1.81,11.12,-0.01,0.13,-0.00,1721206446660
2.39,0.50,12.22,0.11,-0.14,-0.17,1721206446670
0.22,2.53,6.55,0.01,0.03,-0.18,1721206446680
-0.24,-3.62,11.06,-0.18,0.04,-0.20,1721206446690
-0.16,-1.19,17.69,0.02,-0.00,-0.15,1721206446700
0.48,2.80,7.11,0.17,0.01,-0.08,1721206446710
0.29,-1.79,6.11,-0.10,0.11,-0.12,1721206446720
-0.43,0.13,18.18,0.00,0.06,-0.24,1721206446730
-0.46,2.56,8.36,0.18,-0.02,-0.22,1721206446740
-0.95,0.01,6.76,0.01,0.08,-0.11,1721206446750
-0.56,0.46,11.98,0.07,0.10,-0.09,1721206446760
-0.20,1.16,8.68,0.06,0.00,-0.09,1721206446770
0.23,5.61,15.62,0.17,0.16,-0.13,1721206446780
0.88,0.69,1.14,0.17,-0.12,-0.11,1721206446790
0.74,-1.60,0.83,-0.24,0.12,-0.09,1721206446800
2.59,1.08,20.46,-0.15,0.18,-0.16,1721206446810
0.84,3.33,11.00,0.10,-0.17,-0.16,1721206446820
-0.60,-2.50,4.91,-0.29,0.15,-0.21,1721206446830
-1.47,-1.01,16.92,-0.16,0.09,-0.13,1721206446840
-1.14,3.23,12.21,-0.01,0.09,-0.14,1721206446850
-0.24,1.97,8.83,-0.04,0.10,-0.08,1721206446860
-0.72,1.66,14.77,0.04,0.08,-0.05,1721206446870
-0.76,0.96,3.51,0.11,0.03,-0.08,1721206446880
-0.61,1.36,9.13,-0.11,0.19,-0.09,1721206446890
1.79,2.52,17.32,0.01,0.07,0.15,1721206446900
3.11,2.54,4.64,0.20,-0.07,-0.17,1721206446910
1.84,-8.55,5.20,-0.12,0.17,-0.33,1721206446920
-2.56,4.29,19.83,0.04,0.05,-0.39,1721206446930
-3.03,5.17,7.61,0.17,-0.01,-0.19,1721206446940
-2.47,-1.39,7.01,-0.05,0.10,0.01,1721206446950
-0.56,-4.62,11.43,-0.03,0.08,0.14,1721206446960
2.70,-1.54,13.79,-0.06,0.21,0.05,1721206446970
2.28,1.43,10.06,0.06,-0.07,-0.22,1721206446980
0.66,-3.34,7.59,-0.01,0.09,-0.38,1721206446990
-1.86,-2.97,14.63,0.04,0.02,-0.14,1721206447000
-3.65,2.70,11.94,0.14,0.06,-0.01,1721206447010
-1.06,6.12,7.22,0.10,0.02,0.10,1721206447020
3.03,-0.54,11.02,-0.06,0.12,0.08,1721206447030
2.07,-1.52,8.74,0.08,0.01,-0.12,1721206447040
0.12,-1.64,7.10,-0.02,0.13,-0.34,1721206447050
-1.87,-1.04,9.55,0.01,-0.08,-0.30,1721206447060
-1.73,-1.77,12.29,-0.05,0.12,-0.00,1721206447070
-1.87,3.47,12.44,0.09,0.04,0.00,1721206447080
-0.45,-1.47,7.34,-0.04,-0.02,0.01,1721206447090
-0.38,3.40,10.99,-0.01,-0.00,-0.03,1721206447100
2.10,-3.10,8.28,-0.03,0.09,-0.07,1721206447110
0.73,-4.79,11.20,-0.15,0.02,-0.20,1721206447120
-0.44,3.08,11.00,0.12,-0.03,-0.28,1721206447130
-2.00,0.50,8.83,-0.01,0.04,-0.23,1721206447140
-3.23,2.33,12.48,0.10,0.02,-0.04,1721206447150
-1.11,-1.23,5.25,0.07,0.04,0.05,1721206447160
-0.21,2.41,8.81,0.13,-0.01,0.03,1721206447170
2.65,5.87,10.30,0.17,0.16,-0.02,1721206447180
1.88,4.21,8.65,0.13,-0.06,-0.17,1721206447190
0.45,-2.82,11.10,-0.20,0.08,-0.34,1721206447200
-1.23,-2.83,19.69,-0.18,-0.05,-0.26,1721206447210
-3.02,2.94,11.95,-0.05,-0.02,-0.19,1721206447220
-1.02,1.60,10.96,0.02,0.08,0.08,1721206447230
1.20,5.90,9.65,0.32,0.06,0.16,1721206447240
3.57,2.03,6.02,0.18,0.14,-0.12,1721206447250
0.62,-0.30,9.80,0.08,-0.01,-0.46,1721206447260
-2.84,2.49,11.40,0.12,0.06,-0.42,1721206447270
-4.47,-0.16,8.79,0.06,-0.01,-0.12,1721206447280
-2.53,-0.11,10.65,0.12,0.11,0.18,1721206447290
1.93,1.03,10.94,0.14,0.17,0.11,1721206447300
2.43,2.08,8.34,0.10,0.00,-0.11,1721206447310
0.70,0.81,8.21,0.06,0.10,-0.38,1721206447320
-1.45,-1.41,10.17,0.06,0.04,-0.23,1721206447330
-2.87,3.93,7.74,0.22,0.04,-0.01,1721206447340
0.39,-1.26,4.13,0.00,0.12,0.02,1721206447350
1.84,-2.11,7.33,-0.17,0.06,-0.04,1721206447360
1.17,-6.35,15.76,-0.37,0.17,-0.26,1721206447370
-3.62,-1.88,20.22,-0.06,-0.07,-0.24,1721206447380
-2.08,-0.72,10.51,-0.04,0.03,0.02,1721206447390
1.73,1.86,8.44,-0.04,0.11,0.26,1721206447400
3.07,3.05,7.80,-0.06,0.15,-0.02,1721206447410
2.51,-2.58,12.55,-0.25,0.23,-0.40,1721206447420
-2.96,1.36,13.13,-0.00,-0.18,-0.44,1721206447430
-2.80,-7.00,5.27,-0.12,0.24,-0.07,1721206447440
-3.39,-4.00,13.01,-0.20,0.19,0.15,1721206447450
-1.87,8.03,15.90,-0.03,0.05,0.18,1721206447460
2.30,2.19,6.45,0.05,0.04,0.08,1721206447470
2.82,-6.90,5.08,-0.12,0.06,0.02,1721206447480
0.00,1.40,18.85,-0.11,0.26,-0.17,1721206447490
-2.77,6.79,10.41,0.08,-0.19,-0.12,1721206447500
-0.40,-3.54,-0.83,-0.02,0.26,0.16,1721206447510
1.97,-3.55,13.76,-0.10,0.25,0.06,1721206447520
1.15,3.95,15.04,0.08,-0.03,-0.11,1721206447530
0.16,-1.46,7.50,-0.10,0.10,-0.11,1721206447540
-1.80,-0.69,14.42,-0.05,0.08,-0.04,1721206447550
-0.06,6.03,10.96,0.18,0.09,0.13,1721206447560
1.83,-3.50,4.96,0.00,0.09,0.10,1721206447570
1.34,-3.28,12.05,0.05,0.16,-0.09,1721206447580
-0.38,4.30,13.46,0.23,0.05,-0.26,1721206447590
-2.72,7.34,8.08,0.38,-0.01,-0.07,1721206447600
-1.92,0.63,8.17,0.25,0.19,0.09,1721206447610
0.47,0.88,11.77,0.24,0.09,0.18,1721206447620
1.70,8.02,10.43,0.26,0.10,0.14,1721206447630
3.59,0.37,8.52,0.02,0.18,0.01,1721206447640
2.37,-1.92,11.36,0.01,0.03,-0.14,1721206447650
0.44,3.32,8.94,0.13,0.10,-0.21,1721206447660
-0.08,-0.37,12.86,-0.02,0.23,-0.30,1721206447670
-2.73,-7.89,6.43,-0.06,-0.12,-0.14,1721206447680
-5.35,5.20,12.45,0.11,0.23,0.08,1721206447690
-0.18,5.62,7.62,0.18,0.11,0.26,1721206447700
2.22,-3.04,11.51,-0.12,0.12,0.10,1721206447710
1.81,2.54,14.81,0.09,0.08,-0.12,1721206447720
0.32,3.67,5.53,0.06,0.06,-0.16,1721206447730
-1.84,-1.60,8.54,-0.09,0.08,-0.12,1721206447740
-1.78,-0.96,12.09,0.15,0.07,0.03,1721206447750
0.13,-0.20,-1.11,0.19,0.02,0.11,1721206447760
0.87,0.05,0.61,0.00,0.11,0.11,1721206447770
2.45,-2.53,10.00,-0.16,0.12,-0.03,1721206447780
0.45,0.07,15.31,-0.09,0.06,-0.16,1721206447790
-1.41,-2.52,4.92,-0.13,0.05,-0.20,1721206447800
-0.87,-7.14,9.86,-0.47,0.12,0.01,1721206447810
0.36,-1.95,21.20,-0.27,0.19,0.07,1721206447820
0.70,-0.50,16.68,-0.37,0.03,-0.15,1721206447830
-3.50,4.07,13.84,-0.40,-0.18,-0.26,1721206447840
-2.43,0.11,7.26,-0.33,0.07,0.04,1721206447850
-0.69,-1.48,10.30,-0.21,0.14,0.31,1721206447860
0.87,7.24,11.08,-0.04,0.09,0.23,1721206447870
4.76,-0.47,11.44,0.04,0.06,-0.01,1721206447880
1.55,-2.67,5.83,0.03,-0.11,-0.27,1721206447890
-1.43,10.37,10.63,0.15,0.20,-0.30,1721206447900
-2.41,-3.44,11.50,-0.11,-0.03,-0.07,1721206447910
-2.02,-2.83,13.60,-0.14,0.10,-0.05,1721206447920
1.04,6.13,9.38,0.33,0.01,0.09,1721206447930
1.74,-3.80,2.91,0.09,0.09,0.12,1721206447940
1.55,-0.41,15.00,-0.05,0.20,-0.13,1721206447950
2.34,7.03,18.35,0.21,0.10,-0.49,1721206447960
-2.89,0.21,4.65,0.20,-0.20,-0.41,1721206447970
-4.77,-2.09,6.78,0.10,0.29,-0.09,1721206447980
-0.97,0.62,13.29,0.22,0.22,0.19,1721206447990
1.71,3.51,9.24,0.26,0.08,0.07,1721206448000
2.86,0.46,5.69,0.12,0.15,-0.19,1721206448010
1.36,-1.04,8.93,0.07,0.08,-0.35,1721206448020
0.60,-0.68,11.98,0.07,0.25,-0.27,1721206448030
-1.03,2.03,9.30,0.12,0.07,-0.12,1721206448040
-1.73,-0.67,7.43,-0.03,0.18,-0.15,1721206448050
-0.73,-1.88,13.21,-0.02,0.19,-0.12,1721206448060
0.32,0.89,9.30,0.06,0.20,-0.08,1721206448070
0.87,-0.37,14.23,-0.23,0.31,-0.18,1721206448080
-0.59,4.07,21.78,-0.01,0.09,-0.18,1721206448090
-0.86,1.70,6.41,0.16,0.04,-0.08,1721206448100
-1.97,-1.73,6.45,-0.12,0.25,-0.04,1721206448110
-1.68,5.64,17.25,0.12,0.13,0.05,1721206448120
-0.83,1.20,4.69,0.16,0.00,0.00,1721206448130
-1.09,-1.38,5.81,0.03,0.18,-0.00,1721206448140
-0.38,1.94,14.92,0.13,0.23,0.05,1721206448150
-0.85,4.03,8.84,0.15,0.04,0.16,1721206448160
-0.32,0.57,8.54,0.05,0.18,0.06,1721206448170
0.08,-3.54,6.62,0.06,0.06,0.12,1721206448180
0.38,-0.10,13.83,-0.09,0.21,0.11,1721206448190
0.54,2.79,11.99,0.18,0.02,0.00,1721206448200
0.02,-0.61,3.96,-0.02,0.11,-0.12,1721206448210
-1.65,-0.43,13.28,-0.03,0.16,-0.00,1721206448220
-2.24,-1.08,9.50,-0.01,0.08,0.07,1721206448230
-2.56,-2.12,7.98,0.07,0.09,0.12,1721206448240
0.28,-2.90,6.14,0.01,0.18,0.16,1721206448250
0.28,0.75,13.01,0.07,0.08,0.15,1721206448260
0.14,1.85,10.43,0.06,0.06,0.19,1721206448270
-0.48,0.05,5.05,0.03,0.10,0.05,1721206448280
0.03,-5.09,8.83,-0.15,0.14,0.05,1721206448290
-0.35,-0.71,14.85,-0.10,0.05,0.11,1721206448300
-0.10,1.23,13.89,0.04,0.12,0.20,1721206448310
-0.43,0.00,8.19,-0.07,-0.02,0.16,1721206448320
0.66,-3.94,13.40,-0.16,0.12,0.08,1721206448330
0.42,4.02,15.74,-0.01,0.10,0.10,1721206448340
-2.74,2.05,5.78,0.01,-0.06,0.07,1721206448350
-2.51,-1.65,8.43,-0.07,0.14,0.29,1721206448360
1.80,-0.27,11.37,0.06,0.16,0.28,1721206448370
2.40,1.29,8.23,0.01,-0.05,0.23,1721206448380
1.18,2.37,11.17,-0.03,0.15,0.13,1721206448390
1.07,-1.28,11.95,-0.05,-0.00,0.14,1721206448400
-0.64,4.42,11.05,0.09,-0.02,0.12,1721206448410
0.29,-0.95,5.88,-0.01,0.05,0.18,1721206448420
0.26,1.10,12.16,0.02,0.12,0.12,1721206448430
-0.14,2.75,10.59,0.09,0.05,0.07,1721206448440
-1.31,-2.43,9.13,0.01,-0.04,0.22,1721206448450
-1.23,2.38,12.72,0.17,0.05,0.26,1721206448460
1.96,0.98,6.80,0.16,0.00,0.27,1721206448470
1.00,4.14,10.01,0.10,-0.03,0.23,1721206448480
1.85,3.48,12.18,0.05,0.08,0.19,1721206448490
0.91,-1.26,8.91,0.05,-0.08,0.16,1721206448500
0.27,0.17,6.90,0.03,0.04,0.13,1721206448510
1.22,0.65,10.51,-0.12,0.10,0.06,1721206448520
0.07,-0.66,17.89,-0.12,-0.04,0.09,1721206448530
-1.25,3.00,9.60,0.10,-0.06,0.09,1721206448540
-0.31,-0.87,4.30,-0.07,0.03,0.17,1721206448550
-0.00,-3.98,13.48,-0.26,0.06,0.23,1721206448560
-0.93,4.33,16.11,-0.00,-0.15,0.10,1721206448570
-0.20,5.59,6.80,0.04,-0.03,-0.02,1721206448580
-0.41,-2.80,7.53,-0.13,-0.12,0.22,1721206448590
0.03,-2.28,13.21,-0.06,0.06,0.23,1721206448600
1.91,2.80,9.76,-0.03,-0.02,0.08,1721206448610
0.93,-1.82,6.99,-0.13,-0.15,-0.05,1721206448620
0.72,-1.71,11.57,-0.06,-0.01,0.01,1721206448630
-0.04,0.33,5.23,0.07,-0.08,0.01,1721206448640
-1.99,-1.54,4.30,-0.18,-0.12,0.01,1721206448650
-1.51,-3.85,9.39,-0.15,-0.15,-0.06,1721206448665
1.41,-6.60,10.54,-0.19,-0.15,-0.03,1721206448669
-1.63,-1.62,15.10,-0.12,-0.10,-0.04,1721206448679
-2.26,1.78,12.90,-0.05,-0.10,-0.07,1721206448689
-1.12,2.13,11.48,-0.19,-0.08,0.03,1721206448699
-0.99,2.67,14.07,-0.11,-0.12,0.14,1721206448709
0.68,-1.54,9.98,-0.10,-0.01,0.22,1721206448719
-0.47,0.26,11.09,-0.07,-0.16,0.04,1721206448729
1.34,4.11,8.61,0.04,-0.17,-0.01,1721206448739
2.48,-6.03,5.12,-0.10,-0.11,0.09,1721206448749
-0.75,1.33,13.19,-0.06,-0.11,-0.03,1721206448759
0.85,7.22,13.39,0.07,-0.06,-0.12,1721206448769
2.21,-1.46,10.84,-0.02,-0.10,-0.06,1721206448779
-2.25,1.28,9.62,0.05,-0.12,-0.21,1721206448789
-1.93,-1.90,10.43,0.04,0.11,-0.29,1721206448799
-2.82,4.57,15.08,0.12,-0.14,0.04,1721206448809
-0.69,2.96,9.67,0.21,-0.04,0.10,1721206448819
1.41,0.91,8.51,0.17,-0.03,0.09,1721206448829
0.27,-0.85,7.95,0.05,-0.12,-0.07,1721206448839
-0.83,3.95,10.03,0.10,-0.04,-0.21,1721206448849
-0.18,-2.15,5.82,0.08,-0.08,-0.13,1721206448859
-0.82,-3.21,5.32,0.05,-0.07,0.00,1721206448869
0.75,-1.82,8.72,0.08,0.05,0.06,1721206448879
2.33,-1.56,14.61,-0.10,0.10,-0.20,1721206448889
-0.34,4.94,14.95,0.14,-0.17,-0.24,1721206448899
-0.79,-0.82,6.61,-0.05,0.02,-0.26,1721206448909
-2.61,1.36,15.67,-0.04,-0.08,-0.01,1721206448919
0.32,1.51,9.17,0.02,0.04,0.10,1721206448929
1.26,-1.41,7.68,-0.20,-0.07,-0.03,1721206448939
-0.08,0.23,13.24,-0.14,-0.00,-0.25,1721206448949
-0.99,-1.82,9.80,-0.07,-0.11,-0.17,1721206448959
-3.33,1.74,8.23,-0.08,-0.10,-0.04,1721206448969
-1.18,-0.16,9.27,-0.10,0.06,0.15,1721206448979
0.79,-0.55,12.18,-0.14,0.01,0.14,1721206448989
1.07,1.94,14.83,-0.08,-0.05,-0.03,1721206448999
1.39,2.22,8.91,-0.00,-0.08,-0.13,1721206449009
0.20,-1.05,10.67,-0.13,-0.01,-0.15,1721206449019
-1.62,0.19,17.69,-0.09,-0.02,-0.06,1721206449029
-2.34,6.10,10.48,0.18,-0.11,-0.01,1721206449039
0.91,-0.14,7.55,-0.03,0.14,0.02,1721206449049
0.10,0.38,12.28,0.07,-0.07,-0.07,1721206449059
-0.60,2.09,8.99,0.08,0.05,-0.15,1721206449069
-2.02,1.98,8.94,0.11,0.01,-0.13,1721206449079
-1.27,-2.54,4.19,0.13,-0.02,0.03,1721206449089
1.27,-3.03,9.31,0.00,0.09,0.09,1721206449099
2.44,0.23,13.61,0.02,0.09,-0.01,1721206449109
2.17,4.78,15.61,0.06,0.10,-0.31,1721206449119
1.36,-3.25,10.02,-0.05,-0.11,-0.29,1721206449129
-0.09,-0.14,9.62,0.09,0.22,-0.21,1721206449139
0.79,1.66,6.92,0.19,0.26,-0.38,1721206449149
-2.29,-1.46,3.27,0.10,-0.06,-0.26,1721206449159
-3.03,-1.42,9.05,-0.09,0.30,-0.22,1721206449169
-0.93,-3.54,15.49,-0.02,0.13,-0.10,1721206449179
-1.38,0.97,10.85,-0.02,0.06,-0.01,1721206449189
0.59,1.55,8.68,0.01,0.17,0.02,1721206449199
1.63,-0.18,8.08,-0.00,0.18,-0.10,1721206449209
-0.29,0.54,12.21,-0.01,0.11,-0.23,1721206449219
-1.21,-1.54,9.68,-0.02,0.19,-0.16,1721206449229
-1.66,-3.52,10.57,-0.13,0.14,0.09,1721206449239
-0.19,1.45,13.69,-0.03,0.18,0.21,1721206449249
2.63,5.09,9.00,0.15,0.13,0.12,1721206449259
3.38,-7.13,7.30,-0.13,0.23,-0.06,1721206449269
-0.71,3.03,16.74,0.07,0.07,-0.25,1721206449279
-2.49,2.20,7.08,0.17,0.09,-0.10,1721206449289
-2.04,-0.89,12.06,0.00,0.26,0.16,1721206449299
0.09,7.34,16.11,0.35,0.16,0.29,1721206449309
2.56,3.33,6.83,0.24,0.22,0.16,1721206449319
2.20,2.18,11.19,0.08,0.18,-0.01,1721206449329
1.24,-0.05,11.05,0.04,0.11,-0.14,1721206449339
-0.26,0.60,11.74,0.09,0.16,-0.12,1721206449349
-1.28,1.52,8.30,0.19,0.16,0.01,1721206449359
-0.80,1.81,9.74,0.13,0.23,0.13,1721206449369
-0.28,2.95,7.99,0.19,0.11,0.05,1721206449379
-0.65,1.84,8.13,0.04,0.20,-0.00,1721206449389
-1.67,-3.03,12.86,-0.05,0.10,0.05,1721206449399
-1.96,1.41,12.13,0.19,0.10,0.15,1721206449409
0.58,2.86,5.34,0.10,0.17,0.16,1721206449419
1.33,-1.01,9.23,-0.04,0.05,0.21,1721206449429
1.85,-3.24,16.52,-0.05,0.20,-0.01,1721206449439
-0.86,0.66,8.41,0.27,-0.11,-0.06,1721206449449
-2.89,2.54,-2.88,0.05,0.08,0.06,1721206449459
-0.49,-5.70,5.83,-0.14,0.30,0.14,1721206449469
0.59,3.45,9.28,0.28,-0.18,0.24,1721206449479
1.29,-6.45,4.24,-0.30,0.31,0.06,1721206449489
-2.55,-1.12,26.23,-0.29,0.03,-0.12,1721206449499
-2.87,-6.36,11.38,0.01,-0.27,0.02,1721206449509
-2.08,-2.50,11.28,-0.31,0.19,0.28,1721206449519
-0.30,4.65,10.44,0.10,-0.06,0.36,1721206449529
2.12,-3.68,6.08,-0.29,0.03,0.21,1721206449539
1.57,-2.76,19.78,-0.21,-0.05,0.02,1721206449549
-0.14,0.12,11.11,0.03,-0.12,-0.03,1721206449559
-3.42,0.01,8.94,-0.20,-0.05,0.10,1721206449569
-1.16,3.22,12.32,0.07,-0.04,0.27,1721206449579
2.00,1.22,9.48,0.10,-0.08,0.34,1721206449589
0.45,-0.47,10.10,-0.00,-0.03,0.08,1721206449599
0.07,3.16,11.35,0.15,-0.03,-0.05,1721206449609
-0.41,-0.91,6.20,0.14,-0.17,0.02,1721206449619
-1.42,3.36,7.16,0.28,-0.04,0.22,1721206449629
1.92,-0.07,9.83,0.21,0.07,0.31,1721206449639
1.42,2.04,7.50,0.27,-0.23,0.11,1721206449649
2.23,3.20,8.94,0.13,0.10,-0.06,1721206449659
1.28,3.35,14.46,0.13,-0.05,-0.04,1721206449669
-1.65,0.85,10.68,0.12,-0.16,0.01,1721206449679
-1.96,-0.40,8.07,0.12,-0.04,0.05,1721206449689
1.51,0.50,8.92,0.17,0.03,0.24,1721206449699
3.58,-0.24,9.70,0.12,-0.03,0.15,1721206449709
2.95,4.01,12.42,0.24,-0.07,-0.12,1721206449719
-0.11,5.17,7.04,0.28,-0.13,-0.30,1721206449729
-1.96,-2.54,6.03,0.01,-0.03,-0.19,1721206449739
-2.20,-1.81,12.33,0.06,0.04,-0.01,1721206449749
0.24,1.27,9.41,0.20,0.00,0.14,1721206449759
1.41,1.55,6.80,0.13,-0.03,0.02,1721206449769
2.61,4.70,11.74,0.22,0.15,-0.24,1721206449779
0.10,2.66,7.40,0.10,-0.12,-0.34,1721206449789
-4.80,-1.65,11.54,-0.25,-0.01,-0.25,1721206449799
-5.28,-3.25,16.66,-0.08,-0.06,0.02,1721206449809
-1.36,-3.27,13.07,-0.00,0.00,0.35,1721206449819
2.06,5.32,7.52,0.31,-0.05,0.29,1721206449829
3.17,-0.16,-5.91,0.00,-0.11,-0.02,1721206449839
3.78,-3.87,14.30,-0.40,0.43,-0.27,1721206449849
-1.60,1.60,29.23,0.20,-0.17,-0.19,1721206449859
-2.43,-1.53,4.77,0.26,-0.28,0.14,1721206449869
-1.94,1.50,7.28,-0.08,0.15,0.12,1721206449879
2.19,2.38,10.95,0.09,0.04,-0.02,1721206449889
1.19,-3.03,7.32,-0.13,-0.08,-0.10,1721206449899
-3.41,2.76,13.64,0.07,-0.05,-0.18,1721206449909
-2.62,-4.60,8.12,-0.09,-0.02,-0.04,1721206449919
-3.52,-0.74,13.09,-0.02,-0.09,0.20,1721206449929
1.10,-1.61,5.96,0.05,-0.04,0.26,1721206449939
2.76,3.28,9.51,0.05,-0.05,0.15,1721206449949
2.72,2.19,7.15,0.01,-0.14,-0.13,1721206449959
0.13,-3.46,13.36,-0.27,-0.01,-0.30,1721206449969
-1.66,1.45,19.96,-0.03,-0.12,-0.15,1721206449979
-2.18,4.77,11.10,0.06,-0.02,-0.07,1721206449989
-1.87,3.38,6.08,0.01,-0.12,0.05,1721206449999
-0.85,-0.49,5.53,-0.05,-0.09,0.20,1721206450009
-0.80,0.89,8.52,-0.02,-0.06,0.09,1721206450019
-0.02,3.20,12.32,0.05,-0.03,0.04,1721206450029
0.28,2.08,8.73,-0.03,-0.16,0.13,1721206450039
0.44,1.96,8.29,-0.08,-0.13,0.17,1721206450049
3.10,1.60,12.71,-0.11,0.10,0.04,1721206450059
0.94,1.63,11.59,0.00,-0.30,-0.01,1721206450069
-1.28,-1.28,6.63,-0.14,-0.11,-0.08,1721206450079
-0.79,-4.30,13.84,-0.23,0.04,-0.01,1721206450089
-2.49,-0.75,12.52,0.09,-0.33,0.20,1721206450099
0.94,-2.40,4.80,-0.01,0.03,0.27,1721206450109
4.10,5.46,9.05,0.27,-0.02,0.14,1721206450119
4.94,2.43,-1.06,0.02,-0.17,-0.06,1721206450129
-0.42,-7.02,17.48,-0.45,0.10,-0.21,1721206450139
-1.46,-0.36,21.10,0.22,-0.19,-0.16,1721206450149
0.28,0.41,8.41,0.04,0.01,-0.09,1721206450159
-2.18,4.93,16.87,-0.03,-0.13,-0.06,1721206450169
-1.22,1.07,7.90,0.14,-0.09,-0.11,1721206450179
-1.92,-2.32,7.70,-0.15,-0.04,-0.14,1721206450189
-3.18,0.03,12.97,-0.03,-0.12,-0.04,1721206450199
-1.70,1.73,10.33,0.12,-0.06,0.13,1721206450209
0.73,7.84,8.73,0.33,-0.14,0.17,1721206450219
2.69,0.16,5.47,-0.02,-0.16,0.07,1721206450229
-0.19,-0.93,17.20,-0.15,-0.15,-0.16,1721206450239
-0.02,1.87,15.25,0.13,-0.12,-0.25,1721206450249
-0.25,2.34,12.12,0.04,-0.07,-0.23,1721206450259
-2.83,3.29,8.65,0.24,-0.31,-0.05,1721206450269
-2.60,1.48,5.04,0.19,-0.06,0.09,1721206450279
-0.03,6.08,8.60,0.34,-0.03,0.11,1721206450289
2.10,-1.13,1.73,-0.01,-0.17,0.02,1721206450299
-0.01,-1.65,11.98,-0.22,-0.11,-0.15,1721206450309
2.16,5.70,17.39,0.24,-0.03,-0.16,1721206450319
0.88,4.48,0.62,0.09,-0.30,-0.17,1721206450329
-2.23,-4.16,3.80,-0.49,-0.01,-0.19,1721206450339
-1.77,-5.99,19.02,-0.27,0.02,-0.03,1721206450349
0.77,-0.39,16.33,0.06,-0.19,0.12,1721206450359
1.81,3.53,7.85,0.08,-0.10,0.01,1721206450369
1.39,1.88,2.02,-0.08,-0.15,-0.14,1721206450379
0.91,1.06,8.85,-0.40,0.07,-0.26,1721206450389
-0.87,-2.66,15.81,-0.35,-0.20,-0.22,1721206450399
-1.92,-4.98,12.45,-0.31,-0.08,-0.16,1721206450409
-0.51,-0.44,10.76,-0.15,-0.03,-0.03,1721206450419
1.79,-3.07,8.42,-0.41,-0.02,-0.02,1721206450429
1.75,-4.51,14.37,-0.21,-0.14,-0.13,1721206450439
2.27,-1.06,8.83,0.02,-0.06,-0.24,1721206450449
0.80,1.58,11.54,-0.13,0.00,-0.37,1721206450459
-1.52,-3.78,9.66,-0.08,-0.14,-0.38,1721206450469
-2.16,-2.13,11.02,-0.08,0.11,-0.32,1721206450479
-1.07,5.04,11.39,0.16,-0.07,-0.19,1721206450489
-0.41,-0.02,6.33,-0.05,-0.05,-0.10,1721206450499
-0.60,-1.90,17.09,-0.05,0.06,-0.19,1721206450509
0.36,3.91,13.52,0.29,-0.09,-0.32,1721206450519
-0.91,3.13,3.15,0.09,-0.04,-0.30,1721206450529
-2.67,2.53,17.01,-0.02,0.09,-0.27,1721206450539
-0.51,3.28,18.68,0.26,-0.03,-0.16,1721206450549
-1.06,0.20,8.56,0.16,-0.08,-0.15,1721206450559
-1.41,-3.11,17.15,-0.13,0.07,-0.19,1721206450569
0.38,18.29,12.84,0.74,-0.06,-0.13,1721206450579
0.60,-8.16,7.13,0.14,-0.01,-0.23,1721206450589
-8.41,10.36,10.18,0.51,-0.58,-0.19,1721206450599
4.03,-5.07,8.38,0.48,0.66,-0.22,1721206450609
-0.41,13.58,15.45,0.47,-0.66,-0.12,1721206450619
0.29,5.32,-0.69,0.60,0.00,-0.16,1721206450629
2.58,-4.05,5.83,0.27,0.16,-0.19,1721206450639
-3.15,1.12,3.90,0.49,-0.44,-0.27,1721206450649
-2.70,4.11,-3.90,0.37,0.08,-0.24,1721206450659
0.08,-1.63,6.56,-0.11,0.18,0.02,1721206450674
1.04,-1.70,11.88,-0.09,0.14,0.05,1721206450678
4.52,-2.60,12.13,0.13,0.03,-0.18,1721206450688
1.62,-3.29,2.84,0.04,-0.18,-0.33,1721206450698
0.96,-3.07,9.15,-0.11,0.25,-0.36,1721206450708
-0.77,2.59,14.95,0.16,-0.10,-0.27,1721206450718
-1.78,2.50,8.32,0.01,0.05,-0.23,1721206450728
-0.93,-3.22,14.30,-0.18,0.11,-0.17,1721206450738
-0.50,-4.86,12.78,-0.03,0.02,-0.18,1721206450748
1.56,-0.09,9.39,0.07,0.14,-0.19,1721206450758
0.29,2.14,1.49,-0.07,-0.15,-0.21,1721206450768
-1.04,-2.79,11.97,-0.39,0.17,-0.18,1721206450778
0.63,-2.78,14.20,0.07,-0.09,-0.05,1721206450788
3.11,-0.78,6.08,-0.22,0.15,-0.16,1721206450798
1.37,-0.05,18.10,-0.46,0.14,-0.46,1721206450808
-1.27,3.70,17.53,0.02,0.03,-0.67,1721206450818
-2.50,-0.13,5.68,-0.15,-0.02,-0.41,1721206450828
-5.90,0.79,12.57,-0.30,-0.06,-0.22,1721206450838
-3.39,0.82,15.16,-0.08,0.12,-0.08,1721206450848
-1.49,8.56,11.45,0.08,-0.00,0.02,1721206450858
-0.69,4.13,7.85,0.07,-0.06,-0.08,1721206450868
-0.67,1.22,7.26,0.21,-0.05,-0.08,1721206450878
0.54,3.60,4.12,0.24,0.04,-0.06,1721206450888
1.22,1.92,8.69,0.03,0.05,-0.13,1721206450898
0.02,1.71,11.92,0.18,-0.06,-0.09,1721206450908
1.22,-2.84,10.25,0.05,0.11,-0.08,1721206450918
0.06,-1.17,15.22,0.05,-0.08,-0.08,1721206450928
-0.13,4.77,13.41,0.21,0.06,-0.18,1721206450938
-0.17,3.98,8.13,0.21,-0.08,-0.18,1721206450948
-2.87,1.16,5.85,0.11,-0.05,-0.12,1721206450958
-2.45,-4.17,8.40,0.07,0.01,-0.00,1721206450968
-0.68,-3.71,11.91,0.08,-0.01,0.19,1721206450978
2.02,4.85,12.97,0.31,0.05,0.13,1721206450988
2.23,2.00,2.44,0.15,-0.19,-0.08,1721206450998
0.62,0.60,12.50,-0.12,0.18,-0.19,1721206451008
0.85,-3.38,14.65,0.06,-0.18,-0.05,1721206451018
-0.38,1.80,6.19,0.12,-0.08,-0.05,1721206451028
1.26,-0.21,4.01,-0.09,0.02,-0.09,1721206451038
-0.85,0.94,12.68,-0.12,-0.13,-0.09,1721206451048
0.67,1.39,13.31,0.07,0.05,-0.05,1721206451058
1.75,-2.18,11.27,-0.21,-0.02,-0.15,1721206451068
-0.87,2.91,15.30,-0.16,-0.15,-0.28,1721206451078
-2.72,3.71,5.70,-0.12,-0.17,-0.27,1721206451088
-2.79,-0.76,9.07,-0.40,0.08,-0.14,1721206451098
-1.93,-4.62,11.43,-0.15,-0.17,0.03,1721206451108
-0.15,-4.91,5.02,-0.25,-0.10,0.12,1721206451118
1.84,2.77,13.75,-0.14,0.01,-0.01,1721206451128
4.71,4.84,10.44,0.08,-0.08,-0.18,1721206451138
2.58,5.65,9.55,-0.07,0.02,-0.41,1721206451148
-2.30,1.06,9.07,-0.09,-0.26,-0.39,1721206451158
-4.76,1.18,9.02,-0.19,-0.01,-0.22,1721206451168
-1.75,0.03,13.20,-0.20,0.02,0.08,1721206451178
-0.10,-0.99,9.41,-0.12,-0.17,0.16,1721206451188
2.48,-2.95,8.42,-0.10,-0.01,0.02,1721206451198
3.45,-2.55,9.76,-0.06,-0.08,-0.15,1721206451208
1.83,2.52,13.86,-0.00,-0.03,-0.29,1721206451218
0.46,4.93,11.43,0.13,-0.09,-0.26,1721206451228
-2.19,0.85,7.69,-0.05,-0.14,-0.24,1721206451238
-2.91,-2.10,16.25,-0.09,0.02,-0.18,1721206451248
-0.60,-2.87,13.89,0.04,-0.17,0.09,1721206451258
0.88,2.58,15.44,-0.05,0.05,-0.10,1721206451268
0.45,5.71,15.34,0.19,-0.23,-0.25,1721206451278
-1.84,0.64,4.06,0.14,-0.25,-0.18,1721206451288
-1.83,-0.40,9.67,0.07,0.05,-0.11,1721206451298
-0.95,0.67,7.62,0.20,-0.24,0.00,1721206451308
0.38,1.70,9.78,0.07,-0.02,-0.04,1721206451318
3.18,2.05,10.06,0.26,-0.10,-0.13,1721206451328
2.37,-0.33,3.89,0.04,-0.09,-0.33,1721206451338
1.10,-3.30,12.94,-0.11,0.06,-0.46,1721206451348
-0.24,0.46,15.71,0.14,-0.06,-0.47,1721206451358
-0.58,1.93,14.92,0.04,0.05,-0.34,1721206451368
-3.03,5.24,9.02,0.26,-0.28,-0.23,1721206451378
-0.37,2.52,3.50,0.07,0.12,-0.20,1721206451388
0.99,-0.30,7.51,-0.02,-0.02,-0.24,1721206451398
0.28,-1.98,5.63,-0.02,-0.07,-0.37,1721206451408
-0.85,-1.17,7.19,0.04,0.08,-0.38,1721206451418
1.46,-4.36,10.02,-0.01,0.08,-0.26,1721206451428
2.67,1.50,16.05,0.06,0.09,-0.24,1721206451438
2.83,6.15,9.49,0.15,0.01,-0.42,1721206451448
1.52,4.47,12.65,-0.13,0.16,-0.70,1721206451458
-3.03,2.07,14.25,-0.08,-0.10,-0.72,1721206451468
-5.69,-4.78,7.80,-0.20,0.01,-0.43,1721206451478
-4.59,-2.78,12.37,-0.16,0.15,-0.12,1721206451488
-0.44,-1.39,7.35,0.06,0.03,0.03,1721206451498
3.01,4.64,7.11,0.14,0.21,-0.14,1721206451508
4.91,1.01,8.48,0.03,0.11,-0.35,1721206451518
1.95,2.23,13.18,-0.00,0.09,-0.61,1721206451528
0.69,4.38,12.33,-0.00,0.17,-0.63,1721206451538
-2.84,1.75,7.73,-0.15,0.01,-0.50,1721206451548
-3.47,-3.32,11.06,-0.25,0.17,-0.37,1721206451558
-1.52,-2.13,14.52,-0.06,0.14,-0.24,1721206451568
0.27,0.68,10.46,-0.06,0.15,-0.21,1721206451578
1.10,5.50,14.41,-0.04,0.25,-0.39,1721206451588
0.24,1.19,6.59,-0.09,0.02,-0.40,1721206451598
-3.20,5.01,4.66,-0.05,0.21,-0.43,1721206451608
0.43,-0.57,5.50,-0.15,0.34,-0.40,1721206451618
-0.32,-6.87,11.27,-0.40,0.04,-0.14,1721206451628
-0.92,1.04,12.81,-0.10,0.25,-0.14,1721206451638
5.12,-0.64,16.33,-0.24,0.50,-0.41,1721206451648
2.33,5.71,18.05,0.04,-0.02,-0.55,1721206451658
-1.81,-1.03,-1.56,-0.16,0.06,-0.66,1721206451668
-4.12,0.45,14.26,-0.28,0.56,-0.58,1721206451678
-2.67,-0.39,13.94,-0.07,0.21,-0.33,1721206451688
-2.55,-0.91,9.78,-0.15,0.16,-0.09,1721206451698
0.33,1.70,7.92,-0.02,0.32,-0.11,1721206451708
2.27,-0.45,8.59,-0.26,0.31,-0.26,1721206451718
0.50,-2.25,15.41,-0.23,0.23,-0.46,1721206451728
-1.20,2.60,12.87,0.02,0.20,-0.42,1721206451738
-1.36,3.65,9.11,-0.08,0.29,-0.27,1721206451748
-0.23,-0.97,14.12,-0.28,0.35,-0.26,1721206451758
-0.19,0.62,16.33,-0.07,0.20,-0.30,1721206451768
-1.78,-0.72,4.26,-0.09,0.13,-0.31,1721206451778
-3.17,-1.48,12.56,-0.24,0.46,-0.37,1721206451788
-2.27,1.74,17.79,0.15,0.25,-0.21,1721206451798
0.59,0.52,9.37,0.05,0.32,-0.03,1721206451808
-0.05,3.44,9.44,0.08,0.17,-0.14,1721206451818
0.85,4.85,11.01,0.09,0.39,-0.40,1721206451828
-1.07,3.99,12.91,0.10,0.20,-0.43,1721206451838
-3.12,-1.61,9.17,0.06,0.23,-0.27,1721206451848
-4.41,-2.52,6.96,-0.01,0.12,0.01,1721206451858
-1.48,0.28,11.05,0.05,0.38,0.09,1721206451868
3.19,1.72,11.30,0.19,0.29,-0.00,1721206451878
2.38,1.43,4.72,0.32,0.11,-0.14,1721206451888
0.02,1.74,5.54,0.19,0.32,-0.44,1721206451898
-3.21,4.52,14.52,0.21,0.19,-0.27,1721206451908
-3.51,0.13,8.20,0.07,0.21,0.04,1721206451918
-2.75,-1.22,12.08,-0.06,0.19,0.15,1721206451928
0.34,0.00,15.01,0.13,0.27,0.11,1721206451938
1.51,-0.34,9.63,0.09,0.18,0.08,1721206451948
-0.99,2.74,11.14,0.10,0.10,-0.03,1721206451958
-2.05,2.50,5.56,0.16,0.07,-0.00,1721206451968
-2.13,-2.63,7.46,-0.06,0.20,0.16,1721206451978
-1.65,-0.94,8.74,0.13,-0.01,0.38,1721206451988
2.19,1.52,7.90,0.10,0.26,0.25,1721206451998
2.10,2.50,7.24,0.10,-0.03,0.10,1721206452008
1.26,-0.25,10.37,-0.09,0.21,-0.03,1721206452018
-0.94,1.76,16.06,0.04,-0.02,0.01,1721206452028
-2.31,3.55,6.91,0.03,0.00,0.14,1721206452038
-1.25,-6.83,6.37,-0.34,0.06,0.26,1721206452048
-1.21,-1.28,16.64,-0.05,0.08,0.30,1721206452058
4.22,3.60,12.52,0.23,0.12,0.26,1721206452068
1.95,3.58,-0.19,0.04,-0.28,0.16,1721206452078
0.69,1.41,12.31,-0.12,0.36,-0.06,1721206452088
0.52,-4.86,13.07,-0.08,-0.20,0.13,1721206452098
-3.68,5.40,11.45,0.01,-0.05,0.24,1721206452108
2.36,0.01,7.01,-0.07,0.09,0.22,1721206452118
-0.64,-0.28,9.69,-0.06,-0.18,0.13,1721206452128
2.03,-2.74,11.07,-0.13,0.27,0.10,1721206452138
1.72,0.29,17.12,-0.06,-0.13,0.09,1721206452148
0.12,3.07,8.72,0.08,-0.10,0.02,1721206452158
1.06,4.25,10.54,0.12,0.10,-0.04,1721206452168
-0.12,0.77,4.72,0.07,-0.20,-0.04,1721206452178
-1.22,1.01,12.53,-0.08,0.18,-0.08,1721206452188
0.82,2.50,13.62,0.12,0.05,-0.14,1721206452198
-0.28,2.32,10.31,-0.10,0.00,-0.19,1721206452208
-1.17,-1.46,16.52,-0.14,0.03,-0.12,1721206452218
-0.49,0.99,12.37,0.11,0.01,-0.02,1721206452228
0.70,4.53,6.38,0.16,0.04,-0.04,1721206452238
0.49,-0.25,5.09,0.01,-0.02,-0.12,1721206452248
-1.00,1.91,9.23,0.17,-0.00,-0.16,1721206452258
1.59,-0.04,8.80,0.14,0.17,-0.16,1721206452268
0.22,1.92,7.92,0.12,-0.02,-0.20,1721206452278
0.97,1.75,11.67,-0.06,0.27,-0.27,1721206452288
0.28,1.73,16.01,-0.01,0.08,-0.27,1721206452298
-1.12,-2.34,8.35,-0.05,0.01,-0.22,1721206452308
-1.80,-0.36,11.06,-0.01,0.19,-0.24,1721206452318
0.00,1.09,9.37,0.12,0.06,-0.10,1721206452328
-0.63,-0.68,5.80,-0.03,0.03,-0.02,1721206452338
-1.11,3.54,10.34,0.10,0.12,-0.17,1721206452348
0.68,0.51,5.15,0.07,0.08,-0.17,1721206452358
-0.83,-1.94,8.33,-0.22,0.15,-0.09,1721206452368
-0.47,-2.02,14.51,-0.16,0.12,-0.04,1721206452378
0.73,-1.93,13.26,-0.06,0.08,0.01,1721206452388
1.45,-0.12,13.59,-0.05,0.14,-0.08,1721206452398
0.44,2.38,11.12,0.09,0.04,-0.18,1721206452408
-0.40,2.25,5.54,0.01,0.12,-0.22,1721206452418
-2.24,-1.04,8.26,-0.10,0.07,-0.16,1721206452428
-2.66,1.40,10.97,0.03,0.10,-0.09,1721206452438
-0.52,1.41,12.62,-0.05,0.27,-0.05,1721206452448
0.23,3.09,13.87,-0.02,0.10,0.00,1721206452458
0.98,-0.55,8.80,-0.13,0.13,-0.10,1721206452468
-0.05,-0.27,9.60,-0.12,0.09,-0.19,1721206452478
-1.03,1.73,11.68,0.01,0.07,-0.15,1721206452488
-0.44,0.32,11.26,0.12,0.12,-0.09,1721206452498
-0.29,0.99,5.38,0.13,0.00,-0.11,1721206452508
1.13,3.13,15.19,0.02,0.42,-0.23,1721206452518
-0.12,3.68,12.58,0.22,0.00,-0.20,1721206452528
-2.24,2.28,5.90,0.04,0.16,-0.18,1721206452538
-3.45,-0.79,8.94,0.09,0.10,-0.14,1721206452548
-2.01,0.85,11.14,0.09,0.25,0.02,1721206452558
1.15,-1.50,10.45,0.01,0.09,0.23,1721206452568
1.77,1.97,14.64,0.06,0.19,0.11,1721206452578
2.41,2.87,7.63,0.25,0.02,-0.21,1721206452588
-1.14,0.30,6.34,0.01,0.15,-0.29,1721206452598
-4.39,1.86,10.89,0.14,0.02,-0.04,1721206452608
-3.02,-1.77,7.07,-0.02,0.11,0.23,1721206452618
