AccX,AccY,AccZ,GyrX,GyrY,GyrZ,Time
0.87,2.62,10.23,0.03,-0.05,-0.21,1721206704136
1.24,2.65,10.55,0.04,0.00,-0.27,1721206704141
1.17,1.85,8.23,-0.04,-0.04,-0.32,1721206704151
0.76,1.18,12.15,-0.02,0.05,-0.31,1721206704161
0.47,0.73,11.51,0.03,0.03,-0.30,1721206704171
-0.20,2.49,7.41,0.04,-0.02,-0.35,1721206704181
-0.71,1.66,8.72,-0.08,0.04,-0.41,1721206704191
-1.18,0.96,13.05,0.04,0.03,-0.32,1721206704201
-1.14,0.84,8.75,0.02,-0.03,-0.22,1721206704211
1.05,1.73,5.12,-0.09,0.05,-0.24,1721206704221
2.69,-0.83,12.06,-0.14,0.16,-0.39,1721206704231
0.38,0.66,14.65,0.09,0.02,-0.54,1721206704241
-0.36,1.24,6.82,0.03,0.10,-0.53,1721206704251
0.99,-0.00,8.99,-0.12,0.18,-0.45,1721206704261
0.19,-0.98,13.14,0.04,0.08,-0.54,1721206704271
-1.73,0.51,9.40,0.10,0.09,-0.67,1721206704281
-2.51,0.44,7.74,0.01,0.05,-0.55,1721206704291
-1.90,-1.37,9.83,-0.05,0.11,-0.37,1721206704301
-1.12,-0.72,12.72,0.08,0.11,-0.43,1721206704311
-1.46,1.23,10.96,0.12,0.02,-0.62,1721206704321
-1.76,0.29,8.79,0.05,0.05,-0.61,1721206704331
-1.26,-0.62,9.39,0.06,0.05,-0.47,1721206704341
-0.58,1.06,11.48,0.09,0.12,-0.48,1721206704351
-0.19,0.73,9.38,0.10,0.03,-0.64,1721206704361
-0.91,-0.15,10.39,0.05,0.03,-0.73,1721206704371
-1.84,0.58,10.78,0.11,0.06,-0.67,1721206704381
-2.80,1.72,9.30,0.01,0.05,-0.64,1721206704391
-2.78,1.73,10.96,0.01,0.03,-0.62,1721206704401
-0.21,-0.20,11.15,0.00,0.09,-0.58,1721206704411
0.07,2.15,12.68,0.11,0.06,-0.71,1721206704421
-3.29,4.35,6.28,0.06,-0.08,-0.86,1721206704431
-5.51,3.73,9.63,-0.10,0.05,-0.79,1721206704441
-3.72,-0.14,12.79,-0.01,0.00,-0.50,1721206704451
-2.77,2.96,11.25,0.09,-0.05,-0.50,1721206704461
-3.91,6.96,7.94,0.03,-0.09,-0.76,1721206704471
-5.46,2.66,8.32,-0.14,-0.17,-0.69,1721206704481
-6.02,-0.05,11.00,-0.05,-0.20,-0.41,1721206704491
-2.35,1.69,16.18,0.11,-0.06,-0.04,1721206704501
7.02,3.55,6.71,-0.04,0.14,0.04,1721206704511
11.53,2.43,10.11,-0.28,0.03,-0.79,1721206704521
2.33,-1.60,12.65,-0.03,-0.32,-1.69,1721206704531
-12.79,-1.16,8.18,0.01,-0.27,-1.50,1721206704541
-17.56,1.01,6.85,-0.03,-0.15,-0.32,1721206704551
-7.28,-4.19,6.20,-0.15,0.07,0.68,1721206704561
4.32,-2.42,14.41,0.02,0.01,0.65,1721206704571
10.77,0.50,11.56,0.09,0.03,-0.10,1721206704581
10.80,-0.02,9.53,-0.11,-0.09,-0.87,1721206704591
5.16,-3.27,10.76,0.07,-0.10,-1.13,1721206704601
-0.32,-7.01,9.60,0.02,0.08,-0.99,1721206704611
-6.49,-2.74,9.71,-0.02,-0.10,-0.69,1721206704621
-1.89,-2.82,11.88,0.29,0.11,-0.29,1721206704631
3.59,-1.08,0.24,-0.11,0.09,-0.39,1721206704641
-0.07,3.54,18.73,-0.10,0.06,-0.94,1721206704651
-6.87,-4.76,14.04,0.15,-0.25,-1.14,1721206704661
-11.78,-3.49,3.71,0.08,-0.18,-0.57,1721206704671
-8.07,-2.71,6.64,-0.10,0.06,0.06,1721206704681
-0.69,-4.57,18.37,-0.06,0.04,0.13,1721206704691
3.56,-5.77,13.02,0.23,-0.32,-0.06,1721206704701
4.65,2.84,4.38,0.11,0.05,-0.48,1721206704711
-0.33,4.94,12.65,-0.00,-0.07,-0.86,1721206704721
-0.87,-5.79,6.66,-0.08,-0.30,-0.59,1721206704731
-0.01,-9.02,10.12,0.16,0.22,-0.21,1721206704741
0.53,3.25,7.36,0.15,-0.08,-0.44,1721206704751
-1.24,1.94,12.58,-0.09,-0.13,-0.85,1721206704761
-4.02,-7.64,12.22,-0.05,-0.15,-0.58,1721206704771
-7.69,-3.57,10.94,0.02,-0.13,-0.14,1721206704781
-5.90,0.87,8.49,0.09,-0.04,0.02,1721206704791
-0.66,-2.85,9.75,-0.16,-0.12,0.12,1721206704801
2.46,-4.38,9.96,-0.05,-0.13,0.13,1721206704811
4.77,-2.13,7.65,-0.03,-0.03,-0.16,1721206704821
2.82,0.55,12.09,-0.05,-0.17,-0.41,1721206704831
-1.37,-1.70,13.29,-0.04,-0.18,-0.35,1721206704841
-2.40,-0.22,17.21,0.05,-0.01,-0.03,1721206704851
-0.09,0.55,5.36,-0.06,-0.11,0.18,1721206704861
2.18,2.14,8.15,-0.10,-0.10,0.06,1721206704871
4.08,1.41,10.46,0.07,0.02,-0.21,1721206704881
3.16,-0.62,11.66,-0.08,0.01,-0.38,1721206704891
-1.18,0.78,12.74,-0.10,-0.17,-0.18,1721206704901
-3.18,1.34,9.57,-0.07,-0.14,-0.01,1721206704911
-1.40,1.79,7.34,-0.22,-0.06,0.18,1721206704921
1.70,2.05,11.31,-0.14,-0.07,0.31,1721206704931
3.98,1.69,8.11,-0.08,-0.05,0.09,1721206704941
2.65,3.63,9.90,-0.08,-0.04,-0.18,1721206704951
-0.05,2.48,7.10,-0.08,-0.12,-0.14,1721206704961
0.10,2.98,11.92,-0.13,0.09,0.11,1721206704971
1.71,3.60,10.37,-0.11,-0.01,0.18,1721206704981
3.12,1.72,9.85,-0.27,0.03,0.10,1721206704991
3.17,3.81,11.93,-0.16,0.06,-0.03,1721206705001
2.49,3.45,6.37,-0.12,0.04,-0.16,1721206705011
0.95,1.95,8.44,-0.29,0.14,-0.20,1721206705021
0.71,3.01,14.17,-0.17,0.10,-0.06,1721206705031
2.03,2.96,11.20,-0.07,0.12,-0.04,1721206705041
2.81,3.08,10.34,-0.09,0.13,-0.20,1721206705051
2.01,4.07,12.28,-0.11,0.11,-0.36,1721206705061
0.21,2.72,11.05,-0.02,0.06,-0.38,1721206705071
-0.58,2.31,9.03,-0.03,0.15,-0.30,1721206705081
-0.57,2.38,10.75,-0.03,0.13,-0.23,1721206705091
0.00,1.71,9.81,-0.03,0.14,-0.26,1721206705101
0.03,1.40,10.06,0.00,0.11,-0.35,1721206705111
-0.53,1.11,9.39,0.03,0.11,-0.37,1721206705121
-1.21,0.68,9.70,-0.03,0.13,-0.34,1721206705131
-1.39,0.76,10.57,0.01,0.11,-0.33,1721206705141
-0.91,-0.89,8.54,-0.03,0.10,-0.31,1721206705151
-0.85,-0.83,11.39,-0.02,0.10,-0.31,1721206705161
-0.23,0.41,10.97,-0.04,0.12,-0.31,1721206705171
-0.79,-0.96,9.53,-0.01,0.05,-0.31,1721206705181
-0.18,-0.72,9.56,-0.07,0.13,-0.27,1721206705191
0.57,-0.45,10.56,-0.07,0.14,-0.28,1721206705201
0.90,-0.41,9.64,-0.09,0.11,-0.31,1721206705211
0.60,-2.80,9.10,-0.05,0.10,-0.29,1721206705221
0.85,-2.20,8.95,-0.09,0.17,-0.31,1721206705231
0.81,-0.74,10.34,-0.05,0.12,-0.36,1721206705241
0.07,0.84,10.86,-0.07,0.11,-0.35,1721206705251
-0.34,-0.12,11.60,-0.11,0.18,-0.35,1721206705261
-0.52,-0.26,11.08,-0.16,0.14,-0.26,1721206705271
-0.23,-1.16,10.00,-0.14,0.15,-0.22,1721206705281
0.73,0.36,10.57,-0.07,0.20,-0.26,1721206705291
0.21,-0.28,9.49,-0.05,0.17,-0.38,1721206705301
-0.41,1.11,11.88,-0.04,0.17,-0.42,1721206705311
-0.96,0.93,10.04,0.02,0.17,-0.34,1721206705321
-0.72,0.20,10.42,-0.02,0.21,-0.25,1721206705331
0.03,-0.06,10.84,0.05,0.20,-0.26,1721206705341
0.17,-0.90,10.11,0.02,0.20,-0.36,1721206705351
-0.80,1.33,11.02,0.06,0.15,-0.39,1721206705361
-1.73,-1.82,7.15,0.13,0.12,-0.29,1721206705371
-0.88,-0.59,11.05,0.01,0.26,-0.24,1721206705381
0.39,0.79,12.39,0.14,0.17,-0.24,1721206705391
0.79,0.76,8.28,0.12,0.21,-0.37,1721206705401
-0.11,-1.80,9.18,0.06,0.17,-0.46,1721206705411
-1.04,-1.23,11.49,0.12,0.21,-0.41,1721206705421
-1.52,0.20,9.72,0.12,0.21,-0.32,1721206705431
-1.15,0.65,10.82,0.11,0.20,-0.30,1721206705441
-0.99,-0.83,9.09,0.12,0.15,-0.28,1721206705451
-1.10,-1.00,11.29,0.02,0.22,-0.30,1721206705461
-1.31,-1.13,11.07,0.09,0.17,-0.35,1721206705471
-1.30,-0.82,9.45,0.08,0.19,-0.33,1721206705481
-2.21,-0.05,10.44,0.10,0.15,-0.25,1721206705491
-2.24,-0.25,8.75,0.17,0.14,-0.17,1721206705501
-0.76,-0.95,10.58,0.04,0.21,-0.10,1721206705511
-0.48,1.96,10.64,0.15,0.11,-0.16,1721206705521
-0.56,-1.17,7.66,0.05,0.14,-0.24,1721206705531
-1.83,-1.04,12.73,0.05,0.13,-0.24,1721206705541
-2.23,-0.44,9.54,0.12,0.10,-0.09,1721206705551
-0.90,-1.97,11.10,-0.02,0.16,0.03,1721206705561
0.03,2.62,13.49,0.15,0.11,0.01,1721206705571
0.17,-0.05,5.81,0.13,0.07,-0.03,1721206705581
-0.76,-1.69,9.84,-0.03,0.09,-0.08,1721206705591
-0.93,0.06,13.87,0.11,0.10,-0.09,1721206705601
-1.00,-0.25,9.61,0.13,0.05,0.02,1721206705611
-0.70,-0.07,8.00,0.09,0.09,0.05,1721206705621
0.40,-0.21,10.13,0.06,0.11,0.01,1721206705631
0.61,0.87,11.01,0.09,0.05,-0.02,1721206705641
-0.40,0.20,9.28,0.05,0.04,-0.08,1721206705651
-1.39,-0.10,10.21,0.06,0.05,-0.09,1721206705661
-1.35,-0.35,10.75,0.05,0.06,-0.00,1721206705671
-0.69,0.09,11.46,0.07,0.05,0.11,1721206705681
0.40,0.77,9.18,0.12,0.07,0.08,1721206705691
1.19,0.67,9.53,0.08,0.09,0.00,1721206705701
0.66,0.87,10.21,0.08,0.03,-0.07,1721206705711
-0.63,0.45,9.22,0.05,0.04,-0.09,1721206705721
-0.89,0.07,10.83,-0.00,0.11,0.01,1721206705731
-0.54,0.70,10.29,0.02,0.06,0.10,1721206705741
0.25,0.64,9.54,-0.03,0.10,0.01,1721206705751
0.28,2.40,11.61,0.04,0.08,-0.03,1721206705761
-0.35,2.14,8.03,0.05,0.06,-0.04,1721206705771
-0.85,-0.49,8.11,-0.11,0.09,-0.08,1721206705781
-1.47,0.77,11.45,-0.05,0.07,-0.07,1721206705791
-1.15,-0.78,9.75,-0.07,0.06,0.04,1721206705801
-0.59,1.18,10.84,0.04,0.05,0.07,1721206705811
0.75,-0.75,7.14,-0.05,0.09,0.01,1721206705821
0.72,1.25,12.43,-0.09,0.07,-0.03,1721206705831
0.70,-0.16,9.49,-0.05,0.03,-0.08,1721206705841
0.44,-2.13,9.75,-0.14,0.09,-0.13,1721206705851
-0.44,-0.79,12.03,-0.14,0.08,-0.10,1721206705861
-0.97,0.05,10.15,-0.09,0.09,-0.05,1721206705871
-1.52,-0.74,8.73,-0.18,0.11,-0.07,1721206705881
-1.14,-0.65,10.03,-0.21,0.08,-0.04,1721206705891
-0.68,-1.41,8.50,-0.19,0.07,0.02,1721206705901
-0.14,-1.53,10.26,-0.30,0.14,0.00,1721206705911
-0.83,0.40,12.11,-0.21,0.03,-0.02,1721206705921
-0.02,-1.06,8.76,-0.22,0.06,0.01,1721206705931
0.52,-2.88,9.55,-0.30,0.11,0.01,1721206705941
-0.21,0.25,10.90,-0.25,0.05,0.00,1721206705951
-1.15,-0.13,9.91,-0.24,0.06,-0.08,1721206705961
-0.47,3.46,13.78,-0.17,0.07,-0.06,1721206705971
0.12,0.89,9.69,-0.08,0.10,0.02,1721206705981
-1.49,-1.64,8.44,-0.28,0.02,-0.02,1721206705991
-1.59,1.74,12.27,-0.13,0.02,0.00,1721206706001
-0.15,-1.24,8.09,0.00,0.07,0.08,1721206706011
-1.25,-0.77,11.18,-0.05,0.10,0.05,1721206706021
-0.75,2.07,11.38,0.04,0.09,0.00,1721206706031
-0.81,-0.65,10.07,-0.03,-0.01,0.00,1721206706041
-0.48,1.79,12.49,0.06,0.06,0.16,1721206706051
-0.15,4.23,9.65,0.23,0.05,0.16,1721206706061
0.45,-2.46,7.29,0.12,0.05,0.06,1721206706071
0.40,-2.58,12.74,0.13,0.08,0.03,1721206706081
-0.22,0.97,10.00,0.22,0.00,0.03,1721206706091
-1.20,0.91,9.42,0.16,0.05,0.07,1721206706101
-1.36,0.35,11.45,0.17,0.01,0.21,1721206706111
0.81,-1.30,8.93,0.23,0.08,0.24,1721206706121
1.08,0.44,9.82,0.17,0.04,0.17,1721206706131
-0.10,0.03,11.82,0.14,-0.04,0.12,1721206706146
-1.25,0.24,11.93,0.13,-0.02,0.04,1721206706150
-1.33,-0.04,10.57,0.12,-0.03,0.15,1721206706160
-0.66,-1.33,10.86,0.07,-0.00,0.24,1721206706170
-0.27,1.52,10.97,0.17,0.01,0.24,1721206706180
-0.08,-2.09,8.25,0.11,-0.04,0.20,1721206706190
0.31,-0.15,11.86,0.12,0.01,0.23,1721206706200
-0.02,1.91,7.69,0.22,-0.05,0.25,1721206706210
0.07,-1.72,8.57,0.04,0.03,0.19,1721206706220
-0.49,0.30,13.78,0.13,-0.09,0.25,1721206706230
0.04,-1.85,8.04,0.11,-0.02,0.29,1721206706240
0.58,-0.08,12.87,-0.00,0.00,0.30,1721206706250
-0.59,2.04,10.36,0.22,-0.14,0.27,1721206706260
0.22,-1.92,7.88,0.04,0.02,0.29,1721206706270
1.04,1.90,14.93,0.14,-0.03,0.32,1721206706280
1.20,-0.76,7.08,0.18,-0.09,0.31,1721206706290
0.17,-0.54,10.92,0.06,-0.01,0.24,1721206706300
-0.44,2.48,12.24,0.25,-0.07,0.25,1721206706310
-0.10,-0.12,5.31,0.18,-0.08,0.41,1721206706320
-0.17,-0.42,9.91,0.07,-0.01,0.36,1721206706330
0.71,-0.21,11.81,0.11,-0.06,0.32,1721206706340
0.87,0.78,10.23,0.09,-0.10,0.39,1721206706350
1.79,1.65,10.45,0.02,-0.02,0.39,1721206706360
2.83,1.22,11.04,-0.00,-0.05,0.29,1721206706370
2.73,0.33,9.23,-0.03,-0.04,0.15,1721206706380
0.86,1.19,9.84,-0.05,-0.04,-0.02,1721206706390
-1.54,0.78,8.24,-0.03,-0.12,0.07,1721206706400
-1.12,-0.76,10.32,-0.12,0.01,0.24,1721206706410
0.12,0.43,9.94,0.03,-0.06,0.26,1721206706420
1.65,-1.05,8.38,-0.14,-0.00,0.19,1721206706430
1.87,-0.63,12.22,-0.09,-0.06,0.16,1721206706440
2.03,-0.17,10.53,-0.09,-0.01,0.03,1721206706450
0.65,1.38,9.64,-0.06,-0.08,-0.03,1721206706460
0.12,-0.07,8.11,-0.16,-0.02,0.00,1721206706470
0.76,1.71,13.02,-0.11,0.00,0.08,1721206706480
0.79,-1.45,7.21,-0.18,-0.04,0.03,1721206706490
0.66,-1.77,12.08,-0.29,0.03,-0.10,1721206706500
0.29,-1.71,8.54,-0.07,-0.04,-0.13,1721206706510
-0.36,-4.04,8.52,-0.30,0.05,-0.07,1721206706520
-0.30,2.80,12.81,-0.03,-0.05,-0.04,1721206706530
0.07,0.16,6.82,-0.14,0.02,-0.09,1721206706540
-1.19,0.31,13.58,-0.23,-0.02,-0.15,1721206706550
0.30,0.85,12.49,-0.08,0.04,-0.09,1721206706560
0.49,1.01,10.43,-0.13,0.11,-0.16,1721206706570
-0.38,2.38,11.35,-0.05,-0.01,-0.28,1721206706580
0.06,1.11,8.84,-0.02,0.04,-0.21,1721206706590
0.94,0.60,11.72,-0.06,0.08,-0.10,1721206706600
2.03,1.41,11.98,-0.04,0.09,-0.16,1721206706610
1.83,0.84,8.74,0.03,0.08,-0.35,1721206706620
0.53,0.31,10.56,-0.00,0.05,-0.44,1721206706630
-0.79,4.36,12.84,0.13,0.10,-0.40,1721206706640
-2.67,0.82,6.68,0.16,0.03,-0.31,1721206706650
-1.63,0.62,10.89,0.09,0.16,-0.18,1721206706660
-0.37,-0.83,7.81,0.21,0.14,-0.17,1721206706670
-0.47,-3.71,8.44,0.02,0.12,-0.31,1721206706680
-0.24,0.37,13.45,0.25,0.05,-0.29,1721206706690
-0.34,0.85,6.97,0.22,0.12,-0.20,1721206706700
-1.02,0.74,13.05,-0.02,0.18,-0.22,1721206706710
0.36,1.00,11.42,0.10,0.08,-0.23,1721206706720
-0.62,-5.99,12.91,-0.18,0.16,-0.32,1721206706730
-2.17,3.30,15.50,0.35,0.03,-0.29,1721206706740
-1.15,-2.05,1.33,0.13,0.11,-0.08,1721206706750
-1.63,1.65,17.48,-0.04,0.20,-0.12,1721206706760
-1.11,2.26,7.68,0.45,-0.06,-0.15,1721206706770
1.94,-7.74,3.08,-0.19,0.25,-0.17,1721206706780
5.42,6.67,15.84,0.16,-0.01,-0.24,1721206706790
-2.19,0.36,1.75,0.34,-0.05,-0.24,1721206706800
-1.89,-1.88,8.62,-0.19,0.20,-0.20,1721206706810
-2.49,1.73,15.69,0.21,0.02,-0.07,1721206706820
-1.74,-3.45,6.73,-0.07,0.07,-0.00,1721206706830
-0.99,2.51,16.24,0.03,0.10,-0.06,1721206706840
-1.43,1.33,7.07,0.16,-0.06,-0.11,1721206706850
-1.94,-0.68,8.74,-0.03,0.01,-0.08,1721206706860
-1.73,2.14,11.05,0.16,-0.02,0.03,1721206706870
-0.95,0.36,7.56,-0.03,-0.02,0.02,1721206706880
-0.48,0.35,11.45,0.01,-0.04,0.00,1721206706890
-0.70,-0.54,6.60,0.07,-0.06,0.03,1721206706900
-0.57,-1.63,9.20,-0.03,-0.03,0.09,1721206706910
0.51,0.95,12.47,0.13,-0.03,0.12,1721206706920
1.03,-1.17,11.92,0.01,-0.01,0.06,1721206706930
0.35,2.12,13.51,0.13,-0.10,-0.01,1721206706940
0.11,0.17,9.81,-0.02,-0.01,-0.02,1721206706950
-1.22,2.17,11.70,0.10,-0.10,0.03,1721206706960
-0.62,-0.79,6.39,-0.02,-0.00,0.12,1721206706970
-0.25,0.29,12.60,-0.07,-0.02,0.17,1721206706980
0.30,3.65,11.97,0.09,-0.05,0.12,1721206706990
0.79,0.91,6.80,-0.00,-0.07,0.09,1721206707000
-0.19,0.16,11.03,-0.05,-0.06,0.13,1721206707010
-0.30,3.67,9.80,0.11,-0.05,0.13,1721206707020
-0.13,0.41,5.83,-0.06,-0.09,0.16,1721206707030
-0.28,-0.66,14.48,-0.12,-0.04,0.18,1721206707040
0.05,0.41,11.82,0.07,-0.11,0.15,1721206707050
0.33,-0.28,9.24,-0.13,-0.04,0.11,1721206707060
-0.66,2.38,10.81,0.04,-0.13,0.11,1721206707070
0.39,-3.02,5.09,-0.11,-0.03,0.20,1721206707080
0.85,0.86,12.42,-0.08,-0.02,0.17,1721206707090
1.61,-3.46,9.09,-0.16,-0.08,0.05,1721206707100
0.29,-1.60,14.01,-0.18,-0.05,-0.05,1721206707110
-1.80,-0.89,6.43,-0.03,-0.22,0.02,1721206707120
-0.03,-1.48,9.54,-0.22,0.13,0.17,1721206707130
0.75,0.84,9.43,-0.03,-0.09,0.16,1721206707140
0.83,-2.36,7.43,-0.25,-0.03,-0.05,1721206707150
-0.18,0.34,16.63,-0.20,-0.04,-0.08,1721206707160
-1.00,0.26,10.97,-0.17,-0.07,0.01,1721206707170
-1.01,-0.65,10.41,-0.30,-0.04,0.10,1721206707180
0.81,1.73,11.83,-0.11,0.01,0.12,1721206707190
1.55,-3.95,5.53,-0.17,-0.05,0.01,1721206707200
1.30,-2.41,13.26,-0.28,0.04,-0.11,1721206707210
-0.15,7.95,15.65,0.08,-0.05,-0.17,1721206707220
1.45,0.13,6.83,-0.02,-0.01,-0.03,1721206707230
0.84,1.24,12.85,-0.13,0.06,-0.09,1721206707240
2.30,-1.70,8.21,0.05,-0.00,-0.17,1721206707250
0.06,-2.40,7.84,-0.03,-0.01,-0.39,1721206707260
-0.17,-0.28,12.53,0.10,0.05,-0.27,1721206707270
-1.69,1.20,9.09,0.15,0.03,-0.23,1721206707280
0.17,-0.87,10.03,0.12,0.05,-0.10,1721206707290
0.43,1.05,7.49,0.23,0.12,-0.15,1721206707300
1.72,-4.36,9.63,-0.01,0.09,-0.26,1721206707310
0.81,5.86,16.48,0.26,0.12,-0.38,1721206707320
0.08,-4.35,6.07,0.12,-0.01,-0.31,1721206707330
-1.95,1.49,14.61,-0.00,0.18,-0.25,1721206707340
-0.37,-1.32,8.79,0.18,0.05,-0.10,1721206707350
1.02,-4.76,8.54,-0.05,0.18,-0.20,1721206707360
0.28,2.82,15.61,0.20,0.09,-0.21,1721206707370
1.24,3.11,7.04,0.25,0.13,-0.23,1721206707380
0.69,-0.03,10.79,0.09,0.17,-0.22,1721206707390
0.24,-1.10,10.40,0.13,0.12,-0.25,1721206707400
-0.50,1.51,11.92,0.13,0.18,-0.24,1721206707410
0.07,2.72,10.62,0.18,0.17,-0.18,1721206707420
0.03,-0.10,8.77,0.18,0.15,-0.20,1721206707430
-0.25,-1.48,8.11,0.21,0.18,-0.27,1721206707440
-1.72,-0.59,9.35,0.17,0.15,-0.25,1721206707450
-2.80,4.36,12.88,0.25,0.14,-0.14,1721206707460
-2.00,1.23,8.27,0.18,0.14,-0.03,1721206707470
-0.86,-2.34,10.22,0.08,0.16,0.02,1721206707480
0.56,-0.63,11.29,0.11,0.17,-0.02,1721206707490
1.04,2.16,11.45,0.08,0.15,-0.11,1721206707500
-0.20,2.41,9.78,0.12,0.07,-0.18,1721206707510
-0.78,0.00,6.97,0.05,0.12,-0.10,1721206707520
-0.62,-0.70,8.43,0.03,0.12,-0.02,1721206707530
-0.56,-0.25,11.46,-0.10,0.13,-0.07,1721206707540
-1.26,2.54,13.64,0.04,0.06,-0.09,1721206707550
-1.37,0.60,9.62,-0.07,0.08,-0.00,1721206707560
-1.01,0.05,10.95,0.03,0.08,0.11,1721206707570
0.95,-0.59,6.36,-0.06,0.12,0.05,1721206707580
1.44,1.57,10.94,-0.09,0.07,0.01,1721206707590
1.13,1.20,10.25,-0.04,0.10,-0.11,1721206707600
-1.13,-0.29,7.73,-0.05,0.03,-0.17,1721206707610
-2.57,-5.51,7.75,-0.18,0.09,-0.03,1721206707620
-1.29,-0.79,13.15,-0.05,0.10,0.17,1721206707630
1.84,0.34,9.82,-0.05,0.10,0.20,1721206707640
2.54,0.77,13.81,-0.14,0.10,-0.09,1721206707650
0.53,1.63,11.92,0.04,0.01,-0.28,1721206707660
-1.86,-1.42,8.04,-0.18,0.09,-0.24,1721206707670
-2.96,-0.63,5.65,0.02,0.01,0.02,1721206707680
0.07,-4.10,10.04,-0.37,0.26,0.15,1721206707690
0.29,3.70,15.07,0.11,-0.01,-0.02,1721206707700
0.32,-3.06,5.69,-0.14,0.03,-0.18,1721206707710
-1.60,1.86,14.83,-0.03,0.09,-0.12,1721206707720
-0.90,0.40,10.04,-0.04,0.07,0.07,1721206707730
0.47,-0.36,13.08,-0.12,0.15,0.02,1721206707740
-0.24,-1.08,8.82,0.10,-0.04,-0.10,1721206707750
0.02,-0.56,6.18,0.05,0.12,-0.10,1721206707760
-2.32,0.98,11.74,-0.05,0.02,-0.01,1721206707770
-1.35,3.38,12.44,0.04,0.05,0.08,1721206707780
-0.66,-1.22,10.02,-0.00,-0.01,0.16,1721206707790
0.28,-1.22,10.58,-0.00,0.05,0.09,1721206707800
0.24,1.79,9.96,0.12,0.03,-0.03,1721206707810
-0.29,2.32,10.80,0.04,0.03,-0.05,1721206707820
-2.71,1.63,11.44,0.16,-0.07,0.03,1721206707830
-1.09,-0.96,7.19,0.11,0.03,0.25,1721206707840
0.59,-4.21,7.92,0.01,0.00,0.25,1721206707850
2.61,1.44,12.81,0.15,0.05,0.03,1721206707860
1.12,0.25,8.86,0.11,-0.10,-0.13,1721206707870
-2.26,2.28,11.63,0.07,-0.04,-0.19,1721206707880
-3.38,-2.77,9.16,0.05,-0.05,0.03,1721206707890
-2.60,-1.33,11.28,-0.06,-0.01,0.27,1721206707900
1.28,0.60,11.25,0.05,0.01,0.23,1721206707910
1.48,0.56,9.49,-0.01,-0.10,0.02,1721206707920
-0.24,1.50,5.82,0.17,-0.13,-0.09,1721206707930
-1.25,-4.90,6.65,-0.17,-0.03,-0.04,1721206707940
-2.40,3.85,16.76,0.09,-0.08,0.07,1721206707950
-0.74,0.01,6.64,0.03,-0.11,0.15,1721206707960
-0.00,1.74,14.23,-0.00,-0.07,0.16,1721206707970
0.66,-2.67,5.64,0.10,-0.18,0.11,1721206707980
0.64,-1.32,12.51,-0.11,-0.05,0.05,1721206707990
0.30,2.74,12.24,0.18,-0.22,0.10,1721206708000
0.32,5.87,10.24,0.05,-0.05,0.06,1721206708010
-0.55,0.46,7.75,0.01,-0.23,0.06,1721206708020
-0.78,-3.65,10.41,-0.18,-0.08,0.08,1721206708030
-0.79,1.53,11.46,0.03,-0.15,0.05,1721206708040
-0.87,2.37,7.81,-0.07,-0.15,0.04,1721206708050
-1.94,0.99,9.80,0.01,-0.22,0.16,1721206708060
0.03,-0.03,9.91,-0.00,-0.06,0.20,1721206708070
1.75,2.16,13.19,-0.05,-0.15,0.14,1721206708080
0.85,1.29,11.46,-0.09,-0.21,-0.01,1721206708090
-0.65,1.68,10.75,-0.06,-0.15,-0.05,1721206708100
-0.85,0.04,8.49,-0.04,-0.14,0.11,1721206708110
0.15,-0.54,7.55,-0.06,-0.09,0.15,1721206708120
1.27,0.64,9.82,-0.09,-0.12,0.04,1721206708130
0.79,-0.87,13.31,-0.20,-0.14,-0.07,1721206708140
-0.37,-1.03,8.39,-0.12,-0.22,-0.06,1721206708155
-0.54,-2.31,6.83,-0.19,-0.19,-0.06,1721206708159
-0.74,-0.85,10.80,-0.14,-0.08,-0.10,1721206708169
-0.39,-3.23,4.38,-0.05,-0.20,0.00,1721206708179
-0.50,-3.24,11.66,-0.23,-0.00,-0.04,1721206708189
0.11,3.22,14.31,0.00,-0.16,-0.02,1721206708199
0.63,-1.63,8.66,-0.11,-0.17,0.01,1721206708209
0.89,0.27,12.84,-0.15,-0.04,-0.06,1721206708219
-0.05,1.67,9.57,-0.07,-0.19,-0.15,1721206708229
-0.22,-1.62,7.76,-0.15,-0.11,-0.16,1721206708239
0.07,0.78,11.83,-0.04,-0.11,-0.13,1721206708249
1.79,-0.96,8.17,-0.00,-0.07,-0.13,1721206708259
0.96,-1.65,10.97,-0.14,-0.06,-0.24,1721206708269
1.42,5.41,13.14,0.08,-0.00,-0.18,1721206708279
2.18,-2.55,5.33,0.05,-0.06,-0.13,1721206708289
2.48,-2.72,11.81,-0.10,0.13,-0.28,1721206708299
0.15,-2.98,14.25,0.05,-0.13,-0.33,1721206708309
-1.07,3.64,13.38,0.14,-0.02,-0.25,1721206708319
1.05,1.43,9.09,0.13,0.04,-0.08,1721206708329
1.67,-0.38,9.39,0.12,0.07,-0.14,1721206708339
1.57,-2.42,7.90,0.10,0.06,-0.32,1721206708349
-0.18,0.46,14.03,0.10,0.04,-0.41,1721206708359
-1.23,1.99,10.46,0.21,-0.01,-0.20,1721206708369
-0.53,-0.19,9.16,0.04,0.09,-0.13,1721206708379
1.76,-0.25,13.42,0.12,0.11,-0.11,1721206708389
2.50,-0.46,6.59,0.14,0.10,-0.25,1721206708399
1.45,-0.42,11.46,0.01,0.18,-0.43,1721206708409
-1.80,0.62,11.33,0.25,-0.03,-0.38,1721206708419
-1.02,-2.31,7.82,0.05,0.20,-0.22,1721206708429
-0.45,1.00,12.93,0.16,0.10,-0.11,1721206708439
1.80,0.69,8.56,0.14,0.22,-0.17,1721206708449
2.17,0.00,9.46,0.18,0.14,-0.28,1721206708459
1.09,0.45,9.56,0.22,0.17,-0.42,1721206708469
-0.76,1.75,7.43,0.24,0.12,-0.43,1721206708479
-1.98,-0.92,10.74,0.04,0.20,-0.37,1721206708489
-2.35,1.72,13.16,0.22,0.12,-0.22,1721206708499
-0.37,-0.66,8.35,0.03,0.24,-0.18,1721206708509
0.84,2.18,12.81,0.07,0.17,-0.25,1721206708519
1.16,-0.12,7.17,0.07,0.15,-0.31,1721206708529
-0.07,0.07,12.74,-0.02,0.27,-0.44,1721206708539
-1.80,2.77,8.13,0.25,0.09,-0.35,1721206708549
-1.71,-1.22,5.38,-0.13,0.24,-0.27,1721206708559
-2.32,3.18,16.17,-0.01,0.13,-0.27,1721206708569
-1.67,-0.72,4.20,0.08,0.01,-0.11,1721206708579
-0.53,-0.27,11.47,-0.14,0.25,-0.11,1721206708589
0.87,1.67,8.03,0.14,0.08,-0.17,1721206708599
0.26,-2.25,7.99,-0.26,0.20,-0.34,1721206708609
-2.15,1.02,15.55,-0.00,0.03,-0.31,1721206708619
-0.86,-1.19,5.84,-0.04,0.14,-0.11,1721206708629
0.07,-1.79,10.91,-0.24,0.16,-0.05,1721206708639
0.41,0.70,13.13,-0.11,0.13,-0.12,1721206708649
0.99,-0.73,11.07,-0.13,0.16,-0.21,1721206708659
-0.23,0.38,9.16,-0.10,0.07,-0.20,1721206708669
-1.03,-2.00,8.70,-0.27,0.17,-0.20,1721206708679
-0.39,1.21,13.73,-0.13,0.17,-0.11,1721206708689
0.19,-0.79,8.05,-0.10,0.14,-0.15,1721206708699
-0.18,0.33,10.16,-0.10,0.14,-0.24,1721206708709
-0.25,0.05,8.89,-0.05,0.14,-0.19,1721206708719
-0.04,-0.89,11.24,-0.12,0.20,-0.13,1721206708729
-0.20,4.08,11.24,0.02,0.14,-0.11,1721206708739
-0.37,0.86,9.65,-0.11,0.17,-0.16,1721206708749
-0.99,-1.79,10.36,-0.05,0.09,-0.15,1721206708759
-0.69,-3.76,11.20,-0.06,0.19,-0.15,1721206708769
-0.72,3.04,12.62,0.10,0.15,-0.09,1721206708779
-0.88,4.42,10.24,0.09,0.17,-0.15,1721206708789
-1.39,0.37,10.53,0.09,0.10,-0.13,1721206708799
-1.00,-3.00,9.76,0.03,0.15,-0.02,1721206708809
0.08,-0.19,10.74,0.15,0.18,0.00,1721206708819
0.22,1.28,10.12,0.08,0.12,-0.10,1721206708829
-1.90,1.01,9.79,0.13,0.05,-0.18,1721206708839
-2.10,-2.84,8.42,0.12,0.13,-0.08,1721206708849
-2.07,-0.91,10.04,0.14,0.11,0.04,1721206708859
-0.26,0.35,10.05,0.12,0.16,0.06,1721206708869
0.69,1.46,11.44,0.06,0.11,-0.10,1721206708879
-0.64,0.55,8.54,0.18,0.03,-0.21,1721206708889
-1.54,-3.60,8.14,-0.04,0.09,-0.08,1721206708899
-1.44,0.81,12.82,0.09,0.10,0.02,1721206708909
0.02,1.70,9.02,0.03,0.10,-0.03,1721206708919
-0.84,0.73,11.41,0.01,0.00,-0.08,1721206708929
-1.70,-0.80,7.32,0.11,0.05,-0.04,1721206708939
-1.50,-1.62,8.80,-0.02,0.10,0.02,1721206708949
-1.16,4.31,13.43,0.15,0.02,0.10,1721206708959
0.17,3.26,8.62,0.08,0.02,0.06,1721206708969
0.99,-0.39,11.98,-0.03,0.03,0.01,1721206708979
0.77,-0.18,9.95,0.05,-0.01,-0.03,1721206708989
0.08,-2.65,8.23,-0.08,0.04,-0.03,1721206708999
-0.92,2.56,11.21,0.12,0.03,-0.05,1721206709009
-1.49,-0.43,7.47,0.02,-0.00,-0.01,1721206709019
-2.10,1.80,13.14,0.08,0.02,0.07,1721206709029
-0.85,0.44,9.13,0.01,0.02,0.07,1721206709039
-1.53,1.01,7.34,-0.08,-0.12,0.11,1721206709049
-0.88,1.54,13.64,-0.15,0.07,0.18,1721206709059
-1.06,-0.62,10.83,-0.08,-0.11,0.21,1721206709069
-1.28,1.27,12.31,-0.10,-0.05,0.14,1721206709079
-0.59,-1.30,8.66,-0.19,-0.09,0.17,1721206709089
-1.11,-1.84,12.40,-0.18,-0.11,0.24,1721206709099
-0.18,-0.33,10.28,0.06,-0.09,0.33,1721206709109
0.72,4.10,8.76,0.09,-0.06,0.33,1721206709119
1.05,4.07,6.97,0.09,-0.13,0.26,1721206709129
0.45,0.33,9.99,-0.20,-0.10,0.08,1721206709139
-1.92,-0.06,12.50,-0.13,-0.22,0.14,1721206709149
-2.70,-4.12,7.45,-0.23,-0.16,0.30,1721206709159
-0.85,-4.32,11.43,-0.12,-0.16,0.45,1721206709169
3.01,-3.82,8.91,-0.01,-0.06,0.48,1721206709179
2.66,2.89,10.63,-0.06,-0.09,0.17,1721206709189
-0.25,3.27,11.66,-0.03,-0.26,-0.06,1721206709199
-1.17,0.05,10.54,-0.06,-0.14,-0.01,1721206709209
0.03,-1.60,8.37,0.00,-0.12,0.25,1721206709219
1.89,-3.86,8.38,-0.13,-0.08,0.30,1721206709229
2.14,3.79,16.01,-0.07,-0.07,0.08,1721206709239
1.79,0.59,10.69,-0.01,-0.20,0.02,1721206709249
-0.31,0.12,12.41,-0.17,-0.07,-0.13,1721206709259
0.60,-0.73,8.84,-0.00,-0.13,-0.02,1721206709269
0.71,-4.02,4.88,-0.07,-0.14,0.03,1721206709279
0.46,2.11,13.10,0.08,0.02,-0.06,1721206709289
2.70,-0.77,8.66,0.10,-0.04,-0.09,1721206709299
1.49,-0.60,13.30,0.00,-0.04,-0.08,1721206709309
-0.23,-3.66,11.66,0.01,-0.06,-0.13,1721206709319
-2.28,0.27,11.27,0.06,-0.14,-0.21,1721206709329
0.42,1.31,11.58,0.11,-0.00,0.07,1721206709339
1.59,1.27,9.74,0.20,0.01,0.07,1721206709349
1.67,-1.19,9.31,0.10,0.01,-0.16,1721206709359
1.02,7.30,12.68,0.25,-0.05,-0.14,1721206709369
1.38,-1.23,3.78,0.04,0.00,-0.06,1721206709379
0.68,1.18,13.38,0.01,0.05,-0.09,1721206709389
1.79,-5.09,4.84,0.07,0.00,-0.09,1721206709399
1.21,-0.34,15.01,0.00,0.16,-0.28,1721206709409
0.64,0.95,14.25,0.16,-0.02,-0.29,1721206709419
-1.94,3.65,13.04,0.21,0.04,-0.22,1721206709429
-0.82,1.24,7.58,0.27,0.08,-0.03,1721206709439
1.34,-0.90,5.28,0.13,0.12,-0.00,1721206709449
1.66,3.01,9.86,0.10,0.10,-0.29,1721206709459
0.21,2.24,10.13,0.08,0.07,-0.43,1721206709469
-2.88,0.27,9.88,0.03,0.04,-0.34,1721206709479
-2.17,-1.02,8.40,0.03,0.13,-0.01,1721206709489
1.69,-3.81,7.90,-0.18,0.18,0.07,1721206709499
3.01,1.81,16.46,-0.09,0.11,-0.29,1721206709509
1.18,2.32,12.93,-0.02,0.03,-0.55,1721206709519
-3.59,3.80,11.81,0.00,0.01,-0.48,1721206709529
-4.32,-3.05,7.54,-0.10,0.09,-0.17,1721206709539
-2.62,0.81,11.88,-0.08,0.12,0.12,1721206709549
2.03,1.98,8.84,-0.05,0.13,0.15,1721206709559
2.69,-0.07,6.68,-0.05,0.03,-0.22,1721206709569
1.23,-0.18,9.35,0.01,0.06,-0.46,1721206709579
-1.76,-1.48,8.77,-0.04,0.03,-0.31,1721206709589
-2.17,2.96,9.27,-0.01,0.10,0.01,1721206709599
1.55,-1.71,9.01,-0.21,0.17,-0.01,1721206709609
1.92,1.92,11.69,0.00,0.03,-0.20,1721206709619
0.50,-2.86,6.43,-0.21,0.12,-0.44,1721206709629
-2.67,-1.89,16.08,-0.23,0.01,-0.33,1721206709639
-1.77,1.24,16.81,-0.09,0.20,-0.18,1721206709649
-0.24,-1.57,7.63,-0.01,0.04,-0.01,1721206709659
0.92,3.14,8.58,-0.02,0.26,0.03,1721206709669
1.18,-2.03,5.75,-0.04,0.09,-0.14,1721206709679
0.23,1.82,13.06,-0.08,0.10,-0.31,1721206709689
-0.21,0.33,11.40,0.03,0.07,-0.33,1721206709699
-1.02,-3.16,9.65,-0.07,0.09,-0.21,1721206709709
-2.02,2.68,10.27,0.16,0.10,-0.02,1721206709719
-1.47,-3.90,7.23,-0.08,0.14,-0.04,1721206709729
-1.58,3.86,16.64,0.16,0.05,-0.12,1721206709739
1.28,-2.45,10.10,0.04,0.13,-0.30,1721206709749
-2.04,4.99,15.45,0.15,-0.03,-0.24,1721206709759
-2.40,4.69,6.47,0.23,0.03,-0.04,1721206709769
-1.75,-4.79,7.86,-0.09,0.10,0.02,1721206709779
-1.65,-2.94,11.64,0.15,0.01,-0.02,1721206709789
0.65,-1.41,9.34,0.04,0.13,-0.18,1721206709799
-0.96,4.71,12.65,0.19,-0.08,-0.17,1721206709809
-2.43,2.96,7.49,0.19,-0.02,-0.08,1721206709819
-1.45,-1.09,10.79,0.06,0.04,0.08,1721206709829
-0.34,-0.94,10.17,0.15,0.03,0.09,1721206709839
1.16,-0.92,9.96,0.01,0.01,-0.02,1721206709849
0.52,3.35,12.33,0.17,-0.03,-0.16,1721206709859
-1.90,-1.63,4.15,0.15,-0.14,-0.11,1721206709869
-2.56,-0.15,11.90,0.08,0.04,0.04,1721206709879
-0.29,0.66,10.73,0.15,-0.03,0.14,1721206709889
1.18,4.01,11.70,0.08,-0.01,0.09,1721206709899
0.64,0.81,8.07,0.05,-0.08,-0.05,1721206709909
-0.45,-1.97,7.35,-0.04,-0.10,-0.05,1721206709919
-0.78,-0.06,13.12,-0.01,0.00,0.02,1721206709929
-0.11,1.62,10.17,0.04,-0.04,0.09,1721206709939
0.49,0.25,9.57,0.00,-0.05,0.10,1721206709949
0.90,1.82,9.50,0.05,-0.02,0.01,1721206709959
0.73,-0.68,7.02,-0.01,-0.10,-0.03,1721206709969
-0.94,2.11,11.06,0.01,-0.04,-0.02,1721206709979
-1.08,-0.13,6.17,0.02,-0.10,0.07,1721206709989
-0.46,0.34,9.77,-0.11,-0.02,0.10,1721206709999
0.80,-1.78,10.46,-0.11,-0.09,0.10,1721206710009
0.85,-2.59,13.43,-0.23,-0.01,0.05,1721206710019
-0.78,1.02,13.91,-0.17,-0.11,-0.05,1721206710029
-0.87,1.66,13.98,-0.18,-0.01,-0.04,1721206710039
-0.66,1.36,8.12,-0.09,-0.17,0.07,1721206710049
0.85,2.31,8.58,-0.14,0.04,0.11,1721206710059
1.16,-2.94,11.17,-0.26,-0.07,0.05,1721206710069
-1.67,0.84,12.17,-0.17,-0.12,-0.17,1721206710079
-2.34,1.14,9.77,-0.11,-0.02,-0.19,1721206710089
-2.14,0.21,9.59,-0.10,-0.14,0.06,1721206710099
0.67,-1.91,8.60,0.04,-0.02,0.33,1721206710109
2.64,-0.42,10.05,0.07,0.02,0.17,1721206710119
0.65,0.34,8.91,0.08,-0.12,-0.17,1721206710129
0.47,2.69,12.06,-0.02,0.01,-0.39,1721206710139
-0.36,-0.59,14.18,0.06,-0.20,-0.07,1721206710149
-0.32,-0.62,11.91,0.01,-0.18,-0.05,1721206710164
1.41,-2.51,10.03,0.05,-0.11,0.18,1721206710168
1.06,-0.83,10.60,0.02,0.07,-0.12,1721206710178
1.60,4.53,11.24,0.11,-0.00,-0.37,1721206710188
0.87,-0.59,8.86,0.14,-0.02,-0.29,1721206710198
0.27,-0.38,8.36,0.20,0.08,-0.11,1721206710208
0.94,-2.83,8.99,0.10,0.15,-0.03,1721206710218
0.07,4.15,12.29,0.17,0.01,-0.17,1721206710228
1.48,0.36,9.85,0.01,0.07,-0.33,1721206710238
1.40,2.05,9.92,0.23,0.05,-0.31,1721206710248
0.89,-4.75,4.77,0.04,0.17,-0.29,1721206710258
-1.52,-0.77,13.52,0.05,0.14,-0.31,1721206710268
-1.61,-0.60,10.82,0.10,0.07,-0.26,1721206710278
0.05,0.86,10.84,0.13,0.12,-0.12,1721206710288
2.28,4.13,7.76,0.24,0.23,-0.15,1721206710298
1.90,-1.64,7.37,-0.02,0.17,-0.39,1721206710308
-1.27,-2.20,13.52,0.04,0.08,-0.55,1721206710318
-3.23,0.14,12.44,0.09,0.15,-0.44,1721206710328
-3.11,-0.00,9.44,0.08,0.12,-0.02,1721206710338
-0.10,3.83,7.94,0.14,0.20,0.07,1721206710348
3.65,-0.86,7.49,-0.02,0.20,-0.13,1721206710358
2.37,-0.20,10.47,-0.04,0.10,-0.43,1721206710368
-0.13,0.97,11.70,-0.05,0.16,-0.42,1721206710378
-2.11,3.12,10.02,-0.04,0.16,-0.25,1721206710388
-2.09,0.28,8.81,-0.16,0.17,-0.14,1721206710398
-1.56,-0.11,11.83,-0.08,0.18,-0.12,1721206710408
-0.37,-0.63,12.88,-0.13,0.17,-0.10,1721206710418
-0.04,3.52,12.81,-0.01,0.12,-0.05,1721206710428
-0.30,3.84,10.01,-0.11,0.18,-0.18,1721206710438
-1.89,1.10,9.61,-0.15,0.07,-0.19,1721206710448
-1.82,-3.42,10.11,-0.22,0.13,-0.08,1721206710458
-0.21,0.21,11.81,-0.04,0.16,0.05,1721206710468
0.90,-0.13,7.22,-0.16,0.12,-0.02,1721206710478
0.12,2.99,13.35,-0.07,0.08,-0.24,1721206710488
0.17,-2.04,7.14,-0.01,0.04,-0.24,1721206710498
-0.96,-1.32,12.12,-0.14,0.17,-0.01,1721206710508
-0.72,0.16,10.89,-0.04,0.20,-0.09,1721206710518
0.08,4.74,11.87,-0.05,0.16,-0.28,1721206710528
0.01,-1.18,4.88,0.03,-0.01,-0.30,1721206710538
-0.74,-5.29,7.72,-0.16,0.21,-0.14,1721206710548
-2.08,-3.04,14.54,-0.13,0.19,-0.07,1721206710558
-2.15,1.98,12.54,-0.04,0.05,-0.11,1721206710568
-0.17,2.60,10.52,-0.01,0.10,-0.15,1721206710578
-1.13,-0.18,9.01,0.01,0.06,-0.01,1721206710588
-3.01,-3.69,8.93,-0.09,0.10,0.09,1721206710598
0.52,-0.34,12.70,-0.02,0.15,0.04,1721206710608
2.09,-1.00,7.94,-0.01,0.00,0.03,1721206710618
-0.29,-1.91,9.17,-0.05,0.08,-0.17,1721206710628
-2.35,-1.15,10.39,0.02,0.02,-0.15,1721206710638
-1.07,-1.70,12.36,0.04,0.06,0.02,1721206710648
1.50,2.68,12.90,0.08,0.10,0.21,1721206710658
-0.46,0.04,7.70,-0.04,-0.00,-0.03,1721206710668
-1.06,0.43,13.24,-0.07,0.04,-0.16,1721206710678
-0.52,-0.87,9.96,0.11,-0.01,-0.07,1721206710688
-1.61,1.96,9.65,0.11,0.06,0.06,1721206710698
-1.74,0.92,9.74,0.13,0.06,0.00,1721206710708
-0.08,0.32,7.36,0.16,-0.02,0.06,1721206710718
0.48,2.78,10.65,0.21,0.06,-0.01,1721206710728
0.13,1.98,10.63,0.09,-0.01,-0.13,1721206710738
-1.88,1.21,12.89,0.13,-0.06,-0.09,1721206710748
-2.48,-0.51,7.75,0.10,0.03,-0.01,1721206710758
-1.08,1.70,12.16,0.04,0.06,0.10,1721206710768
1.02,2.40,12.36,0.13,-0.02,0.10,1721206710778
1.83,2.26,11.36,0.15,0.03,0.01,1721206710788
0.81,0.22,9.33,0.10,-0.03,-0.17,1721206710798
-0.14,0.53,9.20,0.14,-0.05,-0.17,1721206710808
-0.81,1.26,13.11,0.06,0.11,-0.14,1721206710818
-2.97,2.36,10.75,0.22,-0.11,-0.09,1721206710828
-2.42,-0.71,6.35,0.16,-0.03,0.04,1721206710838
0.11,-0.39,9.87,0.12,0.06,0.17,1721206710848
0.73,2.79,9.17,0.11,-0.02,0.03,1721206710858
-0.94,3.58,12.03,-0.02,-0.01,-0.25,1721206710868
-2.63,-1.24,8.90,0.01,-0.15,-0.06,1721206710878
-1.73,-2.40,8.56,-0.10,0.03,0.23,1721206710888
-0.09,0.53,11.55,-0.06,0.01,0.32,1721206710898
0.14,-1.27,9.08,-0.16,-0.07,0.07,1721206710908
0.50,-0.77,12.89,0.01,-0.10,-0.03,1721206710918
1.15,-5.75,2.90,0.03,-0.11,0.16,1721206710928
-0.38,1.10,10.97,-0.06,0.05,0.10,1721206710938
-0.14,3.38,12.01,-0.04,-0.05,-0.05,1721206710948
-0.41,0.80,10.25,-0.02,-0.14,-0.06,1721206710958
0.79,-4.87,7.57,-0.05,0.02,0.19,1721206710968
-1.05,0.11,9.51,-0.16,0.02,0.11,1721206710978
-1.57,-0.30,12.75,-0.15,-0.11,-0.01,1721206710988
1.16,-1.88,13.77,-0.08,-0.06,0.04,1721206710998
3.41,-2.03,6.73,-0.01,-0.05,0.20,1721206711008
1.90,0.91,9.89,-0.18,0.09,-0.07,1721206711018
1.10,-2.12,15.23,-0.17,-0.03,-0.30,1721206711028
1.15,-1.14,12.45,0.03,0.01,-0.26,1721206711038
-0.87,0.54,7.70,0.03,0.04,-0.13,1721206711048
-2.46,3.22,11.66,0.00,0.14,-0.11,1721206711058
0.49,-1.94,9.78,0.09,-0.01,0.04,1721206711068
3.29,0.84,9.95,0.08,0.21,-0.05,1721206711078
1.22,2.58,9.34,0.09,0.07,-0.36,1721206711088
-1.98,0.61,9.13,0.07,0.03,-0.29,1721206711098
-1.50,-0.13,8.98,0.10,0.13,-0.08,1721206711108
0.10,-3.86,10.29,0.01,0.18,-0.01,1721206711118
0.19,1.59,13.88,0.13,0.07,-0.10,1721206711128
1.53,1.16,7.92,0.16,0.06,-0.06,1721206711138
1.96,4.94,12.08,0.13,0.20,-0.19,1721206711148
0.93,3.12,8.91,0.21,0.01,-0.28,1721206711158
-1.01,-0.74,8.25,0.00,0.16,-0.33,1721206711168
-1.85,-0.10,7.35,0.10,0.09,-0.16,1721206711178
-0.81,-0.12,8.78,-0.09,0.24,-0.05,1721206711188
-0.30,-2.23,11.75,0.01,0.08,-0.07,1721206711198
1.18,-2.74,11.51,0.05,0.22,-0.04,1721206711208
1.40,0.86,11.45,0.09,0.16,-0.13,1721206711218
0.07,1.08,10.67,0.04,0.09,-0.20,1721206711228
-0.62,5.64,13.43,0.14,0.19,-0.21,1721206711238
-1.19,2.45,10.70,-0.00,0.13,-0.10,1721206711248
-1.57,0.27,9.92,0.04,0.10,0.02,1721206711258
2.18,-1.21,9.33,-0.04,0.28,0.05,1721206711268
2.18,5.06,10.45,0.08,0.14,-0.16,1721206711278
-1.24,2.55,8.15,-0.05,0.12,-0.41,1721206711288
-3.37,0.69,9.68,0.07,0.06,-0.27,1721206711298
-1.41,-2.29,10.50,-0.07,0.24,0.15,1721206711308
0.74,2.46,11.41,-0.02,0.20,0.13,1721206711318
1.45,0.10,8.78,-0.14,0.12,-0.23,1721206711328
1.00,-0.95,13.05,-0.06,0.12,-0.40,1721206711338
-2.81,-5.65,6.72,-0.07,0.05,-0.28,1721206711348
-6.32,2.93,10.02,0.02,0.10,-0.22,1721206711358
-1.19,-3.82,8.90,-0.16,0.17,0.17,1721206711368
1.04,0.14,14.53,0.02,0.17,0.20,1721206711378
0.79,0.80,7.68,-0.01,0.08,-0.22,1721206711388
-1.63,-7.49,11.29,-0.26,0.04,-0.35,1721206711398
-4.42,-1.22,16.63,0.14,0.00,-0.02,1721206711408
-4.41,0.45,8.36,0.05,0.06,0.15,1721206711418
-1.32,1.76,14.57,0.00,0.03,0.29,1721206711428
1.77,-3.07,5.62,0.11,-0.04,0.26,1721206711438
0.75,1.15,10.40,0.00,0.10,0.07,1721206711448
-1.63,-0.09,8.99,0.12,-0.07,-0.04,1721206711458
-2.93,-3.57,2.86,0.04,-0.14,0.23,1721206711468
-1.42,-0.77,13.57,0.05,0.12,0.43,1721206711478
1.99,-1.94,7.99,0.15,-0.12,0.45,1721206711488
3.87,-2.22,9.70,-0.08,0.04,0.24,1721206711498
3.34,1.42,14.82,-0.02,-0.06,-0.05,1721206711508
-1.07,1.46,11.54,-0.03,-0.13,-0.17,1721206711518
-3.75,2.44,5.57,0.16,-0.15,-0.00,1721206711528
-3.10,-7.81,3.12,-0.27,-0.03,0.34,1721206711538
-1.30,-1.62,22.45,-0.23,-0.05,0.41,1721206711548
3.06,7.03,20.06,0.17,-0.07,0.18,1721206711558
0.11,4.75,4.10,0.11,-0.27,-0.19,1721206711568
-3.82,-0.10,4.76,0.04,-0.19,0.05,1721206711578
-3.00,1.99,12.18,0.07,-0.10,0.45,1721206711588
2.68,5.62,11.80,0.25,-0.09,0.61,1721206711598
5.82,0.95,5.76,0.16,-0.14,0.25,1721206711608
5.97,6.56,11.15,0.16,-0.22,-0.00,1721206711618
0.37,-4.21,1.69,0.16,-0.49,-0.05,1721206711628
0.78,-0.25,11.63,0.13,0.26,-0.08,1721206711638
1.29,-0.23,11.92,0.18,-0.05,-0.29,1721206711648
-5.74,1.64,11.92,0.09,-0.20,-0.30,1721206711658
-5.91,6.12,12.45,0.16,0.01,0.12,1721206711668
-3.58,-1.74,4.17,-0.14,-0.11,0.49,1721206711678
0.67,-6.90,14.00,-0.27,0.06,0.57,1721206711688
5.66,-2.60,12.11,0.19,-0.14,0.40,1721206711698
6.84,3.57,4.07,0.08,-0.07,-0.08,1721206711708
3.38,3.70,12.28,0.04,-0.13,-0.40,1721206711718
-1.35,-0.56,10.81,0.00,-0.13,-0.27,1721206711728
-3.66,1.74,12.04,0.03,-0.04,-0.09,1721206711738
-1.69,1.26,12.09,-0.08,0.02,0.07,1721206711748
-0.71,1.90,10.98,-0.03,-0.15,0.11,1721206711758
0.41,-3.11,8.79,-0.18,-0.00,0.00,1721206711768
-0.06,-2.98,11.32,-0.06,-0.09,-0.05,1721206711778
0.12,-0.37,10.16,-0.05,-0.07,-0.00,1721206711788
0.19,4.68,8.58,0.13,-0.09,-0.04,1721206711798
1.12,-0.67,3.02,-0.09,-0.04,-0.11,1721206711808
0.22,-4.17,10.59,-0.20,-0.04,-0.18,1721206711818
0.06,-2.88,13.23,-0.10,-0.05,-0.26,1721206711828
-3.19,3.56,7.88,0.07,-0.18,-0.22,1721206711838
-2.87,-1.19,4.41,-0.18,-0.02,-0.00,1721206711848
-0.49,-2.73,12.37,-0.16,-0.02,0.16,1721206711858
2.08,-0.93,11.58,-0.13,-0.04,0.06,1721206711868
1.03,4.48,5.83,-0.05,-0.15,-0.17,1721206711878
-0.00,-5.66,3.33,-0.41,-0.05,-0.25,1721206711888
-3.71,-7.70,21.24,-0.40,-0.15,-0.13,1721206711898
-1.52,4.80,21.16,0.01,-0.09,0.07,1721206711908
0.67,12.53,8.34,0.02,-0.09,0.21,1721206711918
2.12,2.21,1.03,-0.39,-0.02,0.11,1721206711928
1.74,-6.74,11.98,-0.43,0.02,-0.23,1721206711938
1.45,-4.64,9.91,-0.03,-0.13,-0.25,1721206711948
-0.62,4.89,5.81,0.09,-0.03,-0.13,1721206711958
-0.01,4.71,8.02,-0.01,-0.02,0.06,1721206711968
2.07,-5.72,13.36,-0.34,0.03,0.02,1721206711978
1.99,1.00,20.82,-0.18,0.04,-0.21,1721206711988
0.79,0.87,9.85,-0.04,-0.13,-0.31,1721206711998
-0.91,4.85,10.03,0.02,0.02,-0.24,1721206712008
-0.34,-3.06,5.92,0.04,0.01,-0.18,1721206712018
-2.08,-0.91,15.17,-0.02,0.02,-0.18,1721206712028
-0.52,3.56,14.32,0.11,-0.00,-0.08,1721206712038
0.94,4.63,9.26,0.09,0.01,-0.06,1721206712048
1.35,1.41,9.08,0.09,0.05,-0.13,1721206712058
0.70,-2.92,10.40,0.14,0.05,-0.26,1721206712068
-0.23,-1.31,9.91,0.27,0.01,-0.25,1721206712078
-0.91,3.52,8.75,0.25,0.06,-0.21,1721206712088
0.18,2.11,11.44,0.19,0.06,-0.12,1721206712098
0.51,-0.55,12.83,0.22,0.07,-0.15,1721206712108
1.43,-1.54,6.94,0.29,0.04,-0.23,1721206712118
0.49,3.43,9.22,0.19,0.15,-0.34,1721206712128
-2.13,2.50,12.74,0.16,0.01,-0.32,1721206712138
-2.27,-4.24,15.48,0.03,0.09,-0.17,1721206712148
-0.23,1.34,13.58,0.37,0.06,0.07,1721206712158
3.12,7.58,8.74,0.22,0.23,-0.14,1721206712173
3.06,5.60,7.52,0.22,0.07,-0.26,1721206712177
1.88,-3.80,8.53,0.09,0.14,-0.46,1721206712187
-1.27,-1.88,15.60,0.27,0.13,-0.41,1721206712197
-1.81,0.28,6.15,0.27,0.11,-0.25,1721206712207
-2.16,8.05,10.36,0.21,0.16,-0.24,1721206712217
-0.81,0.97,6.93,0.04,0.15,-0.20,1721206712227
-1.52,-4.02,11.43,0.02,0.10,-0.16,1721206712237
-0.04,-4.19,8.22,0.17,0.16,-0.10,1721206712247
0.73,2.70,8.92,0.08,0.17,-0.19,1721206712257
-0.50,2.35,9.64,0.02,0.09,-0.24,1721206712267
-1.69,-2.21,10.40,-0.01,0.08,-0.19,1721206712277
-0.71,-2.07,10.44,0.07,0.19,-0.07,1721206712287
0.35,1.51,7.26,0.05,0.12,-0.07,1721206712297
0.73,2.82,9.67,-0.10,0.16,-0.15,1721206712307
-0.24,-0.58,11.03,-0.11,0.10,-0.22,1721206712317
-0.80,-1.99,12.16,-0.07,0.17,-0.18,1721206712327
-1.13,-2.52,7.40,-0.11,0.10,-0.11,1721206712337
-0.08,1.95,9.91,-0.13,0.16,-0.08,1721206712347
2.43,-0.87,8.92,-0.16,0.18,-0.11,1721206712357
0.47,-0.47,12.83,-0.08,0.13,-0.21,1721206712367
-0.84,0.06,8.48,0.03,0.10,-0.21,1721206712377
-0.23,3.50,9.50,-0.10,0.24,-0.18,1721206712387
-0.74,0.58,10.79,-0.19,0.15,-0.24,1721206712397
-1.00,1.44,18.68,-0.15,0.19,-0.18,1721206712407
-1.81,-0.41,5.26,0.15,0.09,-0.21,1721206712417
-6.38,4.64,3.70,-0.06,0.06,-0.30,1721206712427
-5.66,-5.18,7.81,-0.36,0.10,0.14,1721206712437
0.45,-0.72,23.11,-0.06,0.17,0.62,1721206712447
7.64,7.46,7.80,0.35,0.09,0.29,1721206712457
7.78,5.92,5.98,-0.13,0.11,-0.33,1721206712467
1.05,2.21,13.48,-0.04,-0.10,-0.72,1721206712477
-4.08,-4.48,8.75,-0.15,0.03,-0.47,1721206712487
-6.49,1.12,17.93,-0.04,0.17,-0.05,1721206712497
-4.72,4.36,5.47,0.20,-0.03,0.17,1721206712507
-2.54,1.98,6.40,-0.02,0.10,0.29,1721206712517
1.47,-2.39,13.44,0.01,0.10,0.31,1721206712527
3.39,-0.45,12.53,-0.09,0.09,0.13,1721206712537
2.06,1.20,11.48,0.05,-0.01,-0.12,1721206712547
0.02,0.72,6.38,-0.01,-0.00,-0.12,1721206712557
-1.74,-0.84,11.35,0.03,0.00,0.02,1721206712567
-0.67,-1.52,8.05,0.09,0.03,0.20,1721206712577
1.26,0.72,10.21,-0.02,0.06,0.15,1721206712587
0.93,2.28,11.19,0.09,0.01,-0.03,1721206712597
-0.45,0.62,5.58,-0.04,-0.01,-0.10,1721206712607
-2.00,-3.98,10.34,-0.17,0.04,0.02,1721206712617
-1.25,-3.33,11.21,0.01,-0.00,0.18,1721206712627
0.85,-1.05,8.99,-0.13,0.08,0.16,1721206712637
0.08,2.22,13.12,-0.04,-0.08,0.07,1721206712647
0.32,2.10,7.85,-0.03,-0.02,-0.00,1721206712657
-0.12,-1.15,6.97,-0.02,-0.03,0.11,1721206712667
0.87,-2.05,6.73,-0.15,0.06,0.12,1721206712677
1.12,1.70,13.75,-0.18,0.02,-0.02,1721206712687
0.10,-3.32,11.46,-0.25,-0.07,-0.07,1721206712697
-1.79,-0.28,15.33,-0.19,-0.04,-0.06,1721206712707
-1.29,-2.88,8.31,-0.17,-0.05,0.11,1721206712717
-0.55,4.54,12.31,-0.11,0.00,0.13,1721206712727
1.78,-2.18,11.08,-0.20,-0.02,0.06,1721206712737
0.13,-2.64,15.30,-0.17,-0.04,-0.12,1721206712747
-0.97,0.84,10.54,-0.00,-0.08,-0.08,1721206712757
-1.43,2.54,9.88,-0.05,-0.03,0.07,1721206712767
-0.17,3.92,12.77,0.07,-0.04,0.09,1721206712777
0.93,2.26,9.83,0.11,-0.08,0.07,1721206712787
0.45,1.54,10.16,0.05,-0.06,-0.12,1721206712797
-0.15,1.36,10.22,0.08,-0.10,-0.12,1721206712807
-1.18,1.29,9.60,0.01,-0.07,-0.03,1721206712817
-1.45,0.62,12.79,0.06,-0.05,-0.02,1721206712827
-0.59,-0.00,9.02,0.17,-0.09,0.02,1721206712837
-0.16,4.87,9.60,0.26,-0.04,0.01,1721206712847
0.53,1.57,6.22,0.10,-0.07,0.01,1721206712857
0.31,-2.54,13.51,-0.08,-0.04,-0.06,1721206712867
0.58,0.85,12.26,0.26,-0.13,-0.06,1721206712877
1.51,1.47,5.60,0.17,0.01,-0.04,1721206712887
0.94,0.18,6.22,0.08,-0.09,-0.08,1721206712897
0.83,-1.81,12.72,0.00,-0.00,-0.15,1721206712907
0.27,1.20,13.94,0.19,-0.06,-0.22,1721206712917
-0.96,3.26,8.63,0.11,-0.06,-0.21,1721206712927
-1.90,1.70,7.72,-0.00,-0.09,-0.08,1721206712937
-0.42,-6.13,9.56,-0.22,0.04,0.01,1721206712947
0.11,0.88,20.79,0.01,0.01,-0.09,1721206712957
-0.23,6.54,9.79,0.22,-0.15,-0.13,1721206712967
-1.04,1.36,0.42,-0.01,-0.11,-0.05,1721206712977
-0.25,-2.61,10.46,-0.12,0.09,0.02,1721206712987
0.52,-1.32,11.65,0.06,-0.11,-0.02,1721206712997
0.28,1.68,9.17,0.08,-0.08,-0.04,1721206713007
1.03,0.00,9.58,-0.05,0.05,-0.06,1721206713017
0.49,1.01,13.35,-0.03,-0.09,-0.05,1721206713027
0.79,-0.21,11.61,-0.07,0.03,-0.15,1721206713037
-0.49,-2.97,12.02,-0.14,-0.04,-0.18,1721206713047
-1.45,3.24,11.25,0.14,-0.04,-0.13,1721206713057
0.31,0.82,4.31,0.05,0.03,0.01,1721206713067
1.26,-0.61,11.71,-0.07,0.05,-0.03,1721206713077
1.28,-1.13,13.48,-0.02,0.04,-0.25,1721206713087
-0.83,0.06,9.96,-0.01,-0.07,-0.35,1721206713097
-3.01,2.29,6.52,0.04,-0.03,-0.20,1721206713107
-1.82,1.28,7.97,0.03,0.07,0.05,1721206713117
1.36,-2.33,7.97,0.01,0.09,0.01,1721206713127
1.70,-1.03,10.41,-0.06,-0.02,-0.22,1721206713137
-1.36,2.40,5.93,0.01,-0.05,-0.34,1721206713147
-0.96,-1.40,13.61,-0.32,0.16,-0.24,1721206713157
-2.01,-2.12,14.62,-0.10,-0.14,-0.08,1721206713167
-0.06,1.34,6.45,0.00,0.08,-0.04,1721206713177
0.84,1.14,9.26,-0.19,0.07,-0.14,1721206713187
-1.08,0.37,14.01,-0.25,-0.05,-0.14,1721206713197
-1.44,0.79,12.36,-0.12,0.03,-0.16,1721206713207
-0.69,-1.65,3.61,-0.02,-0.09,-0.09,1721206713217
-0.03,-0.65,8.84,-0.12,0.09,-0.10,1721206713227
0.88,2.13,12.93,0.09,-0.01,-0.06,1721206713237
0.29,0.64,12.48,-0.03,-0.01,-0.13,1721206713247
-0.05,3.83,14.23,0.01,0.03,-0.16,1721206713257
0.04,4.16,9.61,0.10,-0.02,-0.21,1721206713267
-0.86,-0.17,5.83,0.07,-0.00,-0.11,1721206713277
-1.39,0.47,8.62,0.08,0.10,-0.13,1721206713287
-0.69,-1.17,10.10,0.12,-0.01,-0.06,1721206713297
0.57,2.28,11.59,0.15,0.04,-0.05,1721206713307
1.23,2.59,7.86,0.14,0.03,-0.13,1721206713317
0.38,-0.29,9.10,-0.01,-0.01,-0.19,1721206713327
-1.57,-1.80,12.26,0.04,0.04,-0.23,1721206713337
-0.78,-0.91,11.66,0.12,0.01,-0.09,1721206713347
0.25,-0.36,6.82,0.07,0.06,-0.02,1721206713357
0.51,1.04,15.02,-0.05,0.09,-0.16,1721206713367
0.88,1.04,13.17,0.11,-0.06,-0.15,1721206713377
0.98,-0.80,7.80,0.03,0.09,-0.16,1721206713387
0.74,-1.28,8.41,0.02,0.09,-0.16,1721206713397
-0.38,-2.32,13.97,-0.03,0.09,-0.25,1721206713407
-1.00,1.28,17.81,0.15,0.03,-0.22,1721206713417
-0.52,1.76,9.66,0.23,0.08,-0.04,1721206713427
0.34,6.41,6.14,0.26,0.15,0.01,1721206713437
1.98,-0.62,6.96,0.06,0.18,-0.20,1721206713447
0.13,-2.27,9.06,0.12,-0.02,-0.28,1721206713457
-0.69,-0.40,8.43,0.14,0.16,-0.21,1721206713467
-0.92,2.26,9.04,0.13,0.08,-0.05,1721206713477
0.25,0.88,9.57,0.04,0.12,-0.07,1721206713487
0.97,-3.24,10.95,-0.01,0.11,-0.14,1721206713497
0.37,0.38,14.42,0.03,0.14,-0.18,1721206713507
-0.41,2.20,10.54,0.13,0.09,-0.21,1721206713517
-0.62,-0.33,7.74,-0.02,0.16,-0.16,1721206713527
-0.08,0.22,12.91,-0.03,0.18,-0.09,1721206713537
0.92,-0.83,10.82,-0.01,0.13,-0.17,1721206713547
0.83,0.75,9.20,0.01,0.14,-0.29,1721206713557
-0.13,-0.87,6.87,-0.09,0.17,-0.32,1721206713567
-1.39,2.88,11.95,-0.00,0.15,-0.25,1721206713577
-1.27,-1.81,8.09,-0.10,0.18,-0.19,1721206713587
-1.77,2.06,15.17,-0.01,0.13,-0.16,1721206713597
-0.36,1.55,8.08,-0.05,0.15,-0.12,1721206713607
0.32,2.06,10.77,-0.17,0.17,-0.14,1721206713617
1.06,-0.08,8.78,-0.09,0.14,-0.18,1721206713627
-0.08,-1.19,8.20,-0.12,0.15,-0.34,1721206713637
-2.38,1.10,8.31,-0.05,0.09,-0.32,1721206713647
-2.55,-3.38,11.12,-0.27,0.22,-0.12,1721206713657
-2.29,-0.44,15.41,-0.10,0.09,-0.03,1721206713667
-0.31,-0.12,8.49,-0.10,0.11,0.00,1721206713677
0.23,-2.37,6.50,-0.10,0.09,-0.02,1721206713687
1.19,-1.13,11.82,-0.12,0.21,-0.16,1721206713697
-0.01,3.00,13.69,-0.06,0.02,-0.20,1721206713707
-1.37,2.75,11.39,-0.09,0.13,-0.18,1721206713717
-1.75,-1.44,8.89,-0.23,0.09,-0.05,1721206713727
-0.68,-2.26,9.79,-0.23,0.15,0.08,1721206713737
0.80,1.63,11.04,-0.13,0.10,0.03,1721206713747
1.12,-0.01,9.57,-0.09,0.08,-0.14,1721206713757
-0.31,0.58,9.28,-0.03,0.03,-0.16,1721206713767
-1.64,-0.43,10.80,-0.06,0.11,-0.04,1721206713777
-1.43,1.79,11.07,0.01,0.09,0.09,1721206713787
0.23,2.07,9.85,0.03,0.09,0.12,1721206713797
0.43,1.17,9.10,0.09,0.06,0.05,1721206713807
0.61,-3.46,6.70,-0.01,0.10,-0.05,1721206713817
-0.16,1.98,14.43,0.05,0.10,-0.01,1721206713827
-0.13,5.37,14.30,0.04,0.09,0.03,1721206713837
-0.74,1.24,8.52,0.01,-0.02,-0.00,1721206713847
-0.36,-6.42,8.33,-0.07,0.05,0.11,1721206713857
0.46,-0.75,14.15,0.04,0.15,0.10,1721206713867
0.76,6.91,13.71,0.20,0.09,-0.00,1721206713877
-1.15,4.01,8.30,0.12,-0.05,-0.12,1721206713887
-2.46,-4.20,5.74,0.22,-0.03,-0.01,1721206713897
-0.45,-2.41,8.35,0.21,0.12,0.31,1721206713907
0.64,5.23,9.30,0.30,0.02,0.25,1721206713917
1.33,1.74,11.56,0.02,0.02,-0.06,1721206713927
-0.68,-4.30,10.91,0.04,-0.14,-0.10,1721206713937
-1.70,-1.69,12.39,0.04,0.09,0.04,1721206713947
-1.39,2.45,11.62,0.17,-0.04,0.26,1721206713957
-0.09,3.32,10.72,0.06,0.02,0.14,1721206713967
0.91,-1.12,8.07,0.16,-0.08,0.07,1721206713977
0.41,-5.49,7.79,0.02,0.01,0.05,1721206713987
0.98,3.81,14.23,0.19,0.06,0.05,1721206713997
0.66,4.61,7.45,0.10,-0.09,-0.03,1721206714007
-1.61,-2.17,9.53,0.02,-0.06,-0.09,1721206714017
-2.28,-2.64,7.83,0.14,-0.05,0.07,1721206714027
-0.49,0.14,9.62,0.07,0.03,0.25,1721206714037
1.54,5.04,11.45,0.11,-0.03,0.13,1721206714047
1.21,-0.68,9.95,-0.02,-0.07,-0.10,1721206714057
-0.79,-2.67,10.33,0.03,-0.10,-0.11,1721206714067
-1.49,1.80,10.65,0.07,-0.04,0.02,1721206714077
-0.04,0.61,8.71,0.02,-0.06,0.19,1721206714087
1.34,1.01,10.84,0.09,-0.00,0.04,1721206714097
1.96,1.33,5.58,0.17,-0.11,-0.06,1721206714107
1.41,1.53,9.44,-0.01,0.02,-0.07,1721206714117
-1.61,2.19,7.85,0.10,0.14,0.08,1721206714644
-0.18,-0.22,7.18,0.05,0.18,0.13,1721206714648
1.93,-1.20,9.80,0.08,0.18,0.01,1721206714657
1.28,-2.26,7.41,0.08,0.08,-0.24,1721206714667
-0.91,0.45,12.06,0.07,0.14,-0.30,1721206714676
-3.12,1.11,12.39,0.13,0.07,-0.16,1721206714686
-3.14,1.56,9.02,0.15,0.06,0.09,1721206714695
0.24,0.47,6.22,0.03,0.16,0.17,1721206714705
2.16,-1.26,12.38,-0.07,0.15,-0.02,1721206714714
1.45,-0.70,14.18,0.02,0.02,-0.18,1721206714724
-0.50,3.77,9.61,0.12,0.09,-0.22,1721206714733
-1.60,-0.25,5.79,-0.07,0.14,-0.11,1721206714743
-2.28,-0.34,12.55,-0.11,0.11,-0.05,1721206714752
-0.23,-0.38,12.63,-0.04,0.12,0.04,1721206714762
0.31,1.51,10.96,-0.04,0.09,-0.07,1721206714771
0.17,3.62,6.55,0.05,0.05,-0.10,1721206714781
-0.24,0.32,7.66,-0.08,0.13,-0.09,1721206714791
-0.15,5.62,8.23,0.23,0.06,-0.07,1721206714801
0.69,-4.76,1.64,-0.26,0.08,-0.08,1721206714811
-1.62,-2.46,23.32,-0.29,0.05,-0.08,1721206714821
-0.40,2.80,17.73,0.14,0.06,-0.03,1721206714831
0.29,5.61,2.78,0.03,0.02,0.02,1721206714841
1.57,-3.00,5.78,-0.20,0.12,-0.03,1721206714851
1.13,-1.20,14.96,0.07,0.08,-0.14,1721206714861
-1.35,7.55,9.85,0.26,0.00,-0.26,1721206714871
-3.14,1.10,4.79,-0.01,-0.00,-0.13,1721206714881
-2.71,-3.79,9.26,-0.11,0.07,0.17,1721206714891
1.95,1.17,13.84,0.00,0.19,0.31,1721206714901
3.45,1.06,8.61,-0.05,0.04,0.04,1721206714911
1.79,0.45,11.68,-0.07,0.03,-0.35,1721206714921
-1.34,-4.28,6.84,-0.02,-0.04,-0.25,1721206714931
-2.91,0.43,11.58,-0.11,0.11,0.01,1721206714941
-1.75,1.23,15.22,-0.03,0.08,0.14,1721206714951
-0.28,0.92,8.61,0.08,-0.04,0.13,1721206714961
0.46,-3.41,4.88,-0.02,0.06,0.10,1721206714971
1.89,-1.12,14.08,-0.11,0.14,0.00,1721206714981
0.87,0.45,12.31,0.05,-0.04,-0.09,1721206714991
-1.47,1.50,7.55,0.03,0.00,-0.17,1721206715001
-2.93,-1.28,9.30,0.06,-0.02,0.01,1721206715011
-1.85,4.08,13.32,0.13,0.04,0.16,1721206715021
1.32,1.50,10.21,0.03,0.01,0.21,1721206715031
1.81,-1.25,10.68,-0.12,0.01,-0.02,1721206715041
0.94,0.59,7.42,0.05,-0.06,-0.17,1721206715051
-1.40,-1.00,8.79,-0.09,-0.00,-0.19,1721206715061
-2.96,-2.28,7.45,0.08,-0.10,0.00,1721206715071
-1.92,0.54,10.85,-0.01,0.07,0.16,1721206715081
0.37,-1.78,14.70,-0.10,-0.03,0.14,1721206715091
1.79,-0.53,14.81,-0.04,-0.02,0.07,1721206715101
1.92,2.29,6.38,0.05,-0.05,-0.09,1721206715111
0.27,-2.04,10.43,-0.15,-0.03,-0.17,1721206715121
-1.56,-2.87,14.52,0.00,-0.07,-0.15,1721206715131
-1.52,-0.26,9.96,0.08,-0.03,-0.02,1721206715141
-1.28,4.57,9.57,0.05,-0.03,0.04,1721206715151
-0.15,2.90,13.34,-0.01,0.00,-0.01,1721206715161
-0.23,-1.55,5.86,0.10,-0.16,-0.03,1721206715171
-0.08,-1.02,8.18,-0.02,0.04,-0.04,1721206715181
-0.29,0.59,10.20,0.00,-0.10,-0.05,1721206715191
-0.61,1.49,10.83,-0.00,-0.03,-0.03,1721206715201
-0.12,-0.20,8.85,0.01,-0.07,-0.04,1721206715211
-0.41,0.12,7.59,0.04,-0.05,0.02,1721206715221
0.24,-3.27,9.16,-0.16,-0.00,0.02,1721206715231
0.56,0.20,19.83,-0.04,-0.00,-0.08,1721206715241
-0.21,3.02,12.33,0.15,-0.08,-0.16,1721206715251
-1.90,-1.62,5.54,-0.09,-0.13,-0.12,1721206715261
-1.83,0.31,15.86,0.04,0.01,0.00,1721206715271
0.78,2.61,8.29,0.18,-0.08,0.06,1721206715281
1.11,1.92,7.28,0.02,-0.09,-0.00,1721206715291
1.62,-1.33,13.32,0.00,0.04,-0.19,1721206715301
0.26,1.11,8.03,0.19,-0.17,-0.22,1721206715311
-0.71,3.95,7.69,0.05,0.03,-0.18,1721206715321
0.44,-0.46,14.38,-0.03,0.01,-0.07,1721206715331
0.73,1.83,12.06,0.17,-0.06,-0.06,1721206715341
1.92,0.27,4.93,0.04,0.07,-0.19,1721206715351
0.58,0.15,9.21,-0.10,-0.01,-0.29,1721206715361
-0.40,-2.48,16.53,-0.08,0.07,-0.23,1721206715371
-1.37,3.17,12.33,0.22,-0.02,-0.17,1721206715381
-1.23,3.37,5.66,0.05,0.00,-0.07,1721206715391
-0.68,1.37,13.78,-0.05,0.07,-0.04,1721206715401
0.81,-2.41,11.52,-0.04,0.01,-0.10,1721206715411
-0.34,4.60,11.18,0.08,-0.03,-0.26,1721206715421
-1.93,-0.53,4.29,-0.05,-0.05,-0.26,1721206715431
-2.91,-0.40,12.78,0.02,0.04,-0.04,1721206715441
-0.47,-1.29,7.57,0.08,0.03,0.07,1721206715451
0.47,4.21,11.50,0.03,0.01,-0.06,1721206715461
0.55,0.14,8.17,-0.04,-0.02,-0.19,1721206715471
-0.83,-0.07,11.57,-0.08,-0.02,-0.23,1721206715481
-1.09,-2.68,4.85,-0.05,-0.03,-0.14,1721206715491
-1.57,-0.87,11.56,-0.21,0.09,-0.12,1721206715501
-1.41,-0.01,15.52,-0.10,-0.01,-0.09,1721206715511
-0.94,0.51,9.27,-0.04,-0.10,0.01,1721206715521
0.76,-2.39,5.61,-0.19,0.05,-0.07,1721206715531
1.45,-1.51,13.18,-0.19,0.05,-0.18,1721206715541
-0.05,0.43,12.22,-0.04,-0.05,-0.21,1721206715551
-1.77,2.03,8.73,-0.05,-0.00,-0.19,1721206715561
-0.87,-1.87,7.00,-0.05,0.01,-0.02,1721206715571
0.61,1.28,10.70,-0.04,0.11,-0.03,1721206715581
2.09,-2.45,7.70,-0.09,0.03,-0.13,1721206715591
0.93,1.78,12.98,-0.09,0.06,-0.26,1721206715601
-1.01,-0.18,10.48,-0.07,0.06,-0.29,1721206715611
-1.23,-1.53,11.14,-0.13,0.04,-0.13,1721206715621
-0.42,3.69,10.79,-0.03,0.14,-0.06,1721206715631
1.50,0.17,10.22,-0.10,0.08,-0.09,1721206715641
0.75,-0.33,11.08,-0.07,0.11,-0.22,1721206715651
-0.41,-0.25,8.77,0.02,0.07,-0.28,1721206715661
-0.98,2.71,10.37,0.01,0.12,-0.25,1721206715671
-0.68,1.04,11.99,-0.02,0.15,-0.16,1721206715681
0.16,-0.27,11.34,0.05,0.08,-0.11,1721206715691
0.69,-2.25,9.33,0.02,0.18,-0.15,1721206715701
-1.03,-0.21,11.23,0.05,0.08,-0.26,1721206715711
-0.57,1.44,12.33,0.10,0.12,-0.19,1721206715721
-0.21,1.41,12.23,0.18,0.13,-0.05,1721206715731
0.45,4.56,9.38,0.29,0.16,-0.07,1721206715741
0.92,-2.57,4.02,0.12,0.15,-0.19,1721206715751
-0.11,3.73,12.86,0.12,0.16,-0.30,1721206715761
-1.05,0.13,8.14,0.15,0.10,-0.20,1721206715771
-1.60,-1.59,10.69,0.01,0.18,0.01,1721206715781
-0.35,1.29,12.34,0.13,0.15,-0.01,1721206715791
1.48,0.32,7.28,0.06,0.14,-0.12,1721206715801
0.63,-0.23,10.18,0.01,0.12,-0.18,1721206715811
-0.88,-0.72,11.61,0.08,0.18,-0.21,1721206715821
-2.08,0.73,11.35,0.17,0.13,-0.11,1721206715831
-1.34,2.35,8.75,0.15,0.17,0.04,1721206715841
-0.13,-0.54,10.39,-0.03,0.16,0.03,1721206715851
-0.47,0.78,14.71,0.02,0.11,-0.07,1721206715861
-0.15,-0.26,7.47,0.10,0.10,-0.02,1721206715871
-0.49,-0.83,5.90,0.01,0.15,-0.04,1721206715881
-1.55,-1.20,13.36,-0.00,0.14,-0.14,1721206715891
-2.43,-0.10,12.18,0.14,0.03,0.00,1721206715901
-1.53,4.48,9.30,0.18,0.12,0.25,1721206715911
1.44,1.84,5.29,0.06,0.13,0.19,1721206715921
1.96,-0.16,6.44,-0.03,0.09,-0.03,1721206715931
0.65,-0.74,12.48,-0.04,0.08,-0.15,1721206715941
-1.07,0.37,13.63,-0.04,0.10,-0.09,1721206715951
-2.09,3.69,13.53,0.03,0.02,0.07,1721206715961
-0.24,0.94,7.89,-0.09,0.06,0.21,1721206715971
2.32,-1.35,11.63,-0.10,0.11,0.12,1721206715981
2.77,-0.39,10.82,-0.06,0.06,-0.06,1721206715991
-0.52,0.97,10.57,0.02,-0.01,-0.22,1721206716001
-3.04,3.01,9.08,0.09,0.03,-0.13,1721206716011
-3.14,-1.66,8.54,0.01,0.03,0.22,1721206716021
-0.05,-0.88,10.96,0.00,0.10,0.39,1721206716031
3.42,4.97,10.61,0.15,0.06,0.19,1721206716041
3.56,1.20,4.80,0.03,-0.02,-0.09,1721206716051
0.57,-4.93,10.28,-0.17,0.03,-0.25,1721206716061
-1.77,0.21,19.77,-0.00,0.04,-0.11,1721206716071
-1.95,4.62,11.23,0.07,0.01,0.09,1721206716081
-1.35,1.16,5.68,-0.08,0.01,0.19,1721206716091
1.32,-2.78,9.67,-0.00,0.09,0.17,1721206716101
2.02,-3.43,4.60,0.04,-0.01,0.10,1721206716111
0.85,2.72,9.98,0.03,0.11,-0.11,1721206716121
-1.34,-0.73,9.25,-0.02,-0.08,-0.10,1721206716131
-2.69,2.38,11.94,0.01,0.00,0.12,1721206716141
0.92,-3.91,6.62,-0.11,0.07,0.32,1721206716151
3.42,-0.62,13.55,-0.16,0.09,0.13,1721206716161
3.20,1.18,15.89,-0.09,0.00,-0.23,1721206716171
-1.46,3.67,9.05,0.06,-0.10,-0.40,1721206716181
-4.25,-4.56,4.22,-0.12,0.01,-0.10,1721206716191
-3.43,0.26,14.72,0.04,0.06,0.23,1721206716201
0.96,3.28,10.49,0.12,0.06,0.29,1721206716211
2.63,5.91,9.30,0.10,0.03,0.02,1721206716221
2.04,-3.84,4.95,-0.05,-0.05,-0.14,1721206716231
0.29,-0.15,12.38,-0.00,0.05,-0.15,1721206716241
-0.69,-0.07,11.03,0.01,0.03,-0.15,1721206716251
-1.87,2.45,10.91,0.11,-0.05,-0.06,1721206716261
-0.25,-1.72,7.91,-0.01,0.06,0.08,1721206716271
1.09,-1.66,14.32,-0.03,0.03,0.07,1721206716281
1.22,1.58,16.38,-0.05,0.07,-0.12,1721206716291
-0.23,4.46,9.33,0.21,-0.08,-0.21,1721206716301
-1.25,-3.91,4.02,-0.09,0.04,-0.12,1721206716311
-1.44,-1.71,14.02,0.05,0.02,-0.01,1721206716321
0.18,0.51,8.51,0.10,0.04,-0.00,1721206716331
0.20,3.87,8.34,0.15,-0.01,-0.08,1721206716341
-0.29,-0.75,9.36,-0.09,0.08,-0.16,1721206716351
-1.05,-1.03,14.67,-0.00,-0.00,-0.14,1721206716361
-1.24,-0.48,8.56,0.03,0.03,-0.09,1721206716371
-0.70,0.72,7.83,0.04,-0.00,-0.02,1721206716381
-0.53,0.53,10.88,-0.05,0.04,-0.03,1721206716391
-0.25,1.36,14.64,0.04,-0.02,-0.09,1721206716401
-0.80,0.42,5.77,0.09,-0.04,-0.13,1721206716411
-1.28,0.25,7.15,0.00,0.03,-0.03,1721206716421
-0.96,-0.70,12.06,-0.05,0.02,0.02,1721206716431
0.13,2.89,10.84,0.18,-0.06,0.04,1721206716441
1.68,2.12,6.36,0.09,0.06,-0.02,1721206716451
1.39,0.79,9.22,0.04,-0.04,-0.11,1721206716461
0.43,-1.23,13.67,-0.12,0.05,-0.18,1721206716471
-0.28,0.17,12.93,-0.00,-0.04,-0.14,1721206716481
-0.93,1.06,9.10,0.02,0.02,-0.08,1721206716491
-0.36,2.32,10.09,0.05,0.05,-0.02,1721206716501
0.64,-1.34,10.86,-0.07,0.04,-0.06,1721206716511
0.04,0.17,14.82,0.00,0.01,-0.13,1721206716521
-1.33,0.85,8.93,0.04,-0.02,-0.17,1721206716531
-3.07,3.26,5.45,0.10,-0.05,-0.01,1721206716541
-1.18,-0.51,10.36,-0.01,0.11,0.14,1721206716551
0.51,-1.56,13.15,0.07,-0.03,0.13,1721206716561
0.54,1.93,13.09,0.04,-0.00,-0.03,1721206716571
-1.74,3.28,6.87,0.04,-0.14,-0.05,1721206716581
-2.18,1.90,10.82,-0.11,0.05,0.09,1721206716591
-0.72,-3.76,8.37,-0.01,-0.08,0.20,1721206716601
0.39,-0.21,11.50,0.02,0.01,0.15,1721206716611
1.90,-2.07,5.16,0.03,-0.03,0.09,1721206716621
0.63,1.76,12.91,-0.08,0.00,-0.04,1721206716631
-0.07,2.88,8.40,0.03,-0.04,0.02,1721206716646
0.00,-0.91,6.54,-0.05,-0.03,0.02,1721206716650
-0.39,-6.03,6.41,-0.24,-0.01,-0.01,1721206716660
-1.15,-0.99,15.70,-0.22,0.01,-0.10,1721206716670
-1.71,1.30,15.66,-0.09,-0.13,-0.00,1721206716680
-1.75,0.33,9.66,-0.05,-0.09,0.19,1721206716690
1.16,-1.73,1.61,-0.04,-0.01,0.23,1721206716700
3.06,-1.80,9.39,-0.21,0.08,-0.06,1721206716710
0.73,-1.22,18.65,-0.18,-0.11,-0.22,1721206716720
-2.41,2.95,11.27,0.04,-0.16,-0.11,1721206716730
-1.90,3.48,0.23,0.01,-0.06,0.12,1721206716740
1.75,-1.23,9.82,-0.18,0.10,0.21,1721206716750
4.91,-1.72,16.05,-0.11,0.04,0.06,1721206716760
1.86,0.37,9.24,-0.05,-0.11,-0.34,1721206716770
-1.74,-2.49,6.20,-0.22,-0.02,-0.42,1721206716780
-3.64,0.11,15.63,-0.11,-0.00,-0.04,1721206716790
-0.82,-0.44,12.61,0.01,0.06,0.25,1721206716800
2.01,-0.24,9.98,0.00,0.04,0.14,1721206716810
2.64,2.30,10.97,0.03,0.03,-0.13,1721206716820
1.99,0.28,12.00,0.04,-0.04,-0.18,1721206716830
1.16,2.79,11.95,0.17,0.09,-0.20,1721206716840
-0.57,-0.35,7.62,0.12,0.04,-0.31,1721206716850
-2.56,0.55,12.42,0.17,0.04,-0.26,1721206716860
-0.85,1.28,10.32,0.23,0.07,0.07,1721206716870
1.90,4.07,9.75,0.23,0.20,0.10,1721206716880
2.82,0.78,8.09,0.23,0.10,-0.21,1721206716890
0.65,-2.74,11.09,0.15,0.08,-0.41,1721206716900
-1.28,1.98,10.70,0.25,0.10,-0.26,1721206716910
-1.21,5.27,7.95,0.21,0.15,-0.16,1721206716920
0.53,-5.22,6.34,0.13,0.15,-0.06,1721206716930
0.56,-2.63,9.97,0.14,0.23,-0.18,1721206716940
0.16,3.49,11.93,0.22,0.16,-0.31,1721206716950
-1.15,1.61,13.41,0.07,0.14,-0.31,1721206716960
-1.41,-2.37,14.98,0.09,0.18,-0.18,1721206716970
-0.86,-0.51,8.55,0.20,0.17,-0.06,1721206716980
0.91,2.02,6.69,0.20,0.28,-0.06,1721206716990
1.81,-2.86,8.54,0.07,0.23,-0.29,1721206717000
-1.14,1.95,11.26,0.27,0.11,-0.44,1721206717010
-3.26,1.88,5.71,0.22,0.13,-0.25,1721206717020
-2.77,2.33,10.39,0.03,0.27,0.01,1721206717030
-0.36,0.53,9.85,0.01,0.22,0.00,1721206717040
0.71,-1.87,5.23,-0.01,0.19,-0.09,1721206717050
0.52,-1.41,8.05,-0.13,0.27,-0.21,1721206717060
-0.32,-1.04,14.08,-0.09,0.18,-0.26,1721206717070
-1.74,2.29,12.68,-0.00,0.15,-0.18,1721206717080
-1.64,0.64,8.41,-0.14,0.19,-0.05,1721206717090
-0.09,-2.38,11.94,-0.30,0.24,-0.06,1721206717100
0.06,-0.05,13.34,-0.12,0.15,-0.08,1721206717110
0.58,-1.93,8.49,-0.18,0.23,-0.15,1721206717120
-1.87,1.92,15.68,-0.08,0.16,-0.26,1721206717130
-3.06,4.80,9.78,0.08,0.07,-0.08,1721206717140
-2.40,3.63,0.77,-0.02,0.09,0.18,1721206717150
1.37,-5.44,9.52,-0.36,0.28,0.15,1721206717160
2.48,-6.37,16.06,-0.20,0.12,0.04,1721206717170
0.50,4.35,11.07,0.08,0.09,-0.15,1721206717180
-1.87,4.28,6.94,-0.08,0.08,-0.14,1721206717190
-3.07,2.72,10.22,-0.01,0.08,0.05,1721206717200
-1.37,-4.52,4.27,-0.12,0.10,0.31,1721206717210
1.37,-1.48,11.73,-0.23,0.19,0.33,1721206717220
2.60,0.83,16.23,-0.18,0.12,0.06,1721206717230
-0.00,1.69,11.24,-0.16,-0.01,-0.10,1721206717240
-2.17,-2.77,9.92,-0.29,0.06,-0.01,1721206717250
-1.32,-3.21,14.62,-0.23,0.07,0.33,1721206717260
0.78,4.66,12.90,-0.04,0.12,0.38,1721206717270
1.14,4.21,6.31,0.03,-0.01,0.17,1721206717280
0.49,-3.62,11.01,-0.23,0.07,0.01,1721206717290
-0.86,0.23,14.48,0.09,-0.00,0.14,1721206717300
-0.53,4.29,8.59,0.10,0.08,0.21,1721206717310
-0.10,2.56,9.47,0.08,0.03,0.20,1721206717320
0.87,0.63,8.81,0.16,-0.00,0.27,1721206717330
1.12,-2.69,6.52,0.18,0.02,0.23,1721206717340
2.16,-1.34,12.78,0.05,0.07,0.03,1721206717350
0.69,3.45,16.61,0.14,0.00,-0.10,1721206717360
-2.74,4.49,12.15,0.13,-0.05,-0.07,1721206717370
-3.04,3.52,1.49,0.33,-0.04,0.21,1721206717380
0.01,-7.17,1.77,0.03,0.15,0.36,1721206717390
2.39,-5.10,14.62,-0.04,0.09,0.24,1721206717400
2.20,4.06,15.25,0.26,-0.04,-0.09,1721206717410
-1.48,-0.04,4.52,-0.07,-0.11,-0.19,1721206717420
-3.83,-1.19,15.64,-0.02,0.01,0.05,1721206717430
-1.66,-0.70,11.02,0.09,-0.05,0.34,1721206717440
0.81,-2.48,10.62,0.00,0.02,0.26,1721206717450
1.25,2.28,11.32,0.09,-0.05,0.00,1721206717460
-0.10,2.91,6.12,0.19,-0.08,-0.10,1721206717470
-2.10,-2.23,6.43,-0.03,-0.09,-0.00,1721206717480
-2.49,-0.69,16.75,0.06,-0.04,0.17,1721206717490
-0.56,2.63,12.00,0.06,-0.05,0.25,1721206717500
0.76,3.54,7.49,0.01,-0.13,0.17,1721206717510
1.19,-3.68,7.68,-0.12,-0.07,0.03,1721206717520
-1.08,1.31,11.34,0.07,-0.18,-0.03,1721206717530
-1.38,-0.89,9.51,0.03,-0.12,0.07,1721206717540
-2.39,5.14,10.38,0.20,-0.18,0.18,1721206717550
0.40,-1.13,8.30,-0.03,-0.06,0.30,1721206717560
2.02,-4.11,12.15,-0.07,-0.17,0.25,1721206717570
2.93,4.67,14.21,0.10,-0.08,0.06,1721206717580
1.67,5.18,8.30,0.13,-0.24,-0.07,1721206717590
-0.77,-3.28,7.29,-0.09,-0.16,-0.07,1721206717600
-1.10,-4.94,12.63,-0.06,-0.13,0.08,1721206717610
-0.30,4.46,10.12,0.16,-0.17,0.16,1721206717620
-0.17,4.44,1.37,0.10,-0.18,0.06,1721206717630
0.11,-3.60,10.29,-0.18,-0.01,0.08,1721206717640
0.83,-4.38,16.33,0.05,-0.14,0.15,1721206717650
0.97,4.65,8.45,0.16,-0.16,0.09,1721206717660
-0.23,4.87,2.07,-0.04,-0.24,0.01,1721206717670
-0.18,-3.55,16.44,-0.36,0.02,0.11,1721206717680
0.15,-3.10,19.17,0.05,-0.16,0.11,1721206717690
0.20,2.68,4.91,0.08,-0.19,0.01,1721206717700
-0.65,-0.15,6.08,-0.29,-0.12,-0.01,1721206717710
-1.18,-1.31,17.20,-0.23,-0.09,0.11,1721206717720
0.33,0.54,11.93,0.15,-0.17,0.16,1721206717730
2.29,2.43,4.62,0.04,-0.10,0.12,1721206717740
2.17,2.01,6.73,-0.22,-0.10,-0.06,1721206717750
0.10,0.99,17.50,-0.34,-0.11,-0.28,1721206717760
-2.24,0.75,11.75,-0.06,-0.23,-0.24,1721206717770
-2.17,-6.32,2.07,-0.20,-0.10,0.05,1721206717780
-1.33,-2.21,13.75,-0.31,-0.04,0.11,1721206717790
1.06,5.78,15.43,-0.03,-0.11,-0.00,1721206717800
0.01,3.65,7.93,-0.06,-0.24,-0.15,1721206717810
-0.10,-3.84,6.60,-0.18,-0.09,-0.10,1721206717820
-0.15,0.03,13.25,-0.07,-0.08,-0.11,1721206717830
-0.44,2.25,10.59,-0.07,-0.14,-0.18,1721206717840
-1.08,2.01,8.68,0.00,-0.14,-0.11,1721206717850
-0.22,-2.66,7.86,-0.12,-0.10,0.02,1721206717860
1.51,-1.87,13.51,-0.10,-0.05,-0.02,1721206717870
1.69,1.25,10.22,0.03,-0.13,-0.18,1721206717880
0.21,-1.28,9.52,-0.05,-0.08,-0.25,1721206717890
-0.02,0.76,13.23,0.08,-0.07,-0.11,1721206717900
0.79,5.30,9.64,0.25,-0.02,-0.06,1721206717910
1.56,1.37,6.77,0.09,-0.02,-0.15,1721206717920
1.24,-1.41,11.24,-0.03,-0.03,-0.27,1721206717930
0.37,-0.98,10.18,0.00,-0.00,-0.38,1721206717940
-1.90,-1.11,10.38,-0.03,-0.11,-0.32,1721206717950
-1.69,-1.21,14.78,-0.02,0.07,-0.12,1721206717960
0.86,-2.39,11.17,0.09,0.03,-0.04,1721206717970
1.52,2.82,10.66,0.17,0.03,-0.15,1721206717980
1.48,3.11,8.49,0.14,0.06,-0.33,1721206717990
0.32,1.55,10.62,0.09,0.03,-0.35,1721206718000
-0.57,-2.36,8.27,0.12,0.02,-0.28,1721206718010
-0.78,-1.92,9.74,0.04,0.09,-0.22,1721206718020
-0.16,-1.46,10.93,0.06,0.07,-0.20,1721206718030
0.52,2.49,12.66,0.16,0.09,-0.29,1721206718040
0.79,-0.13,10.98,0.11,0.13,-0.30,1721206718050
-0.37,1.05,10.24,0.23,0.10,-0.36,1721206718060
-0.75,-3.51,7.48,0.07,0.17,-0.37,1721206718070
-2.16,1.14,13.18,0.16,0.09,-0.21,1721206718080
-0.25,3.56,8.72,0.19,0.20,-0.09,1721206718090
1.24,1.64,7.64,0.17,0.15,-0.12,1721206718100
1.96,-3.95,7.16,0.02,0.19,-0.24,1721206718110
0.58,-2.64,16.36,-0.11,0.20,-0.45,1721206718120
-2.92,3.94,16.06,0.21,0.03,-0.43,1721206718130
-3.19,2.17,5.55,0.21,0.18,-0.07,1721206718140
-0.66,-1.80,6.80,0.01,0.25,0.01,1721206718150
0.67,1.12,12.72,0.10,0.16,-0.18,1721206718160
-0.28,2.48,8.22,0.11,0.11,-0.29,1721206718170
-1.98,2.81,4.60,0.06,0.10,-0.14,1721206718180
-0.91,-1.27,10.01,-0.17,0.24,-0.09,1721206718190
0.37,-4.47,15.05,-0.06,0.14,-0.06,1721206718200
-0.23,4.57,12.42,0.15,0.08,-0.11,1721206718210
-0.12,4.72,7.47,-0.08,0.18,-0.22,1721206718220
-1.77,-1.26,8.79,-0.08,0.03,-0.16,1721206718230
-0.97,-3.04,6.85,-0.10,0.20,-0.08,1721206718240
-0.11,-1.39,12.51,-0.11,0.11,-0.06,1721206718250
-0.51,6.01,13.37,0.06,0.06,-0.07,1721206718260
-0.85,2.03,5.04,-0.03,0.03,-0.16,1721206718270
-1.48,-3.37,9.60,-0.31,0.08,-0.03,1721206718280
-0.05,-2.56,13.18,-0.13,0.12,0.10,1721206718290
1.79,-0.08,10.42,-0.19,0.07,0.04,1721206718300
0.34,3.39,12.36,-0.09,0.02,-0.18,1721206718310
-1.81,-2.42,6.05,-0.08,-0.01,-0.17,1721206718320
-2.80,-1.29,11.69,-0.19,0.08,0.04,1721206718330
-0.68,-0.01,13.77,-0.11,0.07,0.20,1721206718340
1.41,4.88,10.66,-0.06,0.05,0.15,1721206718350
2.03,-0.60,7.24,-0.21,0.01,-0.04,1721206718360
0.31,-2.58,11.74,-0.17,-0.00,-0.06,1721206718370
0.36,0.36,10.18,-0.10,0.07,0.02,1721206718380
-0.21,1.16,10.69,-0.08,0.01,0.06,1721206718390
-0.86,2.50,9.04,-0.01,0.02,-0.03,1721206718400
-0.83,-0.44,8.29,-0.01,-0.02,0.07,1721206718410
-0.10,-1.84,12.88,-0.12,0.05,0.18,1721206718420
1.20,0.57,13.51,-0.02,0.04,0.11,1721206718430
1.33,5.66,8.78,0.14,-0.02,0.00,1721206718440
0.37,-2.19,2.65,-0.01,-0.03,-0.10,1721206718450
-0.74,-7.36,13.42,-0.12,0.03,-0.05,1721206718460
-1.36,1.64,17.14,0.16,0.03,-0.02,1721206718470
-1.12,6.26,8.98,0.28,-0.04,-0.02,1721206718480
-0.58,-0.75,7.47,-0.07,0.05,0.02,1721206718490
-0.77,2.14,14.52,0.16,-0.05,0.01,1721206718500
0.60,-0.10,8.51,0.08,0.05,-0.03,1721206718510
-0.75,0.07,7.85,0.10,-0.09,-0.11,1721206718520
-1.20,0.43,10.63,0.02,0.06,-0.10,1721206718530
-1.90,-3.72,8.67,0.04,-0.10,-0.05,1721206718540
-1.27,2.45,12.31,0.16,0.03,0.04,1721206718550
0.79,1.24,8.04,0.16,-0.04,0.05,1721206718560
1.36,-1.95,13.17,-0.00,0.00,-0.03,1721206718570
1.57,2.56,12.59,0.15,-0.03,-0.17,1721206718580
0.43,2.11,8.67,0.06,-0.03,-0.25,1721206718590
-1.25,-0.18,7.81,0.09,-0.10,-0.19,1721206718600
-1.28,-3.10,10.75,0.03,0.05,-0.16,1721206718610
-1.68,1.21,11.80,0.21,-0.08,-0.08,1721206718620
-1.01,4.48,8.46,0.21,0.04,-0.03,1721206718630
0.13,-0.69,8.22,0.05,-0.01,-0.09,1721206718640
-0.86,0.59,10.55,0.23,-0.07,-0.14,1721206718655
-0.44,2.05,8.57,0.24,-0.09,-0.10,1721206718659
0.38,2.54,5.69,0.24,-0.01,-0.00,1721206718668
1.42,0.12,7.98,0.02,0.03,-0.03,1721206718678
0.71,1.45,13.35,0.05,-0.03,-0.24,1721206718687
-0.30,0.22,13.43,0.02,-0.01,-0.26,1721206718697
-2.27,-0.33,9.21,0.02,-0.12,-0.14,1721206718707
-1.38,-0.56,10.98,-0.03,0.05,0.05,1721206718717
1.38,-2.25,10.99,0.02,0.00,0.15,1721206718727
2.65,3.35,9.80,0.14,0.01,-0.06,1721206718737
3.05,2.18,7.54,0.13,-0.00,-0.25,1721206718746
0.56,-0.10,10.30,0.03,0.00,-0.31,1721206718756
-1.36,0.89,13.30,0.01,0.05,-0.28,1721206718765
-3.01,2.20,11.66,0.02,-0.04,-0.16,1721206718775
-2.52,-2.38,8.06,-0.06,0.02,-0.01,1721206718785
-1.49,0.30,11.29,-0.00,0.04,0.03,1721206718795
0.23,3.91,10.11,0.06,0.00,0.04,1721206718805
0.77,2.32,8.06,-0.02,0.03,-0.06,1721206718815
-0.23,-3.17,7.44,-0.14,-0.04,-0.15,1721206718825
-2.16,-0.40,12.50,-0.14,-0.00,-0.09,1721206718835
-1.19,-2.83,9.30,-0.12,-0.03,0.08,1721206718845
-0.01,0.06,7.30,-0.04,-0.03,0.08,1721206718855
1.40,-1.87,8.98,-0.17,0.02,-0.03,1721206718865
0.46,1.64,12.81,-0.07,-0.02,-0.07,1721206718875
-0.48,0.97,10.73,-0.19,0.01,-0.19,1721206718885
-2.29,-2.89,10.77,-0.29,-0.13,-0.14,1721206718895
-2.66,-3.88,13.24,-0.23,0.01,0.02,1721206718905
-1.06,-0.25,9.23,-0.14,-0.06,0.13,1721206718915
1.28,2.83,8.81,-0.10,0.01,0.10,1721206718925
1.85,3.39,9.07,-0.09,-0.05,-0.04,1721206718935
1.19,-1.83,10.54,-0.23,-0.02,-0.20,1721206718945
-0.74,-4.12,9.92,-0.18,-0.07,-0.13,1721206718955
-1.40,4.11,11.18,-0.11,0.00,-0.05,1721206718965
-0.76,1.64,12.84,-0.14,0.01,-0.03,1721206718975
0.58,2.98,11.79,0.08,-0.08,0.11,1721206718985
2.51,-4.07,3.46,-0.07,0.06,0.00,1721206718995
2.17,-1.85,16.70,-0.17,0.07,-0.26,1721206719005
-0.06,4.62,18.21,0.02,-0.05,-0.29,1721206719015
-1.86,4.64,8.71,0.11,-0.02,-0.20,1721206719025
0.51,-3.12,7.73,0.04,0.04,0.08,1721206719035
1.13,2.75,10.42,0.22,0.11,0.04,1721206719045
1.94,1.73,7.15,0.17,0.07,-0.21,1721206719055
-0.16,1.52,10.52,0.19,-0.00,-0.33,1721206719065
-0.23,-2.48,10.61,0.15,0.09,-0.25,1721206719075
-0.89,0.14,11.56,0.21,0.05,-0.16,1721206719085
-0.57,3.17,12.75,0.18,0.10,-0.08,1721206719095
1.23,3.39,9.20,0.22,0.10,-0.13,1721206719105
1.34,-0.63,6.76,0.17,0.11,-0.27,1721206719115
0.18,-5.09,6.41,0.09,0.09,-0.34,1721206719125
-1.22,-1.87,14.02,0.05,0.14,-0.27,1721206719135
-1.68,0.74,11.59,0.25,0.05,-0.12,1721206719145
0.60,1.06,6.62,0.18,0.18,-0.03,1721206719155
1.65,2.50,10.60,0.13,0.12,-0.14,1721206719165
1.42,0.98,12.14,0.09,0.17,-0.33,1721206719175
-0.51,-1.17,11.76,0.06,0.13,-0.32,1721206719185
-1.93,-0.47,9.81,0.04,0.17,-0.19,1721206719195
-0.61,-1.76,8.24,0.05,0.16,-0.03,1721206719205
1.75,0.59,10.54,0.14,0.27,-0.08,1721206719215
1.94,1.41,9.21,0.14,0.16,-0.30,1721206719225
-1.89,-0.12,9.19,0.13,0.07,-0.43,1721206719235
-3.19,-0.65,9.42,0.01,0.25,-0.22,1721206719245
-3.55,-0.60,10.76,-0.02,0.12,0.06,1721206719255
-1.04,1.05,12.22,-0.03,0.23,0.11,1721206719265
2.04,1.37,8.43,0.13,0.11,0.12,1721206719275
2.95,-1.19,4.81,-0.04,0.21,-0.15,1721206719285
1.19,-1.01,13.85,-0.13,0.19,-0.44,1721206719295
-3.71,5.36,15.16,0.10,-0.03,-0.34,1721206719305
-4.56,2.15,6.32,-0.04,0.12,-0.00,1721206719315
-1.63,-3.86,10.21,-0.16,0.17,0.25,1721206719325
2.41,2.23,11.45,0.04,0.20,0.11,1721206719335
3.43,6.47,6.79,0.05,0.08,-0.19,1721206719345
0.26,-0.11,8.93,-0.22,0.09,-0.43,1721206719355
-3.85,-3.86,12.39,-0.10,0.01,-0.23,1721206719365
-3.64,-1.03,10.90,-0.13,0.15,0.16,1721206719375
0.31,2.04,11.90,-0.12,0.16,0.25,1721206719385
2.57,2.59,12.05,-0.02,0.07,0.08,1721206719395
1.87,0.82,5.25,0.02,0.04,-0.18,1721206719405
-0.26,-3.39,8.98,-0.13,0.11,-0.23,1721206719415
-1.58,-1.25,13.19,-0.00,0.07,-0.11,1721206719425
-1.73,2.20,10.52,-0.11,0.09,-0.02,1721206719435
-1.95,4.50,11.45,0.00,0.04,-0.01,1721206719445
-0.52,-3.17,4.10,-0.06,0.05,0.06,1721206719455
0.29,-6.08,6.44,-0.09,0.06,0.13,1721206719465
1.95,1.83,12.21,0.01,0.15,0.01,1721206719475
0.95,6.86,11.11,0.03,-0.06,-0.12,1721206719485
-2.42,-4.71,7.93,-0.23,-0.01,-0.18,1721206719495
-2.59,-4.49,19.80,-0.31,0.09,0.01,1721206719505
-0.03,0.77,12.63,-0.01,0.06,0.27,1721206719515
2.26,3.53,6.08,-0.13,0.07,0.15,1721206719525
0.53,4.69,11.61,-0.06,-0.02,-0.23,1721206719535
-1.73,-0.17,9.04,0.06,-0.07,-0.19,1721206719545
-2.32,-9.23,6.10,-0.07,0.03,0.14,1721206719555
-0.19,1.13,15.99,-0.02,0.18,0.26,1721206719565
1.91,10.88,15.00,0.11,0.03,0.01,1721206719575
0.23,5.50,8.06,0.11,-0.12,-0.21,1721206719585
-1.24,-5.81,6.45,0.04,-0.04,-0.12,1721206719595
-0.80,-5.54,10.06,0.02,0.14,0.08,1721206719605
0.28,0.81,14.48,0.03,0.06,0.08,1721206719615
-0.95,7.15,9.54,0.23,-0.04,-0.16,1721206719625
-1.46,-2.91,6.28,0.09,-0.02,-0.19,1721206719635
-2.49,-4.57,10.97,0.18,-0.03,0.09,1721206719645
0.46,2.52,13.35,0.24,0.16,0.21,1721206719655
2.31,4.06,6.89,0.15,-0.05,0.02,1721206719665
0.80,1.67,8.69,-0.01,-0.01,-0.29,1721206719675
-1.67,-4.40,11.07,0.01,-0.11,-0.28,1721206719685
-2.63,-3.02,10.64,0.09,0.04,-0.06,1721206719695
-1.65,0.69,8.69,0.05,0.01,0.07,1721206719705
0.10,4.84,13.92,0.02,0.03,0.02,1721206719715
0.20,0.55,7.65,0.05,-0.12,-0.09,1721206719725
-0.69,-5.70,10.23,-0.09,-0.01,-0.09,1721206719735
-0.85,0.62,13.73,0.08,-0.00,-0.05,1721206719745
0.01,5.87,7.68,0.09,-0.04,0.03,1721206719755
0.23,1.16,9.38,-0.09,-0.04,-0.00,1721206719765
-0.15,-2.89,8.37,0.04,-0.12,0.02,1721206719775
1.24,-2.21,12.70,-0.04,0.07,0.05,1721206719785
1.61,3.52,16.44,0.07,-0.04,-0.04,1721206719795
0.58,6.29,8.14,0.17,-0.09,-0.18,1721206719805
-0.51,-4.31,4.26,-0.08,-0.05,-0.13,1721206719815
-2.01,-0.26,14.94,0.22,-0.01,0.03,1721206719825
0.40,4.48,4.41,0.34,-0.01,0.04,1721206719835
0.56,2.02,5.06,-0.00,0.03,-0.02,1721206719845
0.54,-6.29,11.82,-0.14,0.02,-0.07,1721206719855
-1.41,3.43,16.01,0.12,-0.03,-0.11,1721206719865
-0.62,1.45,7.88,0.03,-0.01,-0.02,1721206719875
-1.02,0.44,11.54,-0.15,-0.03,0.07,1721206719885
0.44,0.20,11.23,-0.03,-0.00,0.11,1721206719895
1.19,-2.46,6.45,-0.16,0.00,0.00,1721206719905
-0.10,-1.06,13.30,-0.18,-0.02,-0.11,1721206719915
-0.82,1.85,16.87,0.03,-0.01,-0.04,1721206719925
-1.71,1.63,2.13,0.06,-0.16,0.12,1721206719935
0.33,-1.07,7.76,-0.25,0.16,0.11,1721206719945
2.30,-2.54,15.51,-0.12,0.01,-0.04,1721206719955
0.78,-3.98,6.91,-0.10,-0.11,-0.20,1721206719965
-1.86,-1.50,10.43,-0.14,0.00,-0.18,1721206719975
-1.18,1.17,13.49,-0.02,0.05,0.09,1721206719985
0.58,2.94,9.75,-0.05,-0.01,0.12,1721206719995
2.29,-0.77,8.75,-0.14,0.02,-0.11,1721206720005
0.02,0.56,9.25,-0.12,-0.05,-0.29,1721206720015
-3.05,-3.20,7.67,-0.19,-0.04,-0.23,1721206720025
-3.80,-2.27,12.49,-0.17,-0.05,0.06,1721206720035
-1.50,4.10,12.48,-0.03,-0.01,0.24,1721206720045
1.70,0.60,7.49,-0.14,-0.02,0.18,1721206720055
1.81,-0.57,13.64,-0.29,-0.00,-0.08,1721206720065
0.32,-1.97,14.90,-0.21,-0.08,-0.14,1721206720075
-1.10,1.85,9.62,-0.06,-0.11,-0.03,1721206720085
-1.33,1.98,8.18,0.01,-0.02,0.06,1721206720095
0.94,0.75,8.51,0.16,-0.04,0.15,1721206720105
1.42,-2.21,9.94,0.03,0.03,0.05,1721206720115
0.77,4.48,16.11,0.07,-0.04,-0.09,1721206720125
-0.08,5.07,10.83,0.18,-0.12,-0.14,1721206720135
-0.38,-3.82,5.77,0.07,-0.06,-0.02,1721206720145
-0.73,-2.43,12.21,0.04,0.02,0.03,1721206720155
-0.96,8.65,14.78,0.30,-0.05,-0.03,1721206720165
0.39,-0.92,4.60,0.22,-0.11,0.08,1721206720175
1.44,-5.49,6.62,0.06,0.08,0.05,1721206720185
2.34,0.01,16.02,0.17,-0.00,-0.10,1721206720195
0.67,5.40,9.69,0.34,-0.14,-0.15,1721206720205
0.23,-0.59,5.80,0.15,0.02,-0.06,1721206720215
0.02,-4.35,13.67,-0.03,-0.00,-0.03,1721206720225
-0.44,6.03,10.77,0.40,-0.05,-0.09,1721206720235
1.06,-4.59,6.02,-0.09,0.06,-0.16,1721206720245
-1.65,1.68,16.07,0.10,-0.10,-0.03,1721206720255
1.25,-0.66,11.79,0.18,0.12,0.03,1721206720265
2.39,0.20,5.39,0.25,0.01,0.04,1721206720275
1.13,-0.36,6.93,0.07,0.12,-0.25,1721206720285
-0.43,0.43,15.60,0.10,0.04,-0.36,1721206720295
-2.02,-0.60,9.12,0.24,-0.07,-0.20,1721206720305
-2.13,-1.39,5.10,0.14,0.07,-0.01,1721206720315
-0.19,-1.32,13.63,0.01,0.13,0.03,1721206720325
0.66,4.29,16.27,0.14,-0.03,-0.11,1721206720335
0.64,3.17,7.72,0.15,0.02,-0.21,1721206720345
0.32,-3.76,4.63,-0.06,0.05,-0.09,1721206720355
0.77,-1.54,13.42,-0.10,0.16,-0.10,1721206720365
0.79,-1.70,13.67,-0.00,0.01,-0.30,1721206720375
-0.95,5.64,6.16,0.24,-0.00,-0.21,1721206720385
-0.46,2.66,3.46,-0.08,0.17,-0.16,1721206720395
-0.82,-3.11,12.42,-0.13,0.01,-0.09,1721206720405
-0.27,-1.24,13.53,-0.06,0.12,-0.13,1721206720415
0.26,3.83,9.83,-0.07,0.02,-0.14,1721206720425
0.55,1.58,9.59,-0.22,0.07,-0.17,1721206720435
0.07,-1.25,8.19,-0.08,0.01,-0.25,1721206720445
-0.35,-4.26,8.61,-0.22,0.12,-0.23,1721206720455
-1.48,1.75,15.23,-0.12,0.05,-0.23,1721206720465
-1.09,3.87,10.18,-0.06,0.04,-0.12,1721206720475
-0.13,0.23,7.30,-0.27,0.09,-0.02,1721206720485
0.84,-5.16,10.31,-0.27,0.07,-0.06,1721206720495
1.80,-1.55,12.02,-0.10,0.16,-0.20,1721206720505
0.40,3.02,6.73,-0.01,-0.02,-0.31,1721206720515
-0.90,-0.13,8.44,-0.16,0.14,-0.30,1721206720525
-1.91,-0.21,14.82,-0.11,0.04,-0.23,1721206720535
-1.10,0.29,11.72,-0.08,0.10,-0.07,1721206720545
1.00,0.09,9.23,-0.17,0.15,-0.05,1721206720555
1.04,2.49,12.44,-0.18,0.10,-0.20,1721206720565
0.25,1.55,9.76,-0.02,0.07,-0.32,1721206720575
-1.20,-0.60,6.47,-0.02,0.09,-0.21,1721206720585
-1.12,-3.82,12.92,-0.17,0.18,-0.11,1721206720595
-0.23,2.77,13.66,0.05,0.08,-0.05,1721206720605
1.25,1.98,6.73,0.03,0.16,-0.13,1721206720615
0.39,-1.72,10.69,0.02,0.09,-0.23,1721206720625
-0.34,2.78,15.38,0.17,0.15,-0.21,1721206720635
-0.62,0.47,8.33,0.14,0.12,-0.16,1721206720645
-1.04,1.23,9.25,0.20,0.08,-0.13,1721206720660
-0.01,1.55,8.92,0.14,0.17,-0.09,1721206720664
-1.02,-0.59,11.10,0.16,0.09,-0.18,1721206720674
-2.04,4.88,12.23,0.31,0.10,-0.21,1721206720684
-1.31,-3.69,4.41,0.20,0.05,-0.12,1721206720694
-1.10,-3.51,9.67,0.14,0.13,-0.00,1721206720704
0.42,1.48,10.11,0.22,0.11,-0.07,1721206720714
-0.99,2.91,11.13,0.24,0.08,-0.21,1721206720724
-2.12,0.71,12.02,0.11,0.10,-0.22,1721206720734
-2.52,-3.93,9.45,0.09,0.05,-0.06,1721206720744
-1.06,1.63,14.90,-0.10,0.20,0.03,1721206720754
-0.63,0.98,8.76,0.02,-0.08,-0.03,1721206720764
-0.05,-13.81,5.37,-0.07,0.06,0.01,1721206720774
2.62,-5.62,12.13,0.14,0.23,0.00,1721206720784
1.59,8.47,13.29,0.45,-0.01,-0.17,1721206720794
-1.92,17.12,10.07,0.40,0.04,-0.31,1721206720804
-3.81,1.06,3.81,0.14,-0.10,-0.23,1721206720814
-4.32,-15.44,5.82,-0.27,0.08,0.05,1721206720824
0.09,-0.43,19.63,0.08,0.22,0.28,1721206720834
0.61,13.78,7.04,0.35,-0.11,0.04,1721206720844
-0.63,-2.42,4.23,-0.12,-0.05,-0.25,1721206720854
-3.74,-1.97,11.81,0.25,-0.10,-0.01,1721206720864
-0.99,0.40,6.89,0.09,0.12,0.28,1721206720874
2.42,-2.02,15.38,-0.16,0.01,0.28,1721206720884
3.86,6.34,16.44,0.25,-0.02,0.12,1721206720894
3.13,0.50,0.58,0.18,-0.10,-0.14,1721206720904
-0.10,-1.37,9.46,-0.04,0.04,-0.19,1721206720914
-0.04,-1.55,14.68,-0.01,0.09,0.01,1721206720924
-1.92,0.56,13.97,-0.06,-0.03,-0.10,1721206720934
-3.14,-1.27,14.50,-0.01,-0.03,-0.05,1721206720944
-2.27,3.58,4.51,0.33,-0.07,0.33,1721206720954
2.49,-0.34,4.28,-0.09,0.21,0.35,1721206720964
2.56,1.22,15.87,0.01,-0.09,-0.06,1721206720974
1.01,4.55,5.34,0.27,-0.16,0.04,1721206720984
0.47,-4.12,1.03,-0.24,0.07,-0.08,1721206720994
-1.49,-3.76,17.00,-0.20,-0.04,-0.07,1721206721004
-3.01,1.43,13.33,0.13,-0.04,0.05,1721206721014
-1.50,-1.68,5.25,-0.12,-0.04,0.15,1721206721024
0.34,-0.80,10.64,-0.08,-0.08,0.20,1721206721034
1.42,-2.67,14.05,-0.23,0.05,0.02,1721206721044
-1.15,5.81,15.69,0.01,-0.22,-0.11,1721206721054
-1.20,2.18,5.47,-0.06,-0.02,-0.04,1721206721064
-1.97,-4.61,3.89,-0.28,-0.12,0.13,1721206721074
-1.34,2.69,8.55,0.01,-0.01,0.13,1721206721084
3.20,1.83,10.22,-0.14,0.05,0.11,1721206721094
0.77,1.49,11.59,-0.24,-0.24,-0.01,1721206721104
-0.38,-1.97,15.84,-0.37,-0.04,-0.10,1721206721114
-0.85,-0.72,16.35,-0.40,-0.12,-0.08,1721206721124
-2.34,5.59,5.79,-0.00,-0.19,0.04,1721206721134
1.00,-6.55,1.55,-0.25,0.09,0.22,1721206721144
-0.08,2.55,15.12,0.00,-0.00,-0.03,1721206721154
0.91,2.82,9.79,0.18,-0.23,0.03,1721206721164
1.99,-1.38,10.72,-0.18,0.00,0.15,1721206721174
1.75,1.94,14.54,-0.09,-0.12,0.06,1721206721184
2.32,-0.86,8.24,-0.04,-0.05,-0.16,1721206721194
0.34,1.68,10.45,0.13,-0.10,-0.29,1721206721204
-1.34,-0.17,8.04,0.12,0.00,-0.23,1721206721214
-3.52,-0.28,9.75,0.12,-0.14,0.00,1721206721224
-0.57,2.26,9.87,0.05,0.07,0.19,1721206721234
1.78,1.95,9.25,0.05,-0.06,0.16,1721206721244
2.70,-1.66,11.06,-0.06,-0.00,-0.09,1721206721254
2.07,2.77,15.43,0.12,-0.06,-0.29,1721206721264
0.28,3.94,6.55,0.08,-0.12,-0.17,1721206721274
0.24,-3.63,8.34,-0.27,0.11,-0.09,1721206721284
-0.10,-9.39,23.45,-0.29,0.01,-0.16,1721206721294
-1.50,6.13,18.87,0.25,-0.12,-0.09,1721206721304
1.38,4.17,4.14,0.17,0.09,0.04,1721206721314
2.79,-2.62,5.86,0.01,0.11,-0.05,1721206721324
2.71,2.38,12.36,0.22,0.07,-0.34,1721206721334
0.17,4.11,7.25,0.30,0.00,-0.47,1721206721344
-2.04,-1.40,8.20,0.04,0.08,-0.18,1721206721354
-1.73,-2.56,15.06,0.08,0.07,0.04,1721206721364
0.51,2.33,9.76,0.17,0.09,-0.09,1721206721374
1.79,0.25,4.80,0.07,0.03,-0.11,1721206721384
0.68,-0.57,10.76,0.01,0.12,-0.30,1721206721394
-1.83,2.54,8.84,0.27,0.01,-0.41,1721206721404
-2.58,-1.78,3.91,-0.00,0.10,-0.19,1721206721414
-1.64,-1.41,11.41,-0.16,0.11,0.08,1721206721424
1.47,-0.57,19.62,-0.12,0.20,-0.05,1721206721434
2.49,2.20,10.81,0.12,-0.03,-0.17,1721206721444
0.85,-0.22,0.60,-0.11,0.12,-0.31,1721206721454
-0.60,-5.32,15.83,-0.48,0.23,-0.37,1721206721464
-2.28,1.83,22.54,0.02,0.01,-0.31,1721206721474
-1.82,4.00,2.94,0.09,0.05,-0.11,1721206721484
-0.30,-0.13,4.32,-0.33,0.21,-0.02,1721206721494
0.99,-3.85,16.26,-0.22,0.11,-0.11,1721206721504
2.42,-3.20,10.83,-0.05,0.06,-0.21,1721206721514
0.35,10.19,6.47,0.12,0.08,-0.33,1721206721524
-1.71,6.98,6.07,-0.08,0.12,-0.36,1721206721534
-2.89,-7.20,14.68,-0.39,0.08,-0.17,1721206721544
-0.41,-5.61,15.36,-0.17,0.12,0.08,1721206721554
2.22,6.07,5.65,-0.05,0.18,-0.05,1721206721564
3.01,-0.04,6.50,-0.26,0.10,-0.29,1721206721574
-0.97,-2.28,11.33,0.06,0.04,-0.48,1721206721584
-2.84,-1.94,8.82,0.08,0.13,-0.31,1721206721594
-2.44,1.19,13.92,-0.02,0.21,-0.01,1721206721604
0.28,4.68,13.73,0.04,0.16,0.09,1721206721614
2.47,0.78,8.71,-0.01,0.18,-0.12,1721206721624
1.07,-3.19,10.14,0.05,0.11,-0.35,1721206721634
-1.11,-0.19,8.97,0.27,0.12,-0.33,1721206721644
-1.79,5.14,10.78,0.18,0.19,-0.19,1721206721654
-2.32,4.98,11.43,0.09,0.07,-0.10,1721206721664
-0.45,-2.57,10.92,-0.09,0.17,-0.02,1721206721674
-0.16,2.10,12.74,0.09,0.17,-0.08,1721206721684
-0.42,-0.32,5.01,0.14,0.09,-0.18,1721206721694
-1.03,3.38,9.97,0.23,0.17,-0.19,1721206721704
-1.11,-5.19,1.44,0.16,0.00,-0.06,1721206721714
-1.20,-5.23,18.58,-0.14,0.24,0.02,1721206721724
0.23,5.95,21.65,0.22,0.10,-0.00,1721206721734
-1.73,3.71,1.42,0.22,-0.07,-0.06,1721206721744
-0.84,-1.99,8.07,-0.07,0.23,-0.06,1721206721754
-0.16,3.25,16.15,0.25,0.08,-0.02,1721206721764
0.12,1.90,4.08,0.16,0.01,-0.05,1721206721774
-1.30,-7.29,5.72,-0.12,0.04,-0.16,1721206721784
-1.46,-4.83,10.67,0.00,0.11,0.03,1721206721794
0.02,1.30,7.75,0.03,0.08,0.09,1721206721804
-0.15,0.62,10.02,0.04,0.04,-0.01,1721206721814
-0.26,0.33,8.50,0.09,0.06,-0.01,1721206721824
0.18,-0.70,6.43,-0.01,0.09,0.03,1721206721834
0.78,-1.01,9.52,-0.20,0.11,-0.01,1721206721844
0.68,-1.05,21.18,-0.36,0.15,-0.17,1721206721854
-1.93,4.16,14.66,0.21,-0.12,-0.24,1721206721864
-4.46,-2.46,-9.90,0.02,-0.19,0.03,1721206721874
-3.11,-14.30,12.84,-0.65,0.30,0.28,1721206721884
-0.43,9.00,41.28,0.05,-0.07,0.25,1721206721894
1.58,9.91,-1.84,0.56,-0.20,0.05,1721206721904
3.99,-1.37,-3.90,-0.44,0.29,-0.02,1721206721914
6.34,5.55,22.37,0.06,-0.04,0.06,1721206721924
0.27,5.72,9.60,0.32,-0.06,-0.11,1721206721934
0.26,-3.34,1.23,-0.25,0.08,-0.19,1721206721944
-2.76,-5.56,19.36,-0.33,-0.06,-0.12,1721206721954
-2.43,2.98,19.77,0.08,-0.02,0.07,1721206721964
0.37,5.92,7.15,0.18,0.04,0.27,1721206721974
2.21,2.73,6.74,0.17,0.06,0.18,1721206721984
3.11,3.00,11.21,0.29,0.07,-0.05,1721206721994
1.33,1.83,6.45,0.15,-0.03,-0.19,1721206722004
-1.99,0.53,10.65,0.06,0.05,-0.20,1721206722014
-2.49,0.53,8.64,0.20,-0.07,-0.02,1721206722024
-1.33,4.55,10.33,0.18,0.10,0.25,1721206722034
0.62,0.69,6.68,0.06,0.05,0.16,1721206722044
1.39,-4.62,11.84,-0.16,0.06,-0.16,1721206722054
-1.45,1.92,11.10,0.09,-0.07,-0.26,1721206722064
-2.66,-0.19,5.70,-0.10,0.05,-0.03,1721206722074
-2.50,-2.57,9.20,-0.07,-0.02,0.22,1721206722084
0.51,-5.88,5.33,-0.00,0.03,0.26,1721206722094
3.36,-1.55,8.78,-0.07,0.04,0.11,1721206722104
1.87,3.38,12.95,-0.11,-0.01,-0.18,1721206722114
-0.61,-3.34,9.61,-0.14,-0.06,-0.25,1721206722124
-2.08,-7.33,16.04,-0.27,0.04,-0.04,1721206722134
-1.60,6.17,15.78,0.01,0.05,0.03,1721206722144
-0.03,6.00,1.48,0.04,-0.05,0.08,1721206722154
1.87,-7.20,4.55,-0.43,0.15,0.03,1721206722164
0.39,0.13,18.32,-0.25,0.02,-0.13,1721206722174
-0.00,4.41,8.46,0.05,-0.06,-0.09,1721206722184
0.55,-7.11,1.51,-0.30,0.06,-0.07,1721206722194
-0.34,-0.00,14.67,-0.13,0.07,-0.04,1721206722204
0.67,5.88,11.68,0.05,0.03,-0.03,1721206722214
1.41,-4.21,13.31,-0.32,0.08,-0.10,1721206722224
-0.57,-1.09,18.07,-0.12,0.03,-0.21,1721206722234
-2.72,9.69,8.76,0.14,0.03,-0.24,1721206722244
-2.75,-0.67,6.26,-0.05,0.06,-0.08,1721206722254
-0.96,-3.76,10.27,0.14,0.08,0.16,1721206722264
1.72,0.72,11.50,0.23,0.15,0.09,1721206722274
2.40,4.65,11.17,0.24,-0.01,-0.02,1721206722284
2.05,4.99,9.76,0.19,0.09,-0.16,1721206722294
-0.21,-1.90,9.86,0.09,0.05,-0.29,1721206722304
-1.86,-0.10,10.91,0.24,0.11,-0.15,1721206722314
-0.76,-1.44,5.69,0.17,0.13,-0.01,1721206722324
-0.73,-4.15,10.33,-0.00,0.08,-0.03,1721206722334
-0.82,2.22,17.63,0.12,0.09,-0.03,1721206722344
0.51,4.29,9.46,0.22,0.03,0.13,1721206722354
1.52,-1.75,7.80,0.06,0.16,0.09,1721206722364
1.70,-2.85,12.43,0.10,0.13,-0.12,1721206722374
-0.74,4.81,10.93,0.29,0.05,-0.22,1721206722384
-1.31,2.99,5.21,0.17,0.06,0.01,1721206722394
-0.45,-3.32,8.92,-0.01,0.19,0.09,1721206722404
0.02,-1.19,13.35,0.17,0.07,-0.09,1721206722414
-0.35,-0.76,5.74,0.16,-0.01,-0.02,1721206722424
-1.53,1.86,10.68,0.00,0.13,0.03,1721206722434
-1.18,1.40,15.02,0.19,0.08,0.04,1721206722444
-0.72,-0.54,5.67,0.16,0.01,0.17,1721206722454
0.50,1.32,4.32,0.02,0.12,0.21,1721206722464
2.45,-1.11,12.08,-0.23,0.18,-0.06,1721206722474
0.47,-0.25,16.07,-0.08,-0.07,-0.18,1721206722484
-0.75,-1.93,10.91,-0.06,0.07,-0.06,1721206722494
-1.36,1.97,11.33,-0.02,0.06,0.07,1721206722504
0.01,2.15,6.00,0.00,0.05,0.08,1721206722514
0.99,-1.85,5.77,-0.12,0.05,-0.01,1721206722524
0.35,1.23,13.32,-0.06,0.06,-0.10,1721206722534
-1.22,3.43,12.16,0.08,-0.05,-0.05,1721206722544
-1.36,1.83,9.87,-0.10,0.05,0.08,1721206722554
0.66,1.96,14.98,-0.13,0.09,0.09,1721206722564
1.97,0.49,4.43,-0.03,-0.10,0.09,1721206722574
3.16,-3.82,8.23,-0.29,0.16,-0.14,1721206722584
1.19,-0.99,14.50,0.06,-0.07,-0.26,1721206722594
-2.48,2.60,8.85,0.06,0.02,-0.21,1721206722604
-4.29,3.95,10.97,-0.01,-0.01,0.04,1721206722614
-1.63,-0.89,6.49,-0.06,0.07,0.28,1721206722624
2.91,-4.53,11.15,-0.11,0.13,0.28,1721206722634
4.23,0.10,9.68,0.09,0.01,-0.01,1721206722644
2.69,2.70,10.32,-0.04,0.05,-0.34,1721206722654
-3.13,-0.14,13.33,-0.04,-0.01,-0.22,1721206722669
-4.27,-1.87,9.73,-0.05,0.04,-0.08,1721206722673
-1.86,-2.68,8.56,-0.14,0.08,0.27,1721206722683
1.86,-0.25,11.84,-0.03,0.11,0.25,1721206722693
2.60,1.52,9.58,0.10,0.01,-0.08,1721206722703
-0.43,6.06,5.00,0.22,-0.05,-0.31,1721206722713
-2.60,-0.74,5.54,-0.03,0.01,-0.14,1721206722723
-2.65,-6.17,14.37,-0.24,0.02,0.23,1721206722733
-0.39,3.34,16.13,0.00,0.06,0.27,1721206722743
2.40,-1.93,8.18,-0.18,0.01,0.04,1721206722753
-0.39,-0.09,12.01,-0.03,-0.11,-0.15,1721206722763
-1.19,-0.35,8.40,0.10,0.01,-0.15,1721206722773
-2.49,5.73,8.69,0.20,-0.09,0.06,1721206722783
-0.82,0.51,10.28,-0.03,0.05,0.21,1721206722793
0.06,-5.78,14.44,-0.15,-0.04,0.12,1721206722803
0.89,2.24,12.38,0.11,-0.02,0.03,1721206722813
1.29,-1.25,3.31,-0.03,-0.08,-0.02,1721206722823
-0.86,2.55,11.54,0.12,-0.04,-0.08,1721206722833
-0.54,-1.43,9.62,0.14,-0.05,0.01,1721206722843
-0.84,-2.99,12.10,-0.03,-0.07,0.10,1721206722853
0.41,2.27,14.07,0.06,-0.01,0.09,1721206722863
1.21,6.40,9.85,0.08,-0.09,-0.02,1721206722873
0.09,1.77,7.56,0.02,-0.11,-0.15,1721206722883
-1.18,-5.75,5.54,0.09,-0.16,-0.10,1721206722893
-2.06,-3.56,8.86,0.04,-0.03,0.01,1721206722903
-0.95,1.70,17.06,-0.00,0.01,0.08,1721206722913
-0.51,2.05,13.36,0.08,-0.16,0.01,1721206722923
-0.72,0.21,8.32,0.11,-0.15,-0.00,1721206722933
0.67,2.37,9.30,0.16,-0.04,0.11,1721206722943
2.00,2.36,9.56,0.09,-0.08,0.04,1721206722953
2.18,2.51,6.28,0.15,-0.14,-0.12,1721206722963
1.38,-5.39,8.20,-0.18,-0.06,-0.17,1721206722973
-1.13,3.23,21.79,0.07,-0.05,-0.20,1721206722983
-1.53,2.03,6.91,0.22,-0.17,-0.13,1721206722993
-1.78,-1.56,6.63,-0.09,-0.04,0.02,1721206723003
-0.86,6.23,13.09,0.22,-0.02,0.12,1721206723013
1.16,4.01,3.23,0.08,-0.08,0.05,1721206723023
0.95,-3.53,10.86,-0.12,-0.07,-0.01,1721206723033
0.27,-2.48,9.25,0.12,-0.15,-0.06,1721206723043
-0.31,2.51,6.34,-0.06,-0.02,-0.07,1721206723053
-1.04,-1.27,14.94,-0.21,-0.06,-0.03,1721206723063
-0.62,-0.27,16.30,0.04,-0.09,0.04,1721206723073
0.77,2.76,7.98,0.07,-0.06,0.02,1721206723083
-0.46,4.17,6.64,-0.13,-0.11,-0.01,1721206723093
-1.61,-0.75,10.52,-0.21,-0.11,-0.04,1721206723103
-1.29,-3.62,10.65,-0.16,-0.12,-0.02,1721206723113
-0.61,2.21,7.18,-0.00,-0.11,0.03,1721206723123
1.20,-1.22,5.34,-0.20,-0.07,0.11,1721206723133
1.81,-4.58,12.56,-0.21,0.02,-0.05,1721206723143
0.72,-0.45,15.32,-0.03,-0.13,-0.12,1721206723153
0.04,1.24,7.47,0.03,-0.11,-0.05,1721206723163
0.35,3.89,10.52,-0.07,0.01,-0.06,1721206723173
-0.64,7.33,15.35,-0.13,-0.12,-0.17,1721206723183
-0.44,-2.64,7.50,-0.17,-0.16,-0.15,1721206723193
0.08,-7.42,6.68,-0.26,0.06,-0.13,1721206723203
-1.91,-0.86,6.99,-0.02,-0.17,-0.04,1721206723213
-0.08,0.28,12.74,-0.09,0.10,-0.03,1721206723223
2.45,6.13,15.79,0.14,-0.08,0.07,1721206723233
3.00,3.12,6.22,0.08,-0.02,-0.05,1721206723243
2.52,0.34,11.00,-0.21,0.06,-0.40,1721206723253
-1.04,0.32,13.48,-0.05,-0.14,-0.44,1721206723263
-1.84,-3.01,6.91,0.04,0.01,-0.23,1721206723273
-2.31,-2.13,10.19,-0.03,0.05,-0.09,1721206723283
-0.35,1.87,13.47,0.13,-0.02,0.04,1721206723293
2.56,-2.34,9.55,-0.01,0.08,-0.08,1721206723303
2.29,2.46,14.46,0.04,0.04,-0.32,1721206723313
-0.37,2.71,10.00,0.21,-0.06,-0.31,1721206723323
-1.78,3.00,5.01,0.28,0.12,-0.22,1721206723333
-0.50,-3.08,6.31,0.10,0.07,-0.20,1721206723343
-0.55,1.36,9.73,0.20,0.03,-0.07,1721206723353
1.19,-2.36,7.10,0.03,0.15,-0.12,1721206723363
1.49,-5.39,19.37,-0.18,0.06,-0.24,1721206723373
-0.09,4.81,17.83,0.30,-0.03,-0.26,1721206723383
0.33,3.61,0.87,0.25,0.11,-0.20,1721206723393
-0.55,2.88,8.36,0.14,0.20,-0.23,1721206723403
-0.24,-0.55,6.78,0.19,0.11,-0.24,1721206723413
-0.64,-1.45,9.72,0.07,0.14,-0.28,1721206723423
-0.39,-1.39,9.76,0.14,0.06,-0.15,1721206723433
-0.12,1.54,14.45,-0.02,0.16,-0.08,1721206723443
-0.33,3.45,15.53,0.07,0.05,-0.11,1721206723453
0.08,-2.40,7.92,0.05,0.11,-0.21,1721206723463
-0.73,-2.71,10.01,-0.02,0.16,-0.20,1721206723473
-1.88,2.34,13.31,0.11,0.11,-0.23,1721206723483
-2.35,3.18,8.53,0.16,0.12,-0.14,1721206723493
-1.35,0.90,5.03,0.12,0.09,0.09,1721206723503
1.00,-1.48,11.59,-0.05,0.17,0.04,1721206723513
2.97,1.12,12.98,0.06,0.09,-0.08,1721206723523
1.54,3.68,8.09,0.02,0.10,-0.34,1721206723533
-1.19,-1.53,9.80,-0.12,0.08,-0.34,1721206723543
-3.15,3.62,13.71,0.15,0.09,-0.17,1721206723553
-1.47,1.71,4.13,0.10,0.10,0.00,1721206723563
-0.15,-2.37,9.09,-0.16,0.12,-0.05,1721206723573
0.07,3.01,13.24,0.07,0.10,-0.17,1721206723583
0.18,1.50,4.64,-0.06,0.04,-0.21,1721206723593
-1.19,-2.69,10.83,-0.18,0.08,-0.16,1721206723603
-0.82,0.16,12.83,-0.01,0.10,-0.11,1721206723613
-0.31,0.74,6.73,-0.09,0.06,-0.03,1721206723623
0.19,-4.23,11.79,-0.31,0.14,-0.04,1721206723633
0.41,-1.92,19.96,-0.18,0.15,-0.25,1721206723643
-0.24,0.23,10.93,0.05,0.02,-0.19,1721206723653
-0.75,1.71,5.71,-0.05,0.11,-0.08,1721206723663
0.05,7.29,9.17,0.14,0.13,-0.09,1721206723673
0.55,-1.55,5.59,-0.07,0.10,-0.12,1721206723683
0.03,-2.27,14.90,-0.13,0.15,-0.16,1721206723693
-0.59,2.50,8.47,0.15,0.07,-0.18,1721206723703
-1.28,-2.71,1.34,-0.12,0.11,-0.17,1721206723713
-1.63,-2.72,19.16,-0.19,0.14,-0.10,1721206723723
-0.77,6.43,17.59,0.19,0.01,-0.02,1721206723733
-0.81,1.40,-0.09,0.05,0.03,-0.01,1721206723743
-0.11,-6.23,11.64,-0.38,0.20,0.02,1721206723753
1.92,2.06,22.12,0.06,0.10,0.12,1721206723763
1.81,8.65,4.45,0.35,0.08,-0.22,1721206723773
-1.82,-1.89,-0.37,0.05,-0.05,-0.32,1721206723783
-3.77,-2.81,15.02,0.04,0.16,0.03,1721206723793
-0.28,-2.98,13.98,0.04,0.11,0.29,1721206723803
1.14,-0.24,9.97,-0.03,0.08,-0.02,1721206723813
0.34,1.40,10.48,0.08,0.00,-0.27,1721206723823
-2.13,2.13,4.75,0.28,-0.11,-0.18,1721206723833
-1.91,0.71,6.82,0.14,0.13,0.03,1721206723843
0.24,-2.22,16.17,-0.06,0.10,0.28,1721206723853
1.28,3.86,13.97,0.06,0.01,-0.03,1721206723863
0.61,-1.13,8.08,-0.12,0.03,-0.33,1721206723873
-2.77,-0.70,13.43,-0.13,-0.05,-0.18,1721206723883
-2.95,1.29,10.86,0.11,0.02,0.05,1721206723893
-1.65,1.49,2.95,0.05,-0.09,0.17,1721206723903
0.76,-1.12,12.40,-0.12,0.12,0.16,1721206723913
2.29,-2.44,16.29,-0.08,-0.01,0.08,1721206723923
1.29,6.25,11.31,0.16,-0.05,-0.13,1721206723933
0.01,-0.72,5.40,-0.03,-0.03,-0.23,1721206723943
-1.89,1.63,11.07,0.13,-0.05,-0.06,1721206723953
-0.78,1.49,7.41,0.13,0.01,0.10,1721206723963
0.59,0.63,13.85,-0.02,0.00,0.07,1721206723973
1.09,-1.71,13.67,-0.04,0.01,-0.12,1721206723983
-0.67,9.01,7.04,0.42,-0.17,-0.07,1721206723993
3.14,-7.14,0.77,-0.14,0.11,0.07,1721206724003
0.79,0.79,18.27,-0.01,-0.00,-0.18,1721206724013
-1.38,5.30,9.92,0.38,0.02,-0.48,1721206724023
-3.74,-5.52,0.39,-0.12,-0.06,-0.20,1721206724033
-3.65,-2.41,21.78,-0.24,0.12,0.26,1721206724043
2.19,5.81,17.10,0.27,0.07,0.23,1721206724053
3.47,2.53,1.16,0.08,-0.04,-0.10,1721206724063
1.55,-0.73,10.38,-0.16,0.04,-0.24,1721206724073
0.07,3.49,15.28,0.11,0.04,-0.21,1721206724083
-1.10,-2.45,8.36,-0.13,-0.01,-0.17,1721206724093
-3.25,-2.14,11.88,-0.07,0.01,-0.07,1721206724103
-1.27,2.10,8.47,0.03,0.07,-0.02,1721206724113
0.74,4.21,9.95,0.01,0.06,0.03,1721206724123
1.78,-1.82,7.45,0.01,0.05,0.00,1721206724133
1.42,-0.36,8.14,0.02,0.09,-0.22,1721206724143
0.13,-4.21,9.46,-0.23,0.12,-0.33,1721206724153
-3.31,0.23,15.09,-0.06,-0.09,-0.19,1721206724163
-2.33,0.62,9.28,0.04,0.12,-0.01,1721206724173
0.43,0.07,7.88,-0.05,0.11,0.09,1721206724183
1.59,0.83,9.12,-0.09,0.09,-0.03,1721206724193
1.87,-3.50,7.67,-0.21,0.06,-0.20,1721206724203
-1.08,-0.05,13.90,-0.15,0.12,-0.39,1721206724213
-2.79,-0.64,7.36,-0.04,-0.02,-0.20,1721206724223
-2.80,-2.13,8.47,-0.19,0.09,0.11,1721206724233
0.42,2.15,15.11,-0.08,0.14,0.11,1721206724243
2.26,1.57,8.00,-0.05,0.06,-0.07,1721206724253
0.17,-0.05,8.94,-0.18,0.09,-0.25,1721206724263
-1.54,1.93,16.97,-0.17,0.10,-0.25,1721206724273
-1.61,4.61,13.86,0.06,0.03,-0.07,1721206724283
-0.78,-3.77,0.80,0.03,0.00,0.12,1721206724293
0.70,-2.93,9.08,-0.05,0.21,0.08,1721206724303
1.22,8.07,16.01,0.19,0.11,-0.02,1721206724313
0.61,-0.25,8.40,0.09,0.02,-0.10,1721206724323
-0.16,-3.36,10.03,0.02,0.10,-0.13,1721206724333
-0.34,-0.02,9.77,0.15,0.07,-0.08,1721206724343
-0.59,2.00,11.57,0.10,0.13,-0.04,1721206724353
-0.69,4.14,11.58,0.26,0.04,0.10,1721206724363
0.15,-2.60,6.77,0.04,0.11,0.06,1721206724373
2.05,-5.07,14.68,0.03,0.17,-0.06,1721206724383
0.46,5.92,14.74,0.20,0.04,-0.15,1721206724393
-1.21,6.01,8.20,0.11,0.04,-0.02,1721206724403
-0.21,-1.08,7.00,0.15,0.19,0.11,1721206724413
2.18,-4.33,9.80,0.13,0.20,0.07,1721206724423
1.18,-0.16,12.05,0.07,0.06,-0.15,1721206724433
-1.06,7.28,12.01,0.22,0.08,-0.20,1721206724443
-2.43,0.11,4.63,0.13,0.06,-0.01,1721206724453
-1.21,-5.90,10.10,0.00,0.17,0.18,1721206724463
0.49,-0.71,13.83,0.26,0.12,0.07,1721206724473
0.34,3.67,2.16,0.31,-0.01,-0.05,1721206724483
-1.72,-0.40,8.03,-0.07,0.16,-0.08,1721206724493
-2.36,0.75,22.68,0.19,0.07,0.12,1721206724503
-0.27,1.07,5.53,0.36,-0.01,0.30,1721206724513
2.84,0.00,5.27,-0.10,0.20,0.18,1721206724523
3.62,4.18,14.93,0.00,0.08,-0.10,1721206724533
0.96,0.37,5.75,0.02,-0.06,-0.30,1721206724543
-2.36,-1.10,8.24,-0.10,0.13,-0.18,1721206724553
-2.86,-0.69,12.18,0.01,0.05,0.02,1721206724563
-1.37,2.52,7.98,-0.04,0.06,0.19,1721206724573
0.70,0.77,11.70,-0.24,0.10,0.19,1721206724583
1.48,1.49,16.44,-0.12,0.05,0.04,1721206724593
2.40,-1.29,8.06,0.00,-0.02,-0.06,1721206724603
0.72,-1.84,3.60,-0.06,0.00,-0.13,1721206724613
0.26,1.34,11.34,-0.20,-0.08,-0.29,1721206725159
0.87,0.38,11.38,-0.21,-0.07,-0.23,1721206725163
-0.03,3.76,12.80,-0.05,-0.00,-0.24,1721206725173
0.17,-1.65,6.31,-0.18,-0.06,-0.20,1721206725183
-0.49,-1.30,14.58,-0.21,0.04,-0.25,1721206725193
-0.36,-0.90,12.35,-0.17,0.03,-0.37,1721206725203
-3.14,0.24,7.44,-0.16,-0.10,-0.45,1721206725213
-2.32,0.71,12.17,-0.09,0.04,-0.12,1721206725223
0.41,-3.30,5.61,-0.00,0.02,-0.02,1721206725233
3.06,1.18,9.46,0.02,0.14,-0.16,1721206725243
2.07,2.13,12.22,-0.03,0.05,-0.44,1721206725253
-1.48,2.48,11.83,-0.06,-0.03,-0.49,1721206725263
-2.89,0.43,8.88,-0.06,0.05,-0.33,1721206725273
-1.13,-3.55,12.01,-0.16,0.10,-0.23,1721206725283
0.16,0.00,13.15,-0.06,0.06,-0.14,1721206725293
0.58,2.22,10.01,0.02,0.10,-0.20,1721206725303
-0.11,-0.41,8.96,0.05,0.11,-0.35,1721206725313
-1.27,2.32,12.39,0.15,0.04,-0.34,1721206725323
-1.06,-0.33,7.24,0.18,0.10,-0.22,1721206725333
-0.37,1.73,10.57,0.10,0.11,-0.11,1721206725343
-0.03,1.02,10.32,0.14,0.08,-0.11,1721206725353
0.18,-0.73,8.40,0.14,0.07,-0.23,1721206725363
0.43,-1.22,12.61,0.10,0.12,-0.25,1721206725373
-0.73,2.98,12.01,0.21,0.06,-0.23,1721206725383
-2.09,4.39,8.28,0.20,0.09,-0.17,1721206725393
-1.53,-1.95,9.51,0.15,0.13,-0.09,1721206725403
-0.14,-0.31,11.92,0.19,0.12,-0.02,1721206725413
1.09,2.27,8.27,0.24,0.07,-0.01,1721206725423
1.53,3.62,10.74,0.14,0.14,-0.09,1721206725433
0.58,-0.63,11.25,0.10,0.06,-0.28,1721206725443
-1.62,-1.50,9.56,0.14,0.00,-0.15,1721206725453
-0.80,3.07,12.76,0.12,0.24,0.03,1721206725463
0.08,0.10,6.56,0.22,0.01,-0.00,1721206725473
-0.02,-1.85,6.72,0.18,0.16,-0.08,1721206725483
0.08,2.62,11.50,0.31,0.13,-0.06,1721206725493
-0.00,1.21,7.48,0.22,0.06,-0.00,1721206725503
-0.24,2.07,11.49,0.14,0.12,-0.04,1721206725513
-0.07,0.98,7.30,0.13,0.05,-0.04,1721206725523
0.37,-1.73,10.50,-0.09,0.14,-0.05,1721206725533
0.37,-1.01,13.51,0.12,0.09,-0.10,1721206725543
-0.20,0.29,5.83,0.12,0.10,-0.21,1721206725553
-1.86,2.32,8.00,0.02,0.07,-0.17,1721206725563
-1.13,0.12,8.66,0.01,0.15,-0.08,1721206725573
-0.12,-3.20,11.77,-0.15,0.13,-0.07,1721206725583
0.21,1.21,13.43,0.02,0.09,-0.03,1721206725593
1.65,2.56,5.67,-0.08,0.14,-0.09,1721206725603
1.61,0.60,12.00,-0.19,0.11,-0.23,1721206725613
0.12,-1.21,10.05,-0.05,0.05,-0.25,1721206725623
-0.56,-1.19,8.51,-0.19,0.17,-0.24,1721206725633
-0.80,-1.90,14.16,-0.20,0.12,-0.16,1721206725643
-1.29,0.47,9.63,-0.03,0.06,-0.14,1721206725653
-0.32,0.31,8.95,-0.13,0.17,-0.15,1721206725663
0.01,4.08,10.78,0.04,0.05,-0.04,1721206725673
0.49,0.93,8.14,-0.11,0.14,-0.14,1721206725683
0.01,-4.28,10.48,-0.18,0.10,-0.13,1721206725693
-0.05,-0.30,14.38,-0.16,0.18,-0.20,1721206725703
-0.83,5.20,11.32,0.02,0.06,-0.20,1721206725713
-1.07,0.64,8.56,-0.05,0.11,-0.14,1721206725723
-0.76,1.06,11.24,0.01,0.14,0.01,1721206725733
0.10,-2.99,6.61,-0.07,0.09,0.06,1721206725743
1.30,-1.64,13.06,-0.18,0.20,-0.13,1721206725753
0.84,3.28,13.20,0.05,0.09,-0.26,1721206725763
-1.74,3.92,7.18,0.10,0.06,-0.18,1721206725773
-1.94,-4.12,7.98,-0.03,0.19,-0.08,1721206725783
-1.67,-2.45,13.85,-0.01,0.07,0.11,1721206725793
1.34,4.26,15.38,0.08,0.23,0.07,1721206725803
2.02,5.22,11.28,0.10,0.06,-0.13,1721206725813
-0.07,2.77,7.14,0.13,0.07,-0.25,1721206725823
-0.84,-5.80,7.43,0.02,0.16,-0.22,1721206725833
-2.20,-0.56,9.80,0.16,0.08,-0.01,1721206725843
-0.84,1.03,4.92,0.11,0.16,0.02,1721206725853
-0.65,-4.18,10.05,-0.04,0.08,-0.04,1721206725863
-0.53,1.19,16.32,0.20,0.11,-0.07,1721206725873
1.17,0.92,4.97,0.15,0.06,-0.01,1721206725883
0.26,2.11,9.87,-0.07,0.10,-0.08,1721206725893
0.26,-0.22,15.10,-0.11,0.13,-0.17,1721206725903
-1.49,-6.66,10.64,-0.15,-0.00,-0.21,1721206725913
-3.11,0.72,15.27,-0.04,0.10,-0.09,1721206725923
-1.96,2.76,8.56,0.08,0.11,0.02,1721206725933
-0.85,2.53,7.65,0.05,0.06,0.12,1721206725943
0.38,4.81,9.94,0.11,0.11,0.14,1721206725953
1.19,-6.38,9.64,-0.15,0.03,0.05,1721206725963
0.83,2.95,13.73,0.02,0.10,-0.11,1721206725973
0.54,4.52,4.95,0.03,-0.01,-0.15,1721206725983
-1.18,-3.87,10.23,-0.19,0.07,-0.12,1721206725993
-1.22,-4.36,15.96,0.09,0.07,0.00,1721206726003
-0.25,0.99,8.32,0.20,0.05,0.13,1721206726013
1.14,6.35,13.30,0.13,0.17,0.04,1721206726023
1.60,7.66,8.41,0.38,-0.00,-0.09,1721206726033
0.58,2.05,3.34,0.11,0.08,-0.13,1721206726043
-0.52,-4.42,7.56,0.03,0.05,-0.02,1721206726053
-0.77,-3.08,14.00,-0.10,0.18,-0.11,1721206726063
-1.51,2.90,18.31,0.02,-0.01,-0.04,1721206726073
-2.03,2.42,6.61,0.07,-0.01,0.02,1721206726083
-1.57,-0.95,6.01,0.10,0.05,0.11,1721206726093
0.78,-4.83,8.58,0.04,0.10,0.22,1721206726103
2.35,3.24,15.76,0.16,0.10,0.19,1721206726113
1.34,10.20,6.48,0.33,-0.03,-0.14,1721206726123
-0.58,-1.06,3.98,-0.09,0.04,-0.20,1721206726133
-2.08,-10.63,18.16,-0.28,0.15,0.03,1721206726143
-2.01,7.66,14.76,0.29,-0.04,0.08,1721206726153
-0.73,-0.62,-2.03,-0.16,-0.01,0.09,1721206726163
-2.38,-6.10,19.49,-0.29,0.06,0.15,1721206726173
0.18,2.69,13.90,0.29,-0.07,0.26,1721206726183
2.02,6.61,1.64,0.06,0.08,0.10,1721206726193
0.88,3.33,8.46,-0.19,-0.03,-0.14,1721206726203
-1.70,-3.34,13.20,-0.16,-0.06,-0.16,1721206726213
-3.15,-5.02,10.32,-0.16,0.00,0.03,1721206726223
-2.73,-3.47,10.42,-0.15,-0.04,0.31,1721206726233
0.44,-4.17,13.05,-0.15,-0.05,0.45,1721206726243
1.73,7.29,13.78,0.09,-0.05,0.18,1721206726253
2.26,10.07,8.97,0.18,-0.11,0.03,1721206726263
1.24,0.95,6.77,-0.02,-0.04,-0.02,1721206726273
-1.36,-5.86,10.41,-0.14,-0.04,-0.09,1721206726283
-2.33,1.07,5.84,0.11,-0.11,0.11,1721206726293
-1.39,-2.27,0.86,-0.07,-0.09,0.30,1721206726303
1.22,-8.28,18.66,-0.24,-0.00,0.34,1721206726313
2.59,6.96,19.45,0.35,-0.13,0.20,1721206726323
4.03,3.77,1.89,0.05,-0.06,0.04,1721206726333
0.45,1.73,11.77,-0.19,-0.02,-0.29,1721206726343
-2.56,-1.28,12.73,0.02,-0.14,-0.18,1721206726353
-2.59,1.32,6.93,0.13,-0.02,0.17,1721206726363
0.79,-2.83,3.18,-0.05,-0.02,0.32,1721206726373
2.86,-7.95,13.93,-0.40,-0.00,0.07,1721206726383
0.49,2.90,22.36,-0.04,-0.14,-0.16,1721206726393
-0.09,2.20,8.29,0.07,-0.08,-0.12,1721206726403
-1.39,0.48,6.58,-0.03,-0.05,0.03,1721206726413
0.12,3.22,9.47,0.17,0.05,0.11,1721206726423
2.58,3.30,6.70,0.10,0.03,0.07,1721206726433
2.89,-8.40,6.18,-0.28,-0.01,-0.09,1721206726443
0.15,-5.12,22.62,-0.25,-0.03,-0.22,1721206726453
-0.97,4.96,13.09,0.22,-0.11,-0.19,1721206726463
-0.11,2.89,2.97,0.13,0.08,-0.02,1721206726473
1.18,3.59,11.74,0.20,0.15,-0.04,1721206726483
1.31,2.90,9.36,0.26,0.01,-0.25,1721206726493
0.26,1.90,9.49,0.13,0.11,-0.30,1721206726503
-0.61,-0.85,7.68,0.05,0.03,-0.20,1721206726513
-1.21,-5.10,12.93,-0.20,0.09,-0.17,1721206726523
-1.23,2.10,17.06,0.15,-0.00,-0.13,1721206726533
-0.24,0.74,1.93,0.24,0.03,-0.11,1721206726543
-1.08,-2.16,17.24,-0.18,0.16,-0.19,1721206726553
-1.48,8.31,24.02,0.29,0.02,-0.12,1721206726563
-0.20,8.42,1.03,0.35,0.07,-0.14,1721206726573
-0.04,-4.35,2.12,-0.18,0.11,-0.04,1721206726583
-0.17,-2.17,13.17,0.06,0.09,-0.12,1721206726593
-0.16,1.29,7.71,0.18,0.04,-0.25,1721206726603
-2.76,0.98,8.42,0.09,-0.02,-0.19,1721206726613
-2.64,0.75,12.49,0.06,0.04,0.09,1721206726623
1.17,2.71,11.60,0.14,0.12,0.21,1721206726633
4.40,6.31,6.12,0.15,0.10,-0.05,1721206726643
3.48,3.47,2.41,0.04,-0.01,-0.32,1721206726653
-0.27,-2.43,8.35,-0.18,0.06,-0.42,1721206726663
-2.60,-2.99,14.38,-0.17,0.09,-0.31,1721206726673
-3.15,-1.22,9.46,-0.18,-0.02,-0.10,1721206726683
-0.95,-2.83,14.48,-0.39,0.15,0.11,1721206726693
2.26,-2.01,17.64,-0.10,0.17,0.07,1721206726703
2.20,3.53,3.97,0.12,-0.04,-0.15,1721206726713
-0.29,-1.00,4.11,-0.17,0.14,-0.40,1721206726723
-1.68,-0.12,16.75,-0.10,0.06,-0.18,1721206726733
-0.90,5.10,13.04,0.08,0.10,0.07,1721206726743
0.59,-4.24,7.79,-0.31,0.17,-0.05,1721206726753
0.57,-4.06,13.90,-0.19,0.02,-0.01,1721206726763
2.87,4.92,10.59,0.03,0.24,-0.11,1721206726773
1.17,5.28,6.59,0.07,0.06,-0.52,1721206726783
-4.71,-2.66,2.37,0.10,-0.10,-0.43,1721206726793
-5.64,-5.46,8.73,-0.02,0.24,0.09,1721206726803
-1.44,1.43,16.18,0.02,0.13,0.41,1721206726813
3.33,4.94,10.00,-0.00,0.17,0.19,1721206726823
3.55,-3.83,7.64,-0.26,0.03,-0.19,1721206726833
1.20,-2.64,19.19,-0.15,0.12,-0.35,1721206726843
-1.92,2.60,10.66,0.15,-0.00,-0.28,1721206726853
-4.06,1.50,7.95,-0.07,0.08,-0.07,1721206726863
-2.71,-2.27,17.17,-0.16,0.10,0.24,1721206726873
0.34,0.80,11.95,0.13,0.04,0.29,1721206726883
2.14,1.40,1.24,0.15,0.04,-0.06,1721206726893
3.03,1.03,8.85,0.10,0.15,-0.21,1721206726903
-0.13,-1.47,12.81,0.20,0.05,-0.08,1721206726913
-1.63,0.18,8.95,0.08,0.05,-0.15,1721206726923
-2.99,1.50,14.73,-0.02,0.08,-0.17,1721206726933
-1.65,3.11,15.13,-0.03,0.02,0.16,1721206726943
0.77,1.02,8.49,0.02,0.04,0.20,1721206726953
1.18,-0.16,3.12,0.04,-0.04,-0.13,1721206726963
-0.51,-3.62,9.93,-0.10,0.03,-0.22,1721206726973
-3.03,-0.87,15.56,0.11,-0.02,0.02,1721206726983
-1.98,5.05,8.57,0.20,0.02,0.11,1721206726993
-0.18,1.85,8.19,0.02,0.05,0.12,1721206727003
0.86,-4.52,9.17,0.03,-0.04,0.14,1721206727013
2.64,0.10,12.09,0.19,0.05,0.11,1721206727023
2.57,7.68,7.42,0.28,-0.02,-0.09,1721206727033
0.76,3.40,9.61,-0.01,0.01,-0.30,1721206727043
-1.89,-0.94,13.17,-0.01,-0.07,-0.21,1721206727053
-2.33,-2.95,9.04,-0.04,0.04,0.05,1721206727063
-0.68,-2.08,11.46,-0.16,0.08,0.14,1721206727073
-0.06,1.50,8.98,0.07,-0.07,0.03,1721206727083
-0.07,2.26,9.53,0.08,0.06,-0.03,1721206727093
-0.30,0.66,6.10,0.19,-0.09,0.17,1721206727103
0.32,0.05,11.22,-0.11,0.11,0.16,1721206727113
0.64,4.62,18.25,-0.03,-0.01,-0.08,1721206727123
-0.47,-3.33,11.55,-0.26,-0.10,-0.12,1721206727133
-2.88,-1.22,14.45,0.02,-0.09,0.04,1721206727143
-1.23,2.93,3.55,0.14,0.03,0.17,1721206727153
1.73,1.63,13.84,-0.02,0.09,0.14,1721206727168
1.39,2.65,14.02,0.10,0.01,0.08,1721206727172
2.28,-1.34,5.77,0.11,-0.06,0.01,1721206727182
-0.20,-0.88,7.81,-0.08,-0.02,-0.07,1721206727192
-1.70,6.04,11.99,0.03,-0.04,-0.07,1721206727202
-0.77,-1.43,5.57,-0.10,-0.10,0.04,1721206727212
-1.52,-5.18,11.09,-0.22,0.01,0.11,1721206727222
-0.40,-3.36,13.11,-0.19,0.02,0.01,1721206727232
-0.83,2.62,17.40,-0.24,-0.10,0.03,1721206727242
-0.99,4.91,11.04,-0.05,-0.17,0.08,1721206727252
1.69,-0.44,2.06,-0.10,0.02,0.22,1721206727262
0.51,-4.31,6.56,-0.15,-0.06,-0.01,1721206727272
0.22,-6.68,6.01,-0.06,-0.13,-0.14,1721206727282
-1.67,2.83,15.15,-0.03,-0.03,-0.08,1721206727292
-1.62,10.04,16.46,0.02,-0.11,0.15,1721206727302
0.55,3.22,9.77,-0.13,-0.03,0.23,1721206727312
2.02,-7.87,8.43,-0.41,-0.05,0.07,1721206727322
0.91,-3.08,11.55,-0.20,-0.04,-0.24,1721206727332
-1.49,1.61,9.80,-0.01,-0.14,-0.19,1721206727342
-2.94,-1.07,7.92,0.04,-0.19,0.22,1721206727352
-0.07,0.18,9.26,0.15,-0.01,0.40,1721206727362
2.89,3.34,9.71,0.07,-0.07,0.22,1721206727372
2.75,3.35,13.34,-0.07,-0.15,-0.05,1721206727382
1.05,-1.76,14.94,-0.14,-0.06,-0.24,1721206727392
-2.52,-0.62,12.32,0.09,-0.17,-0.18,1721206727402
-2.57,-0.35,5.27,0.10,-0.08,0.10,1721206727412
0.34,1.34,11.55,0.03,0.00,0.32,1721206727422
3.02,-0.29,13.63,0.05,-0.08,0.17,1721206727432
3.06,0.85,11.32,0.11,-0.10,-0.07,1721206727442
1.82,4.81,10.56,0.11,-0.09,-0.19,1721206727452
-0.34,-2.95,6.84,0.06,-0.12,-0.23,1721206727462
-2.95,2.27,0.28,0.16,-0.20,-0.03,1721206727472
0.40,-5.94,11.17,-0.25,0.23,0.11,1721206727482
1.17,-1.75,28.90,0.09,-0.07,0.10,1721206727492
1.89,2.72,10.09,0.26,-0.12,-0.03,1721206727502
2.00,-1.17,6.83,-0.11,0.02,-0.10,1721206727512
0.60,6.12,12.28,0.29,-0.07,-0.22,1721206727522
0.95,2.29,3.67,0.23,0.05,-0.30,1721206727532
-0.73,-1.52,9.95,0.27,-0.01,-0.15,1721206727542
-0.52,0.14,3.18,0.29,0.01,-0.17,1721206727552
-0.41,0.98,7.18,-0.11,0.06,-0.17,1721206727562
-1.22,-2.03,17.23,-0.09,-0.08,-0.19,1721206727572
-0.49,-0.42,14.47,0.18,-0.01,-0.17,1721206727582
-0.30,1.18,3.11,0.20,-0.04,-0.14,1721206727592
-0.21,0.01,11.92,-0.13,0.11,-0.16,1721206727602
-0.38,2.24,19.63,0.08,0.02,-0.28,1721206727612
-1.16,7.04,6.07,0.25,-0.06,-0.23,1721206727622
-0.76,1.82,4.04,-0.14,0.08,-0.08,1721206727632
0.58,-2.76,15.04,-0.15,0.06,-0.09,1721206727642
0.71,-2.20,12.87,-0.08,-0.04,-0.23,1721206727652
-0.33,1.65,8.98,-0.06,-0.06,-0.15,1721206727662
0.61,1.36,10.46,-0.07,0.10,-0.13,1721206727672
0.25,-0.35,9.44,0.11,-0.06,-0.12,1721206727682
-0.38,2.82,7.30,0.09,0.09,-0.16,1721206727692
-0.28,0.99,7.33,0.02,-0.00,-0.13,1721206727702
0.01,-0.03,9.73,-0.01,0.00,-0.05,1721206727712
1.43,-5.02,9.53,-0.15,0.10,-0.16,1721206727722
0.26,0.69,15.60,-0.03,-0.07,-0.14,1721206727732
0.45,4.99,6.34,0.12,0.00,-0.10,1721206727742
0.75,0.36,9.04,-0.16,0.19,-0.31,1721206727752
-1.27,-5.91,10.08,-0.19,-0.13,-0.17,1721206727762
-1.20,4.10,12.63,0.10,0.11,-0.01,1721206727772
1.88,-0.04,0.73,0.03,0.11,-0.23,1721206727782
-1.22,-5.34,7.98,-0.12,0.02,-0.30,1721206727792
-2.20,-1.56,14.80,0.03,0.10,-0.07,1721206727802
-0.81,7.52,15.04,0.10,0.11,-0.03,1721206727812
1.16,-0.46,10.70,-0.14,0.02,-0.03,1721206727822
1.23,-2.99,16.63,-0.23,0.09,-0.15,1721206727832
1.50,2.59,13.39,-0.01,0.09,-0.25,1721206727842
-0.44,4.30,7.81,0.02,0.04,-0.37,1721206727852
-3.17,4.09,10.42,0.12,0.02,-0.28,1721206727862
-3.70,-3.34,5.86,0.17,0.03,-0.12,1721206727872
-1.33,-3.75,8.77,0.09,0.14,0.11,1721206727882
1.88,3.49,12.22,0.20,0.12,0.07,1721206727892
3.41,1.45,10.36,0.11,0.06,-0.14,1721206727902
1.36,3.51,8.07,0.26,-0.04,-0.38,1721206727912
0.01,-3.33,6.52,0.06,0.12,-0.38,1721206727922
-1.24,-3.82,17.74,-0.10,0.15,-0.21,1721206727932
-1.09,3.97,12.43,0.20,0.04,-0.20,1721206727942
-0.91,-1.60,1.98,0.03,0.08,-0.25,1721206727952
-1.48,-2.67,9.42,0.08,0.14,-0.14,1721206727962
-0.65,0.50,10.37,0.15,0.11,-0.12,1721206727972
-0.17,5.02,12.33,0.03,0.12,-0.21,1721206727982
-0.48,1.10,7.38,-0.03,0.04,-0.24,1721206727992
-1.08,-8.11,9.44,-0.28,0.17,-0.30,1721206728002
-1.62,2.26,16.15,-0.01,0.08,-0.21,1721206728012
-1.84,5.39,5.27,0.04,0.01,-0.13,1721206728022
-0.82,-6.91,8.29,-0.24,0.15,-0.08,1721206728032
-0.27,0.10,13.48,0.06,0.07,-0.02,1721206728042
1.60,5.13,11.79,-0.05,0.16,-0.09,1721206728052
0.89,5.09,11.78,-0.02,0.02,-0.22,1721206728062
-0.14,0.25,2.26,0.07,0.02,-0.23,1721206728072
-0.47,-2.69,8.94,-0.12,0.26,-0.22,1721206728082
-1.80,1.13,15.55,-0.06,0.07,-0.15,1721206728092
-1.76,-1.23,14.76,-0.22,0.10,0.01,1721206728102
-0.78,4.65,14.75,0.03,0.08,0.11,1721206728112
0.80,4.32,5.43,-0.00,0.15,-0.08,1721206728122
-0.11,2.57,10.50,-0.02,0.02,-0.09,1721206728132
-0.12,1.42,9.74,0.02,0.08,0.08,1721206728142
-0.01,2.04,7.95,0.08,0.05,-0.00,1721206728152
-0.69,-1.86,8.08,-0.05,0.06,-0.13,1721206728162
-1.64,-0.78,15.87,-0.05,0.04,0.03,1721206728172
-0.16,1.81,13.12,0.09,0.06,0.16,1721206728182
-0.02,4.59,5.43,0.17,0.02,-0.04,1721206728192
-0.12,-1.33,7.35,-0.07,0.07,-0.11,1721206728202
-0.97,0.63,21.44,-0.01,0.10,-0.01,1721206728212
-0.54,5.70,8.03,0.28,-0.04,0.03,1721206728222
-0.66,-2.74,-3.78,-0.08,0.02,-0.00,1721206728232
0.09,-7.83,14.25,-0.20,0.17,-0.01,1721206728242
-0.29,0.75,16.47,0.17,-0.01,-0.01,1721206728252
-1.81,4.42,4.42,0.14,-0.03,-0.04,1721206728262
-0.29,-0.87,7.52,-0.04,0.08,0.02,1721206728272
1.50,-3.50,13.75,-0.16,0.11,-0.01,1721206728282
0.03,0.05,15.22,-0.08,0.01,-0.13,1721206728292
-1.70,1.91,4.74,0.07,-0.04,-0.11,1721206728302
-0.77,-3.44,5.97,-0.16,0.12,0.07,1721206728312
0.91,-2.09,16.83,-0.08,0.12,0.11,1721206728322
1.37,6.94,10.77,0.08,-0.03,-0.01,1721206728332
1.11,0.32,4.10,-0.17,0.04,-0.13,1721206728342
-0.47,-4.60,12.49,-0.22,0.06,-0.18,1721206728352
-1.52,0.65,15.11,-0.05,0.00,-0.11,1721206728362
-1.68,3.91,7.11,0.06,0.02,-0.00,1721206728372
-0.42,-1.36,7.43,-0.09,0.12,0.04,1721206728382
0.47,-4.23,14.59,-0.05,0.05,0.09,1721206728392
0.62,4.91,11.00,0.15,0.07,0.00,1721206728402
0.50,1.90,5.58,0.07,0.02,-0.06,1721206728412
0.28,-1.78,15.73,0.06,0.06,-0.04,1721206728422
1.02,4.24,10.41,0.26,0.01,0.03,1721206728432
0.58,2.96,4.46,0.15,0.07,-0.02,1721206728442
0.14,-1.23,11.14,0.03,0.10,-0.09,1721206728452
-0.78,-1.09,13.25,0.09,0.01,-0.08,1721206728462
-0.27,2.74,10.54,0.16,0.10,0.02,1721206728472
1.02,0.28,5.95,0.09,0.10,0.11,1721206728482
0.36,-3.29,12.75,-0.12,0.07,-0.01,1721206728492
0.35,1.91,15.00,0.12,0.05,-0.06,1721206728502
0.44,1.66,5.26,0.09,0.07,-0.03,1721206728512
-0.66,-2.51,11.09,-0.08,0.09,-0.03,1721206728522
-0.64,1.07,16.22,0.08,0.08,-0.02,1721206728532
-0.25,2.66,7.41,0.11,0.01,0.04,1721206728542
0.08,-0.00,7.58,0.02,0.08,0.09,1721206728552
0.91,-3.63,10.38,0.00,0.10,-0.01,1721206728562
-0.40,1.51,11.34,0.13,0.01,-0.08,1721206728572
-1.49,0.92,4.88,0.12,-0.01,-0.07,1721206728582
-1.73,-0.86,10.41,-0.05,0.10,0.05,1721206728592
-0.29,2.70,14.18,0.11,0.04,0.10,1721206728602
0.77,0.13,2.92,0.06,-0.04,0.15,1721206728612
1.03,-5.12,7.73,-0.15,0.12,0.02,1721206728622
0.64,0.79,16.31,-0.08,-0.02,-0.04,1721206728632
0.20,6.03,13.05,0.02,-0.01,-0.01,1721206728642
0.11,2.80,8.04,-0.08,0.02,-0.06,1721206728652
0.37,-4.03,9.74,-0.29,0.04,-0.04,1721206728662
0.07,-2.22,14.43,-0.25,0.05,0.02,1721206728672
0.35,3.53,12.47,-0.09,0.02,-0.05,1721206728682
0.28,0.53,6.73,-0.03,-0.03,-0.07,1721206728692
-0.47,-0.07,9.23,0.01,0.02,-0.05,1721206728702
-0.27,3.02,14.07,0.03,0.04,0.02,1721206728712
0.21,4.46,9.49,0.08,0.01,0.04,1721206728722
1.71,-2.02,6.40,-0.15,0.04,0.01,1721206728732
1.10,-3.73,15.03,-0.10,0.02,-0.12,1721206728742
-0.19,0.63,11.86,0.13,-0.05,-0.18,1721206728752
-1.56,6.17,9.40,0.13,-0.03,-0.14,1721206728762
-1.79,0.23,9.62,0.04,0.04,-0.04,1721206728772
-0.95,-1.31,11.85,0.06,0.02,0.10,1721206728782
1.56,1.91,10.54,0.13,0.07,0.08,1721206728792
1.77,2.79,4.81,0.22,-0.06,0.00,1721206728802
1.18,-0.14,3.93,0.17,0.03,-0.16,1721206728812
-0.11,-12.30,3.71,-0.06,-0.04,-0.19,1721206728822
-2.55,-6.47,19.67,-0.04,0.05,-0.10,1721206728832
-0.97,7.55,20.25,0.27,0.03,-0.10,1721206728842
-1.92,3.85,6.87,0.20,-0.06,0.02,1721206728852
0.33,1.35,6.73,0.16,0.12,0.11,1721206728862
2.67,7.04,7.79,0.25,0.07,0.11,1721206728872
2.63,-2.14,6.90,-0.16,0.08,-0.15,1721206728882
0.63,-6.28,14.60,-0.22,0.02,-0.42,1721206728892
-3.05,3.19,10.02,0.07,-0.03,-0.39,1721206728902
-4.24,-1.97,7.47,-0.19,0.10,-0.07,1721206728912
-2.37,-3.34,16.88,-0.08,0.08,0.20,1721206728922
1.16,1.08,8.39,0.22,0.04,0.18,1721206728932
2.65,-0.57,2.00,0.21,0.07,-0.05,1721206728942
-0.68,-2.94,8.76,0.05,-0.01,-0.34,1721206728952
0.05,4.60,17.70,0.15,0.03,-0.33,1721206728962
-1.78,8.64,11.14,0.19,-0.01,-0.24,1721206728972
-2.73,-6.23,3.44,-0.16,-0.00,-0.08,1721206728982
-1.57,-10.35,17.26,-0.36,0.11,0.06,1721206728992
1.38,6.88,17.78,0.04,0.09,0.03,1721206729002
-0.17,11.12,0.33,0.34,-0.11,-0.25,1721206729012
-1.80,-4.65,-2.59,0.22,-0.06,-0.28,1721206729022
1.87,-3.55,10.03,0.02,0.02,0.04,1721206729032
0.78,4.47,14.72,0.27,0.05,0.15,1721206729042
1.56,5.48,3.29,0.05,0.11,-0.19,1721206729052
-0.78,-10.38,15.09,-0.50,-0.07,-0.37,1721206729062
-2.79,3.40,27.59,0.06,0.00,-0.21,1721206729072
-2.48,8.88,0.00,0.46,-0.02,-0.04,1721206729082
0.68,-3.16,2.16,-0.17,0.15,0.11,1721206729092
3.92,-0.96,25.40,-0.02,0.20,0.07,1721206729102
4.55,8.05,5.92,0.53,-0.12,-0.11,1721206729112
2.07,2.34,-5.75,0.12,0.05,-0.39,1721206729122
-1.82,-4.95,9.50,-0.04,0.05,-0.51,1721206729132
-4.06,-4.26,9.99,0.09,-0.01,-0.29,1721206729142
-4.12,0.15,17.57,-0.11,0.27,0.01,1721206729152
-2.11,1.81,18.03,0.07,0.06,-0.01,1721206729162
-0.10,4.52,14.54,0.06,0.15,0.02,1721206729177
0.37,5.46,9.27,0.11,-0.02,0.06,1721206729181
1.25,0.63,1.99,-0.06,0.12,-0.07,1721206729191
-0.00,-2.08,9.77,-0.14,0.07,-0.27,1721206729201
-1.07,-1.13,12.41,0.10,0.02,-0.18,1721206729211
-0.91,-2.54,6.51,0.06,0.12,-0.02,1721206729221
-1.09,2.56,11.49,-0.10,0.15,-0.05,1721206729231
-0.52,6.28,12.49,-0.05,0.01,-0.16,1721206729241
-2.15,0.20,7.96,-0.13,-0.01,-0.14,1721206729251
-3.04,-6.10,8.20,-0.27,0.04,-0.02,1721206729261
-0.95,-6.44,15.17,-0.32,0.18,-0.03,1721206729271
-2.13,2.22,13.78,-0.18,-0.09,-0.09,1721206729281
-2.71,5.80,9.51,-0.02,-0.01,0.03,1721206729291
-0.64,-2.10,3.51,0.02,-0.01,0.32,1721206729301
2.42,-5.50,11.51,-0.22,0.17,0.18,1721206729311
1.07,9.82,18.26,0.07,-0.06,-0.12,1721206729321
0.04,1.29,6.61,0.02,-0.10,-0.21,1721206729331
-3.60,-4.66,7.45,-0.13,-0.04,-0.08,1721206729341
-3.28,-0.72,10.51,0.06,0.06,0.19,1721206729351
-0.11,3.79,10.74,0.13,0.02,0.30,1721206729361
1.75,-0.97,7.73,0.11,-0.05,0.22,1721206729371
2.38,1.84,10.29,0.02,-0.01,0.06,1721206729381
0.21,1.24,11.40,0.00,-0.13,-0.04,1721206729391
-0.95,-3.68,9.38,0.02,-0.10,0.01,1721206729401
-1.00,-1.35,8.20,0.12,0.01,0.06,1721206729411
-1.93,3.59,8.98,0.15,-0.13,0.15,1721206729421
-0.27,1.98,14.66,0.02,0.00,0.23,1721206729431
0.72,-6.53,14.33,-0.05,-0.09,0.14,1721206729441
0.88,3.91,14.30,0.08,-0.06,0.08,1721206729451
0.50,7.76,8.38,0.16,-0.16,0.14,1721206729461
0.83,-7.90,3.03,-0.05,-0.07,0.15,1721206729471
1.26,-8.19,13.10,0.02,0.07,0.02,1721206729481
0.81,11.52,15.65,0.44,-0.17,0.12,1721206729491
2.58,6.77,0.89,0.26,-0.04,0.25,1721206729501
2.58,-10.72,9.53,-0.28,0.07,-0.08,1721206729511
0.29,0.43,20.32,0.19,-0.17,-0.19,1721206729521
-0.71,5.65,3.70,0.19,-0.15,0.05,1721206729531
-0.05,-2.76,6.75,-0.20,0.09,0.12,1721206729541
0.36,-6.53,16.91,-0.04,-0.07,-0.06,1721206729551
0.11,-1.58,9.76,0.18,-0.13,0.07,1721206729561
1.14,3.61,7.65,0.06,0.07,0.13,1721206729571
1.60,4.05,14.08,0.16,-0.00,-0.08,1721206729581
1.18,0.61,3.70,0.31,-0.15,-0.06,1721206729591
1.28,-4.92,-1.10,-0.06,0.08,-0.08,1721206729601
0.61,-5.91,21.31,-0.36,0.13,-0.27,1721206729611
-3.09,7.44,24.07,0.36,-0.27,-0.27,1721206729621
-1.97,-1.41,-6.19,0.13,-0.02,-0.00,1721206729631
0.67,-5.81,7.76,-0.45,0.26,0.19,1721206729641
2.33,8.56,31.35,0.09,0.08,-0.14,1721206729651
0.91,11.35,3.78,0.54,-0.25,-0.39,1721206729661
-0.54,-6.70,-12.98,-0.42,0.10,-0.13,1721206729671
-1.29,-12.57,22.26,-0.71,0.23,-0.13,1721206729681
-0.80,8.44,28.02,0.31,-0.15,-0.28,1721206729691
-0.72,7.12,-9.85,0.18,-0.14,-0.18,1721206729701
-1.71,-5.60,16.94,-0.50,0.31,-0.16,1721206729711
-0.87,2.01,27.81,0.10,-0.02,-0.10,1721206729721
0.72,8.97,3.44,0.18,0.03,-0.02,1721206729731
2.11,5.99,3.58,-0.08,0.07,-0.13,1721206729741
1.70,-5.87,4.23,0.08,-0.07,-0.33,1721206729751
-0.71,-5.15,9.62,0.06,0.05,-0.34,1721206729761
-3.19,3.78,12.09,0.18,-0.06,-0.20,1721206729771
-2.41,4.28,10.94,0.00,0.07,-0.05,1721206729781
-0.74,3.52,9.02,0.10,-0.03,0.10,1721206729791
3.30,-8.01,12.72,-0.33,0.17,0.09,1721206729801
3.10,2.65,19.18,0.06,0.01,-0.17,1721206729811
2.10,9.22,-2.08,0.31,-0.03,-0.34,1721206729821
-1.31,-9.14,-0.72,-0.41,0.06,-0.41,1721206729831
-4.76,-5.48,28.45,-0.23,0.07,-0.30,1721206729841
-2.26,6.18,11.07,0.42,-0.02,0.03,1721206729851
0.51,-1.23,-2.19,-0.13,0.15,0.24,1721206729861
2.44,1.04,13.57,0.07,0.16,0.08,1721206729871
4.99,-3.93,2.59,0.17,0.04,-0.08,1721206729881
1.83,2.80,11.26,-0.09,0.14,-0.47,1721206729891
-2.02,2.23,16.31,0.00,-0.01,-0.54,1721206729901
-4.64,-5.38,7.93,-0.22,-0.03,-0.18,1721206729911
-2.42,-0.73,17.85,-0.30,0.27,0.19,1721206729921
0.83,5.92,13.53,-0.01,0.08,0.06,1721206729931
1.90,0.68,4.87,-0.09,0.04,-0.26,1721206729941
-1.09,-6.52,3.93,-0.02,-0.03,-0.33,1721206729951
-2.76,0.90,10.24,0.01,0.15,-0.20,1721206729961
-1.35,3.33,13.37,-0.06,0.08,-0.04,1721206729971
-0.38,1.83,18.71,-0.19,0.12,0.02,1721206729981
0.83,0.73,9.82,0.02,-0.00,-0.09,1721206729991
1.72,-10.05,7.21,-0.31,0.13,-0.24,1721206730001
1.03,6.61,17.01,0.07,0.07,-0.33,1721206730011
-1.55,9.70,6.69,0.27,0.02,-0.36,1721206730021
-3.21,-6.56,4.57,-0.03,0.04,-0.22,1721206730031
-2.86,-4.01,14.09,0.08,0.16,0.04,1721206730041
0.76,1.98,8.63,0.09,0.13,0.04,1721206730051
1.88,8.55,10.05,0.10,0.11,-0.18,1721206730061
0.72,-0.45,5.20,-0.00,0.04,-0.33,1721206730071
-2.38,-6.34,13.97,-0.14,0.08,-0.31,1721206730081
-2.50,4.57,16.89,0.14,0.08,-0.08,1721206730091
-1.18,6.97,6.19,-0.06,0.07,0.02,1721206730101
0.28,-6.52,13.09,-0.30,0.12,-0.02,1721206730111
0.92,-2.47,11.55,0.12,0.02,-0.05,1721206730121
1.67,2.35,3.50,0.21,0.16,-0.08,1721206730131
1.19,5.39,9.10,0.16,0.15,-0.22,1721206730141
0.60,1.38,11.25,0.09,0.09,-0.10,1721206730151
-0.57,0.07,13.81,0.00,0.15,-0.06,1721206730161
0.20,-0.32,12.25,-0.04,0.14,-0.18,1721206730171
-0.04,5.17,12.05,0.10,0.11,-0.19,1721206730181
-1.32,4.65,2.68,0.07,0.08,-0.08,1721206730191
-2.02,-4.33,10.50,-0.17,0.20,-0.07,1721206730201
-1.41,-1.42,15.82,0.11,0.12,0.06,1721206730211
-0.77,0.01,5.27,0.02,0.06,0.03,1721206730221
-0.68,2.04,11.39,-0.07,0.12,-0.01,1721206730231
-0.66,3.53,12.52,0.06,0.05,0.05,1721206730241
-0.65,0.11,8.14,0.08,0.05,0.04,1721206730251
-0.22,-2.98,6.66,0.01,0.12,0.02,1721206730261
-0.71,-0.21,12.12,-0.11,0.07,0.02,1721206730271
-1.83,0.95,17.93,-0.23,0.02,0.03,1721206730281
-2.94,3.70,16.30,0.04,-0.05,0.03,1721206730291
-1.25,2.05,3.04,0.19,0.01,0.18,1721206730301
-0.11,2.60,2.78,0.17,0.05,0.25,1721206730311
1.41,-1.57,8.54,0.01,0.10,0.06,1721206730321
-0.94,-3.32,13.93,0.07,-0.09,-0.03,1721206730331
-2.46,0.01,8.66,0.21,-0.08,0.16,1721206730341
0.51,2.04,9.56,0.04,0.07,0.32,1721206730351
1.81,9.59,14.65,0.16,-0.04,0.30,1721206730361
3.40,2.52,6.74,-0.03,0.05,0.01,1721206730371
1.61,-12.61,10.42,-0.29,-0.03,-0.27,1721206730381
-3.88,-1.39,13.80,0.05,-0.12,-0.19,1721206730391
-3.31,0.93,4.57,0.06,0.02,0.18,1721206730401
-1.00,4.95,11.00,0.16,-0.04,0.45,1721206730411
4.31,2.32,3.68,0.22,0.05,0.31,1721206730421
5.55,-4.64,11.73,-0.18,0.05,-0.11,1721206730431
-0.71,-2.61,18.68,-0.12,-0.15,-0.47,1721206730441
-5.09,3.14,9.33,0.08,-0.09,-0.33,1721206730451
-4.56,1.53,7.58,-0.06,-0.03,0.22,1721206730461
-0.10,-1.81,10.77,0.02,0.04,0.53,1721206730471
4.36,-1.52,6.97,0.04,0.06,0.22,1721206730481
2.96,-0.91,8.42,-0.16,-0.08,-0.19,1721206730491
-1.62,-3.43,13.92,-0.20,-0.15,-0.30,1721206730501
-2.48,1.67,13.52,0.15,-0.09,-0.00,1721206730511
-0.73,0.41,1.86,0.17,-0.12,0.32,1721206730521
1.33,1.89,8.86,0.07,0.08,0.23,1721206730531
1.85,-3.21,14.80,-0.14,-0.07,-0.08,1721206730541
-1.62,2.88,24.24,-0.09,-0.15,-0.15,1721206730551
-1.01,6.78,12.83,0.24,-0.12,0.11,1721206730561
2.04,1.78,-0.11,0.16,-0.02,0.36,1721206730571
3.58,-1.36,6.05,0.14,0.11,0.10,1721206730581
2.43,-1.08,8.36,0.16,-0.12,-0.33,1721206730591
-1.40,4.51,12.75,0.24,-0.07,-0.25,1721206730601
-1.61,3.68,9.77,0.23,-0.03,0.13,1721206730611
0.28,-1.65,11.83,-0.04,0.03,0.23,1721206730621
2.60,-0.48,13.94,0.09,-0.02,0.12,1721206730631
2.49,-0.14,3.14,0.05,-0.09,-0.05,1721206730641
0.34,-0.88,15.46,-0.13,0.06,-0.26,1721206730651
