AccX,AccY,AccZ,GyrX,GyrY,GyrZ,Time
2.21,6.26,11.72,0.38,-0.05,-0.15,1721207464157
-0.74,3.70,7.36,0.36,-0.05,-0.12,1721207464162
-0.62,3.55,9.24,0.20,0.19,0.03,1721207464172
0.67,1.60,13.72,0.13,0.05,0.12,1721207464182
0.63,-0.01,8.88,0.06,-0.09,0.07,1721207464192
-1.56,2.23,11.45,-0.01,-0.08,-0.01,1721207464202
-1.91,0.10,5.97,0.09,-0.09,-0.06,1721207464212
-3.72,-0.34,6.74,-0.11,0.04,-0.07,1721207464222
-6.87,1.74,9.41,0.01,-0.09,0.09,1721207464232
-6.51,1.00,7.75,-0.04,0.01,0.34,1721207464242
-2.01,-0.37,11.37,-0.07,0.09,0.56,1721207464252
1.27,-4.53,9.82,-0.19,-0.16,0.61,1721207464262
4.37,-2.65,17.87,-0.21,0.05,0.36,1721207464272
4.17,-3.73,14.61,0.03,-0.31,0.04,1721207464282
1.39,0.18,6.08,0.00,-0.03,-0.16,1721207464292
-1.52,0.09,6.67,-0.09,-0.13,-0.05,1721207464302
-3.00,-0.04,10.69,-0.15,-0.17,0.18,1721207464312
0.95,-3.64,8.94,-0.09,0.00,0.33,1721207464322
0.84,1.98,14.00,-0.22,0.05,0.10,1721207464332
-0.83,-5.18,12.91,-0.37,-0.41,0.01,1721207464342
-3.04,0.90,14.26,-0.17,-0.06,-0.02,1721207464352
-1.06,0.16,6.65,0.06,-0.08,0.35,1721207464362
-0.62,-3.22,7.01,-0.20,-0.02,0.53,1721207464372
2.36,-0.03,14.36,0.05,-0.02,0.46,1721207464382
5.48,7.46,8.98,0.39,-0.06,0.20,1721207464392
4.28,-3.10,0.94,0.01,-0.21,-0.03,1721207464402
-1.81,2.92,16.98,-0.02,-0.16,-0.31,1721207464412
-1.63,-6.49,10.74,0.22,-0.21,-0.11,1721207464422
-3.50,1.87,15.92,0.21,-0.09,0.14,1721207464432
-0.57,4.37,10.31,0.30,0.01,0.50,1721207464442
1.47,0.42,5.45,0.18,-0.08,0.42,1721207464452
5.30,-6.95,9.47,0.03,0.04,0.13,1721207464462
3.96,-0.07,16.57,0.30,-0.13,-0.19,1721207464472
0.29,1.85,13.03,0.31,-0.08,-0.21,1721207464482
-2.82,0.89,7.72,0.35,-0.19,-0.01,1721207464492
0.45,0.39,8.79,0.23,0.16,0.29,1721207464502
3.16,4.40,12.68,0.34,0.00,0.21,1721207464512
3.24,4.16,4.65,0.36,-0.04,-0.02,1721207464522
2.01,-2.59,8.87,0.09,-0.01,-0.12,1721207464532
3.35,2.70,14.16,0.10,0.30,0.03,1721207464542
1.02,1.09,8.22,-0.01,-0.14,-0.07,1721207464552
-0.36,-2.25,9.82,0.01,0.05,-0.06,1721207464562
1.14,-2.86,9.53,0.03,0.20,-0.03,1721207464572
0.58,-2.05,12.54,0.11,0.19,-0.12,1721207464582
-7.56,5.09,7.75,0.10,-0.36,-0.26,1721207464592
-4.76,-0.56,7.93,-0.22,0.28,0.30,1721207464602
4.16,-0.77,11.70,-0.02,0.11,0.93,1721207464612
13.88,-2.00,2.75,-0.03,0.37,0.28,1721207464622
11.31,3.78,6.18,-0.20,0.07,-0.86,1721207464632
-2.04,-1.35,9.62,-0.26,-0.21,-1.20,1721207464642
-11.18,-4.99,12.73,-0.13,0.08,-0.62,1721207464652
-8.47,-4.76,9.25,-0.07,0.25,0.34,1721207464662
-1.20,1.08,11.37,-0.24,0.20,0.57,1721207464672
5.54,1.49,20.50,-0.15,0.28,0.03,1721207464682
2.48,-3.18,10.88,0.01,-0.19,-0.48,1721207464692
-5.28,4.53,5.98,-0.04,0.05,-0.50,1721207464702
-4.78,2.46,8.40,-0.19,0.25,-0.04,1721207464712
-1.76,-1.92,13.98,-0.22,0.05,0.38,1721207464722
2.93,-3.38,1.41,-0.00,0.12,0.35,1721207464732
8.03,-3.13,9.92,-0.35,0.42,-0.22,1721207464742
1.53,2.40,16.16,-0.15,-0.51,-0.58,1721207464752
-4.75,-2.74,11.11,-0.22,0.22,-0.58,1721207464762
-6.26,-0.65,15.47,-0.00,0.02,-0.16,1721207464772
-3.72,-0.48,14.86,-0.18,0.13,0.22,1721207464782
-0.53,7.05,13.86,0.17,-0.05,0.39,1721207464792
3.88,0.21,9.25,-0.06,0.18,0.07,1721207464802
-2.44,3.34,9.65,0.14,-0.40,-0.13,1721207464812
-1.95,-0.96,5.53,-0.01,0.30,-0.01,1721207464822
-1.28,-0.59,16.02,-0.03,-0.15,0.34,1721207464832
1.84,-4.05,8.71,-0.00,0.04,0.50,1721207464842
5.77,0.83,12.72,0.05,0.27,0.18,1721207464852
5.39,2.92,11.67,0.18,-0.06,-0.26,1721207464862
-0.12,1.98,7.75,0.13,-0.00,-0.40,1721207464872
-3.03,1.00,11.55,0.14,0.17,-0.29,1721207464882
-4.90,1.56,5.41,0.23,-0.11,0.11,1721207464892
-1.20,-3.32,7.50,-0.10,0.36,0.28,1721207464902
0.06,1.37,10.77,0.14,-0.19,0.19,1721207464912
3.48,-0.67,8.15,0.02,0.26,-0.05,1721207464922
2.29,-0.04,11.93,0.05,0.01,-0.23,1721207464932
-1.69,-6.12,12.85,-0.32,0.03,-0.30,1721207464942
-2.90,5.61,24.75,0.26,0.03,-0.19,1721207464952
-0.67,2.74,6.33,0.38,0.03,-0.12,1721207464962
-4.81,1.70,-1.47,0.08,-0.25,0.07,1721207464972
-1.44,-0.07,7.57,-0.07,0.31,0.09,1721207464982
2.99,3.86,17.59,0.15,0.09,-0.00,1721207464992
0.78,1.60,-0.64,0.09,-0.23,-0.13,1721207465002
2.26,-0.80,11.10,-0.23,0.55,-0.24,1721207465012
2.19,-2.27,16.81,0.03,-0.08,-0.13,1721207465022
-0.14,2.19,11.40,-0.00,0.06,-0.12,1721207465032
1.87,2.11,10.21,0.05,0.20,-0.16,1721207465042
2.21,-0.00,15.50,-0.10,0.23,-0.22,1721207465052
-0.97,1.80,11.34,0.12,-0.10,-0.25,1721207465062
-1.85,2.88,8.69,-0.01,0.27,-0.24,1721207465072
-2.96,2.45,7.13,0.02,0.02,-0.11,1721207465082
-3.13,-0.63,8.98,-0.14,0.20,-0.00,1721207465092
-1.44,-1.76,9.63,0.01,0.07,0.09,1721207465102
0.68,0.61,8.55,-0.07,0.20,-0.01,1721207465112
0.17,1.81,8.96,-0.01,0.05,-0.16,1721207465122
-1.46,-0.01,8.54,-0.16,0.13,-0.19,1721207465132
-2.46,-0.16,10.62,-0.05,0.06,-0.09,1721207465142
-1.59,-5.88,9.30,-0.25,0.23,-0.02,1721207465152
-1.99,-1.61,14.92,-0.11,0.02,-0.04,1721207465162
-2.06,-0.14,9.19,-0.03,0.03,-0.08,1721207465172
-2.82,2.11,6.58,-0.09,0.10,-0.01,1721207465182
-1.69,-0.49,5.89,-0.19,0.08,0.09,1721207465192
-1.03,-2.47,12.38,-0.32,0.10,0.07,1721207465202
-1.50,-0.35,11.76,-0.23,-0.01,0.01,1721207465212
-0.88,-1.37,11.46,-0.29,0.07,0.08,1721207465222
-0.73,-2.13,12.42,-0.27,-0.02,0.22,1721207465232
-0.21,1.89,10.84,-0.20,0.01,0.19,1721207465242
1.61,-0.02,8.08,-0.21,0.06,0.12,1721207465252
-0.01,-1.65,9.04,-0.26,-0.02,0.07,1721207465262
-0.51,3.48,14.67,-0.09,0.05,-0.01,1721207465272
-1.05,1.61,12.12,0.01,-0.13,0.15,1721207465282
-1.15,2.07,8.26,0.00,0.03,0.23,1721207465292
1.00,-1.32,11.76,-0.05,0.08,0.19,1721207465302
-0.62,1.44,13.99,0.00,-0.14,0.19,1721207465312
-0.64,4.52,13.09,0.26,-0.02,0.14,1721207465322
0.68,0.15,9.14,0.24,-0.00,0.13,1721207465332
-0.97,5.06,8.41,0.40,-0.21,0.25,1721207465342
-0.20,5.84,10.69,0.32,0.18,0.14,1721207465352
-1.15,1.67,12.72,0.16,-0.19,0.09,1721207465362
-1.60,-2.18,6.98,0.25,-0.18,0.16,1721207465372
0.38,-3.74,6.61,0.18,-0.00,0.34,1721207465382
1.12,2.18,7.87,0.22,-0.07,0.33,1721207465392
2.48,-6.16,6.45,0.11,-0.06,0.06,1721207465402
0.95,0.16,16.74,0.31,-0.09,-0.02,1721207465412
-0.85,3.73,8.34,0.34,-0.17,0.12,1721207465422
-1.60,3.12,12.38,0.03,0.01,0.18,1721207465432
-0.23,-4.61,10.86,-0.03,-0.13,0.24,1721207465442
0.41,-1.43,11.54,0.10,-0.06,0.26,1721207465452
2.61,-0.77,7.14,0.18,-0.01,0.30,1721207465462
3.57,-0.61,8.63,0.05,-0.03,0.15,1721207465472
1.97,-0.44,11.54,0.18,-0.11,-0.06,1721207465482
0.47,1.87,8.86,0.15,0.00,0.00,1721207465492
-0.45,-1.59,7.16,0.03,-0.05,0.13,1721207465502
-0.74,0.40,11.76,0.04,0.00,0.17,1721207465512
0.09,3.49,9.34,0.22,-0.02,0.14,1721207465522
1.28,-2.04,3.43,-0.04,-0.03,0.19,1721207465532
1.55,-1.90,11.00,-0.16,0.04,0.17,1721207465542
1.81,1.81,12.72,0.04,0.00,0.04,1721207465552
1.04,1.57,8.54,-0.00,-0.08,-0.02,1721207465562
1.36,-0.15,6.42,-0.13,0.05,0.08,1721207465572
3.08,-5.25,14.57,-0.42,0.17,-0.03,1721207465582
0.51,-0.13,24.77,-0.06,-0.12,-0.23,1721207465592
-1.38,5.81,12.09,0.23,-0.02,-0.30,1721207465602
-0.87,5.05,2.13,-0.10,0.06,-0.15,1721207465612
-1.44,-2.44,6.70,-0.32,-0.01,-0.04,1721207465622
-1.10,-1.45,4.13,-0.13,0.04,-0.08,1721207465632
-0.04,0.03,11.92,-0.29,0.18,-0.14,1721207465642
-1.23,-0.99,14.89,-0.10,-0.18,-0.10,1721207465652
-1.94,-0.74,12.18,-0.09,0.08,-0.23,1721207465662
-1.24,3.82,10.45,0.03,-0.03,-0.08,1721207465672
0.08,0.61,7.14,-0.23,0.02,0.03,1721207465682
1.43,2.42,11.73,-0.12,0.03,-0.04,1721207465692
2.97,-2.95,9.43,-0.13,0.09,-0.27,1721207465702
-2.01,-0.66,6.94,-0.08,-0.15,-0.39,1721207465712
-3.61,1.29,8.12,-0.14,0.05,-0.19,1721207465722
-2.12,-0.05,11.15,-0.20,0.05,0.04,1721207465732
0.60,-0.21,15.18,-0.21,0.13,0.09,1721207465742
1.86,-0.68,11.65,-0.14,-0.08,0.05,1721207465752
2.47,1.62,9.80,-0.20,0.09,-0.10,1721207465762
1.69,2.40,9.34,-0.18,-0.02,-0.16,1721207465772
1.22,-1.77,12.09,-0.37,0.14,-0.31,1721207465782
-1.38,-0.21,14.26,-0.08,-0.11,-0.20,1721207465792
-1.97,1.29,8.32,-0.03,0.06,0.01,1721207465802
-1.01,0.74,7.29,-0.01,0.06,0.07,1721207465812
-0.14,0.25,10.50,0.04,0.06,0.00,1721207465822
0.65,-0.39,15.64,0.09,0.07,-0.07,1721207465832
-1.13,3.85,12.31,0.26,-0.08,-0.04,1721207465842
-0.93,5.12,9.06,0.24,0.17,0.05,1721207465852
-0.67,2.23,9.26,0.24,-0.09,0.10,1721207465862
0.30,-0.47,10.72,0.19,0.06,0.08,1721207465872
0.40,4.18,9.24,0.42,-0.02,-0.04,1721207465882
-0.04,-2.87,2.49,0.20,-0.04,-0.05,1721207465892
-2.26,-1.81,8.95,0.06,0.04,0.01,1721207465902
0.76,-2.79,11.94,0.16,0.21,0.02,1721207465912
2.18,-0.49,12.43,0.15,-0.05,0.02,1721207465922
-1.17,1.26,6.94,0.15,-0.10,-0.10,1721207465932
-0.47,0.55,12.67,-0.00,0.24,-0.14,1721207465942
-0.89,-1.07,14.41,0.01,-0.06,-0.10,1721207465952
-3.56,-0.28,11.62,0.05,-0.09,-0.10,1721207465962
-2.31,-1.12,7.29,0.09,0.02,0.07,1721207465972
-1.23,-9.04,7.75,-0.15,-0.08,0.16,1721207465982
1.10,5.83,20.02,0.23,0.29,0.02,1721207465992
3.16,2.52,8.21,0.29,-0.22,-0.18,1721207466002
-3.83,5.19,6.87,0.09,-0.10,-0.33,1721207466012
-2.43,-0.79,10.21,0.13,0.05,-0.14,1721207466022
-1.50,1.85,14.32,0.11,-0.04,0.09,1721207466032
-1.98,3.73,2.62,0.31,-0.27,0.09,1721207466042
-0.03,-1.21,3.29,0.09,0.07,0.07,1721207466052
0.64,-1.27,7.05,0.13,-0.13,0.05,1721207466062
2.43,0.94,11.87,0.09,0.14,-0.04,1721207466072
2.22,5.10,11.65,0.19,-0.08,-0.17,1721207466082
0.47,-0.58,9.21,-0.12,-0.04,-0.21,1721207466092
-1.14,-2.94,16.32,-0.14,0.00,-0.08,1721207466102
0.25,2.96,15.62,0.11,0.02,-0.01,1721207466112
2.04,2.97,7.81,0.02,0.00,0.01,1721207466122
0.74,0.11,5.47,-0.11,-0.01,-0.13,1721207466132
0.54,-3.59,8.32,-0.17,0.09,-0.19,1721207466142
-1.47,-0.04,13.56,-0.03,-0.03,-0.15,1721207466152
-1.23,-2.44,8.34,-0.09,0.02,-0.03,1721207466167
-1.15,-1.84,11.63,-0.13,0.12,0.01,1721207466171
-0.12,3.36,14.61,-0.02,0.01,-0.06,1721207466181
-0.10,7.57,14.98,0.08,0.06,-0.16,1721207466191
-0.92,-5.97,0.09,-0.26,-0.14,-0.17,1721207466201
-4.27,4.06,11.70,-0.18,0.06,-0.13,1721207466211
1.40,-5.14,5.77,-0.30,0.16,0.11,1721207466221
0.40,-4.46,13.90,-0.26,0.01,-0.01,1721207466231
1.24,-3.89,6.58,-0.06,0.04,-0.19,1721207466241
-0.34,-0.39,10.98,-0.19,0.07,-0.29,1721207466251
-0.92,3.18,12.12,-0.11,0.09,-0.18,1721207466261
-2.79,0.78,9.14,-0.17,-0.02,-0.19,1721207466271
-3.10,1.66,8.93,-0.20,0.04,-0.10,1721207466281
-2.31,-3.41,6.69,-0.37,0.01,0.04,1721207466291
-0.88,-1.77,14.48,-0.37,0.14,0.09,1721207466301
0.43,1.81,14.46,-0.24,0.01,0.04,1721207466311
0.86,2.74,8.98,-0.21,-0.00,-0.04,1721207466321
1.13,-2.02,11.47,-0.35,0.07,-0.15,1721207466331
0.19,3.96,16.80,-0.18,0.05,-0.21,1721207466341
-0.66,2.91,10.06,0.05,-0.04,-0.17,1721207466351
-1.51,-2.01,5.85,0.01,0.03,0.02,1721207466361
0.47,-3.23,10.18,-0.03,0.18,0.07,1721207466371
0.97,7.08,11.24,0.41,0.02,0.04,1721207466381
2.16,-4.35,4.34,0.10,0.05,-0.05,1721207466391
-0.84,3.79,19.41,0.07,0.07,-0.15,1721207466401
0.61,-2.43,12.60,0.22,0.06,-0.18,1721207466411
-2.06,-3.57,7.51,0.18,-0.07,-0.17,1721207466421
-1.08,5.96,17.46,0.39,0.18,-0.01,1721207466431
1.00,11.70,11.04,0.63,0.07,0.20,1721207466441
2.79,-1.45,1.29,0.33,0.18,-0.01,1721207466451
1.01,-1.77,5.75,0.26,-0.04,-0.13,1721207466461
2.06,-4.06,13.47,-0.01,0.33,-0.35,1721207466471
-2.03,11.05,10.54,0.53,-0.22,-0.06,1721207466481
1.70,-6.20,-0.62,0.00,0.48,-0.06,1721207466491
0.83,-3.89,15.02,0.01,-0.22,-0.02,1721207466501
1.75,-2.28,13.63,0.06,0.41,-0.30,1721207466511
-1.06,5.05,17.16,0.31,0.02,-0.16,1721207466521
-3.58,2.61,5.77,0.20,0.06,0.08,1721207466531
0.19,-0.88,11.28,0.18,0.29,0.19,1721207466541
2.23,-0.78,10.53,0.17,0.17,-0.02,1721207466551
-1.23,0.66,12.32,0.10,0.00,-0.17,1721207466561
-3.28,3.16,10.57,0.14,0.10,-0.07,1721207466571
-2.35,0.28,8.28,0.14,0.12,0.24,1721207466581
-0.11,1.51,7.21,0.15,0.14,0.31,1721207466591
2.32,-1.03,4.87,0.01,0.11,0.18,1721207466601
2.15,0.32,10.44,-0.13,0.13,-0.03,1721207466611
0.62,0.29,13.18,-0.03,0.09,-0.18,1721207466621
-1.77,4.61,6.17,0.23,-0.04,-0.07,1721207466631
-1.34,2.48,-14.72,0.01,-0.06,0.13,1721207466641
0.56,-5.53,15.54,-0.85,0.54,0.04,1721207466651
-11.45,-6.23,39.57,-0.30,0.77,-0.13,1721207466661
-4.85,-3.39,18.57,-0.00,0.16,-0.09,1721207466671
-3.11,1.28,11.92,-0.30,0.01,0.14,1721207466681
1.40,-3.84,8.69,-0.15,0.14,0.21,1721207466691
2.64,0.40,9.52,-0.17,0.09,0.01,1721207466701
1.28,6.27,17.96,-0.09,0.05,-0.18,1721207466711
-2.78,-0.46,3.40,-0.16,-0.26,-0.18,1721207466721
-2.80,-2.63,7.61,-0.46,0.38,-0.04,1721207466731
-0.13,-0.04,15.12,-0.28,-0.00,0.32,1721207466741
1.57,-1.28,9.12,-0.28,-0.05,0.35,1721207466751
3.72,-2.59,12.00,-0.24,0.16,-0.05,1721207466761
0.59,-0.04,11.91,-0.13,-0.17,-0.20,1721207466771
-1.64,4.45,9.81,-0.15,0.12,-0.11,1721207466781
-1.08,2.94,14.22,-0.14,0.06,0.06,1721207466791
-1.12,-0.44,11.82,-0.09,-0.06,0.17,1721207466801
0.40,0.89,12.09,-0.06,0.09,0.17,1721207466811
2.35,2.73,10.70,0.03,-0.02,0.07,1721207466821
1.32,2.78,7.73,0.06,-0.03,-0.03,1721207466831
0.89,-0.30,9.49,0.05,0.14,-0.24,1721207466841
-2.34,1.01,11.20,0.15,-0.08,-0.13,1721207466851
-2.98,-0.67,9.58,0.06,0.02,0.08,1721207466861
-1.02,-2.37,14.05,0.06,0.04,0.26,1721207466871
1.08,3.82,10.90,0.24,0.09,0.12,1721207466881
1.83,0.57,6.72,0.21,-0.01,-0.02,1721207466891
-0.89,-0.19,5.99,0.22,-0.10,-0.05,1721207466901
-0.63,-4.10,6.07,0.15,0.07,0.03,1721207466911
-0.39,0.61,15.25,0.03,0.12,0.05,1721207466921
0.90,1.15,13.67,0.15,0.08,-0.09,1721207466931
-1.30,0.72,9.39,0.07,-0.13,-0.11,1721207466941
-1.62,-4.04,9.07,0.02,0.06,-0.05,1721207466951
-1.59,2.06,13.60,0.10,0.02,-0.04,1721207466961
0.96,0.90,8.94,0.09,0.03,-0.07,1721207466971
-0.58,-3.56,7.43,0.06,-0.15,-0.01,1721207466981
0.77,-4.96,10.02,0.02,0.21,-0.15,1721207466991
-1.53,10.18,17.88,0.24,-0.10,-0.17,1721207467001
-2.42,11.73,9.52,0.27,-0.08,-0.10,1721207467011
-2.27,-10.49,8.00,-0.28,0.02,-0.08,1721207467021
-3.93,1.99,15.92,0.08,-0.14,0.11,1721207467031
0.56,0.17,4.21,-0.01,0.05,0.19,1721207467041
1.48,-1.48,11.90,-0.03,-0.02,0.11,1721207467051
2.69,-0.89,8.62,0.25,-0.09,-0.06,1721207467061
1.00,4.43,6.71,0.15,-0.06,-0.17,1721207467071
0.85,5.91,15.09,0.10,0.09,-0.29,1721207467081
-0.58,0.14,11.15,0.04,-0.09,-0.13,1721207467091
-2.50,-4.08,9.35,-0.07,-0.03,-0.03,1721207467101
-0.34,0.94,10.78,0.19,-0.01,0.15,1721207467111
2.36,1.33,6.11,0.14,0.04,0.11,1721207467121
1.91,-0.85,6.61,0.04,0.02,-0.13,1721207467131
0.00,2.54,12.97,0.05,0.08,-0.33,1721207467141
-2.70,5.01,10.51,0.18,-0.09,-0.19,1721207467151
-4.44,-1.98,5.44,-0.22,-0.05,0.02,1721207467161
-3.38,-2.98,13.26,-0.19,-0.08,0.23,1721207467171
-0.81,1.74,9.86,-0.05,-0.06,0.20,1721207467181
0.78,-1.98,8.44,-0.22,-0.05,0.10,1721207467191
1.70,5.95,6.85,0.28,-0.10,0.00,1721207467201
0.22,-9.12,-12.96,-0.38,-0.23,-0.07,1721207467211
-2.06,-8.30,33.08,-0.84,0.42,-0.06,1721207467221
-1.23,4.27,42.84,0.34,0.24,-0.13,1721207467231
-4.15,-0.62,-2.59,0.04,-0.66,-0.06,1721207467241
-3.21,7.16,16.80,-0.43,0.28,0.11,1721207467251
-1.37,-6.01,12.62,0.01,-0.42,0.33,1721207467261
1.28,0.73,0.34,-0.13,0.14,0.16,1721207467271
3.85,-2.29,9.00,-0.11,-0.03,-0.13,1721207467281
0.66,-1.75,15.56,-0.22,-0.27,-0.06,1721207467291
-2.43,8.47,15.09,0.08,-0.04,-0.05,1721207467301
0.54,-1.35,4.78,-0.07,-0.09,0.01,1721207467311
-1.56,-0.50,9.39,-0.11,-0.15,0.07,1721207467321
1.37,-1.59,8.13,0.01,0.08,0.01,1721207467331
0.10,5.07,13.45,0.14,-0.16,-0.07,1721207467341
0.00,-0.35,4.50,0.04,-0.12,-0.02,1721207467351
-0.06,-2.60,14.68,-0.17,0.08,-0.04,1721207467361
1.10,-1.87,15.82,0.02,-0.10,-0.06,1721207467371
-0.24,1.58,10.70,0.07,-0.10,-0.03,1721207467381
-1.45,6.35,10.54,0.13,-0.02,-0.03,1721207467391
2.05,1.02,9.12,0.09,0.07,0.06,1721207467401
2.64,-5.20,6.56,-0.02,-0.07,-0.05,1721207467411
0.74,1.95,10.46,0.01,0.04,-0.32,1721207467421
0.56,-3.15,9.33,0.03,-0.02,-0.20,1721207467431
-1.26,0.85,9.33,0.17,0.02,-0.04,1721207467441
0.38,-3.10,9.39,0.06,0.09,-0.05,1721207467451
-0.36,3.85,18.40,0.14,-0.05,-0.09,1721207467461
0.56,2.89,11.93,0.16,0.04,-0.18,1721207467471
0.21,-0.03,9.55,0.10,0.02,-0.04,1721207467481
0.95,2.39,7.02,0.28,0.09,0.06,1721207467491
3.52,-3.41,3.17,0.11,0.20,-0.13,1721207467501
2.05,1.28,13.16,0.09,0.03,-0.30,1721207467511
0.42,5.46,16.88,0.28,0.11,-0.41,1721207467521
-1.24,0.04,9.49,0.14,0.09,-0.30,1721207467531
-3.45,0.63,7.75,0.16,0.02,-0.08,1721207467541
-0.33,-2.33,8.08,0.06,0.30,-0.10,1721207467551
-1.05,-1.05,12.77,0.06,0.04,-0.18,1721207467561
-1.41,1.99,11.67,0.22,0.08,-0.16,1721207467571
-1.26,0.61,5.87,0.11,0.11,-0.13,1721207467581
-0.83,0.68,5.61,-0.03,0.09,-0.01,1721207467591
0.07,0.78,15.10,-0.15,0.16,-0.10,1721207467601
0.49,-2.09,17.00,0.00,0.06,-0.12,1721207467611
-0.82,1.36,9.67,0.09,-0.00,-0.09,1721207467621
0.84,-0.28,8.34,-0.16,0.25,-0.10,1721207467631
-0.04,3.35,12.66,0.10,-0.01,-0.11,1721207467641
-0.18,1.13,0.79,0.03,0.02,-0.18,1721207467651
-1.75,0.50,3.14,-0.02,0.08,-0.17,1721207467661
0.09,-2.77,8.92,-0.11,0.23,-0.07,1721207467671
0.03,-1.21,14.30,-0.09,0.05,0.00,1721207467681
0.42,2.18,14.72,-0.04,0.05,0.03,1721207467691
2.23,1.62,10.33,-0.08,0.14,-0.09,1721207467701
1.44,1.94,9.53,-0.14,0.03,-0.22,1721207467711
-0.06,0.30,9.22,-0.16,0.14,-0.24,1721207467721
-1.30,-4.13,9.22,-0.25,0.08,-0.17,1721207467731
-2.82,-1.10,9.37,-0.13,0.03,-0.12,1721207467741
-1.25,-2.15,11.72,-0.21,0.26,-0.08,1721207467751
-1.52,1.77,14.63,0.01,0.00,0.01,1721207467761
-0.07,-0.39,8.06,-0.06,0.12,0.04,1721207467771
0.30,0.50,11.45,0.02,0.06,-0.03,1721207467781
1.23,0.63,11.25,-0.02,0.09,-0.10,1721207467791
0.13,2.31,11.30,0.10,0.07,-0.14,1721207467801
-0.91,1.65,8.65,0.04,0.09,-0.15,1721207467811
-1.02,-1.25,13.19,0.01,0.16,-0.10,1721207467821
-1.12,1.31,11.41,0.11,-0.00,-0.03,1721207467831
-1.32,0.72,7.74,0.13,0.11,0.02,1721207467841
0.41,0.52,11.46,0.12,0.16,0.04,1721207467851
0.14,1.46,10.18,0.24,-0.05,-0.02,1721207467861
-0.71,1.36,7.53,0.20,-0.01,-0.01,1721207467871
0.23,1.58,11.39,0.13,0.25,-0.03,1721207467881
-0.08,1.35,11.66,0.12,-0.01,-0.02,1721207467891
-1.24,-0.21,7.84,0.13,0.02,-0.04,1721207467901
-0.62,-4.41,9.17,0.06,0.07,0.00,1721207467911
0.38,-1.62,10.68,0.10,0.12,0.01,1721207467921
0.38,2.39,14.96,0.15,0.11,-0.04,1721207467931
-0.05,0.62,8.73,0.18,-0.08,-0.07,1721207467941
-2.19,4.15,10.45,0.19,0.11,-0.08,1721207467951
-0.76,1.01,9.07,0.14,0.05,0.03,1721207467961
-1.35,-1.97,10.69,-0.01,-0.04,0.02,1721207467971
-0.75,2.14,8.95,0.24,0.01,-0.01,1721207467981
-1.02,0.71,1.91,0.05,-0.02,-0.07,1721207467991
-1.81,2.20,9.94,-0.01,0.05,0.03,1721207468001
0.39,0.44,9.82,0.00,0.06,0.07,1721207468011
0.50,-4.29,10.89,-0.14,-0.06,0.08,1721207468021
0.17,1.42,17.54,-0.08,0.10,-0.05,1721207468031
0.79,2.06,10.88,0.06,-0.14,-0.02,1721207468041
0.03,0.16,7.20,-0.02,-0.02,0.07,1721207468051
1.12,-1.31,8.35,-0.03,0.05,0.09,1721207468061
1.07,2.26,9.88,0.03,-0.06,-0.03,1721207468071
-0.12,-1.76,7.95,-0.21,0.01,-0.09,1721207468081
-1.87,0.16,14.75,-0.11,-0.03,-0.03,1721207468091
-1.17,-0.45,9.67,-0.07,-0.01,0.13,1721207468101
-0.66,-0.80,12.19,-0.15,-0.04,0.16,1721207468111
0.06,2.72,9.39,0.01,-0.09,0.13,1721207468121
1.50,1.69,7.14,-0.08,-0.01,0.05,1721207468131
-0.23,3.07,11.11,-0.07,-0.06,0.00,1721207468141
-1.47,1.41,10.35,-0.09,-0.07,0.03,1721207468151
-1.13,-2.08,10.88,-0.18,-0.08,0.10,1721207468161
-1.67,4.85,14.26,-0.01,-0.18,0.05,1721207468176
-0.91,2.73,9.48,-0.00,-0.30,0.12,1721207468180
0.04,3.84,5.65,-0.06,0.10,0.12,1721207468190
2.31,0.19,11.08,-0.09,-0.03,0.04,1721207468200
0.50,-1.79,12.32,-0.15,-0.21,-0.05,1721207468210
-1.55,3.49,15.73,-0.11,-0.00,-0.13,1721207468220
-0.94,-3.18,8.10,-0.16,-0.17,0.07,1721207468230
-2.98,3.89,9.06,-0.11,-0.09,0.19,1721207468240
3.13,-4.70,8.31,-0.16,0.11,0.14,1721207468250
1.82,-0.32,10.66,0.03,-0.22,-0.08,1721207468260
0.32,-2.45,4.93,-0.15,-0.05,-0.19,1721207468270
-2.83,2.56,18.69,-0.19,-0.11,-0.12,1721207468280
0.02,-1.51,11.88,0.06,-0.03,0.05,1721207468290
0.19,-3.21,4.49,0.00,-0.09,0.05,1721207468300
0.95,4.83,12.21,0.14,0.09,-0.01,1721207468310
1.02,4.83,11.40,0.10,-0.08,-0.12,1721207468320
-0.11,-0.76,7.17,-0.06,-0.08,-0.15,1721207468330
-0.53,-2.88,6.55,-0.02,-0.04,-0.07,1721207468340
0.34,-3.55,7.53,-0.11,-0.02,-0.00,1721207468350
1.76,-1.45,15.80,-0.03,0.09,-0.02,1721207468360
1.98,-2.16,9.49,0.09,-0.19,-0.07,1721207468370
1.59,5.12,11.46,0.10,0.19,-0.22,1721207468380
1.28,5.47,11.87,0.05,0.01,-0.33,1721207468390
-3.34,-0.96,10.76,-0.18,-0.14,-0.34,1721207468400
-3.12,-6.63,9.35,-0.05,0.08,-0.11,1721207468410
-1.96,-0.76,12.08,0.00,0.09,0.13,1721207468420
0.62,5.01,14.04,0.04,0.14,0.11,1721207468430
2.45,5.99,12.72,0.19,-0.05,-0.04,1721207468440
2.96,-9.87,6.11,-0.16,0.07,-0.26,1721207468450
-1.09,3.18,17.11,0.16,-0.02,-0.30,1721207468460
-1.81,5.52,5.07,0.25,0.04,-0.13,1721207468470
-0.73,-3.18,7.59,0.13,0.07,0.10,1721207468480
1.56,2.54,11.80,0.29,0.17,0.03,1721207468490
2.66,10.71,6.15,0.58,-0.00,-0.12,1721207468500
1.30,-4.69,-2.22,-0.07,0.03,-0.24,1721207468510
-4.77,-5.62,18.99,-0.31,0.24,-0.37,1721207468520
-4.01,-1.33,19.91,0.19,0.04,-0.22,1721207468530
-1.90,-2.67,5.30,0.20,-0.03,0.19,1721207468540
0.50,2.10,11.09,0.06,0.19,0.13,1721207468550
2.53,3.27,13.25,0.15,0.09,-0.15,1721207468560
0.15,2.84,9.09,0.13,-0.03,-0.27,1721207468570
-1.69,-2.91,4.54,-0.06,0.04,-0.18,1721207468580
-1.80,-5.70,11.36,-0.16,0.10,0.04,1721207468590
0.41,2.43,22.35,0.04,0.24,0.00,1721207468600
1.70,1.09,8.09,0.28,-0.23,-0.01,1721207468610
1.68,6.91,1.78,0.12,0.26,-0.16,1721207468620
2.71,-1.02,8.91,-0.12,0.15,-0.37,1721207468630
-2.50,-7.86,16.07,-0.31,-0.13,-0.33,1721207468640
-4.66,7.32,19.78,0.25,0.09,-0.16,1721207468650
-0.43,2.95,0.84,0.18,0.02,0.07,1721207468660
-0.45,-0.53,1.67,-0.07,-0.01,0.12,1721207468670
4.36,-2.93,11.67,-0.04,0.30,-0.08,1721207468680
2.64,8.25,11.12,0.35,-0.03,-0.30,1721207468690
-1.47,-6.08,-1.64,-0.26,-0.10,-0.41,1721207468700
-6.51,-3.86,22.62,-0.43,0.06,-0.29,1721207468710
-1.36,3.73,20.67,0.17,0.22,0.08,1721207468720
2.49,4.68,5.61,-0.03,0.03,0.35,1721207468730
3.40,1.54,7.58,-0.08,0.17,-0.06,1721207468740
3.14,0.80,9.05,0.10,0.08,-0.48,1721207468750
-0.76,1.22,9.20,-0.03,0.07,-0.51,1721207468760
-5.33,-0.81,9.84,-0.05,-0.04,-0.26,1721207468770
-4.65,-0.54,8.32,0.05,0.13,0.08,1721207468780
0.21,-1.63,5.18,0.10,0.14,0.26,1721207468790
3.92,1.47,7.98,0.13,0.20,0.13,1721207468800
4.16,0.52,9.94,0.10,0.10,-0.28,1721207468810
-1.10,1.04,13.36,0.03,0.03,-0.60,1721207468820
-4.21,2.34,10.02,0.16,0.02,-0.39,1721207468830
-4.59,-2.13,6.47,-0.10,0.14,0.04,1721207468840
-2.30,-4.01,9.56,-0.06,0.06,0.26,1721207468850
1.69,2.47,11.06,0.11,0.16,0.02,1721207468860
3.41,2.37,11.36,-0.04,0.10,-0.19,1721207468870
-0.52,0.97,9.23,-0.04,-0.05,-0.33,1721207468880
-1.99,-5.61,8.85,-0.27,0.16,-0.24,1721207468890
-3.90,-2.24,13.61,-0.14,-0.07,0.02,1721207468900
-1.96,0.13,11.29,-0.04,0.16,0.09,1721207468910
1.74,-1.76,8.06,-0.00,0.07,0.06,1721207468920
1.29,0.85,13.01,-0.07,0.04,-0.09,1721207468930
0.57,0.47,12.91,0.03,0.04,-0.20,1721207468940
-0.85,1.33,11.78,-0.02,0.06,-0.25,1721207468950
-2.07,0.17,10.65,0.06,-0.00,-0.12,1721207468960
-2.15,-3.85,10.88,-0.07,0.05,0.02,1721207468970
-2.00,7.85,14.49,0.33,-0.07,0.00,1721207468980
1.43,4.18,6.50,0.19,0.12,-0.04,1721207468990
-2.62,2.61,8.75,0.16,-0.30,-0.05,1721207469000
-2.31,-1.18,7.87,0.07,0.15,-0.03,1721207469010
-0.71,0.38,8.62,0.21,-0.05,0.13,1721207469020
0.74,0.12,8.05,0.06,0.05,0.16,1721207469030
1.84,-1.76,11.38,0.09,-0.09,0.09,1721207469040
1.95,3.10,10.41,0.31,0.01,-0.06,1721207469050
2.34,0.56,6.28,0.14,0.05,-0.13,1721207469060
-0.36,-1.26,15.34,-0.10,0.00,-0.14,1721207469070
-2.19,2.75,17.90,0.17,-0.06,-0.11,1721207469080
-2.11,5.10,9.03,0.15,0.01,-0.05,1721207469090
-1.27,0.29,8.16,-0.05,0.01,0.12,1721207469100
-0.34,-2.96,8.52,-0.09,0.01,0.19,1721207469110
0.92,0.23,8.67,0.02,-0.01,0.01,1721207469120
0.64,2.53,8.15,-0.01,-0.07,-0.12,1721207469130
-2.27,4.02,11.38,0.03,-0.07,-0.04,1721207469140
-2.46,1.15,7.87,-0.06,-0.05,0.04,1721207469150
-1.08,-3.82,10.05,-0.25,-0.01,0.05,1721207469160
-1.79,1.53,8.02,-0.04,-0.14,0.09,1721207469170
-0.74,-2.07,5.72,-0.30,-0.00,0.19,1721207469180
0.03,-1.68,13.30,-0.14,-0.10,0.22,1721207469190
2.56,-3.98,5.80,-0.14,-0.05,0.10,1721207469200
1.96,0.18,15.79,-0.24,0.03,-0.13,1721207469210
0.66,0.76,13.90,-0.18,-0.25,-0.15,1721207469220
-2.77,1.50,8.47,-0.13,-0.11,-0.10,1721207469230
-2.37,-0.79,8.13,-0.13,0.05,0.11,1721207469240
-0.06,-1.99,6.53,-0.12,-0.12,0.19,1721207469250
0.87,-0.74,5.70,-0.17,-0.06,0.07,1721207469260
1.71,0.11,11.75,-0.30,0.02,-0.11,1721207469270
1.03,-0.37,14.46,-0.19,-0.13,-0.11,1721207469280
0.96,-3.11,11.26,-0.20,-0.02,-0.01,1721207469290
2.01,-1.18,19.48,-0.34,0.11,-0.06,1721207469300
0.52,3.07,15.40,-0.10,-0.19,-0.04,1721207469310
0.48,5.68,4.14,0.05,0.04,-0.18,1721207469320
1.88,-0.39,6.61,0.02,0.10,-0.24,1721207469330
-0.54,-7.32,13.11,-0.22,-0.05,-0.30,1721207469340
-2.43,4.61,19.20,-0.00,-0.01,-0.25,1721207469350
0.14,3.03,9.85,0.12,0.06,-0.03,1721207469360
-0.79,-1.93,7.71,0.07,0.01,0.14,1721207469370
0.77,2.21,10.48,0.15,0.15,0.00,1721207469380
2.43,3.65,12.98,0.30,0.05,-0.25,1721207469390
0.61,0.37,7.93,0.23,-0.03,-0.21,1721207469400
-1.85,0.01,10.16,0.16,0.07,-0.12,1721207469410
0.27,1.59,11.13,0.26,0.12,0.02,1721207469420
1.21,4.53,10.20,0.33,0.05,0.00,1721207469430
2.57,0.63,7.11,0.32,0.17,-0.06,1721207469440
1.85,-2.67,6.64,0.08,0.11,-0.25,1721207469450
-1.16,4.84,13.91,0.14,0.03,-0.36,1721207469460
-0.93,-1.25,7.13,0.04,0.08,-0.15,1721207469470
-1.09,-8.43,11.14,-0.11,0.15,-0.08,1721207469480
-1.30,1.95,12.09,0.35,0.00,-0.02,1721207469490
1.18,5.04,4.28,0.25,0.28,-0.11,1721207469500
0.14,-2.56,6.35,-0.00,0.04,-0.23,1721207469510
-2.84,2.49,14.36,0.13,0.07,-0.22,1721207469520
-1.95,-0.31,10.58,-0.00,0.17,-0.08,1721207469530
-1.63,-2.42,15.59,-0.16,0.06,0.05,1721207469540
-0.12,6.89,13.92,0.06,0.08,0.11,1721207469550
3.21,0.83,6.00,-0.19,0.15,0.07,1721207469560
3.15,-2.64,10.02,-0.13,0.11,-0.20,1721207469570
2.12,-0.80,6.16,0.05,0.12,-0.39,1721207469580
-2.27,1.90,7.59,-0.10,0.05,-0.25,1721207469590
-3.86,1.71,13.58,-0.05,0.10,-0.05,1721207469600
-1.70,0.26,6.77,0.09,0.06,0.21,1721207469610
2.37,2.20,2.18,0.06,0.17,0.27,1721207469620
5.69,-4.42,8.97,-0.35,0.24,-0.04,1721207469630
3.26,-0.02,23.70,-0.13,0.05,-0.47,1721207469640
-1.41,5.97,13.57,0.22,0.06,-0.52,1721207469650
-4.76,-2.53,4.01,-0.29,0.14,-0.21,1721207469660
-4.85,0.37,20.59,-0.15,0.17,0.16,1721207469670
0.82,0.99,5.88,0.16,0.06,0.27,1721207469680
2.40,1.55,0.33,0.01,0.14,-0.09,1721207469690
2.52,-2.51,12.77,-0.11,0.32,-0.43,1721207469700
-3.67,5.29,14.17,0.30,-0.13,-0.34,1721207469710
-4.94,-4.49,0.26,-0.20,0.05,0.10,1721207469720
-2.43,-0.49,18.85,-0.23,0.27,0.36,1721207469730
4.29,2.05,12.59,0.14,0.06,0.25,1721207469740
4.03,-3.71,6.10,-0.17,0.12,-0.16,1721207469750
0.09,-2.98,20.89,-0.15,0.12,-0.46,1721207469760
-2.72,2.47,13.60,0.14,-0.08,-0.28,1721207469770
-4.98,5.16,4.40,0.20,-0.01,0.07,1721207469780
-0.68,-2.02,6.59,0.05,0.27,0.22,1721207469790
0.75,-3.22,11.10,0.13,-0.12,0.27,1721207469800
1.56,-0.96,4.39,0.11,0.08,0.05,1721207469810
0.94,1.39,10.57,0.05,0.14,-0.14,1721207469820
-0.94,1.30,13.01,0.02,0.03,-0.15,1721207469830
-1.10,0.57,11.42,0.04,0.10,0.01,1721207469840
-0.70,-5.20,10.01,-0.06,-0.09,0.07,1721207469850
-0.62,0.64,10.95,0.11,0.01,0.09,1721207469860
1.73,2.80,8.69,0.10,0.11,0.02,1721207469870
-1.06,1.85,9.60,0.06,-0.09,-0.20,1721207469880
-3.21,0.76,9.39,0.08,-0.00,-0.10,1721207469890
-2.23,-2.26,11.45,-0.01,0.06,0.12,1721207469900
-0.79,1.56,13.00,-0.01,-0.02,0.12,1721207469910
-0.44,4.53,9.20,0.08,-0.12,0.03,1721207469920
0.64,-0.33,10.19,0.01,0.04,-0.05,1721207469930
-0.44,-2.38,12.74,-0.00,-0.09,-0.03,1721207469940
-1.17,1.74,12.61,0.14,-0.07,-0.01,1721207469950
-0.20,3.17,6.78,0.18,0.00,0.00,1721207469960
0.87,0.95,9.97,0.05,0.05,0.01,1721207469970
0.56,5.46,12.33,0.34,-0.15,-0.02,1721207469980
0.12,2.15,3.97,0.23,-0.10,-0.01,1721207469990
-0.29,-3.51,11.19,-0.07,0.08,-0.09,1721207470000
-0.66,-0.26,14.69,0.12,-0.07,-0.07,1721207470010
-1.13,2.01,6.88,0.16,-0.07,0.09,1721207470020
0.01,4.61,7.78,0.21,0.02,0.09,1721207470030
2.12,-3.72,5.46,0.07,-0.02,0.11,1721207470040
0.72,-0.20,12.92,-0.06,0.02,-0.15,1721207470050
-1.00,4.78,13.42,0.14,-0.13,-0.24,1721207470060
-3.20,0.93,5.73,-0.05,-0.10,-0.05,1721207470070
-3.59,-2.04,5.66,-0.02,-0.08,0.23,1721207470080
1.00,-4.47,11.01,-0.23,0.17,0.30,1721207470090
1.73,1.16,18.36,-0.10,-0.17,0.02,1721207470100
0.38,4.39,10.17,0.09,-0.17,-0.15,1721207470110
-1.40,1.46,3.89,-0.17,-0.08,-0.14,1721207470120
-2.40,-4.89,14.56,-0.35,-0.09,0.08,1721207470130
-1.36,-1.75,14.11,-0.10,-0.15,0.21,1721207470140
0.20,6.41,6.27,-0.02,-0.13,0.08,1721207470150
2.63,-1.41,5.73,-0.29,0.06,0.06,1721207470160
0.68,-2.44,10.17,-0.10,-0.21,-0.08,1721207470170
-1.64,-0.79,12.13,-0.20,-0.03,-0.09,1721207470185
-2.91,0.17,14.68,-0.21,-0.17,-0.07,1721207470189
-1.64,4.08,14.41,-0.03,-0.11,0.11,1721207470199
0.79,-1.33,7.03,-0.11,-0.13,0.25,1721207470209
0.49,-1.64,6.89,-0.09,-0.12,0.12,1721207470219
2.71,0.56,13.95,-0.11,0.12,-0.10,1721207470229
0.64,3.50,15.24,0.03,-0.27,-0.09,1721207470239
-1.14,1.34,7.24,0.01,-0.18,-0.00,1721207470249
0.57,-4.60,9.67,-0.20,0.01,0.04,1721207470259
0.70,2.34,14.80,-0.01,-0.16,0.03,1721207470269
2.03,1.24,7.83,0.07,-0.08,-0.02,1721207470279
0.60,-1.05,7.61,0.04,-0.15,-0.07,1721207470289
0.94,-1.75,10.11,0.03,0.07,-0.18,1721207470299
0.05,-0.10,11.82,0.07,-0.08,-0.17,1721207470309
-1.34,3.21,13.72,0.05,-0.09,-0.14,1721207470319
-0.28,0.36,11.65,0.10,-0.06,-0.02,1721207470329
0.89,3.66,10.89,0.14,0.01,0.05,1721207470339
1.87,-2.03,10.22,-0.09,0.02,-0.12,1721207470349
1.12,0.57,15.13,0.10,-0.04,-0.27,1721207470359
0.89,1.09,6.71,0.19,0.01,-0.22,1721207470369
-0.15,-0.96,7.34,0.13,0.02,-0.08,1721207470379
1.35,3.18,11.75,0.26,0.11,-0.16,1721207470389
2.09,1.18,7.53,0.28,-0.00,-0.24,1721207470399
0.13,1.03,9.45,0.14,0.07,-0.29,1721207470409
-1.36,2.85,12.87,0.17,0.06,-0.31,1721207470419
-0.96,0.61,8.44,0.13,0.04,-0.17,1721207470429
-0.48,-1.33,7.41,0.06,0.09,-0.08,1721207470439
1.06,-3.34,12.28,0.02,0.15,-0.14,1721207470449
1.26,0.20,13.80,0.12,0.11,-0.34,1721207470459
-0.70,3.35,9.67,0.16,0.04,-0.35,1721207470469
-1.19,1.68,8.40,0.03,0.17,-0.25,1721207470479
-0.77,1.64,9.69,0.07,0.12,-0.22,1721207470489
-0.25,-0.41,6.01,0.00,0.07,-0.17,1721207470499
0.71,1.07,8.28,-0.06,0.20,-0.24,1721207470509
1.33,-0.10,11.04,-0.10,0.12,-0.30,1721207470519
-0.31,0.65,11.11,-0.00,0.07,-0.39,1721207470529
-1.45,-2.94,11.85,-0.16,0.19,-0.40,1721207470539
-2.32,1.37,17.37,-0.06,0.12,-0.29,1721207470549
-0.95,6.49,8.66,0.08,0.14,-0.15,1721207470559
0.31,3.08,4.08,-0.08,0.18,-0.19,1721207470569
0.55,-4.67,7.60,-0.13,0.15,-0.33,1721207470579
-0.40,-3.34,11.07,-0.06,0.17,-0.27,1721207470589
-1.37,0.95,8.22,0.02,0.11,-0.23,1721207470599
0.29,-1.51,10.81,-0.14,0.34,-0.22,1721207470609
-0.40,4.51,15.41,0.08,0.06,-0.22,1721207470619
-0.50,2.79,9.01,0.01,0.15,-0.28,1721207470629
-1.15,-2.51,13.22,-0.13,0.17,-0.19,1721207470639
-0.65,0.44,12.04,-0.03,0.16,-0.14,1721207470649
0.74,2.03,9.54,-0.03,0.24,-0.15,1721207470659
-0.27,2.14,7.92,0.10,0.11,-0.26,1721207470669
-0.96,-3.41,7.31,-0.01,0.24,-0.33,1721207470679
-3.08,0.20,13.25,0.05,0.06,-0.18,1721207470689
-2.40,3.23,11.11,0.04,0.16,-0.02,1721207470699
0.26,-2.08,9.77,-0.04,0.20,-0.00,1721207470709
0.48,-3.68,11.37,-0.03,0.11,-0.07,1721207470719
-0.06,0.57,10.01,0.10,0.12,-0.16,1721207470729
-0.55,3.05,9.11,0.06,0.15,-0.18,1721207470739
-0.81,-1.76,10.92,-0.05,0.20,-0.14,1721207470749
-1.73,-4.88,9.51,0.07,0.05,-0.06,1721207470759
-0.99,1.19,10.93,0.02,0.30,-0.04,1721207470769
-0.72,0.82,11.31,0.08,-0.01,0.05,1721207470779
-1.25,3.72,12.42,0.12,0.13,0.01,1721207470789
-0.58,2.70,7.07,0.17,0.10,0.02,1721207470799
-0.52,-0.70,-1.69,0.02,0.01,0.13,1721207470809
2.85,-3.10,16.51,-0.25,0.64,-0.10,1721207470819
0.27,3.41,24.80,0.16,-0.26,-0.15,1721207470829
-3.63,4.40,1.56,0.16,-0.11,-0.03,1721207470839
-0.23,-5.16,8.98,-0.19,0.34,0.21,1721207470849
1.82,-0.19,19.79,0.01,0.00,0.16,1721207470859
1.48,3.23,8.36,0.15,-0.08,-0.18,1721207470869
-1.95,-0.55,5.88,0.04,0.04,-0.23,1721207470879
-3.12,0.45,10.32,0.10,0.11,0.06,1721207470889
-1.47,3.46,14.75,0.12,0.15,0.22,1721207470899
1.54,1.65,8.42,0.11,-0.01,0.15,1721207470909
1.77,2.21,8.65,0.04,0.03,0.02,1721207470919
0.65,-0.54,10.01,-0.06,0.04,-0.09,1721207470929
0.33,-3.26,16.93,-0.06,0.15,-0.06,1721207470939
-1.56,3.96,7.65,0.28,-0.18,0.03,1721207470949
0.29,5.26,5.00,0.09,0.36,0.02,1721207470959
-0.53,0.34,7.82,-0.05,-0.13,0.13,1721207470969
-2.02,0.73,9.57,-0.04,-0.07,0.14,1721207470979
1.11,-4.20,9.52,-0.06,0.13,0.07,1721207470989
-0.78,-0.16,14.21,-0.10,-0.05,-0.04,1721207470999
-1.88,1.36,9.12,0.06,-0.09,0.06,1721207471009
-1.55,-0.06,5.90,-0.06,0.06,0.17,1721207471019
-0.89,2.28,11.81,-0.01,0.01,0.25,1721207471029
1.75,-1.21,15.69,-0.15,0.11,0.10,1721207471039
0.90,3.48,17.74,-0.05,-0.09,-0.07,1721207471049
-2.34,3.82,5.84,-0.10,-0.22,-0.02,1721207471059
-3.02,-2.26,7.31,-0.29,-0.05,0.16,1721207471069
0.79,-4.39,8.72,-0.04,-0.01,0.36,1721207471079
2.40,-2.22,3.79,-0.07,-0.05,0.20,1721207471089
2.07,4.26,13.06,-0.08,0.15,-0.12,1721207471099
-0.11,0.54,15.15,-0.09,-0.21,-0.17,1721207471109
-2.82,-0.79,11.17,-0.08,-0.13,-0.03,1721207471119
-0.15,-2.28,12.49,-0.06,0.12,0.20,1721207471129
-0.14,0.68,7.84,0.08,-0.17,0.20,1721207471139
0.79,-1.31,6.45,-0.03,0.03,0.08,1721207471149
1.99,2.98,14.08,0.09,0.02,-0.02,1721207471159
0.36,7.49,12.84,0.21,-0.11,-0.06,1721207471169
0.37,-7.04,6.19,-0.16,-0.07,0.01,1721207471179
-2.84,6.67,13.99,-0.02,-0.00,-0.13,1721207471189
0.83,-0.99,7.44,-0.00,-0.03,0.06,1721207471199
0.09,-3.42,2.85,0.08,-0.04,0.21,1721207471209
2.16,-7.22,5.38,-0.10,0.18,0.01,1721207471219
0.10,2.35,20.22,-0.13,-0.13,-0.13,1721207471229
0.22,5.78,13.24,0.15,-0.09,-0.16,1721207471239
0.50,-3.60,8.08,-0.09,0.07,0.02,1721207471249
-1.38,-1.06,15.65,-0.02,-0.04,0.13,1721207471259
0.01,1.21,10.66,0.06,0.04,-0.04,1721207471269
1.38,6.79,7.51,0.14,0.03,-0.06,1721207471279
2.11,1.02,5.79,0.06,0.06,-0.02,1721207471289
1.82,-8.94,6.89,-0.08,0.02,-0.09,1721207471299
0.18,4.04,14.07,0.11,0.07,-0.19,1721207471309
0.55,2.60,8.58,0.12,0.06,-0.16,1721207471319
-1.20,0.81,9.00,0.08,-0.04,-0.06,1721207471329
-0.85,3.20,11.02,0.16,0.11,-0.08,1721207471339
-0.01,-3.02,0.47,0.01,-0.02,-0.08,1721207471349
-1.37,-2.16,16.94,-0.32,0.25,-0.19,1721207471359
-1.80,3.42,26.13,0.11,-0.06,-0.12,1721207471369
-2.58,3.71,3.59,0.13,-0.09,0.07,1721207471379
2.04,-10.80,14.54,-0.54,0.42,0.00,1721207471389
1.92,5.42,22.60,0.20,-0.18,0.01,1721207471399
3.30,12.47,-1.83,0.27,0.26,-0.25,1721207471409
-0.22,-4.15,4.23,-0.11,-0.06,-0.33,1721207471419
-4.71,1.38,12.36,0.11,0.07,-0.29,1721207471429
-1.03,-0.46,6.59,0.12,0.21,0.06,1721207471439
0.97,1.34,12.34,-0.09,0.13,0.16,1721207471449
2.70,4.05,14.52,0.00,0.10,-0.07,1721207471459
1.35,-1.08,7.01,0.05,-0.10,-0.27,1721207471469
-1.73,-0.59,11.53,-0.15,0.14,-0.33,1721207471479
-1.88,0.85,12.26,0.07,0.09,-0.20,1721207471489
-0.79,2.38,6.31,0.08,0.18,-0.02,1721207471499
0.33,0.14,3.86,-0.07,0.10,-0.02,1721207471509
-0.04,-2.60,9.75,-0.06,-0.00,-0.14,1721207471519
0.91,-3.00,14.32,-0.06,0.25,-0.19,1721207471529
-1.28,-2.33,12.14,-0.13,-0.04,-0.14,1721207471539
-2.11,6.34,9.86,-0.02,0.04,-0.03,1721207471549
1.74,-0.79,7.46,-0.19,0.23,-0.09,1721207471559
-0.44,-8.21,12.53,-0.32,-0.08,-0.23,1721207471569
-1.86,2.38,15.76,0.07,0.09,-0.21,1721207471579
-0.88,4.67,6.43,0.08,0.21,-0.12,1721207471589
-1.78,1.09,6.06,-0.21,0.00,0.11,1721207471599
-1.66,2.17,12.66,0.04,0.02,0.07,1721207471609
0.11,-2.58,6.21,0.02,0.01,-0.11,1721207471619
-0.45,-3.24,11.77,-0.13,0.04,-0.01,1721207471629
0.41,-1.25,10.64,-0.02,0.07,0.08,1721207471639
0.45,3.13,12.45,-0.01,0.09,0.08,1721207471649
-0.70,-0.32,6.72,0.18,-0.13,-0.07,1721207471659
0.50,-1.19,12.62,0.10,0.29,-0.01,1721207471669
1.45,0.49,14.16,0.15,0.03,0.12,1721207471679
0.13,6.39,9.81,0.09,-0.07,-0.00,1721207471689
-1.34,4.55,9.80,0.14,0.01,-0.07,1721207471699
-1.20,-5.38,6.44,0.04,-0.11,0.02,1721207471709
-1.80,-1.62,12.68,0.01,0.08,0.16,1721207471719
1.43,-1.87,13.05,-0.10,0.12,0.01,1721207471729
1.38,16.17,16.60,0.36,-0.03,-0.14,1721207471739
0.53,-10.33,2.00,-0.08,-0.27,-0.14,1721207471749
-14.14,-5.94,7.97,0.01,-0.07,-0.07,1721207471759
-0.57,0.61,19.83,0.14,0.85,0.15,1721207471769
3.42,4.17,14.33,0.07,-0.45,0.23,1721207471779
-1.27,-1.20,4.30,0.01,-0.20,-0.09,1721207471789
1.03,-1.16,14.92,0.16,0.26,-0.20,1721207471799
0.08,3.09,11.91,0.25,-0.17,-0.01,1721207471809
-1.03,2.26,7.74,0.09,-0.09,0.04,1721207471819
1.35,4.56,9.79,0.19,-0.00,0.03,1721207471829
0.62,0.42,4.68,0.10,-0.16,-0.09,1721207471839
-0.48,-4.80,11.26,-0.10,0.12,-0.15,1721207471849
-1.17,1.74,11.99,0.16,-0.09,-0.16,1721207471859
-1.16,2.06,6.42,0.02,-0.01,-0.07,1721207471869
-1.05,1.46,11.98,0.05,-0.05,0.12,1721207471879
-0.42,-2.45,7.88,0.00,-0.11,0.14,1721207471889
-0.06,-0.29,13.02,-0.04,-0.09,0.05,1721207471899
1.14,2.91,11.97,0.05,-0.08,-0.08,1721207471909
-0.14,0.78,9.33,-0.15,-0.02,-0.12,1721207471919
-2.01,0.18,13.98,-0.15,-0.12,-0.07,1721207471929
-1.48,-1.53,12.44,-0.14,-0.00,0.08,1721207471939
0.43,3.16,10.20,0.01,-0.06,0.02,1721207471949
1.93,0.09,6.81,-0.14,0.04,-0.04,1721207471959
-1.90,0.23,9.52,-0.09,-0.18,-0.16,1721207471969
-3.29,0.15,7.45,0.04,0.02,-0.11,1721207471979
-1.71,-0.53,8.64,0.06,-0.03,0.06,1721207471989
-0.18,0.85,9.51,0.04,-0.05,0.24,1721207471999
1.18,-0.77,9.30,-0.11,0.04,0.13,1721207472009
0.56,-5.16,9.13,-0.25,-0.13,-0.12,1721207472019
-0.85,1.17,15.12,-0.04,-0.12,-0.16,1721207472029
0.71,1.24,9.62,0.04,-0.03,0.07,1721207472039
1.60,-1.12,8.45,-0.06,-0.04,0.16,1721207472049
2.40,-2.01,9.78,-0.12,0.03,-0.11,1721207472059
1.44,-0.60,11.84,-0.00,-0.01,-0.24,1721207472069
-3.15,0.23,8.32,0.16,-0.18,-0.26,1721207472079
-3.47,2.12,9.52,0.10,0.07,0.01,1721207472089
-0.53,6.49,12.50,0.11,0.01,0.28,1721207472099
3.55,-0.91,10.52,-0.17,0.06,0.17,1721207472109
3.62,-5.68,12.20,-0.19,-0.11,-0.03,1721207472119
-0.15,-0.82,8.70,-0.04,-0.16,-0.15,1721207472129
1.69,-1.74,11.40,-0.10,0.27,-0.18,1721207472139
0.16,1.97,11.99,0.15,-0.17,-0.15,1721207472149
-0.16,-0.31,4.64,0.09,0.03,-0.03,1721207472159
-1.46,-0.54,12.28,-0.03,0.13,-0.10,1721207472169
-2.17,1.04,14.78,0.03,-0.03,-0.04,1721207472179
-0.00,2.80,13.18,0.12,0.02,0.18,1721207472194
1.75,-0.12,9.91,0.17,0.00,0.22,1721207472198
4.46,1.59,7.36,0.18,0.18,-0.01,1721207472208
3.22,-0.23,11.08,0.12,-0.03,-0.26,1721207472218
-0.53,3.30,13.18,0.16,0.00,-0.36,1721207472228
-1.38,3.37,12.29,0.23,0.14,-0.26,1721207472238
-1.36,-2.26,6.41,0.21,-0.02,-0.01,1721207472248
-0.73,3.86,6.00,0.22,0.10,0.01,1721207472258
1.28,-1.12,6.79,0.10,0.15,-0.16,1721207472268
-0.96,0.19,7.25,0.15,-0.06,-0.24,1721207472278
-2.18,-5.72,9.78,-0.11,0.13,-0.26,1721207472288
-3.15,0.24,24.73,0.03,0.02,-0.07,1721207472298
-1.56,6.83,12.22,0.24,-0.02,0.14,1721207472308
1.22,2.82,11.17,-0.24,0.17,0.05,1721207472318
1.49,-0.29,10.75,0.03,-0.08,-0.14,1721207472328
1.39,-1.08,4.89,-0.05,0.17,-0.38,1721207472338
-1.28,-1.98,7.50,-0.09,-0.07,-0.25,1721207472348
-3.52,3.64,10.50,0.04,0.07,-0.21,1721207472358
-1.41,-0.34,4.78,0.06,0.02,0.00,1721207472368
-0.11,-1.10,10.74,-0.19,0.01,0.10,1721207472378
2.42,1.88,13.00,-0.10,0.08,0.02,1721207472388
3.41,-1.30,7.68,-0.16,-0.02,-0.18,1721207472398
0.57,-1.81,9.81,-0.19,0.07,-0.32,1721207472408
-0.70,-1.76,12.66,-0.05,0.10,-0.31,1721207472418
-2.48,-0.75,12.03,-0.12,-0.06,-0.12,1721207472428
-1.02,1.38,10.62,-0.13,0.04,0.05,1721207472438
2.43,-0.48,10.00,-0.16,0.15,0.03,1721207472448
2.79,0.82,11.03,-0.08,0.11,-0.07,1721207472458
1.19,-0.42,6.92,-0.03,0.05,-0.29,1721207472468
-1.39,2.72,7.94,-0.02,0.03,-0.37,1721207472478
-0.91,5.21,11.57,0.01,0.15,-0.30,1721207472488
-1.21,-5.12,10.12,-0.24,-0.00,-0.01,1721207472498
-2.39,-2.95,17.21,-0.24,0.19,-0.05,1721207472508
-0.01,3.44,11.80,-0.01,0.08,-0.14,1721207472518
0.35,-0.40,7.28,-0.02,-0.00,-0.20,1721207472528
-0.62,0.10,11.33,0.12,0.11,-0.19,1721207472538
-1.27,0.85,9.22,0.26,0.10,-0.07,1721207472548
-2.10,-1.56,9.40,0.10,0.08,-0.02,1721207472558
-0.11,1.16,12.47,0.20,0.10,-0.02,1721207472568
1.24,2.65,11.53,0.17,0.02,-0.11,1721207472578
0.43,4.24,8.64,0.31,-0.05,-0.14,1721207472588
0.52,-1.79,7.38,0.14,0.16,-0.20,1721207472598
-3.03,3.06,10.16,0.14,-0.11,-0.11,1721207472608
-2.19,-2.12,7.64,-0.00,0.10,-0.17,1721207472618
-0.36,-4.74,11.81,0.04,0.08,-0.17,1721207472628
-1.42,1.68,9.46,0.23,-0.08,-0.01,1721207472638
-1.29,3.57,9.16,0.12,0.12,-0.05,1721207472648
0.26,0.86,10.73,0.14,0.03,-0.07,1721207472658
0.53,-3.06,8.30,0.01,0.04,-0.16,1721207472668
0.50,-0.24,16.87,0.02,0.15,-0.23,1721207472678
-0.14,4.13,14.88,0.17,-0.04,-0.21,1721207472688
-2.90,5.65,7.86,0.15,-0.13,-0.17,1721207472698
-0.70,-2.42,5.94,0.04,0.11,-0.05,1721207472708
0.96,-2.01,11.00,0.05,0.12,-0.04,1721207472718
0.43,2.93,9.33,0.14,-0.10,-0.14,1721207472728
0.75,1.06,6.42,0.06,0.07,-0.15,1721207472738
0.70,2.10,8.67,0.20,0.07,-0.19,1721207472748
-0.50,2.55,2.24,0.11,-0.01,-0.18,1721207472758
-0.90,-5.07,11.99,-0.36,0.20,-0.24,1721207472768
-3.09,2.68,24.64,0.03,-0.12,-0.10,1721207472778
-2.79,3.51,3.19,0.03,-0.14,0.04,1721207472788
-0.18,-8.64,13.07,-0.60,0.23,0.04,1721207472798
-0.24,4.23,18.17,0.20,-0.28,0.09,1721207472808
2.35,3.63,-4.32,-0.02,0.18,-0.06,1721207472818
-0.79,-3.99,10.00,-0.37,-0.04,-0.13,1721207472828
-0.62,4.96,13.66,0.06,0.07,-0.19,1721207472838
-0.71,0.99,4.95,0.05,0.13,-0.02,1721207472848
-0.65,1.15,8.04,-0.23,0.02,0.00,1721207472858
-0.77,1.99,11.14,-0.06,-0.10,0.23,1721207472868
-0.12,-0.60,8.90,-0.18,-0.01,0.22,1721207472878
2.08,-6.11,11.62,-0.26,0.05,0.02,1721207472888
0.93,-1.63,12.66,-0.15,-0.09,-0.23,1721207472898
-0.62,1.85,8.76,-0.08,-0.07,-0.19,1721207472908
-0.09,1.39,14.58,-0.08,0.13,-0.00,1721207472918
-1.58,6.28,8.43,0.23,-0.23,0.16,1721207472928
-0.42,-3.29,4.73,-0.24,0.24,0.03,1721207472938
-0.63,-5.27,17.86,-0.24,-0.15,-0.17,1721207472948
-0.56,5.76,10.29,0.05,-0.10,0.22,1721207472958
1.96,-1.43,9.15,-0.22,0.15,0.30,1721207472968
3.02,-1.28,14.93,0.12,-0.10,0.06,1721207472978
5.27,2.13,8.12,0.21,0.06,-0.27,1721207472988
2.08,-2.72,8.78,-0.01,-0.12,-0.33,1721207472998
-5.80,7.07,13.58,0.13,-0.03,-0.29,1721207473008
-3.68,-4.01,1.16,0.11,0.01,0.08,1721207473018
-1.07,-2.24,9.33,-0.03,0.13,0.25,1721207473028
2.54,2.37,13.20,0.06,-0.01,0.17,1721207473038
2.88,-0.34,10.23,-0.02,-0.01,0.00,1721207473048
0.85,-2.42,14.42,-0.19,0.07,-0.21,1721207473058
-0.91,-0.63,12.56,0.08,-0.08,-0.13,1721207473068
-0.87,4.22,4.00,0.13,0.06,0.07,1721207473078
1.63,-0.01,9.88,-0.03,0.17,0.05,1721207473088
0.44,2.31,10.07,0.15,-0.14,-0.00,1721207473098
1.09,-1.23,10.00,-0.07,0.20,-0.05,1721207473108
0.78,1.13,16.74,0.00,0.03,-0.10,1721207473118
-0.45,5.30,7.93,0.09,-0.08,-0.11,1721207473128
-0.11,-2.45,7.05,-0.07,0.14,-0.11,1721207473138
-0.09,-4.38,12.25,-0.09,0.09,-0.14,1721207473148
-1.29,2.74,11.36,0.16,-0.03,-0.11,1721207473158
-0.60,-1.56,9.52,-0.12,0.12,-0.07,1721207473168
-1.56,7.67,6.65,0.29,-0.13,0.04,1721207473178
2.29,5.02,14.01,-0.05,0.39,-0.01,1721207473188
1.24,-4.36,5.99,0.05,-0.37,0.01,1721207473198
1.64,-1.17,10.52,-0.29,0.46,-0.24,1721207473208
1.90,2.74,16.07,0.13,-0.04,-0.14,1721207473218
-0.33,-2.83,5.80,-0.13,-0.02,-0.08,1721207473228
0.14,5.92,13.04,0.19,0.16,-0.16,1721207473238
1.23,0.45,3.07,0.11,0.07,-0.24,1721207473248
-2.61,0.31,11.08,-0.09,-0.08,-0.17,1721207473258
-1.91,2.21,12.53,0.05,0.11,-0.10,1721207473268
0.10,-0.61,7.67,-0.03,0.06,0.03,1721207473278
-0.07,0.57,12.84,-0.16,0.08,-0.08,1721207473288
0.98,-3.12,11.39,-0.02,0.04,-0.26,1721207473298
-0.05,1.93,10.71,0.06,0.05,-0.24,1721207473308
-0.72,3.30,13.16,0.03,0.13,-0.11,1721207473318
-2.65,-0.07,8.86,0.13,-0.06,-0.06,1721207473328
-1.04,2.87,8.22,0.03,0.21,-0.02,1721207473338
2.12,-1.72,7.83,-0.06,0.01,-0.05,1721207473348
2.28,-2.06,9.39,0.05,0.03,-0.15,1721207473358
2.32,-5.09,8.56,-0.05,0.12,-0.23,1721207473368
-2.53,1.93,15.33,0.00,-0.02,-0.36,1721207473378
-2.58,9.39,15.26,0.34,0.16,-0.27,1721207473388
-1.45,-5.00,-1.25,-0.06,-0.03,0.01,1721207473398
-1.54,-1.30,14.00,-0.04,0.21,0.05,1721207473408
3.41,1.84,11.52,0.24,0.12,-0.08,1721207473418
1.23,2.22,6.72,0.07,-0.03,-0.28,1721207473428
-1.74,-2.75,9.50,0.05,0.09,-0.31,1721207473438
-2.59,0.31,9.99,0.15,0.15,-0.15,1721207473448
-0.24,0.97,10.75,0.08,0.13,0.01,1721207473458
0.05,2.63,11.49,0.13,-0.02,-0.08,1721207473468
-1.70,2.80,9.39,0.16,0.08,-0.21,1721207473478
-2.13,-3.20,5.55,0.01,0.06,-0.12,1721207473488
-0.62,-3.12,12.97,-0.13,0.23,-0.08,1721207473498
0.30,2.68,13.28,0.18,-0.10,0.02,1721207473508
1.20,1.23,5.80,0.08,0.15,-0.14,1721207473518
-0.05,2.63,11.76,0.15,0.13,-0.22,1721207473528
-1.28,2.47,12.40,0.08,0.04,-0.15,1721207473538
-1.87,-0.02,10.54,-0.01,0.04,-0.15,1721207473548
-1.56,0.25,8.98,0.03,0.05,-0.08,1721207473558
-0.54,1.61,11.90,0.05,0.09,0.01,1721207473568
0.56,-0.13,10.44,0.12,0.06,0.02,1721207473578
0.01,0.65,8.66,0.09,0.00,-0.04,1721207473588
0.46,2.80,6.90,0.06,0.11,-0.14,1721207473598
1.07,0.21,14.73,-0.06,0.16,-0.18,1721207473608
-2.15,6.05,10.16,0.37,-0.12,0.03,1721207473618
-0.29,-4.91,-1.97,-0.08,0.10,0.14,1721207473628
0.17,-1.27,16.96,-0.22,0.25,0.00,1721207473638
0.45,3.97,13.87,0.19,0.00,-0.09,1721207473648
-0.45,-7.65,4.33,-0.38,0.11,-0.12,1721207473658
-4.70,0.72,24.68,-0.16,0.07,-0.15,1721207473668
-1.16,3.25,8.28,0.32,-0.11,0.24,1721207473678
0.49,-2.43,-1.50,-0.24,0.04,0.28,1721207473688
-0.18,3.93,20.19,0.01,0.26,0.03,1721207473698
1.13,5.12,-0.61,0.26,-0.35,-0.09,1721207473708
-0.48,-5.98,10.26,-0.54,0.34,-0.21,1721207473718
-2.71,3.22,24.71,-0.23,-0.20,-0.07,1721207473728
-4.61,2.03,1.53,-0.14,-0.27,0.06,1721207473738
-0.51,-7.19,10.30,-0.57,0.35,0.28,1721207473748
3.85,-1.10,20.40,-0.01,-0.15,0.44,1721207473758
2.90,4.07,2.51,0.06,-0.05,0.01,1721207473768
0.56,3.17,11.56,-0.17,0.10,-0.32,1721207473778
-3.32,4.76,10.75,0.12,-0.25,-0.22,1721207473788
-2.38,-1.38,9.26,-0.20,0.09,0.04,1721207473798
-0.02,-8.22,17.61,-0.21,-0.26,0.64,1721207473808
0.24,6.55,9.47,0.09,-0.11,0.34,1721207473818
5.19,-3.94,8.99,-0.34,0.19,-0.17,1721207473828
0.89,5.21,18.21,0.07,-0.28,-0.33,1721207473838
-0.04,1.25,4.81,0.26,0.12,-0.16,1721207473848
-2.95,-4.61,3.62,0.06,-0.09,0.29,1721207473858
-2.49,1.81,11.77,0.08,0.16,0.22,1721207473868
3.53,2.75,3.32,0.31,-0.08,0.13,1721207473878
5.51,-2.61,6.87,-0.10,0.11,-0.09,1721207473888
3.40,-2.41,22.85,-0.06,-0.08,-0.14,1721207473898
-1.34,4.87,5.85,0.16,-0.07,-0.37,1721207473908
-2.18,-4.77,14.60,-0.36,0.30,-0.41,1721207473918
-4.71,-0.11,16.46,0.03,-0.25,0.04,1721207473928
-1.76,3.34,-1.49,0.10,0.15,0.26,1721207473938
3.87,-3.76,9.79,-0.10,0.31,0.18,1721207473948
2.71,8.50,10.03,0.30,-0.16,-0.03,1721207473958
2.82,-3.96,2.21,-0.13,0.23,-0.33,1721207473968
-2.37,-1.46,20.20,-0.23,-0.09,-0.29,1721207473978
-3.80,3.91,13.84,0.06,-0.04,-0.07,1721207473988
-1.28,-0.17,8.16,-0.14,0.16,0.21,1721207473998
1.03,0.56,12.41,0.04,-0.00,0.23,1721207474008
3.04,-1.13,8.97,0.04,0.11,-0.16,1721207474018
-0.48,7.26,10.13,0.21,-0.07,-0.34,1721207474028
-2.29,2.99,9.17,0.09,0.14,-0.20,1721207474038
-3.29,-0.36,10.76,0.13,-0.06,0.10,1721207474048
-0.31,-0.30,6.78,0.08,0.05,0.29,1721207474058
5.11,-0.21,15.04,-0.03,0.24,0.13,1721207474068
3.68,3.78,9.91,0.12,-0.16,-0.22,1721207474078
2.04,-2.54,9.69,-0.11,0.26,-0.56,1721207474088
-3.39,0.92,15.90,0.14,-0.13,-0.39,1721207474098
-5.51,1.34,5.09,0.21,0.12,-0.04,1721207474108
-2.50,-5.61,6.68,0.08,0.14,0.26,1721207474118
0.75,8.43,13.14,0.43,0.08,0.27,1721207474128
5.01,3.51,1.03,0.25,0.12,-0.03,1721207474138
-3.97,0.83,7.67,-0.12,-0.07,0.34,1721207474680
-3.15,-0.46,8.75,-0.10,-0.05,0.41,1721207474684
2.13,-0.97,10.80,0.09,-0.05,0.48,1721207474693
6.05,-2.67,9.51,0.03,-0.04,0.24,1721207474703
3.19,6.01,10.72,-0.00,-0.22,-0.15,1721207474713
0.98,4.56,8.56,-0.03,-0.19,-0.40,1721207474723
0.64,-3.48,9.56,-0.03,-0.17,-0.31,1721207474733
-1.41,-4.19,9.68,0.03,-0.14,-0.18,1721207474743
-1.83,-2.03,9.72,0.02,-0.09,-0.01,1721207474752
-1.05,-5.85,9.61,-0.14,-0.07,0.06,1721207474762
1.14,-0.24,21.53,-0.05,0.01,0.03,1721207474772
2.14,7.35,13.34,0.33,-0.19,-0.04,1721207474782
2.80,0.39,1.10,0.18,-0.03,-0.04,1721207474792
2.53,3.22,12.87,0.10,0.20,-0.29,1721207474802
0.05,1.25,10.79,0.13,-0.27,-0.34,1721207474812
-0.75,-6.43,8.79,-0.19,0.07,-0.29,1721207474822
-0.97,5.39,17.12,0.12,-0.03,-0.14,1721207474832
0.30,2.90,5.20,0.13,-0.03,-0.01,1721207474842
2.70,-1.15,10.98,0.02,0.17,-0.15,1721207474852
3.55,0.79,13.67,0.23,0.05,-0.44,1721207474862
-0.18,3.58,10.99,0.16,0.01,-0.57,1721207474872
-2.94,2.99,10.75,0.19,-0.01,-0.41,1721207474882
-2.73,-5.76,7.07,0.03,0.06,-0.23,1721207474892
-1.60,-0.18,16.34,0.09,0.13,-0.13,1721207474902
0.33,5.02,10.53,0.31,0.04,-0.15,1721207474912
0.99,-0.62,5.38,0.10,0.12,-0.24,1721207474922
-0.35,1.97,13.26,0.12,0.10,-0.42,1721207474932
-1.78,3.55,7.90,0.33,0.01,-0.40,1721207474942
-1.90,2.92,4.30,0.25,0.13,-0.27,1721207474952
-0.92,0.22,5.85,0.10,0.10,-0.16,1721207474962
0.76,-1.88,10.14,0.01,0.15,-0.21,1721207474972
1.43,-2.28,8.01,0.05,0.03,-0.31,1721207474982
0.40,-4.23,13.50,-0.15,0.19,-0.39,1721207474992
-0.95,2.52,14.75,0.14,0.02,-0.43,1721207475002
-0.37,2.60,5.55,0.01,0.18,-0.34,1721207475012
-0.73,-2.50,13.98,-0.19,0.15,-0.29,1721207475022
-1.23,-0.67,13.51,-0.05,0.11,-0.23,1721207475032
0.50,3.21,9.51,-0.05,0.31,-0.25,1721207475042
0.74,6.64,11.93,-0.09,0.07,-0.22,1721207475052
0.83,-3.66,7.89,-0.17,0.09,-0.29,1721207475062
0.28,-4.77,12.43,-0.22,0.31,-0.32,1721207475072
-0.01,7.51,14.56,0.06,0.25,-0.29,1721207475082
-0.71,2.34,3.36,-0.09,0.03,-0.20,1721207475092
-0.75,1.44,11.31,0.05,0.29,-0.33,1721207475102
1.35,-3.81,5.84,0.16,0.19,-0.29,1721207475112
-1.46,-0.94,11.67,-0.05,0.23,-0.27,1721207475122
-2.33,2.83,10.31,0.10,0.13,-0.23,1721207475132
-0.38,-0.12,7.02,0.08,0.31,-0.21,1721207475142
0.47,-6.32,8.94,0.03,0.21,-0.14,1721207475152
-0.50,0.28,10.84,0.18,0.27,-0.21,1721207475162
1.05,1.24,10.77,0.12,0.38,-0.34,1721207475172
-0.34,1.40,10.85,0.02,0.11,-0.36,1721207475182
-2.31,0.31,4.75,0.09,0.11,-0.22,1721207475192
-0.85,-3.14,7.52,-0.02,0.47,-0.25,1721207475202
-3.34,-5.94,10.64,-0.08,0.01,-0.09,1721207475212
-1.89,-0.69,7.99,-0.01,0.34,-0.14,1721207475222
0.90,-0.11,13.78,-0.12,0.36,-0.19,1721207475232
-0.97,2.81,22.05,-0.11,0.13,-0.20,1721207475242
-1.44,4.51,12.16,0.04,0.04,-0.03,1721207475252
0.25,1.19,6.32,-0.17,0.22,-0.03,1721207475262
1.08,-3.51,14.99,-0.34,0.26,-0.17,1721207475272
-1.75,1.54,15.78,0.09,0.11,-0.30,1721207475282
-3.43,6.89,3.81,0.22,0.16,-0.22,1721207475292
-3.77,0.33,8.17,-0.01,0.27,0.02,1721207475302
-1.79,0.24,14.83,0.22,0.08,0.31,1721207475312
2.06,4.84,10.21,0.25,0.30,0.17,1721207475322
2.49,4.42,8.86,0.21,0.02,-0.08,1721207475332
0.04,0.29,8.58,0.12,0.08,-0.20,1721207475342
-2.07,0.70,12.17,0.17,0.16,-0.16,1721207475352
-2.67,1.41,5.72,0.22,0.02,0.10,1721207475362
-2.51,-0.52,8.04,-0.02,0.28,0.08,1721207475372
-0.74,1.72,15.12,0.14,0.10,0.20,1721207475382
-0.38,-1.75,6.68,0.05,0.06,0.18,1721207475392
-0.52,-0.28,5.13,0.14,0.07,0.13,1721207475402
1.66,1.68,5.43,0.14,0.22,0.19,1721207475412
1.00,0.79,12.23,-0.07,0.05,0.16,1721207475422
-0.93,4.77,13.53,0.16,-0.09,0.03,1721207475432
0.55,-10.74,4.76,-0.40,0.08,0.01,1721207475442
-2.53,-2.41,25.62,-0.21,0.01,0.04,1721207475452
-2.62,6.94,8.49,0.31,-0.11,0.12,1721207475462
-1.98,-1.80,-1.73,-0.32,0.04,0.27,1721207475472
-2.37,1.46,21.01,-0.05,0.05,0.49,1721207475482
3.32,-2.81,11.26,-0.08,-0.04,0.19,1721207475492
1.90,-0.38,12.70,-0.35,-0.02,-0.17,1721207475502
-4.63,4.64,8.71,-0.13,-0.28,-0.16,1721207475512
-3.88,-7.08,5.53,-0.27,-0.00,0.25,1721207475522
-1.11,-4.61,11.85,-0.13,0.02,0.47,1721207475532
2.09,0.53,11.49,-0.07,-0.02,0.42,1721207475542
1.15,5.66,15.10,-0.13,-0.08,0.01,1721207475552
1.24,-2.09,12.60,-0.11,-0.18,0.05,1721207475562
-1.66,3.57,11.93,0.17,-0.13,0.22,1721207475572
-0.11,2.12,2.37,0.22,-0.09,0.32,1721207475582
-1.00,3.64,7.35,0.16,-0.15,0.18,1721207475592
1.10,-1.96,9.08,0.07,-0.07,0.19,1721207475602
0.51,-4.88,16.10,-0.17,-0.13,0.18,1721207475612
-1.18,2.89,10.38,0.13,-0.43,0.28,1721207475622
0.96,5.63,4.50,0.06,0.05,0.28,1721207475632
2.87,-1.61,9.69,-0.07,-0.16,0.18,1721207475642
0.21,-7.06,9.68,-0.10,-0.17,0.08,1721207475652
-1.87,-2.60,16.35,-0.08,-0.15,0.13,1721207475662
-0.04,-0.04,15.97,0.07,-0.18,0.38,1721207475672
1.95,4.20,8.28,0.14,-0.19,0.43,1721207475682
4.24,0.76,9.53,-0.03,-0.12,0.34,1721207475692
4.56,0.89,13.10,0.05,-0.15,0.07,1721207475702
3.23,-0.96,6.05,0.02,-0.18,-0.12,1721207475712
0.32,1.20,11.69,-0.08,-0.04,-0.10,1721207475722
-0.79,-1.17,11.33,0.05,-0.17,0.01,1721207475732
-0.65,0.27,6.51,0.28,-0.13,0.10,1721207475742
1.88,1.77,1.75,0.29,-0.01,0.13,1721207475752
3.17,-1.43,8.47,-0.04,-0.02,-0.08,1721207475762
-0.95,0.39,21.35,-0.09,-0.25,-0.32,1721207475772
-3.92,2.57,17.06,0.22,-0.19,-0.15,1721207475782
-1.10,3.70,5.82,0.10,0.05,0.27,1721207475792
3.06,0.87,3.02,-0.27,-0.06,0.34,1721207475802
6.05,-4.59,12.92,-0.37,0.10,-0.27,1721207475812
2.45,-0.39,18.94,0.01,-0.17,-0.77,1721207475822
-5.30,5.24,5.43,0.23,-0.25,-0.56,1721207475832
-7.07,2.28,0.93,-0.13,-0.02,0.03,1721207475842
-1.12,3.47,14.40,-0.12,0.01,0.37,1721207475852
5.48,-2.41,7.01,-0.17,-0.09,0.11,1721207475862
5.68,-1.57,13.48,-0.40,0.07,-0.39,1721207475872
1.20,4.79,15.08,-0.12,-0.18,-0.76,1721207475882
-2.09,-5.53,4.83,-0.28,-0.14,-0.48,1721207475892
-3.32,-2.90,15.84,-0.14,0.16,-0.20,1721207475902
-1.24,3.09,9.31,0.16,-0.04,-0.15,1721207475912
0.76,-0.24,2.06,0.03,0.00,-0.19,1721207475922
2.86,-2.93,14.21,0.03,0.20,-0.30,1721207475932
-0.08,5.70,4.53,0.31,-0.16,-0.38,1721207475942
1.14,-1.06,6.24,-0.12,0.36,-0.42,1721207475952
0.27,-5.60,21.71,-0.09,0.03,-0.31,1721207475962
-0.94,4.28,11.45,0.13,-0.05,-0.23,1721207475972
2.11,0.03,12.79,-0.23,0.39,-0.40,1721207475982
-2.34,0.97,11.39,0.06,-0.28,-0.41,1721207475992
-2.45,2.32,-1.17,0.20,0.14,-0.41,1721207476002
1.03,-8.06,9.43,-0.02,0.30,-0.31,1721207476012
-3.21,4.13,16.95,0.23,-0.04,-0.27,1721207476022
-1.24,3.53,10.32,0.11,0.26,-0.35,1721207476032
-0.10,-0.88,15.17,-0.07,0.03,-0.11,1721207476042
0.05,4.98,10.22,0.09,0.12,-0.13,1721207476052
1.52,-10.18,11.14,-0.30,0.20,-0.27,1721207476062
-1.19,3.43,14.27,0.20,-0.16,-0.40,1721207476072
1.96,6.82,5.49,0.32,0.39,-0.44,1721207476082
-2.51,4.00,10.84,0.11,0.00,-0.42,1721207476092
-5.07,1.98,8.90,0.34,-0.03,-0.21,1721207476102
-1.32,-5.47,2.76,0.16,0.28,-0.17,1721207476112
-2.02,0.15,10.35,0.06,-0.05,-0.09,1721207476122
-0.53,2.77,12.21,0.21,0.14,-0.17,1721207476132
0.07,2.35,10.06,0.20,0.13,-0.27,1721207476142
-2.14,2.32,8.94,0.21,0.02,-0.19,1721207476152
0.11,-5.32,12.15,-0.03,0.27,-0.00,1721207476162
0.79,12.44,14.67,0.57,0.31,-0.10,1721207476172
2.46,-4.07,-1.92,-0.01,-0.05,-0.28,1721207476182
-10.68,-0.34,2.99,0.03,0.01,-0.16,1721207476192
0.66,-3.73,17.26,-0.04,0.70,-0.12,1721207476202
2.66,0.18,17.93,-0.02,-0.07,-0.21,1721207476212
-3.72,-1.08,5.92,-0.05,-0.23,-0.28,1721207476222
-3.42,-1.87,24.53,-0.11,0.58,-0.23,1721207476232
-2.40,1.47,11.54,0.36,-0.26,0.10,1721207476242
-2.40,3.77,-6.85,0.14,0.06,0.15,1721207476252
3.96,-6.05,7.89,-0.20,0.44,0.09,1721207476262
2.05,-1.00,17.31,-0.14,-0.22,-0.08,1721207476272
-2.99,-0.01,9.39,0.11,-0.03,-0.33,1721207476282
-3.27,4.15,3.82,0.16,0.10,-0.12,1721207476292
0.65,-0.26,10.41,-0.28,0.29,0.34,1721207476302
0.76,2.55,15.42,-0.11,-0.12,0.31,1721207476312
1.71,-3.88,5.54,-0.25,0.12,-0.12,1721207476322
-0.79,-4.97,12.94,-0.30,-0.04,-0.31,1721207476332
-2.43,-1.75,11.12,-0.10,0.05,0.02,1721207476342
-2.26,6.89,12.59,-0.07,0.21,0.17,1721207476352
0.15,3.20,9.97,-0.07,-0.09,0.22,1721207476362
1.88,-2.28,10.13,-0.26,0.15,0.04,1721207476372
0.68,-3.35,14.57,-0.24,0.05,-0.14,1721207476382
-2.21,1.14,9.87,-0.11,-0.03,-0.19,1721207476392
-2.37,1.75,5.68,0.10,-0.02,0.12,1721207476402
0.61,0.94,6.09,0.17,0.22,0.30,1721207476412
3.01,0.41,9.18,0.17,0.04,0.12,1721207476422
1.76,2.64,11.55,0.06,0.01,-0.16,1721207476432
-0.13,0.21,11.96,-0.07,-0.00,-0.31,1721207476442
-2.10,-0.19,11.15,0.02,-0.02,-0.00,1721207476452
-3.46,-1.86,5.94,-0.01,0.02,0.20,1721207476462
0.53,-3.23,7.53,0.06,0.15,0.19,1721207476472
1.79,-3.34,10.47,-0.09,-0.03,-0.09,1721207476482
-2.16,3.56,18.64,-0.03,-0.10,-0.09,1721207476492
-1.45,6.40,11.84,0.12,0.01,0.12,1721207476502
2.61,5.73,4.85,0.06,0.15,0.33,1721207476512
2.94,-3.15,4.09,-0.22,0.07,0.13,1721207476522
1.01,-1.00,20.31,-0.28,0.07,-0.18,1721207476532
1.22,9.70,15.43,0.16,0.03,-0.10,1721207476542
1.11,-8.32,1.45,-0.20,0.04,0.10,1721207476552
-0.74,-1.41,17.49,-0.05,0.19,-0.02,1721207476562
0.43,6.43,6.77,0.43,-0.08,-0.09,1721207476572
0.83,-4.06,4.89,0.04,0.19,-0.07,1721207476582
-2.05,5.54,19.35,0.40,-0.11,-0.05,1721207476592
-1.34,1.36,7.46,0.25,0.05,0.01,1721207476602
-1.49,-1.76,13.82,-0.03,0.04,0.08,1721207476612
-0.70,1.99,12.88,0.17,-0.06,0.09,1721207476622
1.64,1.69,8.08,0.12,0.16,0.01,1721207476632
1.33,-1.54,6.59,0.22,-0.14,-0.02,1721207476642
1.57,-0.27,3.95,0.24,0.16,-0.24,1721207476652
0.56,1.56,9.35,0.11,0.00,-0.29,1721207476662
-1.25,0.20,12.47,-0.04,-0.02,-0.17,1721207476672
-1.92,-3.67,9.29,-0.11,-0.07,-0.01,1721207476687
-0.88,-3.67,11.84,-0.13,0.13,0.03,1721207476691
-0.16,0.74,14.38,-0.04,-0.07,0.05,1721207476701
3.40,1.34,10.34,-0.10,0.15,-0.05,1721207476711
3.91,-0.24,19.68,-0.28,0.19,-0.36,1721207476721
-1.17,3.67,7.79,-0.03,-0.28,-0.38,1721207476731
-3.04,5.82,-3.73,-0.26,0.21,-0.22,1721207476741
3.82,-4.80,12.22,-0.48,0.28,-0.02,1721207476751
-0.85,-2.82,4.08,-0.01,-0.13,0.06,1721207476761
1.08,-1.43,5.30,-0.20,0.40,-0.17,1721207476771
0.32,-0.04,21.40,-0.13,-0.15,-0.23,1721207476781
-1.43,7.80,8.81,0.08,-0.00,-0.01,1721207476791
0.71,-3.09,6.89,-0.28,0.25,-0.03,1721207476801
1.07,-3.35,15.83,-0.23,-0.08,-0.05,1721207476811
2.66,5.28,11.67,0.02,0.21,-0.17,1721207476821
0.73,4.44,9.21,-0.08,0.09,-0.35,1721207476831
-3.12,-4.64,11.46,-0.15,-0.02,-0.47,1721207476841
-3.03,-2.70,10.15,0.02,0.05,-0.04,1721207476851
-2.40,1.03,8.57,0.16,0.18,0.19,1721207476861
1.02,2.28,12.91,0.09,0.13,0.07,1721207476871
2.17,6.47,13.00,0.22,0.00,-0.12,1721207476881
0.46,-0.92,7.39,0.01,0.02,-0.18,1721207476891
-1.94,-1.23,13.17,-0.07,0.22,-0.22,1721207476901
-0.29,0.05,10.11,0.06,0.02,-0.02,1721207476911
0.72,-4.70,13.48,-0.15,0.13,-0.03,1721207476921
-1.33,2.28,11.98,0.29,-0.08,-0.16,1721207476931
-0.54,5.05,1.34,0.39,0.22,-0.26,1721207476941
-1.55,-4.61,8.17,0.02,0.00,-0.15,1721207476951
-2.95,7.00,23.23,0.15,0.14,-0.11,1721207476961
-2.05,6.32,7.60,0.34,-0.08,-0.16,1721207476971
-2.93,-2.80,1.93,0.02,0.04,-0.08,1721207476981
-2.41,-2.91,10.84,-0.08,0.06,0.10,1721207476991
1.14,-0.24,13.07,0.07,0.13,0.15,1721207477001
3.16,1.83,11.51,0.15,0.05,-0.02,1721207477011
2.33,2.50,6.11,0.24,-0.05,-0.22,1721207477021
0.79,1.52,7.77,0.12,0.17,-0.31,1721207477031
-0.80,8.26,13.92,0.19,0.12,-0.33,1721207477041
-3.01,-1.36,-1.19,-0.10,-0.24,-0.12,1721207477051
-5.46,-7.27,16.71,-0.53,0.30,-0.09,1721207477061
-0.13,4.33,22.39,0.32,-0.01,0.15,1721207477071
1.81,-2.99,0.98,-0.30,0.01,0.19,1721207477081
-0.60,6.13,20.50,-0.10,0.10,-0.07,1721207477091
3.23,5.77,7.27,0.37,0.03,-0.19,1721207477101
-1.35,-4.71,0.06,-0.20,-0.12,-0.04,1721207477111
-2.42,-1.17,13.53,-0.02,0.02,-0.03,1721207477121
0.82,-1.04,8.76,0.03,0.17,0.01,1721207477131
-2.52,1.48,10.35,-0.10,-0.18,-0.10,1721207477141
-3.30,1.81,7.77,0.06,-0.02,-0.02,1721207477151
-0.85,-3.42,6.10,-0.07,0.16,0.22,1721207477161
0.69,-3.03,19.70,-0.13,0.11,0.21,1721207477171
0.14,4.48,12.71,0.14,-0.17,0.08,1721207477181
-0.32,1.46,-0.51,-0.04,-0.14,0.10,1721207477191
0.94,-4.45,13.84,-0.20,0.22,0.18,1721207477201
1.22,-0.79,14.09,0.08,-0.21,0.15,1721207477211
0.79,-1.99,3.64,-0.11,0.05,0.09,1721207477221
-0.01,3.02,12.60,0.00,0.02,0.07,1721207477231
1.61,0.57,7.49,0.05,0.06,0.13,1721207477241
-0.08,-2.80,8.70,-0.11,-0.04,0.05,1721207477251
0.08,-2.35,13.94,0.00,-0.04,0.13,1721207477261
2.53,2.88,11.64,0.03,0.10,0.20,1721207477271
0.70,0.08,10.24,-0.16,-0.14,0.03,1721207477281
0.16,-0.01,11.65,-0.05,-0.03,-0.06,1721207477291
1.72,0.28,7.83,0.07,0.11,0.03,1721207477301
0.03,-0.52,10.95,-0.08,-0.01,0.00,1721207477311
-0.78,-1.28,13.42,0.03,-0.09,0.01,1721207477321
-0.04,0.39,12.88,0.05,0.04,0.06,1721207477331
-0.29,2.55,8.03,0.17,-0.05,0.11,1721207477341
-0.18,2.76,5.24,0.14,0.06,0.06,1721207477351
1.05,-0.29,11.98,0.15,0.07,-0.03,1721207477361
0.36,0.80,6.78,0.25,-0.11,0.07,1721207477371
0.21,0.96,9.09,0.08,0.14,0.11,1721207477381
2.23,1.01,17.81,0.15,0.07,0.09,1721207477391
1.79,5.53,9.65,0.30,-0.13,-0.10,1721207477401
0.86,-1.48,7.46,0.04,0.09,-0.21,1721207477411
-1.67,-1.20,13.24,0.13,0.03,-0.24,1721207477421
-3.36,0.75,5.97,0.17,-0.04,-0.08,1721207477431
-2.35,-0.30,10.68,0.07,0.12,0.12,1721207477441
0.42,4.67,13.74,0.24,-0.02,0.23,1721207477451
3.05,2.53,7.87,0.12,0.11,0.07,1721207477461
2.71,2.26,11.20,-0.07,0.05,-0.17,1721207477471
0.32,1.48,12.21,-0.14,-0.07,-0.24,1721207477481
-0.54,-5.99,8.67,-0.25,-0.02,-0.13,1721207477491
-0.01,-0.78,9.74,0.04,0.12,0.04,1721207477501
0.42,3.11,2.26,0.11,0.05,-0.09,1721207477511
0.97,-0.85,7.24,-0.21,0.09,-0.15,1721207477521
-0.63,-2.49,15.55,-0.20,-0.03,-0.21,1721207477531
-2.66,-1.66,10.14,-0.14,-0.02,-0.12,1721207477541
-1.28,1.35,12.05,-0.26,0.14,0.03,1721207477551
2.29,-5.02,9.83,-0.30,-0.03,0.18,1721207477561
1.27,-3.47,9.26,-0.35,0.03,-0.09,1721207477571
1.92,2.05,14.26,-0.20,0.20,-0.38,1721207477581
0.75,3.10,8.22,-0.14,-0.02,-0.25,1721207477591
-3.87,1.03,5.58,-0.18,0.04,-0.20,1721207477601
-2.12,0.90,8.59,-0.06,0.12,-0.02,1721207477611
2.78,-5.02,7.09,-0.29,0.09,0.12,1721207477621
0.78,-0.84,15.75,-0.32,0.00,-0.07,1721207477631
0.27,3.82,12.63,-0.13,0.15,-0.38,1721207477641
-0.40,-2.82,14.03,-0.41,0.01,-0.34,1721207477651
-2.85,5.77,19.35,-0.21,0.05,-0.17,1721207477661
-2.59,3.47,8.02,0.16,0.06,-0.06,1721207477671
-0.37,-4.40,10.85,-0.07,0.08,0.11,1721207477681
0.14,5.44,14.26,0.16,0.07,0.09,1721207477691
2.05,2.90,9.80,0.24,0.10,-0.15,1721207477701
0.91,1.26,11.87,0.16,-0.05,-0.21,1721207477711
-2.57,2.54,8.63,0.28,-0.11,-0.08,1721207477721
-2.41,-5.39,6.66,0.14,0.16,-0.09,1721207477731
-0.95,1.50,10.89,0.29,0.01,0.07,1721207477741
1.91,0.01,5.59,0.34,0.15,0.07,1721207477751
1.85,3.27,13.51,0.18,0.20,-0.11,1721207477761
-1.07,7.87,10.89,0.41,-0.27,-0.26,1721207477771
-1.40,-0.55,3.91,0.08,0.16,-0.23,1721207477781
-3.66,-6.23,12.51,-0.12,0.02,-0.08,1721207477791
-3.75,1.05,10.91,0.16,-0.09,0.07,1721207477801
0.30,-0.01,4.13,0.17,0.10,0.14,1721207477811
1.51,-2.31,5.78,0.12,0.03,0.01,1721207477821
0.36,1.23,12.73,0.11,0.01,-0.13,1721207477831
0.14,1.80,12.28,0.15,-0.00,-0.19,1721207477841
-1.41,2.76,10.31,0.15,-0.05,-0.01,1721207477851
0.58,0.05,7.08,-0.02,0.13,0.12,1721207477861
3.30,1.08,14.90,-0.12,0.12,0.00,1721207477871
2.09,1.88,9.30,-0.02,-0.18,-0.22,1721207477881
-0.44,-10.08,7.58,-0.49,0.08,-0.35,1721207477891
-4.15,1.79,23.44,-0.00,-0.05,-0.18,1721207477901
-3.94,5.57,2.54,0.31,-0.12,0.16,1721207477911
-0.88,0.25,6.09,-0.16,0.25,0.25,1721207477921
0.36,4.59,16.84,0.19,-0.13,0.24,1721207477931
2.43,-2.28,5.55,-0.16,0.10,-0.09,1721207477941
-1.53,-2.30,18.21,-0.31,-0.12,-0.23,1721207477951
-4.29,5.70,9.38,0.17,-0.17,-0.04,1721207477961
-1.03,-6.47,6.18,-0.36,0.24,0.26,1721207477971
-0.24,4.79,17.57,0.18,-0.15,0.38,1721207477981
3.83,2.79,1.11,0.34,0.02,0.12,1721207477991
1.67,-6.92,5.37,-0.15,0.01,-0.14,1721207478001
-0.23,10.29,15.69,0.31,-0.17,-0.25,1721207478011
-1.90,0.09,-2.38,0.21,-0.20,0.04,1721207478021
-3.68,-8.40,12.38,-0.45,0.18,0.19,1721207478031
-0.42,1.55,28.24,0.08,-0.34,0.32,1721207478041
1.68,-6.79,4.03,-0.27,-0.11,0.12,1721207478051
-0.40,4.44,16.73,-0.04,0.08,-0.15,1721207478061
2.85,2.55,-0.06,0.45,-0.01,-0.04,1721207478071
0.19,-8.21,1.44,-0.06,-0.01,0.11,1721207478081
-3.44,0.48,21.69,0.19,0.26,-0.16,1721207478091
0.75,-7.31,3.64,0.15,-0.33,-0.07,1721207478101
-3.25,-2.43,16.40,-0.52,0.29,-0.09,1721207478111
1.03,11.31,23.75,0.17,-0.01,-0.15,1721207478121
0.92,-0.98,-3.22,-0.06,-0.14,-0.01,1721207478131
-2.10,-4.98,9.41,-0.32,0.25,-0.10,1721207478141
0.38,1.41,16.01,0.06,-0.08,-0.11,1721207478151
-0.79,1.44,7.64,0.00,0.01,0.01,1721207478161
0.06,7.84,9.16,0.23,0.07,0.18,1721207478171
3.91,-3.23,2.72,-0.06,0.14,0.01,1721207478181
1.92,-3.63,18.18,-0.39,0.03,-0.27,1721207478191
-1.61,6.35,18.50,0.02,-0.02,-0.38,1721207478201
-1.64,-10.27,5.56,-0.25,0.09,-0.05,1721207478211
-4.03,1.13,16.94,0.10,0.05,0.11,1721207478221
0.41,6.13,4.95,0.52,0.14,0.14,1721207478231
2.72,0.99,7.34,0.23,0.19,-0.13,1721207478241
-0.98,11.88,15.60,0.59,-0.21,-0.20,1721207478251
-1.18,1.40,-0.49,0.28,0.07,-0.05,1721207478261
-1.41,-3.80,11.38,-0.21,0.15,0.02,1721207478271
-0.27,1.37,14.71,0.10,-0.07,0.10,1721207478281
1.38,-6.34,4.31,-0.19,0.09,0.00,1721207478291
1.51,-2.20,19.55,-0.07,0.15,-0.22,1721207478301
-0.52,3.47,9.36,0.42,-0.14,-0.24,1721207478311
-2.08,2.09,1.55,0.09,0.16,-0.15,1721207478321
-2.41,9.18,14.67,0.18,0.03,0.03,1721207478331
0.61,-0.84,8.48,-0.08,0.05,0.15,1721207478341
2.66,-4.08,16.66,-0.30,0.13,0.05,1721207478351
2.05,3.97,12.64,0.01,-0.08,-0.12,1721207478361
1.88,-4.37,4.38,-0.35,0.05,-0.24,1721207478371
0.00,-2.29,14.77,-0.10,-0.03,-0.26,1721207478381
-0.09,6.76,5.98,0.31,0.15,-0.22,1721207478391
-2.55,-3.25,3.65,-0.10,-0.05,-0.26,1721207478401
-3.78,4.51,13.78,0.24,-0.02,-0.09,1721207478411
0.75,-5.31,0.05,0.00,0.04,0.16,1721207478421
-1.35,-1.71,17.39,-0.43,0.08,-0.04,1721207478431
0.95,4.28,15.10,0.17,-0.06,-0.09,1721207478441
2.44,-11.37,3.29,-0.47,0.04,0.02,1721207478451
-0.86,3.17,17.05,-0.06,-0.06,-0.08,1721207478461
3.72,2.48,7.25,0.35,0.21,-0.21,1721207478471
0.57,-3.30,3.54,0.04,-0.09,-0.31,1721207478481
-4.90,9.76,14.28,0.35,-0.10,-0.33,1721207478491
-2.98,6.33,6.28,0.15,0.10,-0.09,1721207478501
-2.16,-8.78,11.05,-0.46,0.12,-0.07,1721207478511
-3.82,2.41,17.89,-0.13,-0.08,0.01,1721207478521
-0.20,-8.92,0.76,-0.25,0.08,0.13,1721207478531
3.76,-3.34,16.42,-0.14,0.32,0.08,1721207478541
4.42,7.34,11.77,0.44,-0.07,-0.11,1721207478551
3.17,4.13,4.91,-0.04,0.17,-0.46,1721207478561
-1.65,4.52,20.97,0.03,-0.15,-0.56,1721207478571
-6.17,1.06,5.73,0.11,-0.10,-0.39,1721207478581
-5.15,-0.07,8.93,-0.09,0.31,-0.14,1721207478591
-4.14,-1.01,9.40,0.13,-0.26,0.33,1721207478601
-0.31,-1.49,3.66,0.11,0.20,0.31,1721207478611
5.65,1.18,11.09,0.12,0.20,-0.06,1721207478621
2.95,-0.13,12.79,0.04,-0.24,-0.28,1721207478631
-2.52,3.14,10.30,0.16,-0.00,-0.42,1721207478641
-2.76,4.15,10.56,0.15,0.15,-0.15,1721207478651
-2.29,-1.08,12.67,-0.07,-0.06,0.24,1721207478661
0.74,3.16,13.97,0.07,0.11,0.12,1721207478671
4.02,-0.86,4.02,-0.00,-0.06,-0.07,1721207478681
0.03,-4.46,17.00,-0.14,0.10,-0.35,1721207478696
-1.48,2.08,19.49,0.23,-0.06,-0.34,1721207478700
-2.76,3.33,2.20,0.42,-0.06,-0.08,1721207478710
-1.93,-2.87,6.54,0.01,0.19,0.12,1721207478720
0.05,3.97,16.91,0.15,0.07,0.07,1721207478730
0.99,6.35,14.15,0.08,0.02,-0.05,1721207478740
-1.18,1.41,9.85,-0.06,0.06,-0.26,1721207478750
-3.06,-3.26,9.33,-0.15,-0.03,-0.22,1721207478760
-4.42,-3.27,8.29,-0.12,-0.07,0.07,1721207478770
-0.31,-1.42,12.62,-0.11,0.19,0.28,1721207478780
2.18,-0.42,8.52,0.19,-0.03,0.25,1721207478790
3.48,-4.20,8.16,-0.06,0.13,-0.02,1721207478800
2.09,9.62,17.78,0.14,-0.10,-0.15,1721207478810
0.12,9.33,7.13,0.11,-0.04,-0.14,1721207478820
-2.01,-3.57,9.24,-0.30,0.20,-0.35,1721207478830
-3.57,-3.45,12.92,0.03,-0.18,-0.11,1721207478840
-3.64,-4.40,2.71,-0.13,0.09,0.31,1721207478850
0.31,2.04,11.15,0.11,0.10,0.31,1721207478860
5.02,-1.01,3.65,0.25,-0.00,0.23,1721207478870
5.47,0.61,9.67,0.03,0.15,-0.12,1721207478880
0.79,9.25,16.19,0.14,-0.14,-0.38,1721207478890
-1.42,-0.75,5.04,-0.11,0.01,-0.31,1721207478900
-5.41,-2.90,13.39,-0.32,0.14,-0.28,1721207478910
-4.75,-2.53,8.13,-0.03,-0.04,0.26,1721207478920
-0.42,-9.89,2.57,-0.38,0.22,0.40,1721207478930
3.96,-0.66,18.86,-0.11,0.17,0.21,1721207478940
4.15,4.79,10.79,0.07,-0.14,0.05,1721207478950
3.51,5.22,8.37,-0.13,0.13,-0.14,1721207478960
1.64,-1.90,10.77,-0.24,0.11,-0.33,1721207478970
-3.05,-4.27,11.89,-0.22,-0.08,-0.21,1721207478980
-4.21,4.74,13.68,-0.03,0.12,-0.07,1721207478990
-0.72,1.17,6.44,0.03,0.11,0.36,1721207479000
2.68,-6.40,6.42,-0.09,0.15,0.27,1721207479010
3.76,4.57,13.97,0.14,0.15,-0.04,1721207479020
2.50,1.34,8.34,0.24,0.02,-0.24,1721207479030
-0.29,-0.62,12.61,0.17,0.12,-0.28,1721207479040
-1.53,14.22,18.33,0.52,0.09,-0.14,1721207479050
-0.51,4.23,6.61,0.30,0.11,0.06,1721207479060
0.91,-3.74,11.32,-0.05,0.26,-0.06,1721207479070
1.38,9.98,13.26,0.27,0.09,-0.13,1721207479080
1.31,-5.01,3.44,-0.14,0.14,-0.20,1721207479090
-2.88,-0.76,16.43,-0.01,-0.00,-0.25,1721207479100
-1.69,3.93,8.86,0.43,0.16,-0.02,1721207479110
0.03,0.16,9.70,-0.10,0.27,0.12,1721207479120
-0.86,11.17,26.19,0.22,0.07,-0.09,1721207479130
0.04,4.64,2.71,0.48,-0.02,-0.26,1721207479140
-2.25,0.29,-8.06,0.10,0.01,0.13,1721207479150
1.52,-6.45,8.08,-0.14,0.37,0.21,1721207479160
0.83,-4.43,20.08,0.18,-0.46,-0.03,1721207479170
0.33,-1.36,2.30,0.06,0.11,-0.24,1721207479180
-2.02,-3.09,6.96,-0.14,0.08,-0.33,1721207479190
-1.90,-5.74,14.56,-0.17,0.28,-0.08,1721207479200
-1.62,3.17,13.62,0.28,-0.01,0.32,1721207479210
2.25,-2.15,2.69,-0.19,0.14,0.26,1721207479220
4.31,-3.13,14.37,-0.19,0.16,-0.14,1721207479230
4.55,-5.45,8.81,-0.08,0.03,-0.39,1721207479240
-3.77,2.83,5.45,-0.12,-0.06,-0.49,1721207479250
-4.78,-4.82,16.57,-0.51,0.36,-0.33,1721207479260
-4.80,-0.05,26.17,-0.16,-0.01,0.13,1721207479270
-3.17,-1.67,1.01,-0.31,-0.09,0.39,1721207479280
3.69,-3.79,20.75,-0.63,0.59,0.21,1721207479290
2.81,11.42,16.63,0.03,-0.25,-0.07,1721207479300
-0.84,-1.59,-5.11,-0.03,-0.19,-0.21,1721207479310
-1.47,-5.40,12.90,-0.10,0.31,-0.10,1721207479320
-2.89,-0.78,23.05,-0.01,-0.34,0.24,1721207479330
-1.19,6.38,13.54,-0.11,0.14,-0.02,1721207479340
1.10,14.93,18.43,0.03,0.10,-0.29,1721207479350
-2.26,1.53,7.06,0.31,-0.29,-0.29,1721207479360
-3.99,-11.14,-0.47,0.11,-0.00,0.09,1721207479370
-3.52,1.26,12.13,0.23,0.55,0.25,1721207479380
2.60,8.66,16.98,0.31,0.01,-0.10,1721207479390
-1.14,4.45,4.74,0.34,-0.34,-0.23,1721207479400
-5.98,-3.51,-6.68,0.22,-0.04,-0.02,1721207479410
-2.77,-7.69,14.88,-0.38,0.43,0.24,1721207479420
1.93,10.05,26.06,0.30,-0.46,0.40,1721207479430
2.74,-0.17,-3.87,0.22,-0.07,0.10,1721207479440
0.28,-4.25,13.10,-0.17,0.17,-0.06,1721207479450
1.15,1.20,15.88,0.26,-0.38,0.02,1721207479460
0.46,2.13,6.79,0.03,0.03,0.04,1721207479470
0.34,9.06,10.17,0.28,-0.15,0.08,1721207479480
2.15,-4.34,1.33,-0.17,-0.02,-0.02,1721207479490
-0.16,-1.87,15.11,-0.23,-0.00,-0.13,1721207479500
-0.73,-2.10,8.28,-0.00,-0.18,-0.16,1721207479510
-3.87,-7.61,16.26,-0.62,-0.03,-0.08,1721207479520
-4.17,3.17,27.55,0.10,-0.21,0.17,1721207479530
0.48,6.17,-3.67,0.28,-0.17,0.35,1721207479540
1.84,1.38,8.29,-0.38,0.08,0.26,1721207479550
2.86,0.15,20.26,-0.05,-0.45,0.04,1721207479560
3.12,-1.50,10.96,-0.08,-0.12,-0.20,1721207479570
-2.93,3.92,8.08,-0.01,-0.16,-0.11,1721207479580
-3.34,-0.62,6.69,-0.09,-0.18,0.13,1721207479590
0.41,-1.92,14.24,-0.11,0.02,0.31,1721207479600
-0.13,2.25,7.18,0.12,-0.23,0.12,1721207479610
-0.42,1.24,3.96,-0.08,-0.02,0.01,1721207479620
0.59,1.07,11.39,-0.00,-0.04,0.03,1721207479630
-1.20,-3.39,5.12,-0.01,-0.27,0.15,1721207479640
0.17,-2.90,14.05,-0.12,0.06,0.19,1721207479650
3.10,4.15,15.25,0.03,0.01,0.13,1721207479660
-0.10,2.89,8.46,-0.06,-0.35,-0.10,1721207479670
0.64,-3.25,7.34,-0.04,-0.06,-0.07,1721207479680
1.35,-0.31,9.86,0.00,0.07,-0.07,1721207479690
-0.63,1.36,10.41,0.04,-0.18,-0.07,1721207479700
-0.87,-0.08,7.63,0.08,-0.20,-0.06,1721207479710
1.38,-1.79,6.65,0.03,0.06,-0.03,1721207479720
-0.04,-1.62,9.91,-0.03,-0.17,-0.05,1721207479730
0.04,-0.52,10.47,0.08,-0.09,-0.07,1721207479740
1.43,0.69,10.27,0.16,-0.01,-0.02,1721207479750
0.59,3.83,14.52,0.13,-0.02,-0.08,1721207479760
0.57,4.12,12.37,0.24,-0.09,-0.08,1721207479770
1.18,0.48,1.12,0.10,-0.06,0.03,1721207479780
1.39,-0.63,12.56,-0.10,0.11,-0.10,1721207479790
0.96,2.82,18.23,0.09,-0.07,-0.20,1721207479800
-0.41,3.41,7.62,0.13,-0.06,-0.28,1721207479810
-1.25,3.00,9.88,0.11,-0.01,-0.05,1721207479820
0.25,-3.08,8.42,0.05,0.09,-0.05,1721207479830
-0.54,0.28,15.93,0.14,0.06,-0.18,1721207479840
-0.99,4.86,10.86,0.43,-0.16,0.03,1721207479850
1.48,3.28,5.99,0.25,0.17,0.12,1721207479860
3.56,2.28,10.92,0.31,0.05,0.00,1721207479870
3.63,0.50,9.75,0.19,0.01,-0.19,1721207479880
1.24,4.80,4.97,0.33,-0.05,-0.38,1721207479890
0.98,-4.63,5.01,-0.01,0.26,-0.38,1721207479900
-1.06,2.06,19.20,0.20,0.01,-0.17,1721207479910
0.31,0.89,3.84,0.19,0.10,-0.20,1721207479920
1.04,-1.39,8.53,-0.14,0.21,-0.26,1721207479930
0.11,-1.31,4.56,-0.04,-0.13,-0.12,1721207479940
2.59,-5.98,10.52,-0.37,0.44,-0.29,1721207479950
0.42,2.29,25.19,0.06,0.08,-0.52,1721207479960
-1.08,-1.15,4.57,0.19,-0.09,-0.33,1721207479970
-0.43,-1.92,3.22,-0.30,0.43,-0.12,1721207479980
0.58,1.94,20.71,-0.33,0.19,-0.29,1721207479990
1.94,0.60,15.29,0.11,0.02,-0.37,1721207480000
1.67,1.55,-3.41,-0.01,0.23,-0.40,1721207480010
-3.79,-3.87,4.35,-0.46,0.15,-0.44,1721207480020
-4.28,-6.02,21.72,-0.34,0.18,-0.29,1721207480030
-3.14,1.38,15.17,0.10,0.21,-0.05,1721207480040
0.80,3.54,6.32,0.00,0.31,-0.10,1721207480050
0.01,-3.00,12.63,-0.19,-0.09,-0.05,1721207480060
-3.36,-0.33,12.84,-0.04,0.06,-0.18,1721207480070
-1.06,-1.18,10.33,-0.00,0.24,-0.23,1721207480080
-2.02,1.54,12.99,0.06,0.05,-0.19,1721207480090
-4.60,2.26,5.50,0.15,-0.08,0.05,1721207480100
0.09,-7.79,10.30,-0.15,0.32,0.20,1721207480110
0.82,3.09,13.25,0.24,-0.17,0.20,1721207480120
-0.17,-2.04,-0.78,0.11,0.02,-0.13,1721207480130
-2.36,2.49,13.35,0.05,0.23,-0.15,1721207480140
-1.80,-1.42,10.01,0.15,-0.09,0.09,1721207480150
-3.73,-3.90,16.03,-0.29,0.09,0.15,1721207480160
-0.37,3.51,18.51,0.16,0.08,0.04,1721207480170
-1.01,1.66,5.44,-0.03,-0.20,0.12,1721207480180
-2.44,4.07,12.38,0.07,0.04,0.12,1721207480190
2.56,-0.82,7.69,0.18,0.01,0.33,1721207480200
3.11,0.11,6.81,-0.13,-0.09,0.20,1721207480210
2.21,6.46,14.80,0.08,-0.11,-0.09,1721207480220
0.61,1.59,4.44,0.12,-0.22,-0.18,1721207480230
-1.08,1.73,8.96,-0.06,0.02,0.01,1721207480240
0.59,-1.63,10.79,0.03,-0.12,0.20,1721207480250
0.90,-2.43,14.63,-0.26,-0.01,0.02,1721207480260
-0.88,2.65,14.89,0.14,-0.20,-0.18,1721207480270
-2.95,1.54,0.07,0.05,-0.14,-0.11,1721207480280
-2.98,-0.40,11.38,-0.14,0.10,0.21,1721207480290
-0.37,1.35,10.72,0.17,-0.16,0.43,1721207480300
3.88,-2.01,7.04,-0.16,0.07,0.25,1721207480310
2.83,4.58,15.55,-0.10,-0.18,-0.08,1721207480320
0.91,0.39,5.61,-0.11,-0.19,-0.24,1721207480330
-1.31,-8.35,6.70,-0.35,-0.05,-0.15,1721207480340
-3.50,-5.25,15.62,-0.20,-0.12,0.01,1721207480350
-2.39,6.75,14.58,0.15,-0.12,0.10,1721207480360
0.83,0.24,3.05,-0.16,-0.07,0.18,1721207480370
1.93,-5.18,18.80,-0.43,0.01,0.07,1721207480380
1.94,1.31,17.98,0.04,-0.17,-0.17,1721207480390
-1.20,3.45,5.59,-0.14,-0.23,-0.16,1721207480400
-2.78,3.45,10.81,-0.13,-0.07,0.03,1721207480410
-0.90,-3.57,9.72,-0.15,-0.11,0.10,1721207480420
1.54,-0.06,12.19,-0.09,-0.09,0.06,1721207480430
2.22,5.16,9.48,0.12,-0.13,0.04,1721207480440
1.02,0.90,7.33,-0.04,-0.02,-0.17,1721207480450
0.78,-0.04,13.78,0.13,-0.14,-0.21,1721207480460
0.51,-0.21,5.41,0.22,-0.08,-0.06,1721207480470
-0.81,-0.70,7.75,0.08,-0.01,-0.14,1721207480480
1.58,-0.50,21.21,0.03,0.11,-0.16,1721207480490
-1.98,4.25,10.71,0.27,-0.39,-0.12,1721207480500
0.94,4.00,-2.48,0.24,0.22,-0.16,1721207480510
2.84,-3.41,7.73,0.00,0.11,-0.19,1721207480520
0.73,-0.70,14.70,0.16,-0.16,-0.34,1721207480530
-1.41,-0.35,6.74,0.20,-0.05,-0.25,1721207480540
0.41,5.55,6.30,0.16,0.20,-0.05,1721207480550
2.57,-1.04,8.27,-0.05,-0.04,-0.08,1721207480560
3.37,-7.17,12.45,-0.18,0.13,-0.34,1721207480570
-1.02,1.72,13.72,0.15,0.02,-0.64,1721207480580
-4.14,-1.45,6.61,0.10,0.09,-0.39,1721207480590
-3.75,0.95,12.78,0.08,0.19,-0.01,1721207480600
0.08,6.71,15.81,0.17,0.17,0.08,1721207480610
3.46,-0.31,7.07,0.02,0.09,-0.10,1721207480620
3.00,-1.81,7.50,-0.06,0.08,-0.29,1721207480630
1.45,3.16,11.82,0.11,0.26,-0.55,1721207480640
-2.20,0.32,7.98,0.11,-0.04,-0.42,1721207480650
-4.68,-3.06,11.06,-0.00,0.08,0.01,1721207480660
0.18,3.45,9.95,0.19,0.37,0.11,1721207480670
3.94,1.35,8.86,0.01,0.17,-0.05,1721207480680
2.25,5.98,17.91,0.00,0.12,-0.32,1721207480690
-1.78,0.65,1.38,0.05,0.13,-0.20,1721207480705
-1.71,-1.68,4.28,-0.09,0.20,-0.27,1721207480709
-2.32,-7.38,16.54,-0.21,0.16,-0.09,1721207480719
-1.91,4.57,15.83,0.20,0.18,0.01,1721207480729
-0.24,4.28,4.12,0.20,0.31,-0.10,1721207480739
-0.73,4.48,8.17,0.02,-0.04,-0.49,1721207480749
-9.10,-1.24,5.93,0.05,-0.18,0.34,1721207480759
-0.84,-5.51,7.75,-0.23,0.62,0.58,1721207480769
11.97,-1.20,18.05,0.14,0.27,0.69,1721207480779
12.04,5.06,4.38,0.31,-0.03,-0.41,1721207480789
5.75,1.17,7.85,-0.06,0.02,-1.35,1721207480799
-7.60,2.25,13.61,0.10,-0.27,-1.39,1721207480809
-14.43,-3.03,2.20,0.00,0.05,-0.43,1721207480819
-12.30,-3.92,15.73,-0.24,0.25,0.50,1721207480829
-3.14,0.22,13.76,0.08,0.10,0.78,1721207480839
4.76,-3.14,6.28,-0.03,0.11,0.70,1721207480849
7.63,1.40,10.52,-0.13,0.17,0.20,1721207480859
6.34,4.28,12.13,-0.09,-0.05,-0.27,1721207480869
2.02,0.44,5.96,-0.09,-0.06,-0.48,1721207480879
-2.36,-3.88,10.34,-0.21,0.10,-0.27,1721207480889
-3.47,0.84,11.31,0.04,0.01,0.05,1721207480899
1.14,0.71,8.83,-0.05,0.25,0.19,1721207480909
0.70,-0.17,7.78,-0.03,-0.09,-0.06,1721207480919
0.41,-0.20,8.27,-0.07,0.01,-0.17,1721207480929
1.09,4.91,15.02,0.08,0.19,-0.16,1721207480939
0.98,1.73,8.75,-0.04,0.06,-0.23,1721207480949
-1.75,-0.80,13.42,-0.15,0.09,-0.27,1721207480959
-3.44,-0.28,14.76,0.00,0.18,-0.21,1721207480969
-4.34,0.73,5.82,0.04,-0.09,0.00,1721207480979
-3.31,-3.44,5.52,-0.11,0.10,0.20,1721207480989
1.13,-1.70,16.30,-0.11,0.17,0.20,1721207480999
3.66,-0.17,13.82,-0.07,-0.03,-0.01,1721207481009
0.33,-2.42,8.92,-0.14,-0.05,-0.26,1721207481019
-3.42,1.78,11.95,0.03,0.04,-0.38,1721207481029
-3.30,4.20,9.42,0.19,-0.03,0.12,1721207481039
-2.62,-0.85,3.52,-0.02,-0.09,0.31,1721207481049
-0.49,-0.93,14.55,-0.06,0.05,0.23,1721207481059
1.04,7.84,9.85,0.22,-0.17,0.11,1721207481069
2.43,-1.75,6.16,-0.19,0.05,0.02,1721207481079
-0.20,1.14,15.89,-0.00,-0.16,-0.00,1721207481089
0.33,-0.92,4.86,0.01,-0.12,0.11,1721207481099
2.66,-3.52,18.37,-0.26,0.18,0.14,1721207481109
2.97,5.26,16.65,0.32,-0.24,0.07,1721207481119
2.46,-2.48,-1.14,-0.02,-0.08,-0.05,1721207481129
-0.51,1.26,17.96,-0.06,0.07,-0.26,1721207481139
0.46,9.35,17.08,0.43,-0.12,-0.29,1721207481149
-2.45,0.31,3.00,-0.03,-0.08,-0.10,1721207481159
-5.03,1.99,12.04,-0.04,-0.10,0.12,1721207481169
0.22,-2.44,11.18,-0.05,0.04,0.13,1721207481179
1.27,4.37,12.20,0.14,-0.07,0.12,1721207481189
1.28,2.82,1.85,0.17,-0.09,-0.03,1721207481199
-0.44,-2.13,7.10,-0.07,-0.02,-0.02,1721207481209
-0.19,3.77,15.79,0.21,-0.12,0.10,1721207481219
0.97,1.14,7.51,0.01,-0.01,-0.03,1721207481229
-1.19,-0.40,12.54,-0.10,-0.15,-0.05,1721207481239
-1.71,-1.69,7.25,-0.05,-0.22,0.11,1721207481249
0.29,-5.05,14.82,-0.24,0.10,0.11,1721207481259
0.55,1.08,10.74,0.18,-0.25,0.08,1721207481269
0.72,-1.71,-1.38,0.01,-0.08,-0.05,1721207481279
0.48,-1.35,14.54,-0.03,0.06,-0.06,1721207481289
0.66,7.46,10.12,0.30,-0.21,-0.05,1721207481299
-0.07,-3.58,2.19,-0.13,-0.01,-0.07,1721207481309
-1.98,-7.59,19.17,-0.39,-0.06,-0.14,1721207481319
-2.53,2.66,16.17,0.04,-0.27,-0.06,1721207481329
-1.19,3.38,2.70,-0.11,-0.08,0.12,1721207481339
1.30,0.10,13.43,-0.26,0.02,0.10,1721207481349
2.25,-2.98,8.16,-0.11,-0.24,0.03,1721207481359
-0.40,-0.64,6.79,-0.26,0.07,-0.24,1721207481369
1.26,0.14,16.33,-0.21,-0.02,-0.27,1721207481379
0.52,-0.46,9.34,-0.13,-0.29,0.02,1721207481389
-0.36,2.62,11.95,-0.15,0.06,0.01,1721207481399
2.42,2.97,12.04,-0.04,0.03,-0.10,1721207481409
0.96,-0.62,10.53,-0.15,-0.07,-0.29,1721207481419
-1.87,3.90,12.33,0.07,-0.13,-0.34,1721207481429
-1.81,1.47,7.41,0.08,-0.04,-0.10,1721207481439
-0.87,2.16,7.11,0.15,0.08,0.01,1721207481449
1.63,-5.26,4.77,0.07,-0.02,-0.08,1721207481459
0.57,-0.48,14.95,-0.05,-0.05,-0.30,1721207481469
0.24,3.32,14.06,0.15,-0.05,-0.29,1721207481479
0.93,-3.46,8.66,-0.06,0.02,-0.16,1721207481489
-1.12,-0.22,9.85,0.09,-0.03,-0.20,1721207481499
1.03,0.80,10.11,0.12,0.12,-0.28,1721207481509
1.26,3.52,16.89,0.14,0.09,-0.29,1721207481519
-0.95,4.62,13.81,0.23,-0.05,-0.18,1721207481529
0.77,-1.37,6.80,0.06,0.20,-0.23,1721207481539
1.15,-2.69,9.16,0.01,0.07,-0.33,1721207481549
-0.84,3.67,11.10,0.20,0.02,-0.35,1721207481559
-0.28,0.35,11.19,0.13,0.22,-0.32,1721207481569
-0.61,-2.14,12.72,0.20,0.10,-0.24,1721207481579
-0.20,0.23,9.07,0.17,0.11,-0.12,1721207481589
0.37,2.02,11.75,0.07,0.22,-0.27,1721207481599
-0.75,0.56,13.27,0.16,0.11,-0.36,1721207481609
-1.65,-1.71,8.44,0.29,0.09,-0.15,1721207481619
0.60,-0.25,5.62,0.21,0.29,-0.04,1721207481629
2.08,0.93,13.27,0.06,0.21,-0.24,1721207481639
0.58,4.81,13.76,0.26,0.09,-0.37,1721207481649
-0.33,2.51,2.82,0.14,0.24,-0.39,1721207481659
-1.22,-2.73,3.33,-0.11,0.19,-0.21,1721207481669
-0.75,1.02,11.20,0.06,0.26,-0.24,1721207481679
1.26,-3.79,6.18,-0.08,0.26,-0.35,1721207481689
-1.81,1.38,22.46,-0.07,0.19,-0.46,1721207481699
-3.08,5.86,10.35,0.30,0.11,-0.28,1721207481709
-1.56,-1.99,-1.60,-0.25,0.32,-0.10,1721207481719
0.79,-4.02,16.78,-0.27,0.35,-0.11,1721207481729
2.56,0.10,14.73,0.15,0.14,-0.25,1721207481739
0.98,5.05,7.67,0.06,0.27,-0.43,1721207481749
-1.79,2.12,9.55,-0.04,0.21,-0.45,1721207481759
-3.06,-2.15,9.50,-0.15,0.20,-0.24,1721207481769
-2.66,2.04,11.20,-0.08,0.28,-0.09,1721207481779
0.87,1.38,8.02,-0.09,0.27,-0.09,1721207481789
0.98,2.24,7.30,-0.04,0.21,-0.23,1721207481799
0.26,-3.58,7.82,-0.16,0.41,-0.42,1721207481809
-2.34,-2.44,13.72,-0.08,0.22,-0.22,1721207481819
-2.07,2.22,11.80,-0.01,0.23,-0.08,1721207481829
-0.22,3.51,12.58,-0.05,0.36,-0.10,1721207481839
0.02,0.38,7.74,-0.00,0.06,-0.08,1721207481849
-0.12,-4.14,4.40,-0.07,0.25,-0.12,1721207481859
0.52,-1.44,14.22,-0.01,0.46,-0.22,1721207481869
1.07,2.15,7.11,0.05,0.15,-0.16,1721207481879
-2.75,1.94,7.98,-0.07,0.19,-0.25,1721207481889
-2.39,0.06,13.22,0.07,0.42,-0.19,1721207481899
-0.89,5.65,7.68,0.19,0.23,0.10,1721207481909
0.67,-1.16,7.04,-0.16,0.28,0.13,1721207481919
-1.00,-0.35,15.58,-0.15,0.06,-0.08,1721207481929
-0.24,4.92,15.74,0.05,0.29,0.01,1721207481939
-0.10,-3.08,2.19,0.04,0.09,0.06,1721207481949
-1.91,-6.14,6.86,-0.12,0.36,-0.00,1721207481959
-1.00,3.04,21.05,0.17,0.22,0.13,1721207481969
0.28,6.70,10.40,0.30,0.14,0.08,1721207481979
-1.17,4.18,8.46,0.08,0.08,0.05,1721207481989
-2.75,-1.91,8.30,0.09,0.10,0.08,1721207481999
-0.23,-4.00,9.81,-0.02,0.29,0.18,1721207482009
0.86,0.95,13.17,0.11,0.04,0.12,1721207482019
-2.91,1.47,6.82,0.14,-0.04,0.01,1721207482029
-1.84,-1.64,9.53,0.13,0.28,0.11,1721207482039
-0.27,-2.99,9.63,0.10,0.04,0.44,1721207482049
0.27,1.70,11.25,0.04,0.09,0.35,1721207482059
1.24,3.90,9.35,0.17,-0.03,0.13,1721207482069
-0.15,-2.97,6.95,-0.08,0.01,-0.01,1721207482079
-2.68,-0.49,14.74,0.02,0.03,0.13,1721207482089
-0.94,-2.18,6.54,0.02,-0.04,0.35,1721207482099
1.09,-2.05,18.20,-0.22,0.23,0.30,1721207482109
-0.63,6.43,14.45,0.31,-0.37,0.16,1721207482119
-1.78,2.99,-1.36,0.08,-0.08,0.15,1721207482129
-3.36,-2.26,11.07,-0.12,-0.07,0.33,1721207482139
0.13,-1.57,13.97,-0.00,-0.16,0.40,1721207482149
1.05,3.56,11.60,0.02,-0.15,0.23,1721207482159
0.20,1.88,6.61,0.01,-0.25,0.15,1721207482169
0.32,1.92,9.86,0.02,-0.12,0.27,1721207482179
2.85,0.80,8.39,0.03,-0.15,0.36,1721207482189
4.19,0.27,11.93,-0.08,-0.09,0.19,1721207482199
2.88,1.38,12.75,0.01,-0.22,-0.11,1721207482209
-0.46,4.92,11.43,0.09,-0.16,-0.19,1721207482219
-1.71,2.41,7.85,0.07,-0.13,0.01,1721207482229
-1.72,-0.93,7.87,-0.04,-0.10,0.23,1721207482239
0.74,1.05,12.96,0.03,-0.04,0.21,1721207482249
1.62,2.34,10.04,0.07,-0.21,0.16,1721207482259
0.44,2.04,8.79,-0.03,-0.13,-0.07,1721207482269
0.38,1.35,9.85,0.06,-0.12,-0.05,1721207482279
-0.95,0.88,10.24,0.00,-0.11,0.07,1721207482289
-1.78,0.21,8.26,0.01,-0.18,0.14,1721207482299
0.06,-2.35,11.96,-0.12,-0.04,0.21,1721207482309
2.00,4.97,14.06,0.13,-0.17,0.11,1721207482319
2.43,1.11,4.43,0.00,-0.21,-0.07,1721207482329
0.83,-3.05,7.88,-0.10,-0.11,-0.14,1721207482339
-1.62,-2.50,12.29,-0.12,-0.12,-0.22,1721207482349
-2.84,0.01,10.13,0.08,-0.20,-0.11,1721207482359
-0.28,2.32,7.93,0.08,0.02,0.16,1721207482369
0.73,2.74,2.72,0.01,-0.22,0.12,1721207482379
0.73,-5.90,11.18,-0.46,0.01,-0.26,1721207482389
-0.34,-0.23,19.23,0.01,-0.24,-0.35,1721207482399
-2.51,1.30,1.70,-0.00,-0.16,-0.11,1721207482409
-1.74,-4.53,7.62,-0.36,-0.02,0.21,1721207482419
1.44,-1.55,15.47,-0.13,-0.06,0.12,1721207482429
3.50,6.38,13.69,0.03,-0.00,-0.21,1721207482439
1.72,-2.38,5.98,-0.31,-0.21,-0.29,1721207482449
-3.82,-2.72,17.03,-0.37,-0.11,-0.31,1721207482459
-2.11,6.02,12.84,0.07,0.01,-0.17,1721207482469
-0.01,-1.17,3.98,-0.19,-0.06,0.19,1721207482479
0.79,-2.41,14.68,-0.15,0.02,0.01,1721207482489
2.82,1.00,8.10,0.14,-0.11,-0.18,1721207482499
1.97,3.45,7.03,-0.09,0.13,-0.26,1721207482509
-0.73,2.82,14.79,0.06,-0.14,-0.26,1721207482519
-1.27,-1.06,4.31,0.12,-0.08,-0.12,1721207482529
0.15,-1.65,10.32,-0.03,0.23,-0.07,1721207482539
-0.02,1.31,16.86,0.06,-0.04,-0.20,1721207482549
-0.45,3.94,11.42,0.17,-0.06,-0.12,1721207482559
0.27,0.80,6.65,0.12,0.09,-0.05,1721207482569
1.09,-1.89,10.56,0.00,0.04,-0.13,1721207482579
-0.10,0.10,10.31,0.14,-0.03,-0.27,1721207482589
-0.36,2.40,9.01,0.12,0.11,-0.21,1721207482599
-0.67,0.88,15.42,-0.01,0.03,-0.10,1721207482609
-0.63,0.47,14.79,0.15,-0.00,-0.05,1721207482619
0.57,3.19,7.90,0.18,0.10,-0.09,1721207482629
0.84,-2.85,7.78,0.02,0.04,-0.15,1721207482639
-0.99,1.48,13.62,0.17,0.03,-0.24,1721207482649
-0.82,3.70,6.90,0.32,0.10,-0.12,1721207482659
-1.12,2.05,7.69,0.20,0.00,-0.05,1721207482669
-0.47,0.56,10.59,0.13,0.07,-0.06,1721207482679
-0.18,0.27,11.72,0.10,0.09,-0.19,1721207482689
-1.62,2.27,8.86,0.12,-0.01,-0.13,1721207482699
-0.77,0.71,11.51,0.08,0.12,0.01,1721207482714
-0.85,1.62,11.08,0.13,0.05,-0.04,1721207482718
0.38,-0.57,7.45,0.07,0.05,-0.05,1721207482728
0.24,-0.04,12.13,-0.06,0.07,-0.08,1721207482738
-0.38,0.53,12.25,0.01,-0.01,-0.10,1721207482748
-0.14,-0.41,7.48,-0.02,0.04,-0.01,1721207482758
0.86,-0.51,10.04,-0.04,0.12,-0.07,1721207482768
0.95,1.24,13.43,-0.03,0.09,-0.17,1721207482778
-0.94,0.92,9.41,-0.00,-0.09,-0.17,1721207482788
-1.04,-2.27,8.65,-0.20,0.08,-0.11,1721207482798
-0.26,0.78,13.40,-0.05,0.03,-0.00,1721207482808
0.22,5.46,6.26,0.03,0.02,-0.05,1721207482818
0.92,-0.69,6.64,-0.14,0.10,-0.17,1721207482828
0.04,-5.69,13.89,-0.19,0.06,-0.20,1721207482838
-2.15,1.55,11.62,-0.01,-0.03,-0.05,1721207482848
0.01,3.40,8.05,-0.01,0.14,0.02,1721207482858
1.99,1.62,11.96,-0.05,0.13,-0.04,1721207482868
-0.62,2.28,5.97,0.06,-0.22,-0.11,1721207482878
1.26,-2.87,11.36,-0.28,0.32,-0.16,1721207482888
1.41,2.06,17.90,-0.02,0.02,-0.16,1721207482898
-0.13,2.01,5.93,-0.09,-0.01,-0.15,1721207482908
-1.17,2.80,11.46,0.03,0.10,-0.17,1721207482918
0.01,0.75,6.76,0.09,0.10,-0.14,1721207482928
-1.81,-0.15,11.06,-0.11,0.01,-0.12,1721207482938
-0.89,-2.95,12.89,-0.14,0.05,-0.02,1721207482948
-1.77,4.18,14.32,-0.04,0.09,-0.09,1721207482958
0.58,0.91,8.39,0.00,0.04,-0.05,1721207482968
0.38,-4.20,6.91,-0.04,0.05,-0.09,1721207482978
-0.77,-2.41,12.64,-0.07,0.15,-0.22,1721207482988
-0.02,3.53,15.43,0.15,0.10,-0.10,1721207482998
-0.04,4.93,7.07,0.09,0.13,-0.11,1721207483008
-0.55,0.14,9.88,-0.02,0.01,-0.09,1721207483018
1.67,-2.59,6.43,0.08,0.13,-0.03,1721207483028
2.11,-4.06,10.97,-0.14,0.29,-0.22,1721207483038
-1.75,-7.45,13.95,0.01,-0.20,-0.26,1721207483048
-1.02,-6.30,8.46,0.12,0.29,-0.19,1721207483058
-2.28,5.71,14.13,0.43,0.05,-0.13,1721207483068
-2.11,14.61,8.79,0.45,-0.03,0.00,1721207483078
0.06,7.85,7.71,0.01,0.14,-0.02,1721207483088
0.22,-19.58,8.61,-0.62,0.04,-0.18,1721207483098
-0.39,-0.87,23.16,-0.17,0.22,-0.18,1721207483108
0.25,5.95,7.54,0.06,-0.10,-0.18,1721207483118
-2.96,0.09,6.39,-0.18,0.14,-0.33,1721207483128
-2.57,-1.10,12.62,0.27,-0.03,0.06,1721207483138
-0.31,-2.49,6.15,0.01,0.18,0.22,1721207483148
0.45,8.33,16.52,0.01,-0.01,0.05,1721207483158
1.40,6.32,7.44,0.14,-0.12,-0.23,1721207483168
0.06,-7.50,9.51,-0.22,0.23,-0.38,1721207483178
-3.10,2.23,15.86,0.23,-0.10,-0.11,1721207483188
-1.64,6.70,3.09,0.19,0.17,0.13,1721207483198
1.12,2.58,12.71,-0.04,0.12,0.08,1721207483208
2.12,11.03,4.57,0.71,-0.12,-0.03,1721207483218
1.95,-4.33,-26.43,0.40,-0.07,-0.05,1721207483228
6.87,-13.77,9.82,-0.97,0.58,-0.22,1721207483238
-15.40,23.07,67.44,-0.03,0.28,-0.29,1721207483248
-2.11,-13.21,6.32,0.01,-0.55,-0.29,1721207483258
-6.97,2.68,26.60,-0.39,0.35,-0.22,1721207483268
-3.01,1.80,1.30,0.35,-0.26,-0.04,1721207483278
-1.33,-4.52,5.06,-0.59,0.47,0.07,1721207483288
-1.68,-1.69,23.24,-0.00,0.36,0.04,1721207483298
0.53,6.40,2.95,0.34,0.03,-0.15,1721207483308
-2.89,-1.09,-2.27,-0.10,-0.01,-0.33,1721207483318
-1.50,-5.22,16.50,-0.27,0.28,-0.07,1721207483328
-2.37,4.19,22.13,0.13,-0.31,0.02,1721207483338
-2.70,-0.93,2.34,-0.08,-0.12,-0.10,1721207483348
-2.95,-2.61,16.10,-0.19,0.18,0.04,1721207483358
-0.74,-0.00,12.15,-0.01,-0.02,0.18,1721207483368
1.82,0.42,10.20,-0.19,0.05,0.15,1721207483378
0.54,0.96,11.22,-0.08,-0.05,-0.04,1721207483388
-1.76,1.15,2.73,0.07,-0.13,-0.06,1721207483398
0.66,-6.09,13.47,-0.25,0.30,0.14,1721207483408
0.86,0.71,18.79,0.06,-0.02,0.10,1721207483418
-0.17,2.60,7.15,-0.03,-0.12,-0.09,1721207483428
-1.52,6.16,13.96,-0.03,-0.07,-0.09,1721207483438
-1.15,2.30,6.25,0.25,-0.09,0.08,1721207483448
0.35,-5.77,1.61,0.02,0.13,0.14,1721207483458
0.21,-5.22,12.65,0.04,0.01,-0.01,1721207483468
-2.26,6.97,12.87,0.15,-0.19,-0.08,1721207483478
-1.07,7.94,11.20,0.17,-0.08,0.08,1721207483488
1.22,-5.33,7.41,-0.12,0.01,0.26,1721207483498
0.55,-3.38,11.27,-0.10,-0.02,0.03,1721207483508
-0.60,1.01,12.24,-0.01,-0.04,-0.18,1721207483518
-0.93,-1.72,11.96,0.01,-0.07,0.00,1721207483528
-1.62,1.81,8.70,0.29,-0.05,0.24,1721207483538
3.40,1.49,5.69,0.20,0.12,0.27,1721207483548
4.55,2.96,10.09,0.14,-0.11,0.10,1721207483558
2.16,1.58,10.59,0.00,-0.06,-0.31,1721207483568
-1.43,-1.99,11.78,-0.08,-0.05,-0.40,1721207483578
-3.11,-1.21,9.46,0.18,-0.03,-0.05,1721207483588
-1.95,-2.26,0.73,0.13,-0.02,0.35,1721207483598
1.47,-1.26,12.49,-0.05,0.20,0.20,1721207483608
4.03,5.26,15.89,0.30,-0.01,-0.14,1721207483618
1.57,1.06,5.88,0.08,-0.13,-0.26,1721207483628
-1.29,6.94,10.29,0.20,-0.03,-0.14,1721207483638
1.58,-9.62,4.72,-0.27,0.17,-0.07,1721207483648
-2.22,1.97,30.01,-0.24,-0.03,-0.14,1721207483658
-1.12,9.91,11.93,0.43,-0.11,0.03,1721207483668
2.35,-14.29,-6.13,-0.23,0.17,0.12,1721207483678
-5.86,-8.80,10.62,-0.09,-0.15,-0.03,1721207483688
0.24,6.57,12.02,0.36,-0.10,-0.22,1721207483698
0.35,7.47,6.65,0.19,0.27,-0.19,1721207483708
-0.39,3.63,8.33,0.19,-0.06,-0.00,1721207483718
-0.14,-13.43,6.81,-0.28,0.14,-0.24,1721207483728
-2.86,-3.18,23.05,-0.11,0.06,-0.32,1721207483738
-3.82,5.23,11.38,0.29,-0.05,0.07,1721207483748
-0.44,6.16,2.36,0.27,0.25,0.17,1721207483758
3.09,0.46,2.99,0.20,0.08,0.04,1721207483768
2.14,-0.60,9.16,-0.10,0.08,-0.24,1721207483778
-0.06,4.87,12.18,0.02,0.09,-0.44,1721207483788
-2.66,-5.15,9.18,-0.44,0.12,-0.21,1721207483798
-3.07,-4.02,23.99,-0.02,0.02,0.20,1721207483808
2.08,-0.32,3.16,0.35,0.13,0.20,1721207483818
6.26,6.92,10.77,-0.13,0.34,-0.13,1721207483828
2.16,5.59,28.19,-0.16,-0.04,-0.58,1721207483838
-4.74,1.95,4.12,0.20,-0.25,-0.47,1721207483848
-4.47,1.91,-5.71,-0.09,0.38,0.11,1721207483858
1.38,-5.88,12.53,-0.20,0.23,0.23,1721207483868
0.41,-10.03,19.99,-0.19,0.12,-0.09,1721207483878
-0.90,5.03,24.10,0.10,0.16,-0.35,1721207483888
-1.61,11.75,3.89,0.46,-0.08,-0.28,1721207483898
-4.36,-2.87,-12.95,0.10,-0.08,0.06,1721207483908
1.42,-7.55,18.24,-0.23,0.59,0.20,1721207483918
-5.17,9.04,36.04,0.47,-0.28,0.18,1721207483928
-1.70,-2.09,-6.14,0.07,-0.45,-0.37,1721207483938
-1.57,-5.24,15.77,-0.66,0.52,-0.44,1721207483948
-1.36,4.56,16.83,0.04,0.21,0.10,1721207483958
1.49,-3.87,1.17,-0.15,0.28,0.32,1721207483968
2.93,-3.49,8.82,-0.01,0.05,-0.04,1721207483978
0.37,2.13,-3.41,0.39,-0.09,-0.27,1721207483988
-1.42,-6.93,15.49,-0.57,0.54,-0.27,1721207483998
-4.52,22.62,48.63,0.17,-0.18,0.03,1721207484008
-4.68,1.95,-7.40,0.23,-0.36,0.27,1721207484018
3.88,-25.07,-0.12,-1.19,0.78,0.25,1721207484028
0.62,4.28,30.78,0.28,-0.46,0.27,1721207484038
-0.49,3.96,0.72,0.69,-0.93,0.06,1721207484048
1.63,4.28,-6.75,-0.17,0.70,-0.48,1721207484058
-6.83,10.21,14.19,0.28,-0.32,-0.24,1721207484068
-7.82,0.04,11.43,0.27,-0.34,0.37,1721207484078
-1.24,-7.68,-9.07,-0.22,0.05,0.65,1721207484088
7.41,-12.00,24.93,-0.63,0.94,0.32,1721207484098
6.53,11.82,36.69,0.35,-0.55,-0.39,1721207484108
-2.20,0.56,-9.05,0.27,-0.44,-0.47,1721207484118
-5.29,-4.24,16.93,-0.54,0.60,-0.22,1721207484128
-0.40,14.32,18.68,0.37,-0.20,0.27,1721207484138
1.05,1.66,-12.18,0.18,0.02,0.30,1721207484148
-1.26,-10.89,2.62,-0.30,0.07,0.17,1721207484158
-1.24,4.12,-0.35,0.19,-0.04,0.01,1721207484168
4.04,-13.27,33.53,-0.61,0.17,-0.04,1721207484178
-3.18,10.04,31.22,0.01,-0.45,-0.09,1721207484188
-4.29,10.52,-22.29,0.37,-0.34,0.02,1721207484198
-2.04,-8.78,3.33,-0.70,0.60,0.26,1721207484208
24.36,-0.29,10.17,0.21,0.50,0.41,1721207484218
7.24,-0.53,2.30,0.41,0.23,0.09,1721207484228
1.04,4.82,8.15,-0.26,0.11,-0.51,1721207484238
-1.74,2.00,13.90,-0.03,-0.25,-0.26,1721207484248
-4.90,2.79,10.25,0.07,-0.14,0.39,1721207484258
-0.38,7.19,11.53,0.21,-0.10,0.63,1721207484268
4.66,-7.63,5.07,-0.18,-0.10,0.27,1721207484278
4.43,-0.33,16.80,-0.26,0.07,-0.35,1721207484288
0.72,10.76,15.34,0.08,-0.24,-0.56,1721207484298
-5.10,-2.67,4.00,-0.18,-0.25,-0.22,1721207484308
-6.14,-1.90,11.00,0.12,-0.09,0.40,1721207484318
1.55,-1.09,5.91,0.15,0.05,0.57,1721207484328
4.33,0.87,15.67,-0.11,-0.03,0.11,1721207484338
3.59,2.79,14.93,0.22,-0.25,-0.30,1721207484348
-1.19,10.20,8.16,0.24,-0.18,-0.32,1721207484358
-3.51,12.27,9.36,0.41,-0.14,0.05,1721207484368
-1.05,-10.30,-2.87,-0.03,-0.12,0.27,1721207484378
1.56,-3.90,8.49,-0.18,-0.01,0.11,1721207484388
3.38,-3.15,13.41,0.05,-0.19,0.02,1721207484398
-0.72,0.91,11.74,0.12,-0.17,-0.12,1721207484408
-2.66,10.72,9.29,0.57,-0.22,-0.05,1721207484418
-1.47,-5.13,2.70,-0.30,0.05,0.10,1721207484428
-1.99,-6.27,29.52,-0.42,-0.14,0.12,1721207484438
-1.38,0.66,10.77,0.29,-0.40,0.11,1721207484448
0.89,0.35,1.25,-0.05,0.04,0.20,1721207484458
3.02,3.19,9.74,0.40,-0.42,0.43,1721207484468
6.12,-0.95,-2.52,0.35,-0.03,0.15,1721207484478
3.60,3.53,10.70,-0.13,0.06,-0.53,1721207484488
-1.99,7.19,18.73,-0.17,-0.55,-0.65,1721207484498
-6.48,-13.51,3.99,-0.30,-0.32,-0.17,1721207484508
-6.35,-11.20,9.74,-0.16,-0.06,0.35,1721207484518
1.33,0.84,14.65,0.15,0.05,0.51,1721207484528
6.56,8.08,14.31,0.14,-0.06,0.24,1721207484538
5.87,12.94,12.47,0.11,-0.19,-0.15,1721207484548
1.90,2.45,7.60,-0.12,-0.18,-0.52,1721207484558
-2.68,-9.26,6.38,-0.12,-0.27,-0.56,1721207484568
-4.03,-1.57,5.66,-0.02,-0.01,-0.16,1721207484578
-3.27,-3.72,14.36,-0.24,-0.07,0.14,1721207484588
1.74,5.13,17.50,0.19,-0.15,0.35,1721207484598
5.91,-1.75,1.19,0.01,-0.08,-0.01,1721207484608
4.07,3.04,10.13,-0.13,-0.09,-0.41,1721207484618
1.18,3.23,4.93,0.04,-0.16,-0.61,1721207484628
-4.34,0.35,10.37,-0.22,-0.10,-0.37,1721207484638
-3.87,-1.70,6.36,0.06,-0.03,0.05,1721207484648
2.15,-16.92,-0.31,-0.50,0.11,0.12,1721207484658
1.86,-0.42,11.39,-0.04,0.15,0.22,1721207485204
2.10,-1.89,11.33,-0.14,-0.12,0.13,1721207485208
1.39,-1.57,16.16,-0.12,0.00,-0.23,1721207485218
-0.63,2.95,8.91,0.20,-0.12,-0.22,1721207485228
-2.37,-1.77,4.21,-0.10,0.12,-0.01,1721207485238
-3.62,1.59,16.49,0.01,-0.06,0.12,1721207485248
-1.46,7.59,4.67,0.45,-0.08,0.21,1721207485258
1.65,-1.44,0.48,0.02,0.06,0.23,1721207485268
2.82,-7.27,11.64,-0.33,0.05,-0.08,1721207485278
1.28,5.43,15.04,0.20,-0.09,-0.14,1721207485288
-0.17,1.87,2.43,-0.01,-0.08,-0.18,1721207485298
-2.03,-2.72,23.51,-0.19,0.11,-0.03,1721207485308
-2.33,4.48,11.64,0.43,-0.38,0.21,1721207485318
0.84,-1.51,-0.91,0.05,0.09,0.22,1721207485328
-0.05,-2.13,15.94,-0.11,0.12,-0.00,1721207485338
-0.31,10.53,10.52,0.37,-0.32,-0.14,1721207485348
-0.07,2.32,-1.80,0.20,-0.12,-0.10,1721207485357
-0.01,-6.30,8.74,-0.12,0.14,-0.03,1721207485367
-1.26,-0.72,23.63,-0.00,-0.15,0.00,1721207485376
-0.19,5.16,11.83,0.18,-0.23,-0.08,1721207485386
0.84,1.10,8.13,-0.02,0.03,-0.15,1721207485396
-0.66,1.46,9.07,0.10,-0.23,0.01,1721207485406
-0.14,-1.06,7.43,-0.01,-0.06,0.10,1721207485416
1.56,-4.04,9.46,-0.09,0.02,-0.06,1721207485426
0.50,1.38,16.46,-0.06,-0.01,-0.22,1721207485436
-0.90,7.30,12.24,0.27,-0.15,-0.06,1721207485446
-0.18,0.07,0.97,-0.06,-0.12,0.08,1721207485455
0.73,-2.80,14.95,-0.21,0.11,-0.02,1721207485465
0.18,3.27,13.07,0.08,-0.22,-0.18,1721207485474
-0.85,-3.81,6.18,-0.33,-0.02,-0.28,1721207485484
-3.32,-1.57,15.63,-0.10,-0.06,-0.13,1721207485493
-1.17,5.49,3.80,0.32,-0.08,0.17,1721207485503
2.14,0.55,3.37,-0.26,0.09,0.18,1721207485513
2.15,-2.48,17.88,-0.21,-0.22,-0.08,1721207485523
0.45,-2.15,5.50,-0.05,-0.12,-0.35,1721207485533
-3.96,2.71,9.21,-0.25,-0.12,-0.37,1721207485543
-3.44,-0.90,13.88,-0.19,-0.04,-0.04,1721207485552
-0.75,-2.82,12.62,-0.00,-0.06,0.26,1721207485562
2.38,1.88,7.65,-0.05,0.10,0.06,1721207485572
2.81,0.14,15.07,-0.23,-0.01,-0.34,1721207485582
0.23,2.47,14.63,0.04,-0.28,-0.38,1721207485592
-2.64,1.98,2.43,0.06,-0.05,-0.20,1721207485602
-2.95,-1.58,10.31,-0.16,0.11,-0.01,1721207485612
0.18,0.32,21.72,-0.02,-0.04,0.06,1721207485622
1.98,3.77,11.53,0.10,-0.15,-0.06,1721207485632
2.10,-1.52,5.65,-0.15,0.08,-0.25,1721207485642
0.03,1.91,15.11,0.10,-0.09,-0.38,1721207485652
-1.48,1.66,5.03,0.23,-0.12,-0.18,1721207485662
-0.44,-1.36,7.92,0.09,0.13,-0.07,1721207485672
1.12,-3.65,12.41,0.08,0.08,-0.19,1721207485682
-1.41,3.62,12.50,0.15,-0.06,-0.32,1721207485692
-1.13,6.03,6.43,0.29,0.01,-0.15,1721207485702
2.21,-0.30,9.18,0.15,0.29,-0.07,1721207485712
0.19,-2.73,12.39,0.08,-0.06,-0.22,1721207485722
-1.86,-2.93,6.54,0.10,-0.12,-0.31,1721207485732
0.20,-2.28,14.27,0.07,0.32,-0.34,1721207485742
0.41,3.73,14.29,0.34,-0.04,-0.05,1721207485752
0.17,2.14,3.34,0.24,0.08,-0.07,1721207485762
1.67,0.99,8.97,0.16,0.22,-0.32,1721207485772
-0.03,-0.71,12.16,0.06,0.08,-0.45,1721207485782
-3.95,-1.22,10.23,-0.03,0.02,-0.28,1721207485792
-2.80,-1.15,18.39,-0.06,0.25,-0.08,1721207485802
1.58,3.29,7.35,0.38,0.06,0.13,1721207485812
4.47,4.06,3.73,0.11,0.24,-0.03,1721207485822
4.35,-1.44,13.87,-0.06,0.23,-0.49,1721207485832
-2.18,0.85,11.96,0.14,-0.05,-0.61,1721207485842
-5.65,-1.59,6.63,-0.07,0.18,-0.29,1721207485852
-2.89,4.19,9.32,0.16,0.20,0.13,1721207485862
2.43,-2.44,4.81,0.03,0.26,0.05,1721207485872
2.84,-3.37,11.67,0.05,0.13,-0.11,1721207485882
-0.24,8.17,9.02,0.26,0.19,-0.35,1721207485892
-2.15,0.99,11.08,-0.11,0.22,-0.55,1721207485902
-4.17,1.57,8.59,0.29,-0.11,-0.04,1721207485912
-0.76,-2.91,-2.47,-0.12,0.29,0.31,1721207485922
0.72,4.99,19.62,-0.13,0.27,-0.09,1721207485932
2.43,1.36,7.39,0.17,-0.18,-0.34,1721207485942
-0.51,-7.23,6.93,-0.55,0.32,-0.40,1721207485952
-3.14,-0.40,29.24,-0.16,0.03,-0.16,1721207485962
-1.27,4.14,6.31,0.25,0.11,0.07,1721207485972
1.36,0.39,4.13,-0.30,0.33,-0.13,1721207485982
-0.77,1.30,14.88,-0.07,-0.05,-0.18,1721207485992
-0.33,0.21,10.64,-0.00,0.26,-0.19,1721207486002
-0.25,4.55,12.69,0.11,0.16,-0.08,1721207486012
-0.85,1.27,6.04,-0.10,0.04,-0.01,1721207486022
-0.03,-0.58,13.05,-0.12,0.18,-0.06,1721207486032
2.70,5.22,9.38,0.23,0.25,-0.20,1721207486042
1.67,2.35,-4.31,0.05,-0.01,-0.20,1721207486052
-1.58,-4.75,8.22,-0.31,0.31,-0.33,1721207486062
-4.81,-0.13,23.60,0.13,0.11,-0.31,1721207486072
-3.13,1.25,4.72,-0.01,0.01,-0.05,1721207486082
-2.22,-3.01,11.39,-0.32,0.19,0.04,1721207486092
0.81,-4.58,15.23,-0.23,0.15,-0.05,1721207486102
1.14,-0.70,21.60,-0.16,0.23,-0.16,1721207486112
-0.15,2.94,7.58,0.13,-0.04,-0.20,1721207486122
-1.59,-1.96,6.21,-0.27,0.32,-0.23,1721207486132
-2.42,5.26,16.93,0.21,-0.01,0.04,1721207486142
-0.75,1.83,0.38,0.06,0.12,0.13,1721207486152
-0.88,2.45,12.21,-0.13,0.23,-0.06,1721207486162
0.41,-2.79,13.48,0.04,0.12,-0.02,1721207486172
0.05,1.51,6.98,0.02,0.07,0.05,1721207486182
0.91,-1.78,12.44,-0.16,0.17,0.03,1721207486192
-1.32,2.80,11.17,0.22,-0.12,-0.08,1721207486202
-1.79,0.09,1.75,0.04,0.11,-0.09,1721207486212
-2.22,0.86,15.25,-0.04,0.14,0.06,1721207486222
-0.78,0.53,13.27,0.13,-0.03,0.28,1721207486232
1.38,-2.08,8.15,-0.04,0.16,0.28,1721207486242
2.30,0.83,13.50,0.02,0.07,0.04,1721207486252
0.79,1.90,9.60,0.10,-0.02,-0.09,1721207486262
-0.80,-0.22,12.41,-0.02,0.01,0.01,1721207486272
-2.07,0.92,9.25,0.13,-0.12,0.17,1721207486282
-1.13,1.48,2.59,0.15,-0.04,0.24,1721207486292
0.74,-3.12,6.82,-0.09,0.05,0.15,1721207486302
0.68,-1.48,13.54,-0.01,-0.09,0.09,1721207486312
0.72,-1.21,10.09,-0.07,0.04,0.03,1721207486322
0.44,7.07,20.14,0.07,0.06,-0.03,1721207486332
-0.96,0.01,9.73,-0.04,-0.12,-0.03,1721207486342
-5.03,-2.01,6.50,-0.16,-0.32,0.05,1721207486352
-0.69,0.84,13.08,-0.01,0.16,0.23,1721207486362
2.62,-1.51,13.54,0.02,-0.01,0.14,1721207486372
-0.39,-0.82,2.73,0.01,-0.32,0.02,1721207486382
-1.35,0.42,13.31,-0.10,0.11,-0.08,1721207486392
-0.40,7.26,12.78,0.22,-0.14,-0.01,1721207486402
0.86,-0.61,0.85,-0.06,-0.14,0.04,1721207486412
1.16,-0.21,16.27,-0.08,0.09,0.01,1721207486422
1.92,0.29,11.84,0.13,-0.16,-0.06,1721207486432
-0.34,2.75,6.57,-0.01,-0.16,-0.20,1721207486442
-0.68,1.67,8.16,0.03,0.04,-0.19,1721207486452
0.60,1.70,13.48,0.01,0.08,-0.06,1721207486462
0.76,0.88,11.66,0.05,-0.14,0.02,1721207486472
0.83,-0.64,6.85,-0.02,-0.05,-0.08,1721207486482
1.43,0.64,11.99,-0.03,0.05,-0.15,1721207486492
0.40,-1.07,9.98,0.02,-0.10,-0.15,1721207486502
-1.84,1.41,8.99,0.16,0.06,-0.26,1721207486512
0.83,1.20,11.59,0.14,0.22,-0.14,1721207486522
-0.94,7.71,14.19,0.14,-0.05,-0.06,1721207486532
-1.57,3.53,19.64,-0.14,0.12,-0.32,1721207486542
-0.60,-0.56,7.74,0.14,-0.35,-0.14,1721207486552
-1.66,-0.32,-6.22,0.06,-0.09,0.09,1721207486562
3.16,-5.05,14.54,-0.18,0.60,-0.04,1721207486572
2.35,4.05,20.43,0.36,-0.41,-0.27,1721207486582
-1.43,2.58,-3.64,0.20,-0.11,-0.41,1721207486592
-2.83,-4.16,11.43,-0.27,0.32,-0.25,1721207486602
-0.74,-1.48,23.27,-0.08,-0.00,-0.01,1721207486612
-1.02,2.69,7.79,0.09,-0.07,-0.22,1721207486622
-3.36,-1.34,4.69,-0.11,-0.03,-0.19,1721207486632
-1.82,-3.41,7.82,-0.01,0.12,0.05,1721207486642
1.43,-2.84,10.37,-0.07,0.23,-0.02,1721207486652
2.18,6.06,12.47,-0.05,0.09,-0.25,1721207486662
0.14,4.97,7.56,-0.09,0.03,-0.36,1721207486672
-1.89,-8.26,8.83,-0.40,0.08,-0.37,1721207486682
-2.35,-1.79,8.05,0.08,0.04,-0.09,1721207486692
-0.67,-5.11,6.10,-0.45,0.32,-0.04,1721207486702
-1.86,1.40,30.03,-0.37,-0.02,-0.07,1721207486712
-1.27,4.33,9.53,0.12,-0.14,-0.11,1721207486722
1.36,-2.76,0.94,-0.38,0.35,-0.11,1721207486732
-3.44,-0.51,14.24,-0.08,-0.16,-0.14,1721207486742
-0.97,0.27,9.21,-0.05,0.20,-0.21,1721207486752
-2.59,2.32,13.39,-0.00,0.06,-0.22,1721207486762
-1.14,-5.46,8.65,-0.14,-0.03,0.04,1721207486772
-0.18,4.07,13.58,0.04,0.07,0.14,1721207486782
2.21,0.81,10.49,0.01,0.16,0.03,1721207486792
0.91,3.04,13.50,0.04,0.02,-0.13,1721207486802
-0.03,3.50,10.62,0.25,0.15,-0.18,1721207486812
-1.14,-1.55,6.51,0.08,0.02,-0.10,1721207486822
-1.11,-6.38,12.24,-0.10,0.12,-0.01,1721207486832
-1.65,7.33,22.26,0.17,0.13,0.04,1721207486842
-0.17,4.66,5.27,0.32,-0.06,0.19,1721207486852
1.74,-1.11,6.34,0.16,0.20,0.22,1721207486862
5.48,1.76,15.74,0.23,0.26,-0.15,1721207486872
1.13,1.47,10.98,0.15,-0.03,-0.42,1721207486882
-4.84,3.62,11.90,0.17,0.07,-0.33,1721207486892
-3.17,1.09,5.28,0.32,0.12,0.16,1721207486902
1.35,-5.94,1.41,0.09,0.22,0.32,1721207486912
3.09,0.34,14.72,0.12,0.24,-0.02,1721207486922
1.00,4.29,9.36,0.31,-0.07,-0.29,1721207486932
-2.25,0.81,6.30,0.08,0.16,-0.23,1721207486942
-3.32,-1.10,9.37,0.03,0.11,0.10,1721207486952
-2.18,-7.19,7.84,-0.12,0.10,0.17,1721207486962
0.34,-6.05,17.26,0.05,0.18,0.11,1721207486972
0.58,3.17,11.03,0.37,-0.10,0.14,1721207486982
1.07,7.24,6.62,0.23,0.13,0.00,1721207486992
1.46,4.78,3.32,0.10,0.09,-0.08,1721207487002
-0.86,-1.61,10.96,-0.40,0.13,-0.10,1721207487012
-2.28,-2.67,15.94,-0.16,0.02,-0.04,1721207487022
0.23,-12.90,14.64,-0.71,0.25,0.10,1721207487032
0.14,9.66,28.11,0.27,-0.02,0.20,1721207487042
3.85,7.42,-8.82,0.43,0.08,-0.07,1721207487052
-0.76,-4.02,2.34,-0.40,0.07,-0.06,1721207487062
-3.41,-1.87,20.87,-0.05,0.15,-0.20,1721207487072
-6.29,3.66,23.84,0.29,-0.18,-0.15,1721207487082
-0.97,2.36,0.21,-0.09,-0.16,0.20,1721207487092
-0.17,2.50,14.59,-0.06,0.10,0.37,1721207487102
4.10,9.19,10.65,0.20,0.01,0.17,1721207487112
4.26,-5.51,3.73,-0.14,0.07,-0.18,1721207487122
0.73,-5.94,14.31,-0.14,0.10,-0.53,1721207487132
-3.80,4.02,-3.11,0.42,-0.27,-0.16,1721207487142
-2.90,1.42,9.18,-0.20,0.52,0.00,1721207487152
-7.46,10.84,35.73,0.35,-0.37,0.22,1721207487162
-1.16,-6.14,-3.06,-0.03,-0.38,0.23,1721207487172
4.64,-18.80,19.58,-0.96,0.64,0.10,1721207487182
-3.06,9.28,50.02,0.04,-0.18,0.12,1721207487192
3.06,6.45,-13.69,0.32,0.08,-0.47,1721207487207
-1.67,-4.46,-12.81,-0.02,0.13,-0.60,1721207487211
-3.40,-12.15,20.16,-0.05,0.23,-0.16,1721207487221
-9.07,10.86,27.13,0.56,-0.56,0.45,1721207487231
-2.14,12.02,2.46,0.40,0.01,0.28,1721207487241
3.40,-1.38,2.41,-0.23,0.20,-0.08,1721207487251
0.96,-5.06,9.91,0.03,-0.05,-0.06,1721207487261
3.06,-4.77,4.43,-0.06,0.19,-0.12,1721207487271
0.04,-6.76,12.30,-0.32,0.13,-0.36,1721207487281
-3.77,2.64,30.35,-0.01,0.14,-0.42,1721207487291
-4.95,12.75,6.78,0.55,-0.22,-0.00,1721207487301
-2.57,2.54,-10.06,-0.03,0.17,0.42,1721207487311
8.12,-8.85,17.37,-0.30,0.67,0.40,1721207487321
4.36,-11.30,23.42,-0.11,-0.79,-0.05,1721207487331
-2.49,6.92,28.29,0.02,0.28,-0.86,1721207487341
-3.03,8.33,9.56,0.54,-0.21,-0.66,1721207487351
-9.38,-6.75,-13.82,-0.03,-0.24,0.14,1721207487361
-2.75,-2.93,20.58,-0.08,0.81,0.51,1721207487371
6.18,12.27,5.59,0.28,-0.11,0.30,1721207487381
1.98,8.55,-15.85,0.31,0.06,-0.22,1721207487391
-3.65,-11.48,12.11,-0.65,0.43,-0.43,1721207487401
-0.90,-5.18,7.34,-0.63,-0.01,-0.42,1721207487411
2.45,3.67,7.38,0.57,0.37,-0.01,1721207487421
-0.22,0.19,5.52,-0.20,0.31,0.17,1721207487431
1.57,9.00,25.46,0.14,-0.13,0.24,1721207487441
1.88,1.36,-1.08,0.38,-0.28,0.11,1721207487451
0.80,-1.22,-2.19,-0.30,0.25,-0.20,1721207487461
-3.18,4.23,16.92,-0.23,0.06,-0.34,1721207487471
-3.85,-1.83,6.59,-0.07,-0.33,-0.21,1721207487481
-3.87,-3.36,19.24,-0.28,0.39,0.11,1721207487491
0.54,4.90,15.78,0.28,-0.05,0.38,1721207487501
1.57,4.42,1.57,-0.17,-0.03,0.29,1721207487511
1.92,1.68,14.18,-0.09,0.11,0.01,1721207487521
3.98,0.72,7.96,0.15,0.03,-0.22,1721207487531
0.36,-0.53,2.29,-0.15,-0.02,-0.31,1721207487541
-4.60,-2.16,14.11,-0.25,0.08,-0.20,1721207487551
-2.70,-3.97,16.25,-0.00,0.22,0.03,1721207487561
0.51,5.35,13.25,0.20,0.05,0.35,1721207487571
1.17,13.01,5.97,0.27,-0.09,0.27,1721207487581
2.93,-3.42,1.55,-0.21,0.08,-0.01,1721207487591
-0.58,-3.18,9.36,-0.34,0.09,-0.37,1721207487601
-3.65,-0.12,10.10,-0.17,-0.10,-0.23,1721207487611
-5.08,-7.37,5.70,-0.30,0.06,0.18,1721207487621
-1.88,1.06,15.89,0.11,0.14,0.40,1721207487631
4.53,-5.27,13.36,-0.16,0.08,0.41,1721207487641
-0.39,6.44,19.04,-0.08,-0.28,-0.02,1721207487651
1.12,-3.14,8.53,0.04,0.05,-0.45,1721207487661
-4.15,0.97,12.06,-0.06,-0.18,-0.04,1721207487671
-4.27,9.63,21.49,0.05,0.00,0.40,1721207487681
-0.42,-0.80,7.80,0.28,-0.15,0.45,1721207487691
2.97,0.58,3.94,0.03,0.20,0.11,1721207487701
1.12,9.26,17.52,-0.07,-0.38,-0.13,1721207487711
-3.11,-6.58,8.37,-0.03,-0.37,-0.06,1721207487721
-3.30,2.33,6.22,0.50,0.07,0.22,1721207487731
0.71,-5.54,-10.57,0.21,-0.19,0.58,1721207487741
2.43,-12.24,20.15,-0.22,0.29,0.39,1721207487751
1.24,23.58,37.27,0.30,0.30,-0.15,1721207487761
0.16,-12.02,-14.10,0.22,-0.93,-0.09,1721207487771
-2.15,-5.70,18.12,-0.62,1.01,-0.04,1721207487781
24.21,25.44,22.39,-0.07,0.38,0.13,1721207487791
-5.75,0.32,-11.47,0.57,-0.44,0.32,1721207487801
-2.16,-5.08,10.79,0.04,0.25,0.21,1721207487811
6.05,2.15,18.98,-0.05,-0.27,0.03,1721207487821
2.96,15.60,7.80,0.28,-0.15,-0.26,1721207487831
-2.37,5.50,-16.76,0.49,-0.27,-0.06,1721207487841
-0.10,-14.09,6.71,-1.12,0.45,0.07,1721207487851
-20.24,-17.36,57.72,-0.16,0.36,0.05,1721207487861
-7.93,-2.49,22.20,0.92,-0.50,-0.11,1721207487871
-2.60,1.62,5.26,-0.64,0.34,-0.00,1721207487881
-6.13,5.32,40.42,-0.00,-0.36,0.32,1721207487891
0.13,-1.88,-3.63,0.38,-0.36,0.28,1721207487901
5.49,-7.05,-7.84,-0.44,0.23,0.14,1721207487911
2.69,-0.02,15.29,-0.10,-0.11,-0.19,1721207487921
3.82,3.99,10.44,-0.02,-0.04,-0.46,1721207487931
1.51,5.33,9.82,0.27,-0.03,-0.09,1721207487941
1.67,3.10,0.44,0.03,0.06,0.12,1721207487951
0.91,-4.47,8.81,-0.31,0.14,-0.18,1721207487961
-0.27,3.76,21.53,0.05,-0.06,-0.53,1721207487971
-2.10,2.78,5.88,0.36,-0.07,-0.24,1721207487981
-0.96,-0.24,1.43,0.04,0.16,0.20,1721207487991
2.47,3.47,13.28,0.10,0.15,0.08,1721207488001
3.08,-0.24,12.25,0.02,-0.01,-0.39,1721207488011
-1.06,1.56,10.56,0.07,-0.06,-0.51,1721207488021
-2.13,-0.03,6.87,0.13,0.11,-0.20,1721207488031
0.50,-2.19,6.29,0.06,0.17,-0.00,1721207488041
1.10,-4.79,10.10,-0.10,0.11,-0.25,1721207488051
-1.16,1.12,17.94,0.18,-0.00,-0.46,1721207488061
-2.55,4.94,7.57,0.37,0.05,-0.23,1721207488071
-1.82,4.75,6.93,0.16,0.20,-0.00,1721207488081
-0.60,-0.07,4.41,-0.05,0.07,-0.06,1721207488091
-0.05,-1.18,15.68,-0.26,0.18,-0.20,1721207488101
-0.99,3.32,14.46,0.12,-0.00,-0.16,1721207488111
-1.05,-7.25,3.44,-0.31,0.08,-0.03,1721207488121
-0.42,2.02,17.62,0.01,0.14,0.06,1721207488131
2.04,6.39,1.64,0.11,0.03,-0.04,1721207488141
3.97,2.40,9.31,-0.35,0.24,-0.22,1721207488151
0.28,-2.18,14.24,-0.11,0.05,-0.38,1721207488161
-3.40,-3.57,12.06,-0.23,0.12,-0.27,1721207488171
-3.27,3.16,18.55,-0.07,0.17,0.07,1721207488181
-0.15,3.77,8.32,0.05,0.01,0.17,1721207488191
2.20,5.75,6.12,-0.01,0.18,-0.10,1721207488201
3.01,-8.34,9.11,-0.24,0.14,-0.31,1721207488211
-1.77,3.20,14.37,0.07,-0.06,-0.30,1721207488221
-2.24,7.06,1.81,0.31,0.12,-0.11,1721207488231
-0.30,-4.03,4.15,-0.17,0.27,0.06,1721207488241
-1.24,-3.96,17.67,-0.12,0.07,-0.02,1721207488251
1.39,3.03,20.08,-0.01,0.21,-0.10,1721207488261
0.40,9.96,1.58,0.16,-0.09,-0.08,1721207488271
2.69,-0.35,10.58,-0.26,0.55,-0.15,1721207488281
-3.00,-8.09,20.22,-0.05,-0.39,-0.02,1721207488291
-2.82,7.58,10.28,0.14,0.21,-0.10,1721207488301
0.54,4.80,6.55,0.08,0.17,-0.20,1721207488311
-0.06,-13.19,7.77,-0.33,0.02,-0.04,1721207488321
-2.93,2.78,19.95,0.11,0.10,0.09,1721207488331
-0.77,7.18,-0.13,0.47,0.01,0.08,1721207488341
0.97,1.59,1.70,0.16,0.35,0.01,1721207488351
-0.29,-8.23,20.64,-0.12,0.38,-0.08,1721207488361
-0.53,7.77,22.63,0.25,0.03,-0.09,1721207488371
-0.95,11.18,-4.48,0.42,-0.10,0.05,1721207488381
-0.04,-9.17,-1.24,-0.18,0.20,0.00,1721207488391
-1.34,-2.07,11.28,-0.03,0.18,0.07,1721207488401
3.58,8.59,9.22,0.38,-0.36,0.00,1721207488411
0.30,-5.18,-2.84,-0.29,0.13,-0.25,1721207488421
-4.68,-9.15,14.23,-0.31,0.20,-0.06,1721207488431
-1.68,-6.95,18.89,-0.15,0.10,0.18,1721207488441
-0.15,6.49,19.78,0.22,0.07,0.19,1721207488451
1.57,6.89,2.00,0.24,-0.04,0.09,1721207488461
1.44,-1.89,8.60,-0.26,0.21,-0.02,1721207488471
3.34,-5.68,26.57,-0.26,0.03,-0.15,1721207488481
-3.22,5.46,3.59,0.25,-0.46,-0.11,1721207488491
-4.57,4.48,-10.24,-0.01,0.18,-0.08,1721207488501
-0.64,-12.28,16.05,-0.36,0.30,0.14,1721207488511
-6.06,-3.77,27.96,0.29,-0.55,0.39,1721207488521
-0.24,4.02,0.70,0.26,-0.07,0.15,1721207488531
4.44,-1.42,12.50,-0.47,0.39,-0.10,1721207488541
-0.63,4.45,29.18,-0.08,-0.05,-0.31,1721207488551
-5.36,6.90,0.70,0.35,-0.35,0.13,1721207488561
-1.95,-6.15,2.75,-0.34,0.21,0.40,1721207488571
2.19,-3.69,15.38,-0.17,-0.42,0.36,1721207488581
3.68,4.38,18.10,0.07,0.13,0.07,1721207488591
2.72,8.47,8.21,0.29,-0.22,-0.11,1721207488601
-0.69,1.09,3.90,0.03,0.03,-0.16,1721207488611
-0.97,-3.30,13.69,-0.09,0.02,0.08,1721207488621
0.42,1.67,29.69,0.09,0.20,0.06,1721207488631
0.58,8.04,7.06,0.45,-0.47,0.14,1721207488641
-2.90,6.36,-15.38,0.13,-0.20,0.08,1721207488651
5.04,-5.76,21.00,-0.13,0.68,-0.08,1721207488661
-8.06,-6.41,27.86,0.55,-0.88,0.14,1721207488671
-4.36,8.00,-9.55,0.35,-0.25,-0.11,1721207488681
0.50,-1.59,6.44,-0.40,0.34,-0.08,1721207488691
-2.31,2.61,25.46,-0.20,-0.23,0.28,1721207488701
-1.40,8.09,9.81,0.62,-0.49,0.27,1721207488711
2.50,-10.15,-10.84,-0.46,0.12,-0.18,1721207488721
0.32,-12.59,16.20,-0.51,0.06,-0.01,1721207488731
-0.31,-2.89,22.90,0.03,-0.15,0.08,1721207488741
-1.13,1.16,7.43,0.09,-0.06,0.12,1721207488751
1.25,2.59,5.52,0.07,0.04,0.07,1721207488761
2.34,-1.97,7.64,-0.06,-0.07,0.04,1721207488771
-0.10,2.71,14.25,-0.12,-0.09,-0.16,1721207488781
-1.64,-0.25,16.12,-0.11,-0.10,-0.25,1721207488791
-4.26,-0.17,9.71,-0.01,-0.28,-0.04,1721207488801
-2.20,-0.56,3.17,-0.04,-0.03,0.32,1721207488811
2.14,-0.56,12.12,-0.18,0.11,0.27,1721207488821
4.50,0.80,15.84,-0.11,-0.11,-0.01,1721207488831
1.25,-0.62,5.76,-0.07,-0.31,-0.27,1721207488841
-2.13,5.91,6.92,0.00,-0.01,-0.30,1721207488851
-0.85,-4.33,9.48,-0.15,-0.01,-0.05,1721207488861
-1.28,-2.74,14.06,-0.11,-0.03,0.08,1721207488871
-1.07,0.30,20.65,-0.13,0.01,-0.00,1721207488881
-0.62,7.70,11.32,0.05,-0.33,-0.04,1721207488891
2.32,2.78,0.53,0.01,0.04,0.07,1721207488901
3.50,-1.84,12.68,-0.09,0.23,-0.18,1721207488911
-1.41,-0.63,9.36,0.12,-0.37,-0.35,1721207488921
-3.89,0.18,4.41,-0.03,0.02,-0.21,1721207488931
-1.83,1.33,14.93,0.02,0.11,0.06,1721207488941
2.37,-0.57,8.67,-0.01,-0.07,0.10,1721207488951
2.73,-0.86,13.23,-0.06,0.02,-0.12,1721207488961
1.07,1.73,10.84,0.08,-0.07,-0.36,1721207488971
-1.75,-2.61,8.60,-0.06,-0.06,-0.29,1721207488981
-3.31,-2.26,12.39,-0.05,0.02,-0.08,1721207488991
-0.83,2.52,11.53,0.09,0.04,0.01,1721207489001
1.86,-0.36,5.13,-0.02,0.01,0.07,1721207489011
2.05,-3.78,11.35,-0.14,0.09,-0.16,1721207489021
0.66,2.75,17.34,0.10,-0.02,-0.35,1721207489031
-1.02,1.38,2.67,0.17,-0.14,-0.16,1721207489041
-1.28,-4.34,7.13,-0.19,0.20,-0.05,1721207489051
-0.45,0.62,18.39,0.03,0.06,-0.09,1721207489061
-0.06,0.22,11.78,0.07,-0.02,-0.08,1721207489071
-0.02,4.73,12.96,0.12,0.08,0.02,1721207489081
1.62,1.64,9.11,0.10,0.10,-0.11,1721207489091
0.66,-2.86,9.50,0.05,0.00,-0.16,1721207489101
-1.24,0.93,11.10,0.16,0.09,-0.21,1721207489111
-1.10,5.29,12.32,0.27,0.13,-0.09,1721207489121
-0.34,4.88,7.03,0.37,-0.04,0.04,1721207489131
1.15,1.39,6.06,0.20,0.15,-0.03,1721207489141
1.65,-1.98,14.49,0.04,0.14,-0.26,1721207489151
-1.46,8.88,13.22,0.42,-0.09,-0.22,1721207489161
-1.41,1.17,2.70,0.14,0.11,-0.11,1721207489171
-1.54,-4.39,18.04,-0.08,0.15,-0.06,1721207489181
-1.03,4.87,9.82,0.47,-0.05,-0.00,1721207489191
0.11,-0.88,-1.92,-0.04,0.19,-0.06,1721207489201
-4.93,1.30,20.28,0.29,-0.04,-0.19,1721207489216
-1.11,2.86,9.02,0.33,0.02,-0.08,1721207489220
-0.78,-2.06,3.82,-0.09,0.18,-0.06,1721207489230
-0.56,1.19,10.60,0.08,-0.09,0.16,1721207489240
2.74,-3.16,5.41,-0.19,0.15,0.15,1721207489250
2.29,2.48,16.98,-0.01,0.02,-0.17,1721207489260
0.21,1.53,7.89,0.08,-0.06,-0.30,1721207489270
-1.28,-0.32,5.54,-0.04,0.12,-0.13,1721207489280
-1.11,-1.69,2.91,-0.27,0.08,-0.09,1721207489290
-0.89,-3.52,20.58,-0.39,0.11,-0.06,1721207489300
-0.32,3.08,17.52,0.14,-0.05,-0.04,1721207489310
0.41,2.61,1.05,-0.12,0.01,-0.03,1721207489320
0.25,1.44,4.24,-0.21,0.03,-0.05,1721207489330
2.46,-7.25,12.07,-0.52,0.26,-0.16,1721207489340
-0.91,-3.78,22.71,-0.15,-0.10,-0.16,1721207489350
-1.68,0.67,5.14,0.13,0.01,-0.08,1721207489360
-1.02,6.01,11.51,-0.15,0.26,-0.03,1721207489370
0.34,10.10,19.68,-0.02,-0.04,0.12,1721207489380
2.45,-0.97,6.53,-0.04,-0.01,0.02,1721207489390
3.13,-0.83,10.04,-0.07,0.23,-0.21,1721207489400
0.15,1.16,8.23,0.02,-0.01,-0.29,1721207489410
-1.86,-4.72,10.22,-0.13,0.12,-0.32,1721207489420
-3.39,5.37,13.76,0.32,0.02,-0.15,1721207489430
-2.42,3.58,7.61,0.12,0.16,0.10,1721207489440
-0.40,2.25,15.60,0.05,0.04,0.21,1721207489450
2.85,4.77,11.12,0.24,0.04,0.13,1721207489460
3.69,-5.62,3.96,-0.07,0.12,-0.16,1721207489470
-0.52,0.77,9.80,0.11,0.01,-0.45,1721207489480
-1.71,3.08,11.71,0.19,0.16,-0.34,1721207489490
-4.40,-0.66,14.48,0.07,0.03,0.01,1721207489500
-3.88,0.36,8.64,0.10,-0.05,0.16,1721207489510
2.16,1.26,9.72,0.12,0.24,0.24,1721207489520
4.31,5.45,3.42,0.28,-0.06,-0.03,1721207489530
2.97,-0.46,3.11,-0.16,0.17,-0.33,1721207489540
-0.98,-7.36,19.02,-0.24,0.03,-0.48,1721207489550
-5.02,1.63,12.97,0.28,-0.10,-0.11,1721207489560
-1.54,2.05,1.96,-0.05,0.28,0.15,1721207489570
-0.34,-1.10,8.88,-0.21,-0.15,0.20,1721207489580
0.44,0.50,10.18,0.09,-0.01,0.03,1721207489590
2.65,1.34,4.09,0.04,0.22,-0.18,1721207489600
-0.21,-3.24,11.93,-0.33,-0.03,-0.36,1721207489610
-3.51,-2.72,13.85,-0.14,-0.09,-0.19,1721207489620
-2.56,-1.32,18.56,-0.29,0.26,-0.05,1721207489630
-1.95,3.97,12.05,0.13,-0.20,0.07,1721207489640
-0.62,2.46,-2.29,0.06,0.02,0.07,1721207489650
1.33,-5.49,14.83,-0.35,0.28,-0.05,1721207489660
0.26,7.89,22.12,0.14,-0.15,-0.16,1721207489670
-1.52,5.18,1.17,0.15,-0.11,-0.16,1721207489680
-1.94,-5.19,9.14,-0.19,0.14,-0.05,1721207489690
-2.13,-1.90,16.46,0.05,-0.09,0.12,1721207489700
2.19,-0.43,8.65,0.06,0.03,0.19,1721207489710
1.67,11.29,13.88,0.22,0.00,-0.05,1721207489720
1.17,8.90,9.05,0.37,-0.11,-0.21,1721207489730
-0.62,-7.70,6.50,-0.06,-0.01,-0.16,1721207489740
-3.28,2.66,10.71,0.16,0.08,-0.11,1721207489750
-0.04,-0.76,6.77,-0.05,0.08,0.01,1721207489760
0.57,-0.93,16.06,0.01,-0.02,0.18,1721207489770
2.22,1.67,9.24,0.31,0.09,-0.05,1721207489780
1.13,4.24,9.57,0.20,0.06,-0.25,1721207489790
-0.38,3.66,10.64,0.06,0.05,-0.19,1721207489800
-2.48,0.72,10.11,-0.16,-0.05,-0.12,1721207489810
-3.10,-2.65,9.23,-0.00,-0.04,-0.00,1721207489820
0.41,-3.41,7.47,0.06,0.10,0.16,1721207489830
1.71,0.00,7.00,-0.01,-0.05,0.15,1721207489840
0.66,2.42,8.97,-0.05,-0.03,-0.11,1721207489850
0.25,-6.42,11.25,-0.16,0.08,-0.27,1721207489860
-2.27,4.60,18.21,0.18,-0.05,-0.10,1721207489870
-2.26,5.00,2.42,0.19,-0.19,0.16,1721207489880
-2.14,-2.64,-7.63,-0.24,0.03,0.23,1721207489890
2.57,-14.59,25.21,-0.94,0.60,-0.12,1721207489900
0.37,3.22,46.04,0.23,-0.40,-0.18,1721207489910
-5.70,4.77,-9.73,0.37,-0.49,-0.02,1721207489920
-2.48,8.88,9.89,-0.31,0.54,0.20,1721207489930
10.75,7.41,9.93,-0.10,-0.03,0.36,1721207489940
7.28,-5.80,-5.84,-0.30,0.30,-0.10,1721207489950
-0.89,6.44,19.17,-0.24,-0.23,-0.57,1721207489960
-4.97,-1.41,5.46,-0.10,-0.31,-0.24,1721207489970
-2.69,-10.51,14.57,-0.39,0.27,0.40,1721207489980
-0.30,9.26,18.13,0.26,-0.15,0.47,1721207489990
4.54,4.55,3.48,0.14,-0.03,0.16,1721207490000
5.09,-3.67,10.95,-0.07,-0.05,-0.15,1721207490010
0.59,3.59,13.80,0.15,0.01,-0.62,1721207490020
-5.27,9.22,10.17,0.27,-0.27,-0.34,1721207490030
-4.50,-2.00,0.32,0.20,-0.05,0.25,1721207490040
-1.01,-8.96,6.42,-0.10,0.10,0.30,1721207490050
1.48,1.53,17.82,0.12,0.03,0.04,1721207490060
2.89,1.52,7.10,0.23,-0.12,-0.09,1721207490070
2.04,-0.14,5.94,0.07,-0.02,-0.14,1721207490080
0.60,3.52,5.52,0.31,-0.04,-0.15,1721207490090
0.83,-5.71,7.59,-0.26,0.13,-0.12,1721207490100
-1.53,-1.68,23.06,-0.05,-0.10,-0.21,1721207490110
-1.29,-1.70,8.16,0.07,-0.04,-0.13,1721207490120
-1.86,2.19,8.71,-0.09,0.00,0.05,1721207490130
1.33,-2.33,15.27,-0.20,0.16,0.03,1721207490140
1.04,4.15,13.10,0.12,-0.08,-0.16,1721207490150
-0.45,-2.42,0.64,-0.18,-0.08,-0.12,1721207490160
-0.78,-4.95,12.93,-0.27,0.16,-0.14,1721207490170
0.39,2.91,15.49,0.13,0.01,-0.05,1721207490180
-0.92,3.77,-0.10,0.07,-0.17,0.11,1721207490190
1.39,-1.66,15.95,-0.10,0.30,0.00,1721207490200
2.47,2.91,18.59,0.24,-0.03,-0.15,1721207490210
-1.80,5.55,8.16,-0.03,-0.11,-0.16,1721207490220
-1.52,1.29,12.95,0.01,0.05,0.03,1721207490230
2.41,-0.89,5.82,0.18,0.10,0.14,1721207490240
2.86,-0.29,8.13,0.05,0.07,0.02,1721207490250
1.35,7.11,16.95,0.19,0.07,-0.26,1721207490260
-0.94,4.59,8.83,0.26,-0.06,-0.32,1721207490270
-2.41,-4.33,7.38,0.01,0.10,-0.12,1721207490280
-2.29,2.49,11.81,0.14,0.08,0.07,1721207490290
1.19,1.06,5.89,0.10,0.10,0.09,1721207490300
1.34,-4.88,9.74,0.01,0.03,-0.16,1721207490310
-0.39,-2.12,10.41,0.17,0.06,-0.27,1721207490320
-2.02,9.58,16.22,0.26,0.04,-0.20,1721207490330
-1.71,7.63,7.75,0.21,0.06,-0.04,1721207490340
-0.86,-4.43,-0.11,-0.08,0.05,0.01,1721207490350
-0.10,-6.67,4.92,-0.23,0.13,-0.06,1721207490360
1.72,-6.59,13.14,-0.19,0.13,-0.20,1721207490370
0.21,3.30,15.58,0.12,-0.03,-0.24,1721207490380
-1.30,5.18,4.60,0.14,-0.01,-0.26,1721207490390
-1.86,-3.05,13.14,-0.40,0.19,-0.20,1721207490400
-0.58,-6.33,19.24,-0.24,-0.00,0.09,1721207490410
2.36,-0.65,5.04,-0.07,0.04,0.09,1721207490420
4.34,2.13,6.62,-0.16,0.20,-0.23,1721207490430
2.07,-6.09,13.78,-0.23,-0.00,-0.55,1721207490440
-4.92,3.64,20.60,0.07,-0.06,-0.58,1721207490450
-6.05,6.19,5.96,0.06,0.08,-0.12,1721207490460
-2.98,0.97,7.39,-0.38,0.17,0.33,1721207490470
2.83,0.89,14.81,-0.09,0.19,0.30,1721207490480
5.72,6.86,4.19,0.33,-0.02,-0.20,1721207490490
0.85,-9.95,-7.28,-0.28,-0.17,-0.50,1721207490500
3.17,-3.16,20.85,-0.62,0.43,-0.58,1721207490510
-0.37,13.19,24.49,0.22,0.14,-0.11,1721207490520
-2.85,-2.77,-2.58,-0.12,-0.24,0.28,1721207490530
1.07,3.62,9.28,0.16,0.50,0.22,1721207490540
6.16,-3.11,4.57,0.20,-0.07,0.12,1721207490550
1.14,3.43,13.64,-0.09,0.28,-0.44,1721207490560
2.36,8.69,20.54,0.32,0.14,-0.63,1721207490570
-5.09,-4.71,1.55,-0.07,-0.27,-0.30,1721207490580
-8.34,0.76,11.34,0.05,0.14,0.13,1721207490590
1.69,1.27,4.59,0.33,0.25,0.44,1721207490600
3.63,3.56,8.76,0.09,0.14,0.08,1721207490610
1.87,-3.27,10.86,0.01,-0.05,-0.44,1721207490620
-2.10,-1.55,13.54,0.04,-0.05,-0.35,1721207490630
-3.95,2.84,10.31,0.16,0.05,0.06,1721207490640
-2.27,2.22,5.21,0.03,0.05,0.18,1721207490650
