AccX,AccY,AccZ,GyrX,GyrY,GyrZ,Time
0.08,2.10,10.55,0.02,0.06,-0.33,1721206798139
-0.27,1.15,10.38,-0.01,0.02,-0.36,1721206798144
-3.78,3.38,8.60,0.04,0.00,-0.22,1721206798154
-3.46,1.50,8.70,-0.05,0.16,-0.04,1721206798164
-2.26,0.75,11.21,-0.06,0.06,-0.02,1721206798174
-2.84,0.86,11.25,0.06,-0.02,-0.11,1721206798184
-3.82,1.21,5.79,-0.03,-0.07,-0.07,1721206798194
-3.21,1.74,14.48,-0.00,0.11,0.07,1721206798204
-0.78,-1.94,4.17,-0.14,-0.09,0.14,1721206798214
-1.16,1.69,16.24,-0.02,-0.01,0.06,1721206798224
3.66,-1.07,6.07,0.13,0.04,0.08,1721206798234
3.41,1.52,13.09,-0.05,0.13,-0.08,1721206798244
1.71,0.70,11.84,0.11,-0.04,-0.39,1721206798254
-1.61,-0.07,10.38,0.03,-0.02,-0.47,1721206798264
-4.83,0.65,9.00,0.08,-0.06,-0.27,1721206798274
-5.42,-0.69,9.99,-0.03,0.05,-0.07,1721206798284
-4.64,-0.10,13.45,0.16,-0.14,0.04,1721206798294
-3.56,0.78,5.69,0.04,-0.11,0.04,1721206798304
-4.23,1.93,10.36,-0.02,-0.22,0.08,1721206798314
-3.66,-0.22,11.28,0.03,-0.15,0.11,1721206798324
-2.46,1.01,11.27,0.10,-0.21,0.18,1721206798334
-1.39,3.89,8.22,0.10,-0.26,0.22,1721206798344
0.35,2.42,5.40,-0.10,-0.24,0.22,1721206798354
1.21,1.77,13.77,-0.04,-0.22,0.09,1721206798364
2.53,1.30,13.02,0.13,-0.23,-0.08,1721206798374
0.20,5.06,7.43,0.02,-0.32,-0.24,1721206798384
-3.40,6.09,7.88,-0.07,-0.31,-0.32,1721206798394
-5.89,1.36,12.55,-0.13,-0.30,-0.29,1721206798404
-8.31,3.68,13.31,0.08,-0.51,-0.07,1721206798414
-6.42,2.14,5.77,-0.08,-0.61,0.49,1721206798424
2.52,1.72,14.03,-0.14,0.14,0.92,1721206798434
9.77,4.48,9.45,-0.01,-0.28,0.29,1721206798444
8.11,2.79,8.04,-0.22,-0.26,-0.98,1721206798454
-4.15,-3.54,8.70,-0.17,-0.75,-1.25,1721206798464
-18.50,-4.61,8.51,0.02,-0.50,-0.14,1721206798474
-14.77,-1.31,9.03,0.01,-0.31,1.37,1721206798484
2.17,0.00,6.08,-0.05,-0.12,1.80,1721206798494
18.79,-0.45,14.99,-0.03,0.18,1.10,1721206798504
18.67,-0.86,13.65,-0.04,-0.30,0.12,1721206798514
15.46,3.07,12.56,0.13,-0.13,-0.81,1721206798524
6.27,-2.44,6.69,-0.09,-0.53,-1.05,1721206798534
-3.30,-0.64,9.71,0.07,-0.27,-0.77,1721206798544
-2.58,-3.65,7.07,0.00,0.01,-0.08,1721206798554
-0.97,-1.21,7.24,-0.18,-0.14,0.19,1721206798564
1.37,-1.71,21.00,0.12,0.09,-0.26,1721206798574
-0.88,-2.52,10.59,0.23,-0.30,-0.53,1721206798584
-6.34,2.67,2.36,-0.00,-0.21,-0.25,1721206798594
-5.15,-5.97,12.64,-0.25,0.08,0.12,1721206798604
-3.30,-6.45,15.52,0.25,-0.23,0.42,1721206798614
3.17,-0.67,7.17,0.13,-0.09,0.49,1721206798624
8.28,0.76,7.12,-0.05,0.02,0.22,1721206798634
7.94,1.03,11.46,-0.04,-0.02,-0.47,1721206798644
3.47,-5.45,12.87,0.06,-0.25,-0.71,1721206798654
-1.10,-0.98,4.21,0.10,-0.09,-0.20,1721206798664
2.71,-2.72,12.20,-0.07,0.54,0.00,1721206798674
4.38,-5.35,14.09,0.04,-0.03,-0.31,1721206798684
1.01,-0.82,10.19,0.04,-0.23,-0.63,1721206798694
-2.19,-0.90,13.20,0.11,0.24,-0.57,1721206798704
-3.18,-5.98,8.39,-0.06,-0.06,-0.37,1721206798714
-7.60,-4.12,7.56,-0.07,-0.20,-0.18,1721206798724
-4.24,1.59,8.91,0.21,0.19,-0.03,1721206798734
2.23,-1.98,13.64,-0.01,0.20,-0.01,1721206798744
0.72,-1.65,10.32,0.07,-0.37,-0.04,1721206798754
-0.54,0.52,10.07,0.06,0.17,-0.33,1721206798764
0.69,-0.92,14.13,0.08,0.11,-0.35,1721206798774
-0.57,-2.73,7.40,-0.18,-0.24,-0.02,1721206798784
-1.55,-1.41,8.53,-0.16,-0.12,0.17,1721206798794
5.87,0.20,10.76,0.22,0.34,-0.26,1721206798804
4.80,-2.27,6.25,-0.07,-0.29,-0.60,1721206798814
-4.42,1.84,9.69,-0.07,-0.37,-0.45,1721206798824
-3.65,-0.45,0.97,-0.13,0.19,-0.36,1721206798834
-3.62,-0.61,24.34,0.07,0.18,-0.39,1721206798844
-3.40,-3.51,6.27,0.17,-0.30,-0.13,1721206798854
-4.36,-0.14,4.79,-0.30,-0.14,0.15,1721206798864
0.34,1.15,15.66,0.11,0.11,0.08,1721206798874
3.76,-0.03,9.87,0.14,-0.04,-0.21,1721206798884
0.58,-0.89,9.13,-0.04,-0.21,-0.25,1721206798894
-1.08,0.24,6.19,-0.01,-0.06,-0.10,1721206798904
0.69,-1.27,13.23,-0.06,0.07,-0.04,1721206798914
2.06,2.12,11.96,0.14,-0.07,-0.05,1721206798924
3.85,-0.20,11.36,-0.05,0.04,-0.05,1721206798934
3.44,-0.15,12.15,-0.02,-0.07,-0.13,1721206798944
2.31,2.94,8.69,0.09,-0.02,-0.31,1721206798954
2.16,2.33,11.87,0.00,0.19,-0.35,1721206798964
1.65,0.54,10.24,-0.02,0.07,-0.11,1721206798974
1.29,1.96,10.00,0.03,0.03,0.01,1721206798984
2.44,2.78,7.09,0.05,0.10,-0.12,1721206798994
2.21,4.53,11.41,0.04,0.20,-0.28,1721206799004
1.81,1.04,11.33,-0.05,0.15,-0.22,1721206799014
0.49,3.37,9.03,-0.00,0.11,-0.07,1721206799024
1.36,5.68,9.86,-0.04,0.32,-0.14,1721206799034
2.48,3.00,12.77,0.02,0.22,-0.13,1721206799044
2.76,2.01,11.69,0.01,0.24,-0.04,1721206799054
3.54,2.71,7.99,-0.07,0.23,-0.08,1721206799064
3.44,5.84,8.94,-0.09,0.30,-0.26,1721206799074
3.80,4.19,12.54,0.02,0.41,-0.36,1721206799084
3.18,3.21,9.86,-0.01,0.36,-0.27,1721206799094
2.62,3.67,10.41,-0.03,0.41,-0.24,1721206799104
3.22,3.06,9.63,-0.06,0.46,-0.39,1721206799114
1.52,2.89,11.59,0.02,0.42,-0.53,1721206799124
-1.34,1.70,7.97,-0.00,0.37,-0.53,1721206799134
-3.71,2.24,8.90,-0.09,0.38,-0.32,1721206799144
-1.31,0.36,10.76,-0.03,0.53,-0.07,1721206799154
2.67,1.03,9.02,0.02,0.51,-0.13,1721206799164
3.65,1.54,10.59,0.03,0.53,-0.51,1721206799174
0.86,1.07,7.27,0.04,0.41,-0.71,1721206799184
-2.33,-2.57,10.71,-0.09,0.55,-0.54,1721206799194
-2.98,-1.99,13.30,0.11,0.44,-0.29,1721206799204
-0.30,1.58,8.97,0.16,0.56,-0.27,1721206799214
2.25,-2.23,10.88,-0.03,0.62,-0.46,1721206799224
-1.06,-0.74,8.35,0.05,0.33,-0.63,1721206799234
-2.62,0.23,11.96,0.06,0.62,-0.58,1721206799244
-1.77,-2.57,10.84,0.08,0.58,-0.41,1721206799254
-1.04,-3.00,5.80,-0.01,0.42,-0.27,1721206799264
-0.30,-0.26,7.38,0.01,0.49,-0.37,1721206799274
2.19,-4.03,14.10,0.05,0.81,-0.63,1721206799284
-0.94,-5.35,12.32,0.14,0.39,-0.73,1721206799294
-6.52,-0.74,3.42,0.05,0.22,-0.55,1721206799304
-4.92,1.80,9.03,0.12,0.80,-0.41,1721206799314
-0.02,-8.21,14.00,-0.10,0.74,-0.35,1721206799324
-3.15,-6.15,15.83,0.19,0.04,-0.34,1721206799334
-6.88,-1.68,2.80,0.14,0.37,-0.56,1721206799344
-7.25,0.21,11.90,0.02,0.66,-0.52,1721206799354
-5.04,-5.37,13.23,0.03,0.42,-0.15,1721206799364
-4.28,-5.02,10.83,0.18,0.14,0.09,1721206799374
-4.15,-1.50,1.30,0.14,0.23,-0.16,1721206799384
-4.05,0.97,3.79,-0.06,0.32,-0.34,1721206799394
-2.73,-6.95,18.34,-0.03,0.34,-0.07,1721206799404
-4.37,-3.44,15.18,0.24,0.18,0.09,1721206799414
-2.71,0.16,7.33,0.22,0.19,-0.01,1721206799424
-0.06,-2.43,4.73,0.09,0.09,0.09,1721206799434
-1.59,-3.12,13.66,-0.05,0.22,-0.01,1721206799444
-2.42,-3.88,17.69,0.16,0.13,-0.28,1721206799454
-5.30,-3.27,4.83,-0.02,-0.13,-0.28,1721206799464
-10.64,-0.33,8.01,-0.09,0.01,0.02,1721206799474
-8.09,-1.05,11.99,0.15,0.17,0.42,1721206799484
-1.33,-1.34,9.34,0.06,0.20,0.53,1721206799494
0.70,1.53,11.38,0.02,-0.00,0.20,1721206799504
-0.60,2.84,15.04,0.14,-0.12,0.01,1721206799514
-2.16,-1.87,9.61,0.02,-0.17,0.25,1721206799524
-0.67,-0.83,11.47,-0.10,-0.08,0.46,1721206799534
1.97,1.19,9.82,0.01,-0.12,0.23,1721206799544
0.47,5.62,1.57,-0.04,-0.16,-0.17,1721206799554
-3.28,1.04,11.52,-0.24,0.05,-0.17,1721206799564
-5.10,-4.65,15.44,0.02,-0.28,0.27,1721206799574
-4.01,-0.71,9.50,-0.06,-0.24,0.43,1721206799584
-3.26,6.51,9.30,0.06,-0.29,0.27,1721206799594
-1.72,1.21,6.25,-0.26,-0.19,0.21,1721206799604
-3.30,-0.62,13.18,-0.16,-0.34,0.25,1721206799614
-4.06,-0.11,8.96,0.03,-0.41,0.21,1721206799624
-3.98,3.40,7.37,-0.06,-0.33,0.26,1721206799634
-2.33,3.03,12.74,-0.03,-0.24,0.46,1721206799644
0.45,1.47,10.06,-0.08,-0.33,0.51,1721206799654
1.49,3.02,11.47,-0.01,-0.33,0.37,1721206799664
2.73,1.48,8.80,-0.07,-0.30,0.28,1721206799674
1.92,3.17,11.14,-0.04,-0.26,0.24,1721206799684
1.91,3.07,8.93,-0.02,-0.29,0.20,1721206799694
1.14,2.94,9.48,-0.08,-0.25,0.22,1721206799704
2.64,1.56,10.30,-0.09,-0.12,0.36,1721206799714
3.85,0.80,11.51,-0.13,-0.19,0.34,1721206799724
2.77,1.08,9.65,-0.00,-0.29,0.12,1721206799734
0.98,2.88,6.51,-0.05,-0.21,0.04,1721206799744
0.37,-1.86,9.67,-0.24,-0.12,0.27,1721206799754
0.82,-2.36,14.13,0.03,-0.24,0.44,1721206799764
3.30,0.50,10.63,0.05,-0.01,0.24,1721206799774
1.79,3.95,10.85,0.13,-0.21,0.06,1721206799784
1.02,0.32,6.67,-0.06,-0.10,0.22,1721206799794
2.57,-0.28,11.23,-0.05,0.02,0.35,1721206799804
4.07,-0.06,10.76,-0.01,0.04,0.10,1721206799814
1.41,-2.10,12.23,-0.11,-0.09,-0.04,1721206799824
-1.23,-1.29,10.88,0.12,-0.11,0.13,1721206799834
-0.78,-2.13,11.70,-0.03,0.05,0.20,1721206799844
-0.54,-3.61,12.14,-0.04,-0.19,0.23,1721206799854
-0.22,-2.86,5.92,-0.04,-0.23,0.27,1721206799864
-0.70,-1.32,9.20,-0.01,-0.02,0.15,1721206799874
-1.24,-0.50,7.37,-0.03,-0.11,0.04,1721206799884
-0.11,0.46,14.63,0.03,0.12,0.13,1721206799894
0.52,-2.39,13.03,0.07,-0.04,0.16,1721206799904
-0.33,-0.43,13.82,0.04,-0.08,0.13,1721206799914
1.08,-0.24,9.17,0.05,0.04,0.08,1721206799924
0.19,-2.20,13.74,-0.02,-0.06,-0.02,1721206799934
-2.59,-2.69,4.45,0.02,-0.38,0.13,1721206799944
-3.76,-0.42,7.21,-0.18,-0.01,0.20,1721206799954
-1.38,-1.81,12.33,0.09,-0.15,0.19,1721206799964
0.35,-3.11,7.87,-0.04,-0.17,0.17,1721206799974
0.29,-1.43,13.14,-0.04,-0.24,0.16,1721206799984
2.40,-3.92,12.18,-0.05,-0.11,0.21,1721206799994
2.82,-2.17,15.23,0.04,-0.15,0.12,1721206800004
2.66,-3.10,6.01,-0.01,-0.29,-0.11,1721206800014
-0.43,-2.64,9.41,-0.21,-0.21,-0.20,1721206800024
-0.24,-5.33,21.46,0.05,-0.10,-0.04,1721206800034
1.19,-3.32,10.25,0.20,-0.20,0.06,1721206800044
0.19,3.31,14.46,0.13,0.02,-0.11,1721206800054
0.45,0.75,1.16,0.02,-0.20,-0.21,1721206800064
-2.34,-4.32,13.80,-0.24,-0.03,-0.19,1721206800074
-1.62,-3.67,11.93,0.18,-0.21,0.04,1721206800084
1.82,-0.65,7.29,0.00,0.02,0.16,1721206800094
2.51,2.41,8.89,0.03,-0.17,0.02,1721206800104
3.28,-1.06,8.15,-0.19,0.13,-0.14,1721206800114
0.81,-0.48,17.83,-0.00,-0.07,-0.12,1721206800124
0.84,-4.18,9.24,-0.04,-0.01,-0.03,1721206800134
1.07,0.22,6.05,0.13,-0.21,0.02,1721206800149
2.58,0.20,3.89,0.01,-0.02,-0.05,1721206800153
0.76,2.38,7.85,-0.27,0.05,-0.11,1721206800163
-1.15,1.52,4.99,-0.14,-0.08,-0.23,1721206800173
-4.76,-1.78,13.09,-0.27,0.03,-0.18,1721206800183
-5.56,-0.03,8.85,-0.07,-0.17,0.17,1721206800193
-4.00,-0.50,15.47,-0.39,0.11,0.32,1721206800203
-1.33,3.69,13.16,-0.05,-0.22,0.41,1721206800213
3.27,4.08,7.54,-0.38,0.14,0.35,1721206800223
3.44,8.03,8.37,-0.26,-0.18,0.15,1721206800233
4.34,3.35,5.30,-0.53,0.05,-0.15,1721206800243
2.02,3.29,14.41,-0.50,-0.13,-0.14,1721206800253
1.24,3.84,10.92,-0.35,-0.01,-0.06,1721206800263
1.34,5.01,11.03,-0.39,-0.02,-0.01,1721206800273
2.28,5.70,12.36,-0.27,0.01,-0.02,1721206800283
3.57,1.55,9.69,-0.19,-0.01,-0.10,1721206800293
2.50,2.52,11.61,-0.15,0.04,-0.31,1721206800303
0.72,3.86,12.71,-0.02,-0.07,-0.37,1721206800313
-1.40,-0.81,8.18,-0.03,-0.04,-0.29,1721206800323
-1.77,1.09,10.39,-0.00,0.06,-0.21,1721206800333
-0.15,0.65,9.66,0.12,0.06,-0.13,1721206800343
0.65,0.40,9.80,0.02,0.11,-0.22,1721206800353
0.62,3.05,11.85,0.10,0.03,-0.35,1721206800363
-0.42,-1.86,7.74,0.10,-0.02,-0.36,1721206800373
-1.10,1.91,10.34,0.04,0.13,-0.25,1721206800383
-0.00,-1.26,9.76,0.09,-0.03,-0.18,1721206800393
-0.18,0.02,9.68,0.07,0.06,-0.20,1721206800403
1.02,-1.27,11.15,0.06,0.12,-0.33,1721206800413
-0.63,1.60,11.92,0.07,-0.02,-0.33,1721206800423
-1.71,0.91,10.39,0.04,0.12,-0.36,1721206800433
-1.05,0.85,15.01,-0.11,0.15,-0.18,1721206800443
-2.03,-0.96,8.14,0.03,-0.07,-0.11,1721206800453
-0.88,-3.38,6.14,-0.06,0.15,-0.14,1721206800463
1.39,0.35,13.73,0.02,0.22,-0.27,1721206800473
0.17,0.75,8.13,0.15,-0.07,-0.23,1721206800483
-0.75,-3.40,7.13,-0.03,0.18,-0.28,1721206800493
-0.49,-0.70,15.39,0.05,0.13,-0.23,1721206800503
-1.32,-0.35,9.74,0.21,-0.04,-0.24,1721206800513
-0.06,0.08,9.14,0.06,0.21,-0.23,1721206800523
0.10,0.91,12.03,0.15,0.13,-0.29,1721206800533
0.06,-0.54,7.78,0.08,0.07,-0.31,1721206800543
0.56,-5.18,9.80,-0.03,0.25,-0.37,1721206800553
-2.66,-1.79,11.01,0.11,-0.05,-0.42,1721206800563
-0.38,1.32,10.78,0.11,0.37,-0.41,1721206800573
-1.87,1.12,13.26,0.13,-0.02,-0.31,1721206800583
-1.38,-0.71,9.33,0.04,0.24,-0.34,1721206800593
-0.67,1.39,13.45,0.14,0.14,-0.33,1721206800603
-0.32,1.01,10.52,0.07,0.11,-0.48,1721206800613
-3.08,3.37,11.05,0.19,0.05,-0.48,1721206800623
-3.09,0.25,8.01,0.16,0.08,-0.35,1721206800633
-3.92,0.17,11.55,0.08,0.09,-0.23,1721206800643
-3.00,1.16,8.59,0.26,0.02,-0.19,1721206800653
-1.06,1.13,9.70,0.15,0.15,-0.18,1721206800663
-0.36,3.55,10.20,0.27,0.02,-0.21,1721206800673
-0.15,0.84,7.37,0.18,0.05,-0.22,1721206800683
0.18,-0.86,10.72,0.07,0.09,-0.21,1721206800693
0.09,-0.22,11.27,0.15,0.00,-0.20,1721206800703
-0.85,0.53,8.95,0.16,0.06,-0.22,1721206800713
-1.54,1.02,8.20,0.16,0.03,-0.17,1721206800723
-0.77,-2.18,8.93,0.01,0.06,-0.05,1721206800733
-0.16,-1.26,14.01,0.05,0.07,-0.02,1721206800743
-0.01,0.68,12.84,0.09,0.03,-0.08,1721206800753
-0.84,2.62,11.18,0.13,-0.01,-0.03,1721206800763
-0.74,-0.07,3.85,0.04,0.00,0.06,1721206800773
-0.50,-1.85,9.63,-0.19,0.13,0.02,1721206800783
-0.82,-0.14,9.79,0.08,-0.08,0.01,1721206800793
-0.16,-1.74,6.79,-0.13,0.10,0.03,1721206800803
-0.63,1.89,12.78,-0.03,0.04,0.05,1721206800813
-0.22,0.07,8.75,-0.14,-0.01,0.07,1721206800823
-0.94,-0.17,10.98,-0.28,0.01,-0.02,1721206800833
-0.24,-4.28,10.27,-0.28,0.02,-0.02,1721206800843
-1.74,-3.41,10.03,-0.26,-0.03,-0.00,1721206800853
-1.92,-2.67,8.57,-0.23,-0.05,0.13,1721206800863
-0.84,4.60,10.34,-0.11,0.03,0.17,1721206800873
1.52,-2.10,7.36,-0.24,-0.06,0.21,1721206800883
0.04,-5.52,11.88,-0.41,0.03,0.11,1721206800893
-0.37,-1.53,14.02,-0.34,-0.05,0.03,1721206800903
-2.43,2.90,11.87,-0.23,-0.19,0.13,1721206800913
-1.57,0.64,7.77,-0.22,-0.03,0.09,1721206800923
0.45,-2.13,10.76,-0.22,-0.09,0.14,1721206800933
1.61,1.05,11.39,-0.10,0.02,0.18,1721206800943
1.02,-0.89,11.37,-0.10,-0.08,0.19,1721206800953
-1.03,3.51,13.35,0.01,-0.07,0.17,1721206800963
0.29,-0.53,8.97,0.11,-0.11,0.17,1721206800973
0.64,-0.17,13.07,0.00,-0.06,0.06,1721206800983
2.17,5.27,12.78,0.28,-0.06,0.12,1721206800993
1.04,0.62,3.94,0.26,-0.21,0.11,1721206801003
2.02,-2.56,11.42,0.09,0.16,0.02,1721206801013
0.23,2.04,13.72,0.39,-0.19,0.04,1721206801023
1.66,-6.51,7.78,0.15,-0.02,0.04,1721206801033
0.78,3.98,17.48,0.38,-0.06,0.15,1721206801043
1.87,1.00,5.96,0.34,0.05,0.13,1721206801053
1.41,-0.14,8.45,0.10,-0.02,0.01,1721206801063
2.41,-3.24,11.06,0.18,0.02,-0.09,1721206801073
1.45,-3.80,8.58,0.17,-0.01,-0.11,1721206801083
-0.69,0.39,10.28,0.20,0.00,-0.04,1721206801093
0.01,-0.17,7.86,0.15,0.01,0.13,1721206801103
1.99,-3.17,9.09,0.05,0.11,0.16,1721206801113
3.10,-2.95,12.44,0.11,0.10,-0.01,1721206801123
0.86,2.62,14.27,0.13,0.00,-0.23,1721206801133
-0.49,1.32,9.35,0.06,0.03,-0.19,1721206801143
-1.25,-1.86,10.36,-0.02,0.10,-0.05,1721206801153
-0.07,-5.14,10.10,0.05,0.13,0.04,1721206801163
0.19,-0.20,13.57,0.15,0.09,-0.08,1721206801173
-0.25,6.04,12.14,0.29,0.06,-0.12,1721206801183
-0.61,2.14,5.92,0.09,0.03,-0.01,1721206801193
-0.06,1.71,9.49,-0.02,0.14,0.02,1721206801203
1.90,-4.73,6.50,-0.08,0.08,-0.06,1721206801213
0.38,1.13,11.63,0.01,0.06,-0.17,1721206801223
-0.64,3.08,8.40,0.08,0.04,-0.23,1721206801233
-2.68,3.49,8.23,0.04,-0.04,-0.12,1721206801243
-1.81,-1.15,9.78,-0.13,0.14,-0.06,1721206801253
-1.05,-1.21,9.90,-0.04,-0.07,0.04,1721206801263
0.55,0.19,11.57,-0.22,0.10,-0.04,1721206801273
0.10,2.73,15.35,-0.08,-0.08,-0.17,1721206801283
-0.79,-1.76,9.65,-0.10,-0.09,-0.14,1721206801293
-1.25,-0.25,9.74,-0.17,-0.07,0.00,1721206801303
0.22,-1.13,7.91,-0.20,-0.01,0.18,1721206801313
2.40,-0.98,10.69,-0.32,0.09,0.06,1721206801323
1.98,1.53,12.06,-0.14,-0.07,-0.14,1721206801333
0.05,-1.19,6.69,-0.16,-0.08,-0.22,1721206801343
-0.56,-1.75,9.99,-0.26,0.04,-0.09,1721206801353
0.69,-0.59,12.06,-0.12,-0.05,0.13,1721206801363
1.80,0.70,9.66,-0.11,0.03,0.11,1721206801373
0.44,1.16,10.36,-0.10,-0.05,-0.15,1721206801383
-1.53,4.42,11.77,-0.05,-0.03,-0.21,1721206801393
-1.10,-1.60,9.44,-0.17,-0.06,-0.03,1721206801403
0.15,-3.00,12.41,-0.22,0.01,0.15,1721206801413
1.46,1.04,11.19,0.01,-0.07,0.17,1721206801423
1.17,1.52,9.67,0.05,0.01,-0.02,1721206801433
-0.88,2.22,10.07,0.13,-0.09,-0.15,1721206801443
-0.29,-0.42,11.19,0.07,0.07,-0.10,1721206801453
-0.47,-0.12,13.85,0.13,-0.13,0.04,1721206801463
0.91,-0.11,10.68,0.16,0.03,0.03,1721206801473
1.23,0.16,9.02,0.21,-0.08,-0.09,1721206801483
-1.41,-0.57,3.42,0.23,-0.13,-0.11,1721206801493
-0.15,-0.25,10.71,0.03,0.25,-0.16,1721206801503
-0.89,-4.98,15.27,0.08,-0.21,-0.05,1721206801513
-0.53,-7.18,9.14,-0.01,0.14,-0.13,1721206801523
0.59,-1.16,12.52,0.26,-0.12,-0.21,1721206801533
-0.74,6.60,10.28,0.27,-0.06,-0.19,1721206801543
-0.51,5.18,10.68,0.17,0.03,-0.27,1721206801553
-1.13,-3.93,9.00,-0.07,-0.05,-0.26,1721206801563
-0.52,-5.64,12.05,-0.10,0.08,-0.25,1721206801573
1.28,6.48,13.31,0.29,-0.01,-0.22,1721206801583
-0.44,2.59,-1.40,0.16,-0.18,-0.40,1721206801593
-0.81,-1.53,11.15,-0.08,0.29,-0.49,1721206801603
-2.46,-5.14,19.56,0.06,-0.22,-0.22,1721206801613
-2.63,5.00,15.21,0.24,-0.07,-0.02,1721206801623
2.87,10.98,9.60,0.40,0.07,-0.15,1721206801633
1.58,0.23,-1.53,0.10,-0.26,-0.32,1721206801643
1.07,-4.66,12.05,-0.15,0.41,-0.44,1721206801653
-1.56,-4.34,14.51,0.22,-0.24,-0.34,1721206801663
-3.45,2.91,10.55,0.10,0.04,-0.30,1721206801673
0.24,8.96,15.10,0.33,0.13,-0.15,1721206801683
-0.17,1.77,2.04,0.13,-0.12,-0.13,1721206801693
-1.17,-3.32,7.65,-0.15,0.14,-0.20,1721206801703
0.17,-5.17,9.07,0.01,-0.00,-0.24,1721206801713
-1.14,0.51,14.27,0.00,0.04,-0.27,1721206801723
-1.05,6.85,13.30,0.27,-0.00,-0.19,1721206801733
0.80,1.30,5.20,-0.05,0.08,-0.10,1721206801743
1.09,-2.58,9.01,-0.22,0.01,-0.20,1721206801753
0.98,-7.70,11.95,-0.34,0.15,-0.49,1721206801763
-4.63,-2.75,19.43,-0.25,-0.15,-0.54,1721206801773
-5.33,12.31,14.86,0.57,-0.06,-0.06,1721206801783
-0.29,-6.51,-20.38,-0.13,0.02,0.27,1721206801793
3.07,-6.62,18.94,-0.77,0.79,-0.19,1721206801803
-2.83,-0.17,25.58,-0.13,-0.19,-0.54,1721206801813
0.66,-3.34,16.00,-0.35,0.31,-0.45,1721206801823
-1.75,10.66,13.82,0.37,-0.40,-0.04,1721206801833
2.14,-9.77,-5.47,-0.51,0.26,0.01,1721206801843
-0.63,0.93,18.81,-0.29,0.10,-0.28,1721206801853
0.03,-5.13,8.66,-0.14,0.18,-0.52,1721206801863
-5.06,5.23,12.78,0.09,-0.17,-0.29,1721206801873
-1.82,-1.55,1.90,-0.05,0.08,0.27,1721206801883
3.12,0.94,15.26,-0.20,0.29,0.17,1721206801893
1.91,-2.86,15.12,-0.03,-0.08,-0.27,1721206801903
0.24,1.11,14.70,-0.05,0.11,-0.64,1721206801913
-1.49,3.02,10.63,0.17,-0.10,-0.34,1721206801923
-1.43,2.00,4.29,0.12,0.19,0.16,1721206801933
-0.89,-3.44,11.04,-0.09,0.23,0.09,1721206801943
0.41,-1.08,16.16,0.14,0.03,-0.20,1721206801953
2.56,-1.29,9.32,0.18,-0.03,-0.22,1721206801963
0.36,6.58,6.49,0.30,0.12,-0.03,1721206801973
0.88,-0.21,6.62,-0.01,0.26,-0.14,1721206801983
-0.55,-5.88,17.37,-0.06,0.01,-0.29,1721206801993
-1.00,0.16,17.52,0.18,0.14,-0.30,1721206802003
-0.98,2.85,8.47,0.21,0.03,-0.01,1721206802013
0.10,3.44,5.92,0.15,0.15,0.13,1721206802023
2.66,-1.41,6.77,0.18,0.25,-0.11,1721206802033
1.69,-2.32,12.95,0.15,0.15,-0.27,1721206802043
-1.69,2.43,9.27,0.29,0.04,-0.32,1721206802053
-1.96,0.96,8.04,0.15,0.22,-0.14,1721206802063
-1.01,-0.43,9.30,0.12,0.12,0.11,1721206802073
0.34,0.35,12.14,0.12,0.15,0.00,1721206802083
2.16,2.76,11.50,0.28,0.16,-0.12,1721206802093
1.04,-0.65,5.76,0.09,0.06,-0.22,1721206802103
-1.44,2.20,8.17,0.04,0.16,-0.23,1721206802113
0.29,0.67,11.71,-0.08,0.30,-0.18,1721206802123
-0.03,1.37,11.72,0.09,0.05,-0.05,1721206802133
-0.12,1.46,6.57,-0.06,0.24,-0.17,1721206802143
-0.56,-0.55,7.09,-0.11,0.17,-0.06,1721206802158
-0.41,-5.05,5.76,-0.29,0.06,-0.13,1721206802162
0.53,-0.24,17.09,-0.16,0.31,-0.11,1721206802172
0.79,-2.76,8.62,0.04,0.00,-0.17,1721206802182
-3.54,3.10,11.18,-0.06,0.11,-0.31,1721206802192
-0.39,2.09,10.40,-0.00,0.19,-0.06,1721206802202
-0.13,-0.72,9.49,-0.26,0.13,0.21,1721206802212
-0.53,-2.09,10.90,-0.24,0.16,-0.17,1721206802222
0.86,1.93,13.43,-0.03,0.13,-0.42,1721206802232
-1.07,-4.60,7.19,-0.09,-0.02,-0.05,1721206802242
-4.44,2.14,10.60,-0.19,0.23,-0.00,1721206802252
-1.12,4.30,14.26,-0.02,0.13,-0.10,1721206802262
0.71,-2.13,4.09,-0.02,-0.21,0.19,1721206802272
3.60,-0.75,11.83,-0.24,0.57,0.01,1721206802282
0.52,2.69,15.14,0.02,-0.13,-0.30,1721206802292
-2.36,-4.60,7.28,-0.11,0.01,-0.25,1721206802302
-0.96,2.99,12.81,0.10,0.19,-0.02,1721206802312
-1.91,0.57,4.33,0.10,-0.12,0.17,1721206802322
-1.94,0.24,11.38,0.02,0.16,0.08,1721206802332
2.96,-4.21,10.15,0.11,-0.03,0.12,1721206802342
1.53,-1.77,10.90,-0.02,0.13,-0.05,1721206802352
-2.47,1.45,13.64,0.09,-0.04,-0.27,1721206802362
-2.17,0.06,8.61,0.10,0.08,-0.15,1721206802372
-0.85,-5.69,9.48,-0.06,0.06,0.23,1721206802382
-0.97,-4.13,13.41,0.04,0.09,0.20,1721206802392
2.15,1.93,12.11,0.25,0.15,-0.01,1721206802402
1.33,2.66,6.31,0.17,-0.19,-0.17,1721206802412
-2.90,4.70,6.74,0.14,0.03,-0.21,1721206802422
-2.62,-2.97,7.00,0.03,0.11,-0.08,1721206802432
-1.18,-0.54,11.85,-0.04,0.08,0.14,1721206802442
2.27,1.26,11.20,0.07,0.11,0.10,1721206802452
0.88,3.41,9.67,0.03,-0.01,-0.18,1721206802462
-1.99,2.57,6.49,0.11,-0.13,-0.26,1721206802472
-1.02,-3.87,9.17,-0.12,0.13,0.03,1721206802482
-1.66,-1.07,14.69,0.03,-0.13,0.28,1721206802492
3.21,2.47,14.89,0.06,0.22,0.11,1721206802502
4.49,7.16,13.88,0.23,-0.07,-0.25,1721206802512
-0.32,1.57,4.61,0.02,-0.14,-0.45,1721206802522
-4.85,-1.50,10.06,-0.14,0.04,-0.18,1721206802532
-4.58,0.16,12.61,0.09,0.00,0.14,1721206802542
-1.19,1.79,7.47,0.05,0.01,0.27,1721206802552
-0.01,4.02,6.14,0.06,-0.09,0.18,1721206802562
2.09,-0.26,9.28,-0.08,0.13,0.05,1721206802572
1.44,-4.78,10.30,-0.03,-0.15,-0.02,1721206802582
0.99,-1.88,10.98,-0.04,0.08,-0.05,1721206802592
-0.86,8.60,14.63,0.08,0.02,-0.17,1721206802602
-1.29,2.13,6.93,-0.00,-0.15,-0.07,1721206802612
-0.88,-3.24,9.45,-0.24,0.10,0.14,1721206802622
-0.65,-3.24,10.06,-0.27,0.01,0.00,1721206802632
-1.61,0.85,11.99,-0.14,-0.08,-0.25,1721206802642
-1.46,-2.92,3.90,-0.10,-0.13,0.13,1721206802652
-2.10,-1.39,9.52,-0.23,0.19,0.25,1721206802662
3.17,-7.73,13.24,-0.24,-0.01,0.13,1721206802672
4.17,2.82,14.26,-0.09,-0.02,-0.10,1721206802682
0.23,4.38,9.36,-0.06,0.07,-0.35,1721206802692
-2.63,-2.14,10.13,-0.26,-0.08,-0.18,1721206802702
-1.65,-0.24,14.37,-0.13,0.09,0.18,1721206802712
0.11,1.74,12.78,-0.05,0.16,0.04,1721206802722
2.92,-2.45,5.82,-0.06,-0.13,-0.04,1721206802732
1.56,-2.40,9.17,-0.05,0.17,-0.10,1721206802742
-0.91,-0.24,13.60,0.16,0.04,-0.15,1721206802752
0.20,-0.03,9.25,0.17,0.08,-0.14,1721206802762
-0.23,1.43,12.33,0.21,0.02,-0.07,1721206802772
-1.15,7.36,11.22,0.25,0.09,-0.07,1721206802782
1.04,-4.56,9.07,-0.06,0.08,-0.02,1721206802792
0.19,-3.63,15.58,0.13,0.16,-0.07,1721206802802
0.38,-0.59,6.64,0.28,0.08,-0.14,1721206802812
-0.63,6.09,1.95,0.32,0.04,-0.02,1721206802822
0.26,-3.39,9.39,-0.08,0.25,-0.10,1721206802832
-0.12,-2.90,22.18,0.13,0.05,-0.06,1721206802842
0.64,-0.29,9.26,0.29,0.07,0.03,1721206802852
1.17,2.09,5.09,0.13,0.22,-0.03,1721206802862
-0.77,-1.44,10.84,0.10,0.10,-0.20,1721206802872
-2.56,1.98,16.51,0.29,0.13,-0.20,1721206802882
-3.35,2.07,7.31,0.45,-0.02,0.06,1721206802892
0.17,7.04,5.95,0.26,0.31,0.28,1721206802902
3.25,2.29,5.07,-0.06,0.16,0.15,1721206802912
1.89,-1.69,10.97,-0.16,0.06,-0.06,1721206802922
2.72,-4.29,13.45,0.10,0.28,-0.26,1721206802932
0.06,-2.06,8.67,0.18,-0.03,-0.13,1721206802942
-1.37,7.47,12.22,0.10,0.26,-0.20,1721206802952
-0.32,5.46,9.88,0.11,0.01,-0.08,1721206802962
-0.88,6.59,3.59,-0.02,0.19,0.01,1721206802972
1.39,-5.41,5.04,-0.38,0.20,0.01,1721206802982
0.43,-5.20,12.59,-0.33,0.08,-0.08,1721206802992
-0.91,-2.72,15.53,-0.02,0.17,-0.20,1721206803002
-0.69,-2.07,16.41,-0.02,0.14,-0.14,1721206803012
-2.73,3.24,10.94,0.12,-0.04,0.04,1721206803022
0.97,5.59,5.90,0.01,0.35,0.07,1721206803032
3.71,-5.96,3.04,-0.40,0.09,-0.07,1721206803042
-3.43,-5.44,14.51,-0.28,-0.16,-0.40,1721206803052
-1.68,-2.11,12.83,0.14,0.35,-0.46,1721206803062
-5.26,3.27,9.26,0.01,-0.01,-0.10,1721206803072
-7.10,1.40,8.82,-0.22,-0.00,0.30,1721206803082
0.85,2.27,12.47,0.00,0.22,0.49,1721206803092
4.75,-10.83,3.58,-0.23,0.01,0.20,1721206803102
1.74,0.18,14.26,-0.16,0.02,-0.28,1721206803112
-2.08,-0.26,12.53,0.11,0.03,-0.41,1721206803122
-6.43,-2.29,14.35,-0.26,-0.03,0.11,1721206803132
-4.10,-0.52,15.63,0.14,-0.07,0.64,1721206803142
1.24,-3.79,5.16,-0.06,0.05,0.64,1721206803152
7.62,-2.27,8.81,-0.08,0.19,0.27,1721206803162
3.12,2.89,9.34,0.11,-0.14,-0.22,1721206803172
-0.91,-4.32,8.03,-0.05,-0.15,-0.16,1721206803182
-6.81,-4.61,18.27,-0.23,-0.04,0.09,1721206803192
-2.19,2.16,20.46,0.06,0.05,0.36,1721206803202
2.44,4.16,10.19,0.19,-0.10,0.41,1721206803212
0.89,1.77,0.49,0.10,-0.26,0.20,1721206803222
1.65,1.52,8.27,0.12,0.23,-0.01,1721206803232
1.00,0.93,13.18,0.07,-0.08,-0.04,1721206803242
-2.78,4.58,11.32,0.25,-0.29,0.05,1721206803252
-1.06,0.92,3.45,0.13,0.09,0.19,1721206803262
1.53,5.02,9.15,0.22,-0.05,0.25,1721206803272
3.97,3.17,8.80,0.05,0.02,0.13,1721206803282
2.61,0.42,16.51,0.01,-0.14,-0.13,1721206803292
0.17,-0.11,9.26,0.23,-0.19,-0.25,1721206803302
-3.52,3.79,7.13,-0.00,-0.08,-0.20,1721206803312
-5.47,2.74,10.53,0.02,-0.13,0.11,1721206803322
-2.64,-1.20,12.03,-0.04,0.12,0.33,1721206803332
0.69,-0.26,13.63,0.20,-0.09,0.34,1721206803342
1.43,4.66,7.09,0.14,-0.06,0.16,1721206803352
2.84,-1.04,5.54,-0.13,-0.01,0.06,1721206803362
2.99,0.94,12.29,-0.02,-0.02,0.05,1721206803372
2.95,-0.29,3.28,0.16,-0.07,-0.09,1721206803382
1.90,-2.76,7.47,-0.07,0.09,-0.30,1721206803392
-0.01,0.91,15.34,0.07,-0.06,-0.31,1721206803402
-3.38,3.15,15.73,-0.08,-0.04,-0.26,1721206803412
-4.07,2.82,12.17,-0.04,-0.14,-0.08,1721206803422
-1.92,-5.35,7.81,-0.31,0.08,0.04,1721206803432
-1.13,-7.56,8.55,-0.17,-0.11,0.06,1721206803442
-1.40,-1.80,8.32,-0.14,0.03,-0.07,1721206803452
-0.13,1.12,10.88,0.04,-0.04,0.07,1721206803462
2.25,1.53,6.57,0.04,-0.05,0.24,1721206803472
6.25,-1.22,8.78,-0.24,0.19,0.05,1721206803482
5.28,0.29,15.39,-0.35,0.09,-0.54,1721206803492
-1.07,-0.49,13.12,-0.15,-0.21,-0.77,1721206803502
-7.77,-0.97,8.02,-0.13,-0.06,-0.48,1721206803512
-6.28,-4.16,8.03,-0.14,0.11,0.14,1721206803522
-1.06,-0.01,13.49,-0.13,0.18,0.39,1721206803532
3.13,4.31,10.94,-0.01,-0.01,0.16,1721206803542
2.84,3.97,11.81,-0.15,0.05,-0.26,1721206803552
0.58,0.24,11.62,-0.05,-0.02,-0.37,1721206803562
-2.23,-5.73,9.31,-0.08,-0.04,-0.22,1721206803572
-4.51,-1.12,7.72,0.10,-0.04,0.03,1721206803582
-0.49,0.17,8.84,0.02,0.21,0.09,1721206803592
-0.10,4.54,10.97,0.35,-0.21,0.12,1721206803602
2.64,1.59,5.92,0.17,0.14,-0.02,1721206803612
1.74,-2.84,14.15,-0.10,0.04,-0.19,1721206803622
-1.66,-3.00,19.62,0.02,-0.07,-0.21,1721206803632
-2.47,3.78,16.02,0.30,0.01,0.02,1721206803642
0.73,-3.17,3.54,0.15,0.04,0.26,1721206803652
1.40,3.87,8.82,0.21,0.11,0.16,1721206803662
5.03,2.42,8.07,0.24,0.16,-0.11,1721206803672
0.92,3.22,10.20,0.13,-0.14,-0.21,1721206803682
-0.97,-0.31,11.82,0.02,0.11,-0.09,1721206803692
-0.00,-4.62,11.46,0.06,0.06,0.07,1721206803702
0.65,0.88,12.31,0.14,0.12,0.07,1721206803712
1.12,-0.61,7.28,0.15,0.07,0.04,1721206803722
0.06,2.75,11.01,0.19,0.06,0.01,1721206803732
0.85,2.43,6.09,0.28,0.09,0.08,1721206803742
1.28,2.49,5.89,0.07,0.17,0.07,1721206803752
0.21,-1.97,14.35,-0.11,0.04,0.02,1721206803762
-0.96,-3.26,18.01,0.06,0.07,0.01,1721206803772
-0.63,-0.93,9.03,0.25,0.05,0.16,1721206803782
1.76,2.49,7.55,0.10,0.20,0.19,1721206803792
1.88,7.03,6.69,0.22,-0.01,0.07,1721206803802
1.96,1.80,0.59,-0.16,0.17,-0.19,1721206803812
-1.68,-8.52,13.02,-0.47,0.04,-0.11,1721206803822
-3.39,-2.30,20.03,0.02,-0.00,0.10,1721206803832
-0.74,3.65,4.99,0.09,0.04,0.24,1721206803842
0.46,1.18,9.19,-0.21,-0.03,0.19,1721206803852
1.20,-0.65,9.03,-0.13,0.05,0.06,1721206803862
1.87,-0.18,11.26,-0.16,0.11,-0.03,1721206803872
-0.13,3.24,9.11,-0.19,-0.08,-0.02,1721206803882
-1.54,-3.00,13.89,-0.36,-0.00,0.02,1721206803892
-1.22,-4.19,15.75,-0.13,0.01,0.10,1721206803902
1.04,-0.05,10.33,-0.13,0.00,0.14,1721206803912
1.27,6.94,9.68,-0.07,-0.06,0.06,1721206803922
2.84,3.44,4.72,-0.11,0.05,-0.20,1721206803932
-1.96,-2.65,3.74,-0.24,-0.23,-0.22,1721206803942
-3.93,-2.87,12.35,-0.19,0.15,-0.08,1721206803952
-1.64,0.02,16.01,-0.12,0.01,0.11,1721206803962
-2.04,4.98,14.47,-0.06,-0.14,0.20,1721206803972
0.23,2.07,9.28,-0.11,0.03,0.14,1721206803982
1.84,1.89,11.33,-0.02,-0.09,0.17,1721206803992
2.54,-2.46,8.36,-0.13,-0.03,0.03,1721206804002
-1.13,-0.61,13.48,-0.11,-0.18,-0.17,1721206804012
-1.93,4.16,12.62,0.12,-0.05,-0.18,1721206804022
-1.84,0.65,6.55,0.11,-0.14,0.14,1721206804032
-0.70,-0.19,9.19,-0.04,-0.02,0.25,1721206804042
2.16,-4.06,13.08,-0.05,-0.04,0.18,1721206804052
1.50,2.75,14.32,0.13,-0.16,-0.04,1721206804062
0.23,2.86,7.41,0.14,-0.17,-0.12,1721206804072
-1.99,-0.54,8.16,0.04,-0.17,-0.00,1721206804082
-1.04,-2.40,9.89,0.06,-0.07,0.25,1721206804092
2.13,-1.05,11.85,0.02,-0.06,0.17,1721206804102
2.24,1.50,9.25,0.18,-0.16,-0.08,1721206804112
1.11,-0.34,8.88,-0.01,-0.05,-0.25,1721206804122
-1.43,-5.33,8.44,0.04,-0.22,-0.13,1721206804132
-0.21,-0.19,12.55,0.13,0.15,-0.03,1721206804142
1.07,4.74,11.95,0.17,-0.07,-0.18,1721206804152
-0.40,0.33,7.32,-0.01,-0.14,-0.21,1721206804167
-1.50,-2.69,5.39,-0.14,-0.07,-0.17,1721206804171
-0.51,-8.37,13.58,-0.24,0.04,-0.08,1721206804181
0.23,-0.93,15.95,0.07,-0.11,-0.06,1721206804191
0.32,3.87,11.67,0.12,-0.07,-0.23,1721206804201
-0.21,3.77,6.27,0.17,-0.11,-0.19,1721206804211
0.18,3.32,6.52,0.01,0.04,-0.20,1721206804221
0.93,-2.53,9.62,-0.07,-0.04,-0.22,1721206804231
1.32,0.40,15.77,-0.00,0.13,-0.36,1721206804241
-0.25,3.34,11.45,0.27,-0.15,-0.42,1721206804251
-1.87,4.19,6.50,0.16,0.06,-0.32,1721206804261
-1.18,0.95,8.29,0.11,-0.07,-0.18,1721206804271
0.35,2.24,15.10,0.03,0.09,-0.17,1721206804281
0.87,2.12,13.87,0.14,-0.02,-0.37,1721206804291
-1.98,3.42,6.75,0.20,-0.07,-0.46,1721206804301
-2.99,-3.30,2.55,-0.01,0.08,-0.29,1721206804311
-3.31,2.50,11.72,0.09,0.03,-0.04,1721206804321
0.96,1.70,7.23,0.16,0.02,0.09,1721206804331
2.45,0.65,9.42,-0.01,0.07,-0.15,1721206804341
3.89,-1.27,12.79,0.00,0.19,-0.38,1721206804351
-0.59,-2.20,12.31,-0.06,-0.13,-0.58,1721206804361
-5.79,4.88,16.29,0.12,-0.06,-0.50,1721206804371
-5.39,1.22,6.15,0.15,0.06,-0.11,1721206804381
-3.73,-2.49,5.69,-0.17,0.04,0.20,1721206804391
1.02,-2.29,11.67,-0.11,0.13,0.12,1721206804401
2.92,1.19,10.64,-0.02,-0.04,-0.26,1721206804411
-0.93,-0.45,8.01,-0.12,-0.09,-0.43,1721206804421
-2.13,-2.76,12.94,-0.08,0.08,-0.15,1721206804431
-1.81,0.87,7.75,-0.01,-0.01,0.06,1721206804441
-7.24,14.70,9.92,0.10,-0.02,-0.54,1721206804451
10.25,-11.73,6.15,0.01,0.41,0.59,1721206804461
-7.94,6.89,6.49,-0.17,-0.36,0.08,1721206804471
0.19,-2.91,6.75,-0.37,0.14,-0.42,1721206804481
4.43,-2.33,17.14,-0.14,-0.25,-0.32,1721206804491
2.44,2.07,11.93,0.07,-0.06,0.07,1721206804501
-1.55,7.41,8.14,0.00,0.00,0.06,1721206804511
-3.49,6.18,7.89,-0.10,0.18,-0.27,1721206804521
-2.07,-10.33,4.58,-0.39,-0.26,-0.12,1721206804531
-2.98,-5.64,19.94,-0.31,0.15,0.09,1721206804541
-1.01,-1.19,8.91,0.18,-0.18,0.23,1721206804551
2.72,3.22,3.27,-0.01,0.11,0.17,1721206804561
4.12,1.70,13.17,0.01,-0.19,0.06,1721206804571
0.79,3.02,13.76,0.01,-0.03,-0.18,1721206804581
-0.56,0.66,15.55,0.06,-0.09,-0.20,1721206804591
-0.77,-4.55,10.45,0.07,0.02,0.01,1721206804601
-2.10,5.76,9.67,0.30,-0.16,0.15,1721206804611
1.34,8.33,7.55,0.21,0.10,0.09,1721206804621
2.92,-3.90,8.44,0.12,-0.14,0.02,1721206804631
2.26,-5.77,8.90,0.06,0.02,-0.12,1721206804641
1.04,3.95,12.81,0.18,0.00,-0.17,1721206804651
-0.17,5.49,14.18,0.21,-0.00,-0.01,1721206804661
0.52,0.77,8.41,0.24,-0.01,0.08,1721206804671
2.98,-5.38,5.19,0.09,0.07,0.09,1721206804681
2.78,2.46,7.11,0.22,0.03,-0.14,1721206804691
2.44,-1.29,6.83,-0.15,0.13,-0.21,1721206804701
-0.84,-2.21,24.27,-0.07,-0.01,-0.14,1721206804711
-1.53,-2.21,18.39,0.47,-0.01,-0.11,1721206804721
1.49,2.32,12.82,0.38,0.17,-0.02,1721206804731
1.55,9.33,8.96,0.21,0.06,-0.13,1721206804741
0.99,4.85,9.44,0.10,0.22,-0.48,1721206804751
0.45,-5.10,0.77,0.07,0.02,-0.37,1721206804761
-2.58,0.08,-0.34,-0.02,0.13,-0.12,1721206804771
-0.27,-0.28,9.33,-0.24,0.37,-0.09,1721206804781
-2.95,-7.76,18.60,-0.06,-0.01,-0.47,1721206804791
-8.38,12.99,10.53,0.35,-0.51,-0.31,1721206804801
-5.11,0.37,-3.49,-0.22,0.57,0.32,1721206804811
2.15,-4.60,18.58,-0.55,0.02,1.08,1721206804821
15.73,-2.95,25.06,-0.04,0.55,0.21,1721206804831
13.10,4.48,11.88,0.36,-0.39,-0.88,1721206804841
2.38,5.08,-6.50,0.03,-0.13,-1.70,1721206804851
-9.70,-6.27,7.38,-0.50,-0.02,-1.40,1721206804861
-15.44,-6.78,16.97,-0.19,0.12,-0.21,1721206804871
-9.98,-2.84,14.61,-0.01,0.18,0.64,1721206804881
0.21,5.67,6.51,0.16,0.17,0.59,1721206804891
6.86,-0.04,3.02,-0.13,0.17,0.16,1721206804901
7.24,-1.07,13.62,-0.19,0.12,-0.27,1721206804911
3.80,1.10,11.88,0.02,-0.01,-0.67,1721206804921
-2.14,0.88,5.78,-0.13,0.06,-0.73,1721206804931
-6.68,-3.87,11.65,-0.24,-0.06,-0.19,1721206804941
-4.60,0.09,15.93,-0.05,0.19,0.10,1721206804951
2.55,1.56,14.59,-0.03,0.32,0.10,1721206804961
2.50,2.62,9.58,0.01,-0.08,-0.05,1721206804971
1.29,3.08,7.93,0.07,0.20,-0.36,1721206804981
-0.61,0.21,9.08,0.09,0.07,-0.38,1721206804991
-3.76,5.26,11.94,0.24,-0.06,-0.18,1721206805001
-2.06,1.65,8.65,0.13,0.12,-0.00,1721206805011
-0.99,2.85,15.39,0.08,0.07,0.03,1721206805021
0.41,-0.05,8.84,0.12,0.03,-0.03,1721206805031
1.17,-3.50,8.62,0.05,0.19,-0.15,1721206805041
0.06,0.60,11.85,0.27,0.10,-0.27,1721206805051
-1.41,3.22,8.71,0.27,0.07,-0.22,1721206805061
-1.47,2.96,8.79,0.30,0.13,-0.09,1721206805071
-1.18,-3.49,6.77,0.11,0.06,-0.00,1721206805081
0.69,-2.30,10.22,0.19,0.22,-0.03,1721206805091
1.68,-2.46,6.05,0.18,0.05,-0.17,1721206805101
-1.32,1.51,9.49,0.06,0.09,-0.28,1721206805111
-2.25,3.63,11.74,0.15,0.17,-0.28,1721206805121
-0.79,-2.78,9.75,-0.11,0.06,-0.03,1721206805131
-0.65,-3.80,8.72,-0.16,0.12,0.04,1721206805141
1.90,-0.03,11.98,-0.14,0.26,-0.11,1721206805151
1.12,-2.56,10.21,-0.06,-0.12,-0.20,1721206805161
-1.62,1.40,9.50,-0.03,0.22,-0.30,1721206805171
-1.50,-0.37,7.02,-0.03,0.05,-0.17,1721206805181
-1.06,0.09,5.60,-0.13,0.11,-0.06,1721206805191
2.89,-2.09,13.75,-0.29,0.41,-0.13,1721206805201
1.62,1.54,21.06,-0.08,0.04,-0.26,1721206805211
-2.10,-2.88,8.54,-0.03,-0.16,-0.40,1721206805221
-4.79,0.77,15.50,-0.02,0.22,-0.27,1721206805231
-2.69,8.59,13.08,0.24,0.15,-0.03,1721206805241
-2.12,3.35,1.27,-0.07,-0.12,0.11,1721206805251
-0.77,-0.43,11.76,-0.29,0.27,0.03,1721206805261
0.89,-1.38,12.58,0.02,0.02,-0.10,1721206805271
-1.30,3.73,5.80,0.05,0.08,-0.14,1721206805281
-0.50,2.77,6.32,-0.02,0.11,0.03,1721206805291
-0.26,-0.01,4.69,0.06,-0.00,0.22,1721206805301
3.73,0.65,16.18,-0.13,0.45,-0.02,1721206805311
2.59,2.58,25.93,-0.03,-0.08,-0.23,1721206805321
-4.05,2.55,10.67,0.02,-0.17,-0.41,1721206805331
-6.83,-1.97,7.34,-0.21,0.13,-0.19,1721206805341
-5.96,-1.05,10.19,0.01,-0.04,0.43,1721206805351
-0.23,-2.29,4.99,0.06,0.12,0.66,1721206805361
3.09,0.78,10.88,0.10,0.04,0.37,1721206805371
5.26,2.51,13.03,-0.01,0.11,-0.07,1721206805381
1.84,2.83,12.07,-0.04,-0.12,-0.27,1721206805391
-2.63,-2.72,8.71,-0.05,-0.07,-0.19,1721206805401
-3.69,0.65,10.61,0.09,-0.01,0.13,1721206805411
-1.23,1.49,2.61,0.20,-0.04,0.34,1721206805421
1.33,3.32,8.38,-0.11,0.14,0.21,1721206805431
0.75,0.07,13.81,-0.18,-0.17,0.01,1721206805441
-1.35,-2.53,10.94,-0.21,-0.10,-0.09,1721206805451
-1.80,-0.71,9.30,-0.14,-0.01,0.02,1721206805461
-2.06,-1.32,9.85,-0.08,-0.06,0.20,1721206805471
-1.37,0.02,5.09,0.07,-0.15,0.34,1721206805481
0.76,1.94,3.70,0.05,-0.08,0.25,1721206805491
3.33,1.09,8.74,-0.14,0.07,0.10,1721206805501
1.38,-4.27,14.22,-0.23,-0.19,-0.07,1721206805511
-2.52,-7.04,19.84,-0.33,-0.16,-0.10,1721206805521
-2.58,3.28,20.73,0.07,-0.16,0.11,1721206805531
0.11,8.49,2.04,0.23,-0.15,0.33,1721206805541
3.54,0.34,-2.57,-0.13,0.04,0.29,1721206805551
2.87,-6.10,15.50,-0.23,0.03,-0.09,1721206805561
-0.41,-1.34,19.12,0.18,-0.26,-0.22,1721206805571
-0.78,0.60,5.15,0.11,-0.15,-0.03,1721206805581
-0.61,0.81,10.03,-0.03,-0.09,0.22,1721206805591
2.94,2.92,13.88,0.11,0.02,0.24,1721206805601
4.04,-3.09,7.27,0.05,-0.05,0.01,1721206805611
2.45,-2.84,12.91,0.08,0.02,-0.27,1721206805621
-0.59,0.23,17.13,0.11,-0.10,-0.32,1721206805631
-3.18,8.77,18.09,0.35,-0.13,0.01,1721206805641
-0.31,2.35,3.45,0.23,0.03,0.35,1721206805651
3.56,-3.97,3.58,-0.17,0.14,0.21,1721206805661
4.88,4.30,23.34,0.23,0.03,-0.13,1721206805671
2.89,-2.29,5.20,0.33,-0.22,-0.34,1721206805681
-1.88,-1.55,0.41,-0.07,0.06,-0.47,1721206805691
-1.54,-1.26,16.64,0.07,0.04,-0.05,1721206805701
-1.54,4.51,16.07,0.36,0.07,0.04,1721206805711
-0.32,3.11,4.54,0.31,-0.06,-0.07,1721206805721
0.43,-1.71,2.56,-0.04,0.09,-0.00,1721206805731
0.62,-1.06,19.25,-0.15,0.23,-0.09,1721206805741
0.56,3.26,14.43,0.45,-0.11,-0.15,1721206805751
0.98,-3.71,-1.08,0.07,0.04,-0.11,1721206805761
-1.18,-0.07,6.20,-0.16,0.04,-0.10,1721206805771
-0.65,2.35,9.20,0.06,0.12,-0.14,1721206805781
0.92,-0.54,9.25,-0.10,0.14,-0.15,1721206805791
-1.04,2.27,19.71,0.04,0.02,-0.18,1721206805801
-1.39,0.46,4.42,0.12,-0.11,-0.09,1721206805811
-0.79,0.21,0.06,-0.27,0.09,0.04,1721206805821
0.96,-3.14,12.76,-0.51,0.15,-0.12,1721206805831
-0.81,-2.32,23.28,-0.07,-0.05,-0.26,1721206805841
-2.27,0.26,8.14,0.33,-0.10,-0.14,1721206805851
0.06,5.67,3.24,-0.20,0.16,0.06,1721206805861
2.31,4.09,19.43,-0.43,0.03,0.07,1721206805871
2.13,-3.00,10.52,-0.11,-0.18,-0.21,1721206805881
1.17,-7.59,-2.26,-0.25,-0.02,-0.41,1721206805891
-2.04,-2.36,10.79,-0.31,0.14,-0.33,1721206805901
-1.45,2.92,16.08,-0.08,0.02,-0.14,1721206805911
-2.07,4.40,8.65,0.01,-0.07,-0.14,1721206805921
-1.20,-0.67,9.00,-0.30,0.11,-0.10,1721206805931
-0.30,2.32,20.99,-0.37,-0.07,0.16,1721206805941
1.93,4.12,12.88,-0.12,-0.02,0.11,1721206805951
3.74,-4.29,0.16,-0.34,-0.02,-0.20,1721206805961
-0.55,-3.41,8.76,-0.42,0.08,-0.44,1721206805971
-1.86,0.33,14.05,-0.03,0.04,-0.26,1721206805981
-3.76,2.04,9.33,-0.02,-0.03,-0.07,1721206805991
-2.38,1.16,12.96,-0.06,0.05,0.09,1721206806001
1.81,0.64,13.40,-0.00,0.06,0.26,1721206806011
4.24,9.45,11.17,0.20,0.07,0.14,1721206806021
4.87,3.60,3.61,0.13,-0.01,-0.27,1721206806031
0.72,-5.82,7.10,-0.20,0.05,-0.52,1721206806041
-2.96,-5.46,20.42,-0.03,-0.05,-0.33,1721206806051
-3.90,0.82,15.38,0.29,-0.02,-0.12,1721206806061
-2.62,11.20,11.74,0.32,0.13,-0.10,1721206806071
-0.06,6.44,5.75,0.48,-0.08,0.14,1721206806081
0.49,-10.33,-3.84,0.08,-0.04,0.11,1721206806091
4.85,-3.92,16.23,0.02,0.67,-0.26,1721206806101
4.87,8.52,23.53,0.48,0.06,-0.59,1721206806111
-4.25,3.68,2.06,0.28,-0.45,-0.50,1721206806121
-5.95,-2.53,9.96,-0.05,0.35,-0.08,1721206806131
0.39,-4.83,25.10,0.02,0.33,0.09,1721206806141
1.48,-1.75,11.41,0.41,-0.19,0.00,1721206806151
2.54,1.97,-1.97,0.29,0.24,-0.34,1721206806161
-2.33,2.46,10.94,0.20,-0.06,-0.44,1721206806176
-0.84,-1.60,12.22,0.19,-0.01,-0.29,1721206806180
-2.28,-3.86,11.16,0.18,0.19,-0.19,1721206806190
-1.74,-0.94,4.80,0.22,0.13,-0.27,1721206806200
-1.83,6.41,7.77,0.17,0.15,-0.16,1721206806210
-0.36,-1.84,10.91,-0.07,0.16,-0.13,1721206806219
-0.69,-4.77,17.49,0.11,0.06,-0.19,1721206806229
0.36,0.21,8.02,0.26,0.09,-0.27,1721206806239
-0.58,8.64,8.52,0.17,0.18,-0.38,1721206806249
-2.37,5.75,2.75,0.09,-0.04,-0.20,1721206806259
-2.98,-4.12,3.42,-0.24,0.08,-0.09,1721206806269
-0.37,-6.60,13.78,-0.11,0.24,-0.10,1721206806279
0.86,0.29,9.88,0.14,0.08,-0.16,1721206806289
0.99,4.34,9.06,-0.13,0.18,-0.23,1721206806299
0.49,-0.34,13.28,-0.02,0.06,-0.13,1721206806309
1.19,-0.43,11.27,0.09,0.17,-0.08,1721206806319
2.30,-0.13,13.81,-0.09,0.17,-0.20,1721206806329
-0.39,6.08,16.16,0.12,0.02,-0.34,1721206806339
-1.53,4.65,3.14,0.04,0.11,-0.28,1721206806349
-4.32,-2.02,2.77,-0.24,0.05,-0.07,1721206806359
-2.55,-0.71,14.78,-0.14,0.32,0.00,1721206806369
0.06,0.53,12.99,0.14,0.05,0.04,1721206806379
-0.74,1.99,5.10,-0.06,0.05,-0.03,1721206806389
-2.32,3.32,10.76,-0.14,-0.00,-0.01,1721206806399
-1.04,-1.06,11.80,-0.10,0.11,0.15,1721206806409
1.28,-3.29,9.20,-0.03,0.11,0.06,1721206806419
-0.07,2.11,8.90,-0.10,0.06,-0.11,1721206806429
-3.05,1.91,7.68,-0.15,-0.07,-0.08,1721206806439
-3.59,-4.59,11.19,-0.34,0.10,0.20,1721206806449
0.31,-4.08,20.70,-0.15,0.17,0.32,1721206806459
2.94,5.32,16.00,0.09,-0.01,0.12,1721206806469
0.88,3.50,3.11,-0.15,-0.18,-0.06,1721206806479
-2.09,1.84,8.54,-0.27,0.16,-0.06,1721206806489
-0.35,-4.21,9.00,-0.14,0.02,0.16,1721206806499
-0.62,-5.14,0.82,-0.04,-0.15,0.23,1721206806509
2.32,1.70,11.85,-0.16,0.35,0.09,1721206806519
2.56,1.05,18.91,-0.15,-0.11,-0.01,1721206806529
-2.13,2.62,12.98,-0.04,-0.20,-0.06,1721206806539
-0.53,-2.57,4.39,-0.15,0.10,0.03,1721206806549
-0.20,-0.98,10.12,-0.14,0.02,0.15,1721206806559
0.42,1.45,12.80,-0.07,0.09,0.01,1721206806569
-0.84,1.98,12.67,-0.03,-0.09,-0.10,1721206806579
-1.07,-1.06,10.75,-0.14,0.02,0.03,1721206806589
0.16,0.37,11.73,-0.11,0.04,0.11,1721206806599
1.74,0.89,8.78,-0.03,-0.01,0.14,1721206806609
1.24,-0.62,11.55,-0.01,0.03,-0.05,1721206806619
0.42,2.93,11.41,0.13,-0.02,-0.13,1721206806629
-0.47,3.20,11.60,0.02,0.05,-0.16,1721206806639
-0.57,-2.07,7.22,0.10,-0.09,0.02,1721206806649
0.55,-0.87,6.80,0.03,0.16,-0.02,1721206806659
1.07,-2.27,15.62,0.12,-0.01,-0.02,1721206806669
0.27,3.90,13.60,0.30,-0.02,0.00,1721206806679
1.43,2.72,6.05,0.08,0.10,-0.06,1721206806689
1.13,-2.49,12.20,-0.10,0.05,-0.12,1721206806699
-0.62,-1.85,13.60,0.10,-0.01,-0.14,1721206806709
-0.30,1.97,6.84,0.24,0.12,-0.01,1721206806719
1.33,-1.12,6.71,0.13,0.12,0.07,1721206806729
1.87,2.41,13.15,0.09,0.11,-0.09,1721206806739
1.38,1.88,12.93,0.16,0.09,-0.19,1721206806749
0.02,-4.30,8.34,-0.02,0.11,-0.17,1721206806759
-1.83,4.54,13.39,0.11,0.06,0.04,1721206806769
1.25,0.27,11.11,0.07,0.24,0.16,1721206806779
2.86,-1.90,8.53,0.14,0.12,-0.00,1721206806789
1.75,-3.85,6.28,0.08,0.18,-0.27,1721206806799
-1.56,3.62,14.14,0.23,0.10,-0.23,1721206806809
-1.78,3.90,8.03,0.28,0.14,-0.00,1721206806819
-0.62,-0.45,8.22,0.07,0.19,0.03,1721206806829
-0.11,-2.51,10.84,0.07,0.15,-0.00,1721206806839
1.28,2.53,8.24,0.13,0.19,0.03,1721206806849
1.87,2.49,8.95,-0.06,0.22,-0.18,1721206806859
-1.08,2.08,10.02,0.08,-0.02,-0.24,1721206806869
-1.83,-4.05,9.16,-0.12,0.20,-0.10,1721206806879
-1.59,-0.71,17.75,-0.01,0.16,0.05,1721206806889
0.35,8.09,10.01,0.25,0.08,-0.02,1721206806899
0.31,0.33,-1.66,-0.19,0.00,-0.05,1721206806909
-2.16,-0.57,11.77,-0.24,0.11,-0.10,1721206806919
-0.30,-1.81,16.39,0.03,0.18,-0.12,1721206806929
-1.78,3.53,10.79,0.08,-0.07,-0.06,1721206806939
-1.11,4.27,5.64,-0.12,0.08,0.07,1721206806949
0.86,-1.85,10.82,-0.27,0.18,0.04,1721206806959
1.02,-2.14,15.31,-0.02,0.06,-0.07,1721206806969
0.10,0.76,7.89,0.07,-0.01,-0.19,1721206806979
-1.67,4.89,8.65,-0.02,0.08,-0.16,1721206806989
-2.61,1.99,6.35,-0.04,-0.08,0.11,1721206806999
-1.13,-2.65,5.70,-0.13,0.13,0.15,1721206807009
2.41,-6.17,11.64,-0.16,0.13,0.12,1721206807019
1.38,0.74,14.06,-0.06,-0.10,0.02,1721206807029
-0.08,4.27,11.70,-0.00,0.07,-0.16,1721206807039
-1.12,1.16,4.73,0.02,-0.07,-0.08,1721206807049
-1.06,-2.92,6.17,-0.16,0.12,0.14,1721206807059
2.16,-2.04,17.88,-0.06,0.17,0.21,1721206807069
2.11,3.49,11.10,0.21,-0.15,0.03,1721206807079
0.98,1.02,4.53,-0.11,0.06,-0.20,1721206807089
-1.79,1.72,15.29,-0.16,-0.03,-0.19,1721206807099
-1.87,-0.12,12.73,0.05,-0.03,0.07,1721206807109
-0.65,-0.58,6.36,0.00,0.11,0.07,1721206807119
0.48,-1.54,9.53,-0.05,0.08,0.04,1721206807129
-0.09,1.85,19.44,-0.03,-0.03,0.06,1721206807139
-0.99,8.76,12.33,0.32,-0.06,0.00,1721206807149
-0.48,-4.28,1.04,0.02,-0.06,0.03,1721206807159
-1.78,-2.04,11.82,-0.01,0.11,0.09,1721206807169
2.78,2.76,11.91,0.25,0.18,0.02,1721206807179
1.08,-2.88,11.77,0.02,-0.12,-0.13,1721206807189
-2.63,-0.37,10.30,0.25,-0.02,-0.20,1721206807199
-1.46,5.22,9.73,0.27,0.23,0.02,1721206807209
-0.16,1.74,11.61,0.07,-0.14,0.13,1721206807219
-0.60,-1.17,6.84,0.13,-0.07,-0.05,1721206807229
1.46,-4.52,9.16,0.02,0.11,-0.04,1721206807239
-1.02,0.20,6.74,0.12,-0.18,-0.09,1721206807249
-1.09,1.08,11.39,-0.07,0.15,-0.14,1721206807259
-0.92,-0.28,12.99,0.08,-0.10,-0.07,1721206807269
-0.93,-0.91,8.80,0.07,0.00,0.03,1721206807279
0.65,-2.06,9.04,-0.05,0.03,-0.04,1721206807289
-0.16,3.08,12.38,0.09,-0.03,-0.18,1721206807299
-0.76,3.27,8.62,0.11,-0.05,-0.16,1721206807309
-2.10,-2.04,6.98,-0.04,-0.07,-0.05,1721206807319
-0.27,-1.62,12.81,0.02,0.13,0.05,1721206807329
1.79,3.07,12.18,0.11,-0.02,0.05,1721206807339
1.97,4.89,9.36,-0.01,0.00,-0.12,1721206807349
1.30,0.16,8.86,0.01,-0.03,-0.20,1721206807359
-0.49,-0.26,8.17,0.01,0.01,-0.19,1721206807369
-1.31,1.51,11.58,-0.05,0.06,-0.18,1721206807379
-1.60,4.18,8.92,0.16,-0.04,0.01,1721206807389
0.56,-0.88,4.90,-0.12,0.15,0.06,1721206807399
1.08,0.20,16.18,-0.14,0.05,-0.01,1721206807409
0.63,4.03,15.73,0.10,0.01,-0.14,1721206807419
-0.88,1.42,8.52,-0.03,-0.03,-0.19,1721206807429
-3.52,0.59,8.31,-0.11,0.01,-0.11,1721206807439
-2.83,-0.30,7.20,-0.01,0.05,0.04,1721206807449
-0.65,-1.43,5.98,-0.06,0.04,0.14,1721206807459
0.74,-0.34,9.19,-0.02,0.07,0.08,1721206807469
2.31,0.40,9.43,0.08,0.03,-0.06,1721206807479
1.14,1.00,8.10,-0.08,0.03,-0.16,1721206807489
-1.87,2.31,16.70,-0.19,-0.04,-0.14,1721206807499
-2.83,-0.30,13.08,-0.05,-0.06,-0.05,1721206807509
-2.68,-4.61,0.65,-0.14,-0.04,0.02,1721206807519
-0.99,-5.42,9.81,-0.36,0.23,0.12,1721206807529
-0.67,2.49,17.98,-0.06,-0.08,0.21,1721206807539
1.07,1.56,9.33,0.03,-0.10,0.12,1721206807549
1.65,-0.19,6.37,-0.08,-0.07,0.08,1721206807559
1.23,2.10,10.56,-0.13,0.07,-0.01,1721206807569
-0.02,-1.71,13.48,-0.27,-0.07,-0.12,1721206807579
-3.23,1.63,13.33,-0.04,-0.15,-0.03,1721206807589
-2.97,-1.69,3.78,-0.02,-0.04,0.22,1721206807599
-0.61,-5.01,11.41,-0.25,0.09,0.34,1721206807609
0.88,4.32,19.10,0.01,-0.04,0.21,1721206807619
2.26,6.43,9.77,0.16,-0.18,0.10,1721206807629
0.74,-0.11,5.74,0.00,-0.08,0.05,1721206807639
0.23,-3.68,11.97,0.00,-0.02,0.04,1721206807649
-1.69,0.46,11.71,0.17,-0.16,-0.04,1721206807659
-1.34,4.86,9.09,0.22,-0.06,0.09,1721206807669
0.17,-2.30,4.70,0.16,-0.13,0.26,1721206807679
1.27,-2.13,12.22,0.07,0.02,0.21,1721206807689
3.11,-2.56,16.23,0.13,-0.01,0.00,1721206807699
-0.01,5.12,13.35,0.37,-0.28,-0.06,1721206807709
-0.30,3.74,5.07,0.26,-0.04,0.02,1721206807719
0.55,-0.98,8.56,0.20,-0.04,0.12,1721206807729
1.98,-1.06,7.44,0.22,-0.01,0.14,1721206807739
2.76,-1.35,9.16,0.15,-0.01,0.01,1721206807749
1.42,0.96,12.87,0.09,-0.06,-0.10,1721206807759
0.78,0.21,12.04,0.04,-0.06,-0.10,1721206807769
0.33,-2.30,11.49,0.02,-0.00,0.04,1721206807779
1.04,-1.14,11.02,0.09,0.06,-0.01,1721206807789
1.39,2.88,6.73,0.26,-0.03,-0.05,1721206807799
1.40,-0.17,5.17,0.01,0.11,-0.06,1721206807809
0.27,-0.70,17.86,-0.04,0.03,-0.15,1721206807819
-0.33,-2.01,10.59,0.22,-0.04,-0.08,1721206807829
0.27,-0.98,3.39,0.07,0.11,-0.02,1721206807839
-0.57,1.12,10.06,0.04,0.05,-0.08,1721206807849
-0.58,3.04,10.95,0.17,0.04,-0.08,1721206807859
0.72,2.17,7.54,0.17,0.11,-0.08,1721206807869
1.01,-1.95,7.34,-0.06,0.06,-0.19,1721206807879
0.06,1.79,14.21,-0.12,0.01,-0.13,1721206807889
0.23,1.72,8.83,-0.08,0.04,-0.14,1721206807899
-0.44,-5.62,3.42,-0.23,0.00,-0.28,1721206807909
-2.30,-1.78,11.67,-0.07,0.14,-0.25,1721206807919
-1.13,2.62,13.47,-0.03,0.07,-0.17,1721206807929
-1.85,3.87,18.00,-0.12,-0.05,-0.12,1721206807939
-1.72,2.63,9.52,-0.06,-0.03,0.02,1721206807949
1.12,-5.03,6.16,-0.50,0.15,0.00,1721206807959
1.01,-0.24,16.05,-0.21,-0.08,-0.13,1721206807969
1.50,1.97,2.88,0.03,-0.06,-0.21,1721206807979
0.47,1.71,9.56,-0.28,0.18,-0.30,1721206807989
-1.97,-1.06,16.63,-0.18,-0.02,-0.20,1721206807999
-2.25,2.43,11.80,-0.09,-0.04,0.09,1721206808009
2.06,0.58,7.19,-0.25,0.14,0.12,1721206808019
3.17,0.30,7.75,-0.22,-0.06,-0.15,1721206808029
1.30,-1.60,5.76,-0.21,-0.07,-0.32,1721206808039
-2.48,-4.66,8.06,-0.32,-0.01,-0.29,1721206808049
-2.29,-3.88,22.44,-0.44,0.13,-0.08,1721206808059
-0.30,7.82,21.47,-0.01,0.07,-0.04,1721206808069
1.12,1.33,2.17,-0.08,-0.11,0.00,1721206808079
0.36,-1.97,7.65,-0.24,0.16,-0.09,1721206808089
1.50,2.53,8.42,0.21,0.00,-0.15,1721206808099
1.42,-0.83,3.89,-0.07,0.06,-0.21,1721206808109
-2.23,0.78,18.73,-0.15,0.00,-0.31,1721206808119
2.60,6.50,9.01,0.15,0.00,0.01,1721206808648
3.73,4.50,6.68,0.13,-0.00,-0.11,1721206808653
1.60,1.10,5.32,-0.03,0.03,-0.33,1721206808662
-1.18,-3.85,11.95,-0.11,0.06,-0.34,1721206808672
-2.55,1.39,18.21,0.04,0.00,-0.17,1721206808682
-0.63,0.73,8.46,0.14,-0.00,0.07,1721206808692
1.53,-0.12,10.56,-0.03,0.09,0.08,1721206808702
1.91,2.41,15.86,0.15,0.05,-0.02,1721206808712
2.03,-0.34,7.96,0.13,0.03,-0.27,1721206808722
-0.68,-1.20,8.79,0.17,0.05,-0.38,1721206808732
-1.33,0.34,10.56,0.31,0.08,-0.19,1721206808742
-2.43,1.79,7.77,0.31,0.05,0.05,1721206808752
-0.55,1.76,8.58,0.27,0.14,0.10,1721206808762
2.83,-0.11,9.00,0.21,0.15,-0.01,1721206808772
2.60,1.48,18.72,0.14,0.12,-0.24,1721206808782
0.06,3.64,12.64,0.38,-0.13,-0.22,1721206808792
0.15,-3.03,0.95,0.15,0.22,-0.20,1721206808802
-0.11,0.83,10.34,0.10,0.17,-0.16,1721206808812
-0.22,-0.72,8.98,0.25,0.04,-0.08,1721206808822
-0.50,-0.89,6.44,0.14,0.14,-0.12,1721206808832
0.40,-1.34,10.73,0.12,0.20,-0.11,1721206808842
0.37,1.12,13.23,0.10,0.12,-0.04,1721206808852
-0.45,0.69,11.59,0.13,0.11,-0.13,1721206808862
-1.39,-3.81,8.55,0.14,0.08,-0.17,1721206808872
-1.77,-0.23,11.52,0.07,0.16,-0.02,1721206808882
-0.11,2.17,10.35,0.17,0.11,0.00,1721206808892
0.92,-0.99,7.01,0.00,0.13,-0.05,1721206808902
0.83,1.23,12.22,0.04,0.19,-0.08,1721206808912
0.53,3.16,3.15,0.14,-0.01,-0.11,1721206808922
0.75,-1.03,3.48,-0.22,0.26,-0.18,1721206808932
-0.44,-2.62,13.41,-0.17,0.09,-0.23,1721206808942
-2.48,2.91,14.39,-0.04,0.03,-0.19,1721206808952
-1.80,2.14,10.86,-0.06,0.15,-0.08,1721206808962
-0.62,-2.27,12.03,-0.34,0.13,-0.05,1721206808972
-1.01,5.85,17.82,0.01,0.03,-0.04,1721206808982
0.72,2.19,-0.41,0.02,-0.05,-0.02,1721206808992
-0.63,-3.83,4.86,-0.44,0.16,-0.12,1721206809002
0.11,-1.61,16.75,-0.07,0.15,-0.20,1721206809012
-0.82,5.23,8.54,0.13,-0.06,-0.05,1721206809022
-1.68,2.18,10.47,-0.29,0.22,-0.02,1721206809032
0.06,-1.30,16.44,-0.19,0.06,-0.05,1721206809042
0.66,-2.29,5.58,-0.09,-0.05,0.03,1721206809052
1.48,-2.66,6.65,-0.25,0.14,-0.02,1721206809062
0.63,-1.51,14.55,-0.15,0.04,-0.18,1721206809072
-2.37,3.96,12.56,0.08,-0.07,-0.23,1721206809082
-3.61,0.04,2.04,-0.08,0.03,0.04,1721206809092
0.25,-4.24,12.52,-0.34,0.32,0.21,1721206809102
4.17,-0.02,16.58,-0.09,0.06,0.18,1721206809112
2.84,5.95,8.63,0.06,-0.07,-0.09,1721206809122
1.17,-0.56,5.98,-0.23,0.07,-0.30,1721206809132
-3.43,-4.65,14.48,-0.24,-0.14,-0.18,1721206809142
-2.26,1.43,11.33,0.08,0.07,0.06,1721206809152
0.71,4.00,8.21,-0.03,0.12,0.08,1721206809162
-0.67,1.00,12.97,-0.12,-0.00,-0.02,1721206809172
-1.08,-3.12,12.09,0.06,0.06,-0.04,1721206809182
0.16,3.85,9.35,0.26,0.07,0.06,1721206809192
1.13,3.70,9.25,0.03,0.06,0.02,1721206809202
-1.27,0.62,16.02,-0.01,-0.13,-0.10,1721206809212
-2.06,0.20,12.29,0.32,-0.01,0.02,1721206809222
-1.04,-0.75,4.80,0.21,-0.03,0.11,1721206809232
-0.37,4.00,9.37,0.29,0.05,0.04,1721206809242
2.08,-0.90,8.70,0.17,-0.05,-0.04,1721206809252
-1.93,1.44,11.62,0.14,-0.07,-0.15,1721206809262
-1.66,-1.41,8.89,0.22,-0.04,-0.07,1721206809272
-0.43,-1.13,7.18,0.06,0.03,0.07,1721206809282
1.36,2.80,13.16,0.11,0.09,0.01,1721206809292
0.79,-3.02,7.88,0.07,-0.14,-0.11,1721206809302
-1.83,-3.25,9.84,0.01,-0.01,-0.21,1721206809312
0.08,-0.32,14.67,0.11,0.10,-0.03,1721206809322
-0.33,6.18,11.46,0.20,-0.17,-0.04,1721206809332
-0.08,-0.53,5.69,0.05,-0.00,-0.16,1721206809342
-1.59,-4.87,8.76,-0.05,-0.07,-0.17,1721206809352
-2.33,4.83,12.31,0.25,-0.07,-0.03,1721206809362
-1.23,3.09,2.81,0.11,-0.12,0.07,1721206809372
-1.58,1.07,9.12,-0.20,-0.05,0.02,1721206809382
1.18,-3.04,13.35,-0.04,-0.03,0.05,1721206809392
1.16,-1.07,10.19,-0.02,-0.14,0.05,1721206809402
1.04,7.32,11.73,0.13,0.02,-0.08,1721206809412
2.22,-2.07,2.97,-0.12,-0.14,-0.02,1721206809422
0.90,-0.45,14.39,-0.23,0.13,-0.06,1721206809432
3.00,-1.52,17.37,0.15,0.02,-0.13,1721206809442
-0.32,2.31,7.08,0.15,-0.16,-0.28,1721206809452
-2.32,2.65,10.58,-0.02,0.06,-0.16,1721206809462
-2.29,4.41,14.94,0.19,-0.03,0.10,1721206809472
-0.22,2.15,6.24,0.10,0.03,0.08,1721206809482
0.97,-3.51,5.69,-0.11,-0.07,-0.02,1721206809492
-1.47,3.58,11.80,-0.03,-0.10,-0.08,1721206809502
0.03,0.69,11.78,-0.04,0.11,-0.06,1721206809512
-0.14,-0.47,9.09,0.12,-0.14,0.02,1721206809522
1.31,-0.10,1.21,0.00,0.04,-0.01,1721206809532
2.71,-2.20,7.94,-0.26,0.12,-0.20,1721206809542
-0.94,-0.15,16.16,-0.16,-0.05,-0.37,1721206809552
-3.46,-2.80,15.84,-0.08,0.01,-0.31,1721206809562
-5.00,1.14,11.73,-0.04,-0.14,0.01,1721206809572
-1.49,2.12,8.76,-0.25,0.15,0.09,1721206809582
1.74,-4.30,12.72,-0.29,0.02,0.03,1721206809592
-1.00,1.65,10.55,0.02,-0.15,-0.11,1721206809602
-0.80,2.33,3.08,0.05,0.05,-0.10,1721206809612
0.00,2.98,7.49,0.00,0.01,-0.01,1721206809622
1.25,1.57,10.44,-0.10,0.03,-0.05,1721206809632
-0.13,1.02,10.32,-0.16,-0.12,-0.11,1721206809642
0.19,-3.51,8.84,-0.24,0.07,-0.11,1721206809652
-0.79,-3.63,15.67,-0.21,-0.02,-0.10,1721206809662
-0.01,7.02,11.87,0.18,-0.08,0.04,1721206809672
2.15,-1.89,4.46,-0.11,0.07,0.06,1721206809682
0.59,-4.76,15.93,-0.24,-0.02,-0.11,1721206809692
-0.05,1.22,14.26,0.08,-0.02,-0.26,1721206809702
-0.37,4.83,10.02,0.12,-0.09,-0.06,1721206809712
-0.74,4.19,10.50,0.11,0.01,0.11,1721206809722
0.79,-2.85,6.11,-0.02,0.09,0.04,1721206809732
0.43,-4.96,10.33,-0.03,0.02,-0.21,1721206809742
0.54,-1.31,14.05,0.11,-0.03,-0.16,1721206809752
-1.47,3.82,11.17,0.27,-0.04,0.01,1721206809762
1.22,7.15,10.90,0.32,0.12,0.17,1721206809772
4.59,1.42,6.61,0.22,0.08,0.10,1721206809782
3.46,-4.65,7.49,0.01,0.10,-0.35,1721206809792
-0.49,1.47,15.33,0.03,0.06,-0.58,1721206809802
-4.07,4.49,13.75,0.19,-0.06,-0.14,1721206809812
-1.42,-5.16,10.51,0.02,0.19,0.30,1721206809822
3.52,-5.59,13.05,0.18,0.22,0.15,1721206809832
4.04,9.96,9.42,0.43,0.01,-0.19,1721206809842
2.65,3.10,10.27,0.02,0.24,-0.50,1721206809852
-2.72,-5.50,17.25,0.19,-0.02,-0.42,1721206809862
-4.15,-3.52,4.00,0.39,0.09,-0.05,1721206809872
-1.10,6.23,0.37,0.23,0.19,0.19,1721206809882
2.00,-0.04,8.41,-0.14,0.25,-0.13,1721206809892
-0.76,-4.54,16.38,0.06,-0.03,-0.35,1721206809902
-2.64,2.00,11.25,0.36,0.12,-0.18,1721206809912
-0.58,3.20,5.85,0.01,0.21,-0.01,1721206809922
-0.36,3.13,6.93,-0.02,0.02,-0.04,1721206809932
1.16,-0.75,6.18,-0.17,0.20,-0.18,1721206809942
-0.72,-7.09,12.34,-0.34,0.04,-0.26,1721206809952
-3.14,-3.00,16.58,-0.01,0.02,-0.21,1721206809962
-1.16,1.33,9.45,0.02,0.18,-0.07,1721206809972
1.11,3.44,7.55,-0.14,0.09,0.10,1721206809982
3.41,0.66,11.65,-0.20,0.29,-0.09,1721206809992
3.28,-3.16,16.13,-0.06,0.11,-0.39,1721206810002
-0.11,4.20,7.04,0.19,0.04,-0.33,1721206810012
0.09,0.99,2.98,-0.28,0.30,-0.19,1721206810022
-1.01,-1.63,18.43,-0.37,0.10,-0.25,1721206810032
-1.42,3.62,13.87,0.09,0.04,-0.20,1721206810042
-0.34,-1.36,-4.36,-0.09,0.12,-0.06,1721206810052
0.96,-4.47,10.71,-0.35,0.51,-0.21,1721206810062
0.34,2.30,22.86,-0.05,0.08,-0.18,1721206810072
-2.83,4.45,7.18,0.11,-0.08,-0.09,1721206810082
-1.07,-2.24,4.37,-0.19,0.30,-0.05,1721206810092
-0.23,-2.21,15.55,-0.18,0.08,0.13,1721206810102
1.38,5.49,14.56,0.10,0.15,0.21,1721206810112
2.34,-0.75,3.98,-0.11,0.00,-0.00,1721206810122
0.22,-5.15,9.50,-0.26,0.17,-0.28,1721206810132
0.49,-0.64,16.47,0.08,0.19,-0.20,1721206810142
-1.81,1.92,2.22,0.21,-0.03,0.04,1721206810152
1.59,0.59,10.52,-0.12,0.55,-0.06,1721206810162
0.31,2.44,21.10,0.22,0.01,-0.08,1721206810172
-1.99,6.29,3.32,0.39,-0.12,-0.06,1721206810182
-1.05,-5.21,0.67,-0.20,0.21,-0.02,1721206810192
-3.40,-2.70,21.96,-0.32,-0.09,-0.02,1721206810202
-2.97,4.56,14.00,0.33,-0.06,-0.08,1721206810212
-2.70,-7.83,-5.80,-0.10,-0.02,-0.14,1721206810222
-6.16,-9.87,22.55,-0.25,0.49,0.18,1721206810232
1.67,11.31,23.40,0.46,0.30,0.29,1721206810242
2.01,3.79,-0.37,0.19,-0.22,-0.05,1721206810252
-0.14,-4.84,13.88,-0.24,0.27,-0.26,1721206810262
1.21,-0.82,23.52,0.20,-0.04,0.14,1721206810272
-1.65,4.10,0.97,0.28,-0.29,0.03,1721206810282
-2.36,-2.12,4.43,-0.09,0.08,-0.15,1721206810292
-1.31,-4.80,19.97,-0.02,-0.07,0.10,1721206810302
-1.91,2.20,9.13,0.35,-0.14,0.22,1721206810312
0.54,6.26,4.45,0.11,0.21,-0.08,1721206810322
-0.32,-1.11,11.75,-0.08,-0.16,-0.03,1721206810332
-0.83,-2.73,14.06,0.04,0.15,0.04,1721206810342
-0.75,3.76,4.68,0.31,-0.16,-0.04,1721206810352
-2.07,-1.55,4.83,-0.07,-0.07,-0.01,1721206810362
-2.11,-1.62,22.58,-0.02,-0.04,0.30,1721206810372
0.98,3.16,11.91,0.35,-0.17,0.31,1721206810382
1.96,5.47,2.31,0.23,-0.09,0.04,1721206810392
3.59,1.86,7.94,-0.01,0.05,0.02,1721206810402
2.82,1.69,10.01,0.06,-0.13,-0.01,1721206810412
1.33,-0.02,3.48,-0.01,-0.02,-0.21,1721206810422
0.52,-3.77,14.62,-0.24,0.13,-0.21,1721206810432
-1.37,-0.34,24.23,0.02,-0.05,-0.11,1721206810442
-2.70,3.37,11.57,0.20,-0.24,0.01,1721206810452
-1.83,3.01,1.73,0.00,-0.02,0.13,1721206810462
1.04,0.23,6.37,-0.16,0.10,0.15,1721206810472
1.85,0.00,10.86,-0.08,-0.07,-0.00,1721206810482
-0.29,-1.18,4.70,-0.11,-0.18,-0.14,1721206810492
-2.83,-3.66,11.22,-0.28,0.03,-0.11,1721206810502
-0.62,-3.87,21.22,-0.19,0.09,0.14,1721206810512
1.34,4.08,14.31,0.15,-0.16,0.20,1721206810522
3.13,5.39,4.53,-0.08,0.04,0.03,1721206810532
1.69,1.16,8.47,-0.19,0.05,-0.34,1721206810542
-1.67,-4.39,10.01,-0.11,-0.11,-0.37,1721206810552
-4.75,-0.47,7.88,-0.10,-0.00,-0.17,1721206810562
-3.46,-0.30,8.10,-0.13,-0.11,0.21,1721206810572
0.13,-0.51,12.80,-0.18,0.10,0.36,1721206810582
3.07,0.14,13.60,-0.15,0.02,0.07,1721206810592
1.85,1.66,11.25,-0.08,-0.13,-0.24,1721206810602
-0.18,0.01,7.82,-0.14,-0.01,-0.25,1721206810612
-3.42,-1.66,10.25,-0.15,-0.05,-0.09,1721206810622
-1.89,0.41,11.92,0.04,0.03,0.13,1721206810632
1.05,0.96,6.84,0.07,-0.11,0.24,1721206810642
3.26,0.28,13.13,-0.10,-0.09,-0.08,1721206810657
3.09,-0.18,14.29,-0.03,-0.02,-0.14,1721206810661
-0.09,-1.08,12.35,-0.01,-0.10,-0.29,1721206810671
-2.11,-0.64,11.38,0.08,-0.06,-0.18,1721206810681
-1.36,2.91,10.15,0.25,-0.01,0.07,1721206810691
1.28,2.05,7.82,0.12,0.12,0.17,1721206810701
1.17,0.52,10.42,0.06,0.00,-0.05,1721206810711
-0.53,-1.70,11.95,0.05,-0.06,-0.23,1721206810721
-0.02,1.09,9.79,0.17,-0.01,-0.03,1721206810731
0.48,-0.35,8.22,0.09,0.07,0.08,1721206810741
0.11,-0.64,14.44,0.11,-0.05,0.07,1721206810751
2.58,1.70,11.44,0.21,0.08,0.01,1721206810761
2.49,4.14,8.86,0.18,0.02,-0.19,1721206810771
0.30,1.42,9.02,0.09,0.01,-0.23,1721206810781
-0.95,-0.41,11.87,0.03,0.08,-0.10,1721206810791
-0.66,-1.16,9.58,0.15,0.01,0.03,1721206810801
1.36,-4.92,5.97,-0.02,0.14,-0.03,1721206810811
0.34,2.30,15.01,0.09,0.01,-0.15,1721206810821
0.13,3.32,11.07,0.24,0.08,-0.18,1721206810831
-0.14,4.20,7.59,0.21,0.09,-0.06,1721206810841
-0.10,-0.95,5.20,0.09,0.08,-0.09,1721206810851
0.37,-4.15,5.87,-0.03,0.12,-0.18,1721206810861
-1.49,-0.34,12.91,-0.00,0.05,-0.21,1721206810871
-2.23,1.17,14.81,0.16,0.03,-0.07,1721206810881
-0.19,2.74,11.40,0.23,0.10,0.09,1721206810891
2.08,2.59,6.26,0.09,0.06,0.06,1721206810901
2.46,1.38,12.97,-0.14,0.21,-0.26,1721206810911
0.39,0.22,11.56,0.07,0.01,-0.44,1721206810921
-3.74,-1.26,3.69,-0.14,0.02,-0.38,1721206810931
-5.50,-1.82,14.48,-0.22,0.07,-0.04,1721206810941
-2.51,1.13,13.49,0.13,0.03,0.27,1721206810951
1.96,1.20,8.93,-0.08,0.13,0.18,1721206810961
2.88,1.38,15.44,-0.13,0.03,-0.04,1721206810971
1.29,3.32,12.08,0.07,-0.07,-0.25,1721206810981
-1.20,2.14,2.13,0.09,-0.02,-0.31,1721206810991
-1.70,1.26,8.58,-0.10,0.17,-0.18,1721206811001
-1.64,-1.29,14.32,0.00,-0.05,0.15,1721206811011
-0.97,0.28,7.08,0.03,-0.06,0.07,1721206811021
2.09,-2.71,7.76,-0.19,0.14,-0.12,1721206811031
1.40,-1.08,12.47,-0.06,-0.12,-0.14,1721206811041
-0.18,2.09,9.71,0.06,0.03,-0.15,1721206811051
-1.92,2.94,3.70,0.07,-0.03,-0.21,1721206811061
-1.36,-6.77,12.06,-0.30,0.22,-0.05,1721206811071
0.45,-1.36,24.99,-0.08,0.06,0.14,1721206811081
2.47,6.98,10.60,0.31,-0.05,-0.01,1721206811091
1.39,0.01,-0.44,-0.16,-0.03,-0.21,1721206811101
-2.71,-1.80,16.07,-0.09,-0.03,-0.23,1721206811111
-1.67,-0.36,7.75,0.25,-0.05,-0.04,1721206811121
-0.54,-0.16,6.40,-0.11,0.09,0.07,1721206811131
-0.23,5.19,15.66,0.10,0.05,0.01,1721206811141
1.25,0.89,5.28,0.14,-0.02,0.03,1721206811151
0.83,0.01,6.10,-0.03,0.07,-0.11,1721206811161
2.60,-1.12,12.91,0.05,0.15,-0.22,1721206811171
0.71,-2.91,12.60,-0.08,-0.11,-0.19,1721206811181
-3.28,3.35,15.63,0.04,-0.02,-0.23,1721206811191
-2.06,2.53,7.63,0.15,0.07,-0.15,1721206811201
-0.21,2.72,8.73,0.08,0.08,0.02,1721206811211
0.91,-2.02,4.12,0.02,0.00,-0.04,1721206811221
1.16,-3.04,9.08,-0.14,0.17,-0.25,1721206811231
-1.41,-0.60,13.53,-0.01,-0.02,-0.36,1721206811241
-2.06,-2.81,11.60,-0.08,0.06,-0.18,1721206811251
-1.09,0.92,15.09,0.00,0.05,-0.07,1721206811261
-0.53,6.26,7.57,0.24,-0.01,-0.09,1721206811271
1.36,1.21,5.41,-0.06,0.19,-0.24,1721206811281
1.09,-2.48,17.30,-0.13,0.12,-0.30,1721206811291
-1.84,1.24,11.23,0.08,-0.06,-0.41,1721206811301
-4.05,2.53,6.15,-0.01,0.02,-0.30,1721206811311
-3.39,-1.29,11.96,-0.09,0.15,-0.02,1721206811321
-1.70,2.39,14.47,0.11,-0.01,0.14,1721206811331
1.51,2.75,6.00,0.12,0.08,0.03,1721206811341
3.34,-2.02,9.70,-0.13,0.13,-0.18,1721206811351
0.02,4.78,13.80,0.07,-0.12,-0.34,1721206811361
-1.86,1.39,6.77,0.06,0.04,-0.23,1721206811371
-1.69,-3.83,8.43,-0.06,0.07,0.01,1721206811381
-0.35,0.62,13.72,0.02,0.06,0.06,1721206811391
1.53,5.97,12.24,0.12,0.08,-0.08,1721206811401
1.74,0.47,8.54,-0.00,0.04,-0.16,1721206811411
-0.60,0.24,10.43,0.01,0.06,-0.24,1721206811421
-2.41,2.92,5.64,0.12,-0.05,-0.15,1721206811431
-0.99,-1.47,9.03,-0.09,0.26,0.03,1721206811441
-0.25,-2.09,14.34,-0.02,0.02,0.07,1721206811451
-0.86,2.97,8.72,0.17,-0.10,0.04,1721206811461
1.31,1.29,8.67,-0.04,0.21,-0.03,1721206811471
-1.11,5.85,14.84,0.10,-0.07,-0.08,1721206811481
-0.99,0.84,7.63,0.05,0.05,-0.04,1721206811491
-0.87,-3.98,8.80,-0.12,0.05,0.04,1721206811501
-1.58,0.77,12.71,0.04,-0.04,0.02,1721206811511
-0.45,1.54,6.74,0.07,-0.01,0.08,1721206811521
-0.87,5.03,10.04,0.10,-0.03,0.09,1721206811531
0.95,-2.67,7.85,-0.02,0.05,0.10,1721206811541
0.79,-6.62,15.09,-0.16,0.01,-0.04,1721206811551
-0.77,7.24,12.26,0.21,-0.06,-0.08,1721206811561
-1.30,5.02,4.71,0.01,-0.06,0.00,1721206811571
-2.43,-4.97,7.50,-0.09,-0.14,0.19,1721206811581
0.97,-7.78,11.07,0.01,0.15,0.21,1721206811591
2.30,2.55,10.92,0.09,-0.07,0.04,1721206811601
-0.71,5.06,10.51,-0.05,-0.11,-0.10,1721206811611
-0.74,0.39,12.58,0.03,-0.06,0.12,1721206811621
0.77,0.94,6.35,0.11,0.05,0.20,1721206811631
2.43,-3.01,4.28,-0.16,-0.01,-0.00,1721206811641
-0.25,-1.10,12.65,-0.17,-0.03,-0.23,1721206811651
-2.47,0.95,15.81,-0.05,-0.07,-0.08,1721206811661
-1.19,-2.87,11.68,-0.01,-0.04,0.34,1721206811671
2.28,1.06,7.01,0.17,0.02,0.36,1721206811681
5.39,-0.55,7.59,-0.13,0.10,-0.07,1721206811691
0.30,7.98,19.19,-0.01,-0.19,-0.34,1721206811701
-3.47,-0.05,7.75,0.07,-0.10,-0.19,1721206811711
-1.95,-8.08,8.40,-0.16,0.06,0.25,1721206811721
0.23,4.53,12.69,0.15,0.01,0.28,1721206811731
3.18,1.68,3.16,0.01,0.01,0.07,1721206811741
1.57,-0.37,14.60,-0.12,-0.01,-0.14,1721206811751
0.83,1.08,12.69,0.23,-0.09,-0.12,1721206811761
-0.10,0.76,1.73,0.03,0.01,-0.05,1721206811771
-0.80,1.51,12.15,-0.12,0.05,-0.13,1721206811781
-1.25,-1.14,11.83,0.02,-0.08,-0.05,1721206811791
-1.17,1.01,10.27,0.05,0.02,0.13,1721206811801
1.87,-0.20,14.66,0.01,0.12,0.13,1721206811811
3.11,-0.36,15.23,0.07,-0.10,-0.03,1721206811821
1.66,5.16,10.35,0.20,-0.02,-0.25,1721206811831
-0.49,0.06,5.70,0.09,-0.03,-0.26,1721206811841
-2.53,2.90,8.70,0.26,0.04,-0.04,1721206811851
0.41,0.52,2.72,0.12,0.06,0.02,1721206811861
0.19,-1.38,11.45,-0.13,-0.03,-0.03,1721206811871
-0.62,2.38,19.52,0.04,0.02,-0.11,1721206811881
0.55,0.29,9.12,0.14,-0.02,0.02,1721206811891
1.57,3.48,6.77,0.09,0.08,0.05,1721206811901
2.57,1.60,7.54,-0.02,0.01,-0.20,1721206811911
0.23,-2.88,16.72,-0.14,0.03,-0.46,1721206811921
-3.18,-0.17,10.92,0.23,-0.07,-0.27,1721206811931
-3.56,3.29,-2.02,-0.07,0.02,0.05,1721206811941
-0.04,-0.35,15.08,-0.21,0.20,0.15,1721206811951
2.88,2.04,13.91,0.22,-0.06,-0.06,1721206811961
2.48,1.98,0.96,0.02,-0.02,-0.21,1721206811971
1.13,-3.68,9.12,-0.29,0.16,-0.29,1721206811981
-0.53,-0.21,17.35,-0.11,-0.04,-0.14,1721206811991
0.07,1.67,12.14,-0.04,0.08,-0.14,1721206812001
-0.00,0.96,6.43,0.02,-0.01,-0.22,1721206812011
-0.50,-0.70,6.83,-0.10,0.12,-0.18,1721206812021
0.62,-0.41,11.74,-0.09,0.17,-0.13,1721206812031
0.49,-0.97,12.17,-0.21,0.10,-0.32,1721206812041
-1.45,2.70,14.85,-0.00,-0.01,-0.33,1721206812051
-1.24,-2.35,6.43,-0.12,0.13,-0.27,1721206812061
-3.72,3.56,9.06,-0.02,-0.13,-0.05,1721206812071
0.62,3.93,10.19,-0.06,0.34,-0.05,1721206812081
2.25,-1.51,15.72,-0.18,0.13,-0.27,1721206812091
-2.05,-0.09,11.95,0.05,-0.11,-0.38,1721206812101
-2.13,-3.23,2.28,0.03,0.24,-0.27,1721206812111
-1.89,-0.51,10.77,-0.04,0.14,0.07,1721206812121
0.33,7.10,13.52,0.21,0.06,0.04,1721206812131
1.99,0.15,6.39,0.05,-0.04,-0.14,1721206812141
0.08,-2.41,11.95,-0.06,0.12,-0.35,1721206812151
-0.31,-2.70,8.97,0.01,0.21,-0.34,1721206812161
-2.84,3.62,13.83,-0.01,0.11,-0.28,1721206812171
-2.67,-0.34,10.48,0.06,0.05,-0.13,1721206812181
-0.91,-4.12,11.00,0.08,0.05,0.04,1721206812191
0.07,0.39,9.20,0.15,0.07,0.13,1721206812201
1.39,4.40,6.58,0.04,0.16,-0.08,1721206812211
1.43,2.09,11.76,-0.02,0.10,-0.37,1721206812221
-1.14,-5.97,7.81,-0.00,-0.09,-0.30,1721206812231
-3.81,-2.50,6.50,0.02,0.12,-0.06,1721206812241
-0.41,1.20,16.88,-0.09,0.34,-0.02,1721206812251
0.29,5.03,11.26,0.15,-0.16,-0.00,1721206812261
0.42,-2.21,9.87,-0.21,0.24,-0.19,1721206812271
-0.39,2.46,21.95,0.17,0.03,-0.14,1721206812281
-0.61,3.90,1.66,0.28,-0.07,-0.09,1721206812291
-1.74,-2.62,1.58,-0.14,0.06,-0.04,1721206812301
-3.07,2.15,14.64,-0.07,0.00,-0.01,1721206812311
-0.55,4.25,12.76,0.15,0.09,0.06,1721206812321
-0.42,-2.56,2.33,-0.00,-0.09,0.05,1721206812331
1.10,-0.58,13.40,-0.09,0.37,0.03,1721206812341
3.18,1.87,15.61,0.02,0.04,-0.02,1721206812351
0.28,3.86,8.45,0.13,-0.06,-0.14,1721206812361
2.22,-1.11,8.04,0.09,0.21,-0.14,1721206812371
-0.15,2.07,10.68,0.14,-0.16,0.02,1721206812381
-0.43,4.19,8.62,0.10,0.18,-0.06,1721206812391
0.74,-0.71,10.61,-0.04,0.12,-0.20,1721206812401
-2.30,2.41,11.42,0.04,-0.03,-0.18,1721206812411
-2.61,0.06,5.83,-0.03,0.04,0.01,1721206812421
-1.21,-1.41,8.13,-0.02,0.15,0.12,1721206812431
1.97,1.11,14.53,-0.06,0.24,0.03,1721206812441
1.01,2.59,14.00,0.06,-0.14,-0.06,1721206812451
-1.26,1.81,6.97,0.01,0.02,-0.09,1721206812461
-1.14,-1.49,11.36,-0.15,0.09,-0.06,1721206812471
-1.27,4.63,11.26,0.12,-0.04,0.09,1721206812481
0.70,-1.42,4.02,-0.16,0.10,0.06,1721206812491
-0.02,-7.30,17.08,-0.23,0.00,-0.05,1721206812501
-0.23,3.27,15.33,0.16,-0.00,-0.01,1721206812511
-1.01,8.27,4.01,0.06,-0.12,0.04,1721206812521
0.36,-1.72,9.92,-0.21,0.19,0.10,1721206812531
1.65,-7.25,11.14,-0.06,0.01,0.03,1721206812541
-0.95,4.81,6.74,0.04,-0.05,-0.14,1721206812551
-0.27,4.28,9.96,-0.13,0.18,-0.17,1721206812561
-0.85,-7.87,14.14,-0.14,-0.03,0.06,1721206812571
-1.86,-0.18,11.61,0.06,0.01,0.18,1721206812581
0.08,5.50,8.89,-0.02,0.02,0.08,1721206812591
-0.21,4.08,10.57,0.02,-0.08,-0.02,1721206812601
0.98,-2.41,7.05,-0.00,0.04,0.03,1721206812611
-1.59,0.68,8.81,-0.03,-0.04,-0.03,1721206812621
-1.53,-0.82,12.80,-0.09,0.06,0.04,1721206812631
0.26,-5.47,11.94,-0.08,0.07,0.09,1721206812641
0.33,9.07,13.01,0.23,-0.12,0.20,1721206812651
2.59,1.06,8.84,-0.07,0.03,0.08,1721206812666
2.17,-6.52,8.27,-0.21,0.00,-0.02,1721206812670
0.23,-5.09,13.81,-0.01,0.04,-0.31,1721206812680
-2.50,6.68,7.06,0.21,-0.20,-0.05,1721206812690
-2.96,-2.91,4.47,-0.10,0.05,0.24,1721206812700
-0.79,-3.38,17.42,0.10,0.03,0.36,1721206812710
4.54,6.30,10.53,0.36,0.01,0.37,1721206812720
5.31,1.62,5.12,-0.06,-0.05,-0.03,1721206812730
1.09,-1.65,13.34,-0.13,-0.06,-0.54,1721206812740
-3.45,-1.57,12.66,0.19,-0.12,-0.27,1721206812750
-2.77,-1.89,-0.45,0.15,-0.01,0.33,1721206812760
1.39,0.61,9.22,-0.03,0.23,0.18,1721206812770
3.15,3.69,18.67,0.09,-0.07,-0.11,1721206812780
2.06,6.49,14.28,0.27,0.01,-0.18,1721206812790
0.98,-9.24,4.02,-0.23,0.04,-0.31,1721206812800
-3.96,0.46,22.30,-0.07,-0.01,-0.23,1721206812810
-1.64,11.49,9.95,0.62,0.10,0.10,1721206812820
2.19,-3.28,-4.36,-0.06,-0.01,0.14,1721206812830
1.82,-10.71,24.39,-0.40,0.26,-0.20,1721206812840
1.09,7.98,20.20,0.55,-0.10,-0.39,1721206812850
-1.43,8.07,-6.30,0.18,-0.08,-0.24,1721206812860
-2.56,-1.81,11.12,-0.14,0.25,-0.12,1721206812870
-0.50,-3.99,9.09,0.25,-0.02,-0.00,1721206812880
0.24,6.62,5.93,0.17,0.19,-0.06,1721206812890
2.23,1.71,10.32,-0.07,0.16,-0.26,1721206812900
-0.50,-7.79,18.48,-0.19,-0.05,-0.31,1721206812910
-1.94,3.10,15.90,0.18,0.02,-0.04,1721206812920
-0.34,9.24,5.03,0.14,0.05,-0.01,1721206812930
1.37,0.48,3.18,0.09,0.09,-0.19,1721206812940
1.92,-10.76,2.19,-0.21,0.09,-0.27,1721206812950
-3.05,9.66,24.92,-0.02,-0.00,-0.26,1721206812960
-2.33,5.73,7.65,0.34,-0.03,-0.15,1721206812970
0.21,-14.42,-3.42,-0.39,0.10,-0.02,1721206812980
-0.40,4.03,21.10,-0.02,0.15,0.06,1721206812990
5.54,3.76,8.60,0.22,0.06,-0.09,1721206813000
1.23,2.64,7.26,-0.03,-0.00,-0.44,1721206813010
-1.46,-2.43,9.62,0.13,0.13,-0.38,1721206813020
-2.35,3.34,8.42,0.07,0.19,-0.03,1721206813030
-1.06,0.49,12.27,-0.15,0.16,0.05,1721206813040
1.55,-3.35,11.37,0.04,0.10,-0.12,1721206813050
0.08,5.51,3.65,0.27,0.06,-0.24,1721206813060
0.51,-1.45,6.13,-0.13,0.29,-0.24,1721206813070
-1.98,-3.08,20.57,-0.08,-0.00,-0.09,1721206813080
-1.81,8.66,13.57,0.23,0.09,-0.06,1721206813090
0.14,3.29,-4.07,-0.10,-0.03,-0.04,1721206813100
-0.55,-11.20,14.28,-0.55,0.39,-0.07,1721206813110
1.11,1.09,24.08,0.22,0.14,-0.14,1721206813120
1.70,6.84,-8.08,0.45,-0.03,-0.19,1721206813130
-0.56,-7.44,7.31,-0.58,0.50,-0.35,1721206813140
-3.86,3.03,47.51,0.08,0.04,-0.07,1721206813150
-2.41,13.23,2.82,0.88,-0.21,0.09,1721206813160
0.47,-6.19,-13.08,-0.19,0.28,0.19,1721206813170
5.76,-15.97,10.72,-0.21,0.40,0.07,1721206813180
4.82,4.45,17.24,0.33,0.18,-0.41,1721206813190
-1.80,0.11,-2.98,0.09,-0.14,-0.63,1721206813200
-9.08,-3.63,13.74,-0.18,0.36,-0.23,1721206813210
-3.24,-1.81,23.78,0.17,0.33,0.30,1721206813220
1.95,7.76,9.53,0.38,0.05,0.44,1721206813230
3.87,-0.13,0.34,-0.06,0.02,0.07,1721206813240
2.22,-2.23,16.80,-0.06,0.11,-0.36,1721206813250
-2.15,-3.07,7.26,0.02,-0.21,-0.38,1721206813260
-7.45,1.78,6.82,-0.27,0.06,-0.28,1721206813270
-3.61,-2.54,18.31,-0.13,0.33,0.13,1721206813280
-0.39,0.18,13.32,0.09,-0.01,0.42,1721206813290
2.28,1.84,9.54,-0.03,0.10,0.29,1721206813300
3.15,3.76,14.18,0.12,0.00,0.03,1721206813310
0.42,1.05,4.20,0.06,-0.16,-0.16,1721206813320
-1.41,2.99,8.49,0.14,0.12,-0.08,1721206813330
-1.77,-4.01,0.71,0.01,-0.22,0.17,1721206813340
-2.52,0.97,13.17,-0.16,0.16,0.14,1721206813350
1.65,11.00,19.59,0.42,0.03,0.18,1721206813360
1.30,1.46,-3.69,-0.02,-0.17,0.06,1721206813370
2.13,-5.08,11.42,-0.30,0.37,0.04,1721206813380
1.31,-1.15,16.98,-0.07,-0.21,0.03,1721206813390
-0.66,4.84,9.95,-0.01,-0.12,0.11,1721206813400
1.81,0.93,9.89,-0.05,0.15,0.03,1721206813410
-0.01,3.79,16.02,-0.01,0.01,-0.10,1721206813420
-2.86,0.46,4.30,-0.05,-0.21,-0.01,1721206813430
-3.31,-5.07,5.82,-0.40,0.11,0.09,1721206813440
-1.42,-0.44,20.89,-0.16,-0.06,0.21,1721206813450
1.06,1.58,9.71,0.16,-0.19,0.32,1721206813460
2.49,1.01,5.04,-0.08,0.04,0.08,1721206813470
1.04,-0.55,15.56,-0.27,-0.02,-0.06,1721206813480
-1.88,4.20,13.89,0.01,-0.15,-0.20,1721206813490
-1.62,1.00,4.12,0.05,0.06,-0.06,1721206813500
-1.64,-3.61,2.03,-0.15,-0.14,0.28,1721206813510
1.00,-0.92,13.74,-0.26,0.08,0.40,1721206813520
4.50,4.94,7.91,0.09,-0.17,0.15,1721206813530
3.94,-9.44,5.20,-0.65,0.07,-0.35,1721206813540
-4.78,-3.75,25.43,-0.40,-0.36,-0.38,1721206813550
-3.06,-0.49,12.17,0.10,-0.02,0.01,1721206813560
0.02,2.94,9.80,-0.22,0.07,0.30,1721206813570
1.09,2.76,13.70,-0.10,-0.11,0.09,1721206813580
1.68,1.28,12.14,-0.01,0.05,-0.16,1721206813590
-0.96,-4.84,9.82,-0.25,-0.12,-0.29,1721206813600
-4.25,6.21,16.35,0.07,-0.18,-0.12,1721206813610
-0.49,0.05,5.79,0.10,-0.11,0.37,1721206813620
2.92,2.95,6.15,0.13,0.03,0.33,1721206813630
6.48,6.71,12.46,0.16,0.17,-0.19,1721206813640
1.39,-1.40,10.47,-0.12,-0.30,-0.34,1721206813650
-5.43,2.53,14.61,-0.01,0.02,-0.41,1721206813660
-2.76,-6.25,7.99,0.01,0.04,-0.16,1721206813670
-4.19,-2.51,11.60,-0.01,-0.14,0.36,1721206813680
1.38,0.98,5.34,0.19,0.11,0.48,1721206813690
6.65,2.34,10.35,0.12,0.11,0.13,1721206813700
4.84,3.80,9.18,0.24,-0.16,-0.22,1721206813710
2.50,-4.11,9.68,-0.11,0.05,-0.32,1721206813720
-0.41,4.54,17.33,0.22,-0.06,-0.32,1721206813730
-2.05,-0.62,1.07,0.15,-0.01,-0.27,1721206813740
-3.61,-3.56,7.24,-0.09,0.13,0.04,1721206813750
0.32,-1.92,12.82,0.13,0.15,0.11,1721206813760
2.84,2.75,7.37,0.29,0.10,-0.13,1721206813770
0.80,1.17,7.17,-0.04,0.06,-0.20,1721206813780
-1.49,-1.63,19.37,-0.05,0.17,-0.30,1721206813790
-2.14,2.27,7.93,0.41,-0.02,-0.17,1721206813800
-0.77,1.14,1.24,-0.10,0.27,0.00,1721206813810
-0.87,-4.52,22.38,-0.39,0.12,0.00,1721206813820
-1.06,4.85,25.28,0.23,-0.03,-0.04,1721206813830
-0.20,6.79,-2.97,0.22,-0.09,-0.08,1721206813840
1.83,-5.29,10.09,-0.35,0.28,0.16,1721206813850
5.73,3.34,21.12,0.26,0.12,0.05,1721206813860
3.21,8.38,-4.99,0.34,-0.10,-0.58,1721206813870
-3.61,-5.38,7.31,-0.22,0.22,-0.62,1721206813880
-5.57,1.40,23.82,0.24,0.10,-0.04,1721206813890
-2.38,8.05,5.77,0.33,0.13,0.27,1721206813900
0.80,1.68,0.91,-0.18,0.16,0.06,1721206813910
1.15,-0.44,14.91,-0.15,0.06,-0.10,1721206813920
2.49,-3.23,10.20,0.09,0.16,-0.20,1721206813930
0.07,-0.94,-0.05,0.05,-0.05,-0.24,1721206813940
-3.46,0.98,5.20,-0.23,0.15,-0.20,1721206813950
-2.12,-2.06,16.74,-0.07,0.12,0.02,1721206813960
1.05,0.12,11.60,0.11,0.00,0.20,1721206813970
2.90,-1.75,1.65,-0.16,0.06,-0.00,1721206813980
3.04,-3.79,15.36,-0.45,0.26,-0.30,1721206813990
0.61,2.58,23.43,0.09,0.09,-0.47,1721206814000
-4.35,0.46,0.35,0.01,-0.11,-0.35,1721206814010
-5.71,-5.38,11.24,-0.44,0.33,-0.09,1721206814020
-0.29,0.37,27.39,0.13,0.21,0.35,1721206814030
1.51,8.03,-2.05,0.14,-0.10,0.04,1721206814040
1.83,3.84,7.69,-0.32,0.43,-0.32,1721206814050
0.48,-5.70,17.79,-0.08,0.09,-0.19,1721206814060
-2.46,1.80,8.99,0.00,-0.09,-0.01,1721206814070
-2.01,1.57,5.87,-0.02,0.09,-0.02,1721206814080
-0.18,2.14,13.86,-0.04,0.30,-0.03,1721206814090
0.84,-2.12,14.20,-0.05,0.05,-0.03,1721206814100
0.17,2.61,12.10,0.19,0.03,-0.06,1721206814110
4.02,1.92,9.02,0.19,0.17,0.05,1721206814120
0.62,-3.99,4.62,0.06,-0.16,-0.16,1721206814130
-6.15,7.18,11.10,0.16,0.08,-0.32,1721206814140
-2.16,9.34,11.12,0.39,0.21,-0.07,1721206814150
-0.91,-9.34,4.37,-0.15,-0.03,0.20,1721206814160
-0.17,-2.22,14.50,-0.00,0.38,0.10,1721206814170
0.75,6.24,4.51,0.28,-0.03,-0.14,1721206814180
-2.35,-5.89,3.14,-0.29,-0.04,-0.11,1721206814190
-1.30,0.19,27.28,0.12,0.31,0.21,1721206814200
2.85,-0.47,2.27,0.44,-0.18,0.12,1721206814210
0.63,0.00,1.84,-0.26,0.13,-0.13,1721206814220
2.72,-0.53,33.16,-0.13,0.11,0.14,1721206814230
-1.44,7.00,6.27,0.50,-0.35,-0.13,1721206814240
-4.36,-5.73,-13.10,-0.18,0.03,-0.39,1721206814250
-1.83,-17.29,14.28,-0.27,0.27,0.18,1721206814260
1.50,4.40,23.32,0.20,0.12,0.50,1721206814270
1.59,7.66,0.86,0.22,-0.12,0.03,1721206814280
0.91,-4.88,5.83,-0.25,0.12,-0.23,1721206814290
-0.37,-3.98,19.43,0.08,-0.09,0.12,1721206814300
0.47,10.97,5.20,0.44,-0.09,0.17,1721206814310
0.93,5.25,-2.63,-0.08,-0.03,0.04,1721206814320
-1.30,-8.13,21.78,-0.53,0.06,-0.22,1721206814330
-2.71,2.07,19.63,0.34,-0.22,0.07,1721206814340
0.22,2.89,-9.45,0.03,0.06,0.13,1721206814350
1.58,-3.55,14.44,-0.53,0.35,0.01,1721206814360
3.28,1.29,28.02,0.16,0.01,0.00,1721206814370
2.07,3.32,1.86,0.39,-0.21,-0.03,1721206814380
1.28,1.28,6.64,-0.18,0.26,-0.21,1721206814390
-0.03,2.57,31.30,0.01,-0.09,-0.12,1721206814400
-5.47,5.76,3.16,0.27,-0.53,-0.05,1721206814410
-1.57,12.56,4.69,0.24,0.49,0.27,1721206814420
0.91,-15.14,2.31,-0.31,-0.27,0.19,1721206814430
-9.68,1.03,18.81,-0.03,-0.03,-0.13,1721206814440
0.21,3.56,3.96,0.44,0.06,0.07,1721206814450
-0.03,-3.56,4.33,-0.26,-0.08,0.40,1721206814460
1.37,4.85,17.44,0.31,-0.07,0.43,1721206814470
7.63,7.33,5.27,0.38,0.09,0.12,1721206814480
2.25,2.20,-4.06,-0.21,-0.30,-0.21,1721206814490
-1.59,-15.54,13.50,-0.86,0.34,-0.51,1721206814500
-5.88,-0.61,38.53,-0.01,-0.23,-0.30,1721206814510
-8.68,6.11,-4.00,0.43,-0.53,0.29,1721206814520
-1.97,-10.04,-2.69,-0.64,0.36,0.77,1721206814530
4.21,4.41,31.50,-0.02,0.15,0.58,1721206814540
8.39,6.42,7.01,0.45,-0.29,-0.02,1721206814550
1.36,1.65,-4.96,-0.26,-0.22,-0.47,1721206814560
-4.86,-2.94,14.82,-0.30,-0.08,-0.36,1721206814570
-5.36,-3.99,9.77,0.04,-0.19,0.11,1721206814580
-2.16,3.25,6.67,0.02,-0.05,0.55,1721206814590
2.80,-4.19,8.20,-0.26,-0.03,0.38,1721206814600
4.86,-4.10,17.46,-0.15,0.04,-0.03,1721206814610
2.47,8.16,16.87,0.20,-0.16,-0.24,1721206814620
-1.23,6.09,3.83,0.11,-0.26,-0.06,1721206814630
-0.78,-5.62,3.70,-0.16,0.10,0.08,1721206814640
-0.09,-3.42,13.49,0.02,-0.04,0.01,1721206814650
-1.82,1.74,8.67,-0.00,-0.33,0.01,1721206814660
-0.86,-3.47,21.68,-0.01,-0.23,0.10,1721206814675
1.76,-1.33,18.90,0.16,-0.12,0.21,1721206814679
2.70,10.18,7.58,0.34,0.01,0.10,1721206814689
1.69,4.68,6.56,0.06,-0.12,-0.15,1721206814699
-0.09,-5.17,10.19,0.01,-0.10,-0.22,1721206814709
0.08,-0.69,9.44,0.28,0.04,-0.05,1721206814719
0.88,-0.18,0.34,0.11,-0.18,0.17,1721206814729
1.54,-4.94,16.54,-0.27,0.16,0.05,1721206814739
2.62,3.43,20.83,0.36,-0.14,-0.17,1721206814749
1.71,8.93,-4.46,0.36,-0.11,-0.18,1721206814759
1.05,-3.53,7.35,-0.27,0.29,-0.26,1721206814769
-1.24,-9.18,29.44,-0.05,0.06,-0.44,1721206814779
-3.81,9.62,8.80,0.71,-0.19,-0.19,1721206814789
0.68,0.71,-8.16,0.02,0.23,0.15,1721206814799
2.98,-10.16,23.45,-0.41,0.21,-0.14,1721206814809
1.23,3.94,20.04,0.61,-0.14,-0.48,1721206814819
-0.68,7.66,-12.64,0.32,-0.05,-0.38,1721206814829
-3.60,-3.50,10.07,-0.45,0.29,-0.28,1721206814839
-3.92,-2.33,26.41,0.22,0.06,-0.23,1721206814849
-1.77,10.81,-2.24,0.64,-0.04,0.09,1721206814859
3.61,-1.88,-2.83,-0.41,0.35,0.05,1721206814869
2.66,-8.99,31.15,-0.45,0.14,-0.38,1721206814879
-0.11,8.66,17.14,0.65,-0.20,-0.43,1721206814889
-0.70,7.37,-11.71,-0.09,0.12,-0.24,1721206814899
-4.19,-3.79,12.22,-0.54,0.10,-0.18,1721206814909
0.71,-5.97,16.72,0.01,0.13,-0.06,1721206814919
0.97,8.47,-2.20,0.29,0.03,-0.23,1721206814929
2.40,-4.42,9.44,-0.65,0.48,-0.40,1721206814939
-1.50,-2.06,39.35,-0.15,-0.07,-0.25,1721206814949
-1.85,8.16,4.86,0.62,-0.09,-0.03,1721206814959
2.18,-1.48,-4.59,-0.53,0.43,-0.09,1721206814969
0.88,-2.87,20.38,-0.29,-0.26,-0.26,1721206814979
-1.23,2.56,5.07,0.39,0.06,-0.20,1721206814989
-1.43,3.56,-2.97,0.04,0.18,-0.19,1721206814999
-3.86,-1.87,11.37,-0.25,0.15,-0.16,1721206815009
-0.98,-1.98,18.80,-0.09,0.22,0.09,1721206815019
2.48,6.52,6.30,0.10,0.10,0.08,1721206815029
3.48,-2.67,5.25,-0.34,0.14,-0.23,1721206815039
-0.11,-7.49,20.03,-0.21,-0.01,-0.35,1721206815049
-2.70,6.24,10.38,0.36,-0.00,-0.14,1721206815059
-2.46,5.21,1.22,-0.15,0.12,-0.10,1721206815069
-3.30,-2.93,15.59,-0.30,0.01,-0.00,1721206815079
0.19,-2.61,14.64,-0.01,0.09,0.21,1721206815089
1.68,2.29,5.37,0.00,0.12,0.02,1721206815099
1.29,-1.12,8.36,-0.13,0.18,-0.27,1721206815109
-1.36,-4.80,13.34,-0.09,0.00,-0.22,1721206815119
-3.06,4.02,14.79,0.17,0.08,-0.04,1721206815129
-2.12,7.47,11.13,0.21,0.04,0.11,1721206815139
-0.99,-2.57,6.11,0.08,-0.07,0.24,1721206815149
2.37,-1.44,11.67,0.16,0.28,0.06,1721206815159
1.59,4.27,6.41,0.29,-0.18,-0.10,1721206815169
-2.11,0.70,6.55,0.03,0.11,-0.27,1721206815179
-3.69,-7.62,17.22,-0.01,0.12,-0.08,1721206815189
-3.05,1.06,13.16,0.22,-0.06,0.30,1721206815199
0.89,2.26,7.61,0.06,0.01,0.35,1721206815209
2.02,3.24,12.72,0.17,-0.02,-0.01,1721206815219
1.58,-0.37,2.63,0.27,-0.14,-0.05,1721206815229
-1.07,-6.78,2.83,-0.15,0.02,-0.01,1721206815239
-0.85,-3.65,19.52,-0.13,0.07,-0.03,1721206815249
-0.20,4.08,17.62,0.21,-0.06,-0.06,1721206815259
-2.36,2.13,3.43,0.06,-0.19,-0.07,1721206815269
-2.27,-0.94,10.48,0.02,0.16,0.05,1721206815279
0.60,-0.82,12.14,0.12,0.00,0.20,1721206815289
0.77,6.14,7.02,0.19,-0.10,0.11,1721206815299
1.89,0.39,4.06,-0.11,-0.02,-0.10,1721206815309
-1.79,-3.60,16.55,-0.21,-0.27,-0.13,1721206815319
-2.77,4.80,13.41,0.35,-0.10,0.08,1721206815329
-0.13,3.66,-4.74,0.08,-0.14,0.18,1721206815339
1.39,-3.14,10.56,-0.40,0.22,0.10,1721206815349
3.67,0.56,27.11,0.00,0.04,-0.05,1721206815359
2.75,4.50,3.25,0.28,-0.27,-0.18,1721206815369
1.56,-0.31,5.32,-0.23,0.18,-0.31,1721206815379
-1.29,-1.01,19.31,-0.02,-0.19,-0.08,1721206815389
-2.31,4.05,10.80,0.23,-0.06,0.05,1721206815399
0.00,1.68,9.12,-0.02,0.00,0.01,1721206815409
-1.48,0.05,9.63,0.05,-0.24,-0.01,1721206815419
-0.93,2.32,7.07,0.02,0.09,-0.08,1721206815429
-1.84,1.00,7.87,-0.04,-0.20,-0.06,1721206815439
-2.54,1.60,10.66,-0.05,0.01,0.11,1721206815449
1.20,-2.46,10.42,-0.12,0.03,0.24,1721206815459
2.05,-2.39,9.27,-0.13,-0.16,0.09,1721206815469
2.49,0.18,11.94,-0.24,0.02,-0.18,1721206815479
-0.33,-3.77,11.69,-0.14,-0.26,-0.16,1721206815489
-2.35,-1.37,9.11,0.01,-0.01,0.03,1721206815499
-0.19,3.28,6.09,0.15,-0.08,0.11,1721206815509
0.51,2.10,8.72,-0.19,-0.01,0.03,1721206815519
0.10,0.75,18.98,-0.30,-0.04,-0.18,1721206815529
-2.30,-3.47,13.58,-0.16,-0.21,-0.19,1721206815539
-4.36,-2.04,6.39,-0.16,-0.17,0.05,1721206815549
-1.17,1.53,8.55,-0.01,0.02,0.27,1721206815559
3.40,-1.90,6.31,0.06,-0.08,0.30,1721206815569
3.68,0.89,8.82,0.04,-0.03,0.03,1721206815579
2.79,1.42,11.29,-0.03,-0.02,-0.28,1721206815589
-0.11,7.95,14.69,0.08,-0.07,-0.26,1721206815599
-0.51,-2.63,9.65,-0.08,-0.13,-0.01,1721206815609
0.66,-6.52,12.45,-0.15,0.00,0.08,1721206815619
1.84,1.85,11.61,0.14,0.04,-0.13,1721206815629
1.17,1.76,12.09,-0.00,-0.02,-0.32,1721206815639
-1.68,3.39,11.76,0.24,-0.19,-0.12,1721206815649
-0.22,1.42,0.82,0.21,0.14,-0.01,1721206815659
1.77,-3.06,7.91,-0.02,0.12,-0.09,1721206815669
0.36,4.71,16.33,0.18,-0.06,-0.22,1721206815679
-0.51,-1.36,7.71,0.05,-0.09,-0.18,1721206815689
0.01,-4.71,12.77,-0.10,0.12,-0.03,1721206815699
0.78,-1.62,16.72,0.14,0.05,-0.11,1721206815709
1.06,1.48,7.89,0.22,0.00,-0.13,1721206815719
-0.46,5.99,10.42,0.23,0.01,-0.10,1721206815729
1.93,1.47,6.80,0.22,0.17,-0.03,1721206815739
2.19,-5.78,7.80,0.01,0.11,-0.18,1721206815749
0.76,3.45,13.26,0.18,0.10,-0.31,1721206815759
0.03,3.24,10.50,0.08,0.14,-0.34,1721206815769
-1.24,-0.66,11.49,0.11,0.03,-0.12,1721206815779
-0.04,-5.40,8.22,0.05,0.19,-0.11,1721206815789
0.82,1.19,12.03,0.20,0.14,-0.28,1721206815799
-0.89,6.94,7.73,0.21,0.10,-0.38,1721206815809
-3.61,1.48,9.67,-0.05,0.09,-0.32,1721206815819
-3.18,-3.11,10.88,0.08,0.11,-0.01,1721206815829
0.70,-0.98,6.04,0.14,0.24,0.16,1721206815839
3.46,0.27,8.05,-0.11,0.16,-0.12,1721206815849
1.43,1.16,18.73,-0.15,0.07,-0.39,1721206815859
-1.84,2.85,15.10,0.22,0.01,-0.40,1721206815869
-2.84,-0.51,-1.58,0.02,0.02,-0.14,1721206815879
-1.17,-1.56,7.11,-0.18,0.33,-0.05,1721206815889
0.67,-0.12,8.64,0.06,-0.01,-0.09,1721206815899
-1.75,-1.04,6.38,-0.20,0.01,-0.29,1721206815909
-3.10,-1.11,19.43,-0.02,0.08,-0.30,1721206815919
-2.39,3.90,12.33,0.03,-0.03,0.16,1721206815929
1.66,1.00,6.20,-0.30,0.28,0.24,1721206815939
4.25,-5.04,12.75,-0.36,0.09,-0.01,1721206815949
2.23,1.52,13.57,-0.03,-0.09,-0.35,1721206815959
0.24,5.88,7.86,0.15,0.07,-0.46,1721206815969
-4.97,-2.75,2.79,-0.29,-0.14,-0.21,1721206815979
-5.08,-5.88,17.23,-0.47,0.25,0.16,1721206815989
1.40,4.70,22.07,-0.08,0.11,0.30,1721206815999
2.05,3.90,-2.48,0.05,-0.20,0.03,1721206816009
2.25,-4.14,4.49,-0.35,0.32,-0.31,1721206816019
-0.35,-2.61,15.57,-0.11,-0.35,-0.15,1721206816029
-2.17,1.47,8.57,0.06,0.17,-0.02,1721206816039
0.75,2.13,15.75,-0.17,0.21,-0.09,1721206816049
-1.73,6.68,12.50,0.01,-0.26,-0.03,1721206816059
0.22,0.65,5.00,-0.00,0.12,0.02,1721206816069
1.35,-5.14,3.13,0.02,-0.05,-0.02,1721206816079
2.01,-3.29,10.11,-0.08,0.25,-0.13,1721206816089
-0.29,1.87,18.53,0.04,-0.06,-0.19,1721206816099
-4.41,2.68,11.61,0.12,-0.19,-0.20,1721206816109
-2.30,2.09,11.18,0.05,0.13,0.07,1721206816119
1.80,-0.28,7.92,0.15,0.01,0.28,1721206816129
3.83,1.21,10.36,0.00,0.16,-0.03,1721206816139
1.05,0.36,12.97,-0.02,-0.03,-0.54,1721206816149
-3.50,-5.81,12.36,-0.07,-0.06,-0.48,1721206816159
-4.97,-0.53,11.68,0.08,-0.02,-0.04,1721206816169
-0.37,2.47,9.17,0.11,0.18,0.18,1721206816179
1.56,5.46,13.96,0.30,0.03,0.18,1721206816189
2.66,-6.11,3.91,0.08,-0.07,-0.10,1721206816199
-0.20,2.48,8.68,0.12,0.08,-0.44,1721206816209
2.31,2.41,13.37,0.15,0.25,-0.51,1721206816219
-3.06,2.65,10.87,0.03,-0.09,-0.37,1721206816229
-6.82,-3.71,7.48,-0.05,-0.07,-0.17,1721206816239
-3.18,-2.09,13.85,0.07,0.17,0.09,1721206816249
1.85,3.69,8.50,0.34,0.08,0.16,1721206816259
3.42,-0.77,4.14,0.08,0.01,-0.05,1721206816269
-0.61,6.63,10.47,0.17,-0.06,-0.37,1721206816279
-1.46,0.35,7.88,0.15,0.05,-0.39,1721206816289
-2.69,-3.04,11.19,-0.01,0.04,-0.10,1721206816299
-0.93,1.61,7.84,0.12,0.02,0.16,1721206816309
1.97,-0.34,10.90,-0.18,0.13,-0.00,1721206816319
2.59,2.08,20.10,0.12,0.01,-0.12,1721206816329
2.04,1.28,1.86,0.35,-0.14,-0.13,1721206816339
1.25,2.87,3.33,-0.03,0.23,-0.19,1721206816349
1.87,1.32,19.22,-0.10,0.23,-0.28,1721206816359
-1.15,0.97,13.19,0.16,-0.10,-0.29,1721206816369
-3.18,1.80,-0.67,0.15,0.06,-0.16,1721206816379
-1.34,-2.50,7.53,-0.17,0.28,0.03,1721206816389
-0.10,1.75,19.76,0.10,0.09,0.13,1721206816399
0.74,3.71,10.56,0.09,0.03,-0.03,1721206816409
-0.84,2.33,11.82,-0.05,0.00,-0.27,1721206816419
-0.91,0.01,10.17,-0.06,0.13,-0.12,1721206816429
-2.34,1.58,10.27,-0.14,0.04,-0.04,1721206816439
-3.79,1.75,1.11,0.01,-0.16,0.03,1721206816449
1.60,-9.54,7.61,-0.20,0.45,0.15,1721206816459
1.04,-2.39,19.78,-0.04,0.03,0.04,1721206816469
0.44,7.01,10.11,0.29,-0.12,-0.05,1721206816479
0.97,-0.44,3.74,-0.27,0.16,-0.16,1721206816489
-2.42,-0.05,17.66,-0.13,-0.08,-0.13,1721206816499
-3.13,-0.76,7.84,0.15,-0.02,-0.10,1721206816509
-3.28,-1.91,-0.90,-0.08,-0.03,-0.00,1721206816519
-3.13,-3.49,11.93,-0.24,0.15,0.19,1721206816529
-0.23,0.17,20.38,-0.08,0.07,0.17,1721206816539
0.58,4.45,7.17,0.19,-0.18,0.08,1721206816549
3.56,2.38,5.53,-0.07,0.24,0.02,1721206816559
1.36,3.52,14.92,-0.02,-0.16,-0.07,1721206816569
-0.43,-1.20,4.30,0.03,-0.08,-0.04,1721206816579
-0.67,-10.59,9.77,-0.29,0.20,-0.10,1721206816589
-2.68,3.50,21.04,-0.04,-0.25,0.14,1721206816599
0.49,8.58,9.60,0.20,0.01,0.30,1721206816609
3.34,-6.39,5.62,-0.13,0.09,0.20,1721206816619
2.64,1.02,15.75,0.08,0.07,-0.14,1721206816629
1.06,3.86,10.11,0.28,-0.06,-0.27,1721206816639
-3.34,-4.81,4.58,0.00,-0.17,-0.05,1721206816649
-3.56,0.59,15.08,0.15,0.23,0.18,1721206816659
1.52,4.31,14.43,0.33,-0.07,0.36,1721206816669
5.17,-2.01,2.96,0.11,-0.01,0.04,1721206816684
5.78,-4.63,3.94,0.01,0.14,-0.10,1721206816688
0.63,0.46,12.75,0.05,-0.06,-0.37,1721206816698
-2.29,4.46,11.94,0.16,0.05,-0.25,1721206816708
-1.69,-0.59,5.41,0.13,-0.01,0.06,1721206816718
1.70,-2.63,10.41,-0.05,0.21,0.17,1721206816728
3.43,1.85,14.33,0.07,0.07,0.04,1721206816738
1.56,-2.15,9.91,-0.08,0.07,-0.34,1721206816748
-2.45,1.74,16.12,0.11,0.02,-0.38,1721206816758
-2.16,7.37,2.88,0.39,0.06,0.01,1721206816768
0.83,-5.80,4.36,-0.25,0.27,0.06,1721206816778
0.45,-5.63,24.84,-0.03,0.14,-0.20,1721206816788
-0.74,8.60,9.73,0.55,-0.02,-0.25,1721206816798
-0.36,4.05,-0.03,-0.02,0.18,-0.11,1721206816808
-0.62,-3.84,12.33,-0.08,0.09,-0.10,1721206816818
-0.51,-1.33,6.52,0.15,0.06,-0.13,1721206816828
-0.96,6.43,-0.09,0.14,0.06,-0.08,1721206816838
-0.20,-5.07,7.41,-0.32,0.26,-0.20,1721206816848
-1.40,-3.46,23.54,-0.04,0.07,-0.13,1721206816858
-1.14,8.25,12.02,0.36,0.03,0.04,1721206816868
1.96,3.29,6.04,-0.21,0.23,-0.00,1721206816878
2.02,-2.92,15.19,-0.29,0.03,-0.17,1721206816888
0.94,-1.59,13.90,-0.03,0.07,-0.26,1721206816898
-1.29,3.04,6.83,-0.02,0.01,-0.27,1721206816908
-3.21,-0.19,5.93,-0.09,0.11,-0.22,1721206816918
-3.16,1.55,12.11,0.02,0.15,0.01,1721206816928
-0.11,3.88,10.06,0.01,0.10,0.17,1721206816938
2.84,-1.13,12.16,-0.23,0.17,0.06,1721206816948
3.42,-3.25,16.13,-0.09,0.12,-0.17,1721206816958
0.13,9.49,8.02,0.20,0.02,-0.30,1721206816968
-1.66,1.80,5.38,-0.08,0.11,-0.31,1721206816978
-2.66,-8.63,13.48,-0.13,0.05,-0.10,1721206816988
-0.69,4.82,13.47,0.28,0.21,0.05,1721206816998
0.57,6.90,-0.98,0.09,-0.07,0.10,1721206817008
0.11,-7.17,7.59,-0.41,0.31,-0.15,1721206817018
0.98,-1.13,23.29,-0.01,0.18,-0.24,1721206817028
-0.77,4.10,4.55,0.16,-0.15,-0.15,1721206817038
-1.46,-1.23,6.42,-0.27,0.33,-0.16,1721206817048
-1.15,-7.24,17.53,-0.15,0.08,-0.03,1721206817058
-1.04,3.15,12.14,0.11,-0.01,0.13,1721206817068
1.45,4.71,6.93,0.01,0.16,-0.02,1721206817078
-0.10,-4.84,5.38,-0.15,-0.07,-0.10,1721206817088
-1.35,-1.64,13.97,-0.11,0.23,-0.11,1721206817098
-0.06,1.07,13.40,-0.01,0.06,-0.07,1721206817108
-2.20,1.83,8.86,-0.10,-0.08,-0.09,1721206817118
-1.71,-0.31,11.82,-0.14,0.20,0.03,1721206817128
-1.10,-3.27,7.61,-0.12,-0.14,0.22,1721206817138
-0.18,-1.66,10.92,-0.17,0.16,0.11,1721206817148
2.11,-1.59,16.67,-0.15,0.09,-0.11,1721206817158
-2.00,7.07,14.42,0.02,-0.21,-0.06,1721206817168
-2.55,0.39,7.48,-0.12,0.03,-0.00,1721206817178
-0.69,-9.34,9.23,-0.24,-0.02,0.17,1721206817188
-0.09,4.70,12.20,0.05,-0.07,0.21,1721206817198
2.21,0.99,9.35,-0.19,0.04,-0.02,1721206817208
-2.04,-4.99,16.35,-0.16,-0.28,-0.16,1721206817218
-1.87,2.81,11.97,0.23,0.01,0.07,1721206817228
-0.79,8.33,5.52,0.10,-0.06,0.13,1721206817238
-0.64,-0.96,9.05,-0.12,-0.07,0.05,1721206817248
0.34,-3.59,13.82,0.01,0.01,0.02,1721206817258
-0.52,6.96,6.76,0.30,-0.19,0.01,1721206817268
0.34,0.24,5.19,-0.13,0.07,-0.05,1721206817278
-0.89,-0.37,19.54,-0.02,-0.13,0.13,1721206817288
0.14,3.93,7.78,0.31,-0.16,0.16,1721206817298
2.51,1.13,8.20,-0.09,0.03,0.07,1721206817308
2.80,1.96,18.03,0.02,-0.17,0.05,1721206817318
2.53,0.62,7.58,0.14,-0.14,-0.09,1721206817328
-0.13,2.86,9.03,0.06,0.00,-0.34,1721206817338
-2.33,1.12,8.87,0.14,-0.10,-0.18,1721206817348
-1.89,-1.36,11.46,0.03,0.06,0.06,1721206817358
-0.11,3.87,12.04,0.25,-0.07,0.09,1721206817368
1.48,2.72,5.95,0.13,-0.03,-0.07,1721206817378
-0.11,0.60,9.23,0.02,-0.05,-0.20,1721206817388
-2.28,3.49,10.95,0.15,-0.06,-0.15,1721206817398
-1.67,0.74,6.90,0.03,-0.02,0.03,1721206817408
-0.35,-4.69,11.24,-0.18,-0.02,0.08,1721206817418
0.28,2.01,14.10,0.18,-0.00,-0.02,1721206817428
2.26,3.28,3.12,0.12,-0.01,-0.10,1721206817438
1.13,2.23,13.67,-0.10,0.05,-0.15,1721206817448
0.78,-2.60,13.33,0.07,0.02,-0.19,1721206817458
-0.36,-2.52,8.86,0.05,-0.02,-0.24,1721206817468
-1.80,2.82,8.00,-0.00,-0.00,-0.24,1721206817478
-2.38,2.22,6.70,0.05,0.04,-0.20,1721206817488
-1.54,-2.99,9.41,-0.11,0.11,-0.13,1721206817498
-1.12,-0.76,9.56,0.13,-0.10,0.04,1721206817508
0.63,-1.34,4.58,-0.08,0.14,-0.07,1721206817518
0.82,-1.05,15.92,-0.24,0.11,-0.29,1721206817528
-0.39,5.35,14.94,0.14,-0.05,-0.16,1721206817538
-0.57,-0.84,3.24,-0.02,0.02,-0.07,1721206817548
0.12,-7.28,7.89,-0.16,0.13,-0.06,1721206817558
1.30,2.65,15.38,0.05,0.15,-0.18,1721206817568
-0.13,4.52,11.89,0.01,-0.05,-0.17,1721206817578
-1.49,-0.90,9.75,-0.15,0.03,-0.08,1721206817588
0.89,-2.69,12.79,-0.00,0.22,-0.05,1721206817598
-0.03,6.62,8.20,0.12,-0.01,-0.11,1721206817608
-0.40,0.26,6.25,-0.13,0.16,-0.25,1721206817618
-0.39,-7.76,18.71,-0.11,0.13,-0.26,1721206817628
-1.12,0.91,10.86,0.30,0.02,0.10,1721206817638
-0.08,2.83,5.12,-0.02,0.25,0.03,1721206817648
0.19,1.59,11.70,0.08,-0.07,-0.07,1721206817658
1.26,2.35,12.68,0.17,0.24,-0.20,1721206817668
0.13,-1.57,5.97,0.14,-0.01,-0.08,1721206817678
-2.11,-1.88,8.44,-0.02,0.18,-0.09,1721206817688
-0.75,2.47,16.71,0.12,0.23,-0.13,1721206817698
-0.57,11.02,11.12,0.38,-0.01,0.07,1721206817708
2.60,-1.69,4.55,-0.01,0.27,0.14,1721206817718
2.65,-6.93,12.63,-0.08,0.14,-0.18,1721206817728
0.26,4.73,10.89,0.28,0.06,-0.33,1721206817738
-2.01,2.25,-1.24,0.02,0.09,-0.25,1721206817748
-5.04,-3.69,13.06,-0.26,0.18,-0.13,1721206817758
-2.85,0.57,19.94,0.34,0.08,0.24,1721206817768
1.44,4.00,2.73,0.21,0.17,0.34,1721206817778
3.84,-1.69,15.47,-0.33,0.31,-0.07,1721206817788
0.77,1.80,22.94,0.30,-0.08,-0.33,1721206817798
-0.46,6.99,-0.64,0.45,0.12,-0.12,1721206817808
-0.78,1.98,-2.04,-0.06,0.15,0.11,1721206817818
-0.06,-7.40,11.65,-0.26,0.18,-0.05,1721206817828
-0.66,0.77,20.40,0.09,0.08,-0.20,1721206817838
-1.97,8.74,6.59,0.19,-0.02,-0.01,1721206817848
-0.80,1.60,3.30,-0.12,0.23,0.09,1721206817858
0.14,-5.35,0.87,-0.09,-0.03,0.20,1721206817868
1.07,3.23,8.84,-0.09,0.32,0.00,1721206817878
2.53,0.10,15.87,-0.15,0.06,-0.25,1721206817888
-2.82,-8.39,21.48,-0.30,-0.10,-0.21,1721206817898
-5.10,5.36,20.25,0.35,-0.06,0.22,1721206817908
0.49,5.45,-7.11,0.01,0.06,0.45,1721206817918
2.45,-4.58,13.24,-0.56,0.36,0.11,1721206817928
1.95,2.72,21.98,0.13,-0.09,-0.23,1721206817938
-0.96,0.86,-2.35,0.08,-0.13,-0.23,1721206817948
-4.19,-2.66,9.61,-0.45,0.20,-0.01,1721206817958
-2.16,0.24,19.42,-0.00,0.01,0.48,1721206817968
3.54,0.82,5.07,0.08,-0.02,0.48,1721206817978
4.34,-2.32,6.90,-0.19,-0.02,0.05,1721206817988
1.72,2.99,14.59,0.02,-0.08,-0.25,1721206817998
-1.25,2.82,9.73,-0.01,-0.05,-0.19,1721206818008
-4.75,1.33,8.36,-0.10,-0.09,-0.01,1721206818018
-1.62,-4.76,9.66,-0.14,0.15,0.21,1721206818028
1.84,-2.14,15.41,-0.02,0.08,0.25,1721206818038
2.67,8.25,8.37,0.27,-0.09,0.07,1721206818048
1.65,-1.84,3.79,-0.23,-0.04,-0.13,1721206818058
-3.75,-3.11,23.03,-0.25,-0.25,-0.16,1721206818068
-3.09,-0.49,5.63,0.37,-0.21,0.06,1721206818078
-0.32,-3.69,-0.65,-0.05,0.07,0.27,1721206818088
0.79,4.33,17.71,0.04,0.19,0.16,1721206818098
2.18,6.97,9.34,0.41,-0.09,-0.14,1721206818108
0.56,-6.27,5.61,-0.19,-0.00,-0.35,1721206818118
-3.20,-4.73,17.70,-0.08,-0.09,-0.26,1721206818128
-3.04,4.20,11.99,0.21,-0.08,0.02,1721206818138
-1.02,3.31,11.93,0.02,0.15,0.06,1721206818148
-0.68,2.33,11.76,0.32,-0.25,0.13,1721206818158
0.60,2.15,1.58,0.25,-0.00,0.08,1721206818168
3.82,0.14,8.08,0.01,0.08,-0.13,1721206818178
0.22,1.70,9.65,0.01,-0.31,-0.38,1721206818188
-3.16,-4.58,12.15,-0.18,0.06,-0.37,1721206818198
-3.95,-4.07,18.78,0.05,-0.05,-0.06,1721206818208
-1.53,1.82,9.05,0.28,-0.12,0.30,1721206818218
1.69,6.39,7.26,0.16,0.02,0.21,1721206818228
2.95,7.90,12.50,0.14,-0.10,-0.12,1721206818238
1.45,-0.68,7.02,0.10,-0.13,-0.27,1721206818248
0.58,-4.02,5.15,0.11,0.02,-0.21,1721206818258
-0.90,2.67,3.15,0.17,-0.15,-0.08,1721206818268
0.41,-2.81,8.72,-0.22,0.12,0.02,1721206818278
1.31,0.52,24.88,0.10,0.00,-0.02,1721206818288
1.72,2.02,4.21,0.46,-0.23,-0.10,1721206818298
2.17,2.48,1.45,-0.09,0.32,-0.33,1721206818308
-0.61,2.71,19.07,-0.16,-0.08,-0.28,1721206818318
-3.52,-0.05,9.59,0.01,-0.11,-0.14,1721206818328
-3.34,-0.21,4.30,-0.03,0.05,0.01,1721206818338
0.20,-3.27,7.31,-0.17,0.15,0.17,1721206818348
2.30,-6.00,17.65,-0.38,0.13,0.08,1721206818358
0.23,4.66,22.48,0.08,-0.19,-0.12,1721206818368
0.15,5.95,4.19,0.16,-0.07,-0.19,1721206818378
-0.22,0.83,4.96,-0.19,0.15,-0.09,1721206818388
-0.86,-1.46,6.85,-0.07,-0.10,-0.01,1721206818398
0.45,-1.64,5.10,-0.23,0.20,-0.18,1721206818408
-0.71,-2.73,17.27,-0.27,0.07,-0.28,1721206818418
-2.92,-3.01,19.32,-0.04,-0.04,-0.02,1721206818428
-3.25,4.23,7.18,0.11,-0.13,0.11,1721206818438
0.62,0.44,4.37,-0.19,0.13,0.19,1721206818448
2.28,2.58,13.80,-0.10,0.13,0.01,1721206818458
1.47,-0.58,7.42,-0.02,-0.05,-0.19,1721206818468
-3.39,-0.40,6.56,-0.17,-0.09,-0.18,1721206818478
-3.90,-0.28,11.17,-0.15,0.04,0.03,1721206818488
-0.19,-2.74,14.33,-0.24,0.09,0.29,1721206818498
1.58,2.04,13.73,-0.01,-0.07,0.27,1721206818508
3.19,0.69,9.02,-0.10,0.01,0.04,1721206818518
1.09,6.95,18.78,-0.08,0.01,-0.20,1721206818528
-1.77,5.74,10.81,0.12,-0.22,-0.27,1721206818538
-2.26,-6.09,-0.98,-0.05,-0.03,-0.04,1721206818548
-2.32,-3.85,10.72,0.04,0.15,0.24,1721206818558
1.41,-0.39,8.43,0.26,-0.03,0.28,1721206818568
2.44,1.32,15.17,0.16,-0.01,0.06,1721206818578
2.48,7.44,15.47,0.34,-0.07,-0.03,1721206818588
2.97,2.67,7.24,0.21,0.06,-0.13,1721206818598
-0.18,1.65,7.26,0.21,-0.03,-0.23,1721206818608
-2.83,1.62,3.35,0.28,-0.12,-0.10,1721206818618
-0.52,-2.41,5.90,0.05,0.15,0.08,1721206818628
-4.34,-7.81,13.09,-0.16,0.01,0.22,1721206819173
0.18,-4.38,20.20,-0.03,0.04,0.30,1721206819178
0.26,5.23,14.41,0.03,-0.16,0.10,1721206819188
1.43,6.04,9.76,0.08,0.05,-0.13,1721206819198
-0.60,-2.14,5.72,0.09,-0.15,-0.09,1721206819208
-1.71,-3.34,6.49,0.18,0.07,0.02,1721206819218
-0.87,-1.64,4.29,0.23,-0.10,0.13,1721206819228
-2.03,5.10,11.34,0.10,0.07,0.04,1721206819238
0.29,11.18,20.71,0.15,0.11,-0.04,1721206819248
0.68,0.52,9.60,-0.03,-0.17,0.07,1721206819258
0.04,-5.92,4.95,-0.15,-0.08,0.10,1721206819268
0.65,-1.04,8.32,-0.12,0.04,-0.02,1721206819278
0.74,2.91,13.04,-0.01,-0.12,0.08,1721206819288
0.90,-2.87,6.19,0.18,-0.11,0.20,1721206819298
3.31,-0.09,2.60,0.24,0.17,0.06,1721206819308
3.00,3.89,13.54,-0.12,0.07,-0.30,1721206819318
-2.17,5.25,22.62,-0.12,-0.22,-0.30,1721206819328
-5.54,-1.44,11.43,-0.05,-0.12,-0.11,1721206819338
-4.39,-1.96,7.93,-0.10,-0.02,0.24,1721206819348
-1.42,2.56,7.29,0.02,-0.15,0.46,1721206819358
2.23,-3.04,9.50,-0.29,0.04,0.37,1721206819368
1.79,2.82,15.96,0.02,-0.18,0.05,1721206819378
2.46,0.29,5.57,-0.02,-0.14,-0.05,1721206819388
0.11,2.56,11.30,-0.06,-0.02,-0.03,1721206819398
1.08,7.60,2.93,0.25,-0.01,0.03,1721206819408
0.17,-7.48,0.37,-0.52,-0.05,-0.03,1721206819418
-4.11,-6.41,27.88,-0.48,-0.29,-0.02,1721206819428
-1.10,-0.23,18.53,0.09,-0.10,0.17,1721206819438
1.15,-0.63,0.95,-0.22,-0.15,0.36,1721206819448
0.01,6.22,12.01,-0.13,0.14,0.17,1721206819458
2.43,-6.22,9.72,-0.17,-0.17,0.02,1721206819468
-0.77,15.48,17.44,0.48,-0.03,-0.14,1721206819478
0.94,-13.27,-8.96,0.27,-0.40,-0.14,1721206819488
-4.73,-5.39,4.53,-0.40,0.42,-0.05,1721206819498
-2.61,2.00,36.54,-0.31,0.19,0.32,1721206819508
-1.34,3.68,15.12,0.26,-0.74,0.43,1721206819518
5.72,-8.40,-4.58,-0.09,0.16,0.16,1721206819528
4.83,-2.02,18.31,-0.18,0.24,-0.32,1721206819538
-0.81,12.56,19.41,0.28,-0.36,-0.58,1721206819548
-2.51,2.77,7.23,0.10,-0.12,-0.37,1721206819558
-3.85,-4.07,10.37,-0.08,-0.04,0.07,1721206819568
-1.45,-1.19,10.96,-0.02,0.02,0.21,1721206819578
1.39,0.48,11.08,-0.04,0.02,0.10,1721206819588
1.35,4.81,13.32,0.19,-0.20,0.04,1721206819598
3.29,-1.90,4.98,0.23,0.05,-0.06,1721206819608
2.91,-1.63,6.51,0.21,-0.01,-0.19,1721206819618
1.28,2.23,11.03,0.29,0.05,-0.39,1721206819628
-1.34,2.05,8.94,0.20,-0.12,-0.34,1721206819638
-2.29,3.19,8.55,0.22,-0.00,-0.09,1721206819648
0.87,-8.13,8.97,-0.02,0.17,-0.08,1721206819658
0.14,4.69,19.98,0.29,-0.01,-0.20,1721206819668
1.23,2.96,1.09,0.29,-0.02,-0.16,1721206819678
0.08,-5.67,6.58,-0.18,0.16,-0.19,1721206819688
0.66,-0.40,21.66,0.22,0.19,-0.29,1721206819698
-0.09,-0.21,0.34,0.36,-0.17,-0.20,1721206819708
0.66,5.20,-0.87,0.21,0.34,-0.20,1721206819718
2.73,-7.33,11.87,-0.26,0.27,-0.35,1721206819728
-2.64,2.06,26.71,0.18,-0.07,-0.45,1721206819738
-2.55,0.16,6.04,0.25,0.08,-0.25,1721206819748
-1.80,-2.63,11.68,-0.19,0.26,-0.04,1721206819758
0.65,3.67,19.57,0.07,0.17,-0.13,1721206819768
0.76,0.65,5.48,0.02,-0.00,-0.23,1721206819778
-0.51,5.17,6.82,0.06,0.23,-0.33,1721206819788
1.05,-1.84,5.37,-0.06,0.23,-0.31,1721206819798
-1.70,-0.65,10.15,-0.04,0.13,-0.25,1721206819808
-1.19,3.12,11.41,0.04,0.24,-0.28,1721206819818
-1.41,0.10,8.80,-0.04,0.01,-0.11,1721206819828
-1.08,6.73,10.30,0.10,0.14,-0.08,1721206819838
2.43,-4.39,5.29,-0.24,0.26,-0.15,1721206819848
1.20,-3.22,19.53,-0.29,0.24,-0.36,1721206819858
-0.77,5.54,11.16,0.12,0.05,-0.46,1721206819868
-3.88,2.36,2.93,-0.11,0.15,-0.34,1721206819878
-3.99,-4.73,6.75,-0.16,0.17,-0.13,1721206819888
-1.16,-3.41,10.63,-0.11,0.19,0.03,1721206819898
1.29,5.49,12.56,-0.03,0.17,0.09,1721206819908
2.01,1.44,7.92,-0.19,0.09,-0.18,1721206819918
-0.53,-3.99,14.77,-0.46,0.21,-0.36,1721206819928
-1.05,1.53,15.86,-0.13,0.12,-0.22,1721206819938
0.08,-1.19,3.69,-0.14,0.07,0.07,1721206819948
1.16,-7.08,10.04,-0.39,0.32,-0.07,1721206819958
-0.07,1.72,13.60,-0.06,0.06,-0.28,1721206819968
-0.70,6.39,10.28,0.08,0.18,-0.32,1721206819978
-1.67,0.76,8.56,0.00,0.16,-0.14,1721206819988
-2.39,-0.27,5.88,-0.05,0.12,0.04,1721206819998
0.65,-1.22,11.42,-0.08,0.26,0.10,1721206820008
1.30,0.13,16.14,-0.18,0.21,-0.15,1721206820018
-0.68,5.24,18.12,-0.02,0.10,-0.36,1721206820028
-3.50,3.25,6.59,0.18,-0.07,-0.16,1721206820038
-2.88,-3.53,2.53,-0.00,0.25,0.14,1721206820048
-0.11,-4.31,16.82,-0.01,0.25,0.27,1721206820058
1.71,10.50,13.29,0.48,0.11,0.05,1721206820068
0.92,2.64,-1.05,0.25,-0.07,-0.19,1721206820078
-2.88,-6.96,8.92,-0.23,0.21,-0.13,1721206820088
0.34,-0.39,23.49,0.13,0.31,-0.01,1721206820098
-2.58,5.69,6.87,0.32,-0.23,0.05,1721206820108
-2.01,-1.50,6.85,-0.09,0.31,-0.01,1721206820118
2.39,-3.63,23.67,0.03,0.27,0.01,1721206820128
1.09,7.64,8.65,0.55,-0.28,0.09,1721206820138
-1.06,2.49,-5.22,0.24,0.05,-0.06,1721206820148
-1.51,-9.86,9.86,-0.19,0.26,-0.11,1721206820158
-0.98,0.72,19.56,0.37,0.01,0.02,1721206820168
-0.56,5.45,1.58,0.36,-0.07,0.09,1721206820178
-0.42,0.59,11.03,-0.15,0.27,-0.06,1721206820188
-0.11,-3.75,17.76,0.11,-0.02,0.01,1721206820198
-0.59,-1.36,7.28,0.10,-0.02,0.03,1721206820208
-2.48,4.24,11.25,0.13,-0.04,-0.05,1721206820218
-1.40,0.98,6.18,0.25,-0.06,0.06,1721206820228
-0.92,-0.37,4.38,0.05,0.02,0.19,1721206820238
1.04,-1.75,20.31,-0.11,0.09,0.11,1721206820248
-0.31,7.09,12.52,0.38,-0.31,0.05,1721206820258
0.78,0.26,-7.85,0.04,-0.11,0.12,1721206820268
4.93,-10.51,14.76,-0.54,0.45,0.07,1721206820278
0.56,3.02,30.42,0.24,-0.24,0.04,1721206820288
-1.38,10.70,-0.30,0.43,-0.28,0.08,1721206820298
-0.37,2.35,3.98,-0.19,0.23,0.07,1721206820308
-1.01,-4.92,19.67,-0.15,-0.14,0.17,1721206820318
-0.65,1.82,12.01,0.16,-0.10,0.33,1721206820328
-0.18,3.35,3.07,0.07,-0.27,0.32,1721206820338
-1.22,2.14,8.11,0.05,-0.11,0.24,1721206820348
1.09,-0.97,6.61,0.09,-0.10,0.29,1721206820358
1.56,-0.33,10.20,-0.11,-0.04,0.23,1721206820368
1.65,3.36,14.73,-0.09,-0.02,0.01,1721206820378
-0.75,3.27,10.93,-0.10,-0.21,0.02,1721206820388
-3.20,0.35,10.30,-0.18,-0.19,0.24,1721206820398
-0.88,-3.19,5.93,-0.11,-0.24,0.49,1721206820408
1.88,1.60,8.20,-0.16,-0.10,0.28,1721206820418
3.14,-2.19,12.90,-0.29,-0.19,0.04,1721206820428
-1.13,0.92,15.85,-0.11,-0.30,-0.05,1721206820438
-0.99,2.47,8.70,-0.07,-0.13,0.09,1721206820448
-1.07,1.13,9.00,-0.15,-0.22,0.18,1721206820458
0.54,-0.71,7.60,-0.08,-0.20,0.17,1721206820468
0.40,-3.98,5.28,-0.16,-0.23,0.11,1721206820478
-0.61,-1.30,13.75,-0.19,-0.21,0.08,1721206820488
1.02,2.16,14.82,-0.05,-0.29,0.15,1721206820498
2.39,0.12,3.71,-0.07,-0.27,0.16,1721206820508
4.25,-2.92,7.58,-0.17,0.04,-0.07,1721206820518
1.52,-4.58,10.44,-0.05,-0.35,-0.23,1721206820528
-2.45,5.16,12.66,0.13,-0.14,-0.21,1721206820538
0.15,5.94,12.07,0.09,-0.06,-0.00,1721206820548
0.56,-1.82,14.08,-0.16,-0.28,0.17,1721206820558
1.44,-4.24,14.82,-0.18,-0.09,0.07,1721206820568
2.35,-0.13,8.87,0.09,-0.15,-0.17,1721206820578
0.20,4.55,7.89,0.18,-0.12,-0.31,1721206820588
0.34,1.46,9.58,0.20,-0.14,-0.17,1721206820598
0.40,5.11,14.57,0.24,0.01,-0.13,1721206820608
1.83,-2.55,9.91,0.11,-0.07,-0.16,1721206820618
0.59,1.75,10.59,0.09,-0.06,-0.31,1721206820628
0.99,-1.68,14.47,0.03,-0.00,-0.25,1721206820638
0.00,3.08,11.58,0.44,-0.16,-0.17,1721206820648
2.29,0.83,0.13,0.41,0.18,-0.32,1721206820658
0.68,0.43,10.69,0.13,0.02,-0.41,1721206820668
-1.23,-0.18,23.06,0.20,0.01,-0.38,1721206820678
-1.64,4.38,8.88,0.41,-0.04,-0.35,1721206820688
0.86,3.04,-0.33,0.31,0.10,-0.14,1721206820698
2.91,-4.49,4.74,0.01,0.26,-0.23,1721206820708
1.10,-9.60,10.62,0.05,0.02,-0.59,1721206820718
-3.05,4.07,12.62,0.40,-0.00,-0.55,1721206820728
-1.84,4.94,9.05,0.36,0.20,-0.19,1721206820738
0.42,-0.24,8.15,0.23,0.13,-0.15,1721206820748
1.76,-2.11,11.41,0.11,0.19,-0.31,1721206820758
-0.33,11.67,10.51,0.32,-0.01,-0.38,1721206820768
-1.10,-1.97,-0.14,-0.24,0.20,-0.42,1721206820778
-2.17,-14.00,19.57,-0.28,0.33,-0.46,1721206820788
-2.75,2.86,21.51,0.41,0.04,-0.15,1721206820798
0.55,6.21,3.89,0.10,0.25,0.02,1721206820808
0.96,6.44,8.14,0.08,0.15,-0.37,1721206820818
0.39,-4.51,2.87,-0.01,0.08,-0.37,1721206820828
-2.01,-0.84,7.91,-0.04,0.16,-0.24,1721206820838
-1.42,2.88,10.06,-0.04,0.23,-0.28,1721206820848
-2.42,3.08,14.89,-0.06,0.11,-0.24,1721206820858
-1.46,1.41,8.91,0.09,0.11,0.03,1721206820868
2.89,-5.15,6.04,-0.28,0.27,0.07,1721206820878
3.17,3.17,24.19,-0.13,0.20,-0.24,1721206820888
0.86,6.92,8.36,0.28,-0.06,-0.50,1721206820898
-3.91,-1.22,-16.43,-0.17,-0.04,-0.52,1721206820908
-4.13,-10.52,15.22,-0.63,0.69,-0.27,1721206820918
-2.06,6.75,32.27,0.09,0.22,0.23,1721206820928
0.98,9.78,-4.26,0.42,-0.03,0.20,1721206820938
4.34,-9.68,0.99,-0.84,0.37,-0.17,1721206820948
4.95,2.11,39.55,-0.27,-0.05,-0.29,1721206820958
-0.96,11.27,9.15,0.72,-0.21,-0.19,1721206820968
0.77,-2.72,-22.16,-0.40,0.26,-0.34,1721206820978
-3.22,-15.37,23.06,-0.71,0.42,-0.37,1721206820988
-2.54,11.24,25.17,0.33,0.14,-0.18,1721206820998
-1.82,14.08,-4.82,0.37,0.23,-0.16,1721206821008
-2.25,-5.72,6.14,-0.39,0.28,0.02,1721206821018
-1.13,0.51,21.54,0.03,-0.02,0.42,1721206821028
4.91,2.96,5.42,0.18,0.30,0.23,1721206821038
2.54,1.02,4.48,-0.12,-0.04,-0.28,1721206821048
-3.68,-2.98,11.45,-0.20,-0.06,-0.52,1721206821058
-4.29,-1.76,15.82,0.06,0.12,-0.12,1721206821068
-3.48,1.12,11.66,0.05,0.26,0.26,1721206821078
0.20,4.94,13.88,0.18,0.14,0.35,1721206821088
2.10,1.23,4.44,0.19,-0.07,0.20,1721206821098
2.40,-2.92,7.05,-0.03,0.16,-0.08,1721206821108
0.05,-0.77,12.15,0.11,-0.12,-0.17,1721206821118
-3.56,6.06,5.19,0.20,-0.12,-0.06,1721206821128
-2.96,-1.79,10.83,-0.10,0.18,0.13,1721206821138
-0.62,-5.74,16.19,-0.08,-0.07,0.24,1721206821148
0.57,2.81,13.33,0.05,-0.03,0.21,1721206821158
1.95,5.22,7.53,0.07,0.01,0.03,1721206821168
-3.00,-3.06,9.11,-0.00,-0.02,-0.16,1721206821183
-3.66,-6.06,8.40,-0.04,-0.24,-0.00,1721206821187
-3.17,1.93,13.29,0.10,0.06,0.27,1721206821197
-0.64,4.14,7.95,0.18,-0.13,0.31,1721206821207
0.59,0.95,6.45,0.11,-0.00,0.18,1721206821217
2.56,-1.58,11.71,0.07,-0.01,0.14,1721206821227
0.41,8.93,12.46,0.23,-0.26,0.11,1721206821237
1.03,3.65,6.51,0.18,-0.16,0.06,1721206821247
-0.62,-4.16,4.19,-0.07,-0.29,0.10,1721206821257
-0.12,-2.53,11.36,-0.14,-0.04,0.20,1721206821267
1.38,1.76,15.99,0.11,-0.09,-0.02,1721206821277
-0.92,0.45,4.32,0.21,-0.31,-0.03,1721206821287
-1.65,4.43,10.15,0.10,0.08,0.14,1721206821297
0.53,5.12,7.86,0.23,-0.26,0.29,1721206821307
2.54,-2.51,8.81,-0.19,0.06,0.12,1721206821317
2.83,-1.26,20.29,-0.04,-0.13,-0.10,1721206821327
-0.92,3.12,10.00,0.10,-0.37,-0.24,1721206821337
-4.71,0.96,8.77,-0.07,-0.17,-0.03,1721206821347
-2.06,-0.95,9.01,0.11,-0.14,0.34,1721206821357
3.23,-0.65,8.98,0.02,0.05,0.35,1721206821367
3.68,6.16,10.82,0.17,-0.19,-0.08,1721206821377
3.24,7.44,4.32,0.21,-0.12,-0.28,1721206821387
0.49,-3.06,3.50,-0.35,-0.18,-0.13,1721206821397
-3.36,-1.17,18.69,-0.38,-0.19,-0.18,1721206821407
-0.87,-5.93,10.42,-0.05,-0.18,-0.09,1721206821417
0.48,-5.14,3.16,-0.27,-0.10,-0.01,1721206821427
0.08,-5.05,20.15,-0.48,0.03,-0.12,1721206821437
-0.42,7.97,21.95,0.29,-0.22,-0.17,1721206821447
1.97,15.00,-6.02,0.47,0.05,-0.08,1721206821457
2.57,-9.88,-6.17,-0.62,-0.01,-0.21,1721206821467
-7.08,-16.51,30.51,-0.47,-0.21,-0.47,1721206821477
-5.00,4.03,20.11,0.43,-0.18,-0.40,1721206821487
-3.16,8.51,-3.58,-0.18,-0.08,-0.00,1721206821497
-0.42,-4.07,7.83,-0.32,0.01,0.17,1721206821507
4.92,-12.02,7.23,-0.26,-0.02,-0.11,1721206821517
2.51,8.96,21.93,-0.14,0.17,-0.66,1721206821527
-2.54,9.42,11.58,0.23,-0.30,-0.64,1721206821537
-4.66,-9.09,-1.92,-0.29,0.08,-0.34,1721206821547
-4.44,-5.17,19.58,-0.19,0.10,0.03,1721206821557
-0.50,3.40,14.83,0.11,-0.14,0.20,1721206821567
3.08,3.25,8.63,-0.03,0.16,0.03,1721206821577
2.28,-1.14,13.37,-0.07,-0.05,-0.29,1721206821587
-0.24,4.72,15.55,0.16,-0.02,-0.41,1721206821597
0.25,8.12,7.13,0.44,-0.02,-0.27,1721206821607
-1.03,-2.40,1.17,0.11,-0.03,-0.08,1721206821617
-3.18,-1.06,10.26,0.11,0.00,0.06,1721206821627
1.65,-4.77,8.60,0.08,0.06,0.02,1721206821637
2.65,-2.81,12.66,0.03,-0.08,-0.11,1721206821647
0.93,6.16,11.95,0.27,-0.09,-0.21,1721206821657
1.12,8.08,6.44,0.22,0.11,-0.25,1721206821667
-0.07,-6.42,13.50,-0.27,0.11,-0.21,1721206821677
-2.53,-1.94,20.29,0.08,-0.06,-0.16,1721206821687
-0.59,7.51,-2.50,0.23,0.03,-0.00,1721206821697
3.55,-5.18,4.59,-0.43,0.31,0.03,1721206821707
0.95,-3.56,30.77,0.05,-0.11,-0.19,1721206821717
1.86,6.35,2.44,0.76,-0.05,-0.11,1721206821727
3.45,-3.49,-9.71,-0.11,0.28,-0.16,1721206821737
-2.16,-2.72,18.11,-0.32,-0.10,-0.61,1721206821747
-5.32,5.41,18.55,0.33,-0.12,-0.53,1721206821757
-5.19,2.83,1.63,0.13,0.11,0.22,1721206821767
-0.30,0.10,6.30,-0.02,0.20,0.43,1721206821777
6.05,-3.99,7.24,-0.19,0.17,0.07,1721206821787
4.15,1.28,19.79,-0.32,0.14,-0.55,1721206821797
-1.16,3.46,16.11,0.05,-0.14,-0.61,1721206821807
-4.97,0.34,7.10,-0.01,0.10,-0.29,1721206821817
-2.52,1.43,4.10,0.01,0.02,0.19,1721206821827
1.72,1.85,4.24,-0.16,0.19,0.19,1721206821837
4.05,0.21,19.17,-0.41,0.26,-0.29,1721206821847
-0.42,5.83,19.33,0.14,-0.11,-0.47,1721206821857
-2.66,-6.48,-2.04,-0.18,0.06,-0.32,1721206821867
-4.50,0.95,20.49,-0.24,0.10,-0.02,1721206821877
3.47,6.67,12.89,0.26,0.10,0.31,1721206821887
5.74,3.68,2.30,0.06,0.10,-0.14,1721206821897
1.99,-0.77,10.95,-0.02,0.12,-0.65,1721206821907
-2.03,-0.97,7.59,0.13,0.02,-0.56,1721206821917
-3.71,2.58,9.20,-0.11,0.18,-0.21,1721206821927
-1.76,0.49,9.65,-0.00,0.09,0.04,1721206821937
1.36,-4.01,9.46,-0.11,0.22,-0.02,1721206821947
3.66,-0.36,15.61,0.04,0.23,-0.26,1721206821957
2.54,7.14,11.66,0.03,0.11,-0.52,1721206821967
-1.57,3.53,12.48,-0.13,0.15,-0.59,1721206821977
-3.76,-7.82,7.21,-0.13,0.15,-0.41,1721206821987
-2.67,-2.38,11.94,0.02,0.33,-0.12,1721206821997
-0.24,4.93,4.88,0.23,0.08,-0.07,1721206822007
2.35,-0.21,8.66,-0.16,0.41,-0.29,1721206822017
0.09,4.30,16.46,0.14,0.10,-0.53,1721206822027
-0.47,-6.58,9.19,-0.11,0.31,-0.43,1721206822037
-3.26,0.37,15.65,0.05,0.16,-0.26,1721206822047
-1.54,10.20,4.68,0.29,0.25,-0.20,1721206822057
0.83,-0.65,6.54,-0.10,0.35,-0.36,1721206822067
-0.86,-7.06,16.05,0.01,0.16,-0.26,1721206822077
-0.91,-0.46,9.32,0.11,0.29,-0.23,1721206822087
-1.82,0.82,9.78,0.03,0.24,-0.25,1721206822097
-1.72,2.82,13.58,0.11,0.28,-0.16,1721206822107
-0.28,-0.16,8.88,0.18,0.18,-0.02,1721206822117
0.49,-1.39,8.05,0.13,0.24,-0.10,1721206822127
1.62,1.52,9.11,0.11,0.28,-0.19,1721206822137
-0.05,2.27,12.77,-0.02,0.22,-0.30,1721206822147
-2.61,-0.48,18.53,-0.08,0.21,-0.36,1721206822157
-4.51,-1.39,9.39,0.23,0.07,-0.06,1721206822167
-2.02,2.22,1.82,0.17,0.35,0.14,1721206822177
1.67,1.35,8.38,0.00,0.28,0.04,1721206822187
-0.90,-1.28,9.55,0.02,-0.05,-0.10,1721206822197
-0.92,-1.53,11.57,0.11,0.40,-0.15,1721206822207
-1.86,-3.18,7.24,0.02,0.12,-0.08,1721206822217
-3.52,8.67,11.50,0.12,0.12,0.14,1721206822227
0.44,5.31,7.91,0.05,0.18,0.17,1721206822237
0.63,-6.47,13.75,-0.27,0.13,0.03,1721206822247
-0.58,-3.12,9.85,0.15,0.06,-0.03,1721206822257
0.40,-0.24,1.07,-0.06,0.22,-0.00,1721206822267
-1.95,3.86,13.86,-0.03,0.14,-0.02,1721206822277
-1.24,4.58,7.38,0.40,-0.01,0.27,1721206822287
1.58,0.71,0.39,0.07,0.23,0.34,1721206822297
4.82,-2.89,14.31,-0.18,0.37,0.12,1721206822307
3.89,0.89,17.34,-0.04,0.09,-0.26,1721206822317
-1.41,6.17,12.73,-0.03,0.12,-0.44,1721206822327
-5.60,0.20,8.76,0.02,0.04,-0.06,1721206822337
-4.36,-4.28,5.18,-0.02,0.14,0.46,1721206822347
2.09,3.58,12.38,0.03,0.39,0.41,1721206822357
4.66,-0.93,9.67,-0.12,-0.02,0.03,1721206822367
-0.49,-2.32,10.09,-0.17,0.02,-0.33,1721206822377
-3.72,1.12,11.67,0.05,0.09,-0.19,1721206822387
-3.91,4.64,8.55,0.14,0.08,0.25,1721206822397
-2.19,-0.69,0.81,-0.05,-0.08,0.43,1721206822407
-0.46,-4.58,18.79,-0.59,0.37,0.14,1721206822417
1.88,5.40,27.89,-0.02,-0.02,-0.11,1721206822427
-1.99,2.32,-2.96,0.08,-0.39,-0.03,1721206822437
-3.92,-2.26,4.83,-0.35,0.42,0.18,1721206822447
-0.73,1.70,19.11,0.09,0.01,0.49,1721206822457
1.55,-1.99,0.23,0.02,-0.14,0.34,1721206822467
0.35,-1.52,10.51,-0.13,-0.02,0.06,1721206822477
0.41,4.53,14.95,-0.10,-0.05,0.07,1721206822487
-1.31,2.48,9.97,-0.12,-0.07,0.19,1721206822497
-1.51,-5.60,4.54,-0.19,0.04,0.18,1721206822507
-0.46,-5.80,15.47,-0.24,0.06,0.26,1721206822517
0.69,7.84,18.47,0.18,-0.11,0.31,1721206822527
1.35,1.71,2.97,0.02,-0.20,0.24,1721206822537
0.39,0.15,13.90,-0.15,0.02,0.15,1721206822547
2.01,6.15,11.03,0.19,-0.14,0.22,1721206822557
1.44,-1.18,0.89,-0.08,-0.13,0.16,1721206822567
-0.75,-7.36,3.77,-0.20,-0.03,-0.01,1721206822577
-1.67,-0.83,18.56,-0.12,0.06,-0.04,1721206822587
-1.64,6.34,23.66,0.07,-0.22,0.27,1721206822597
0.86,-1.59,6.01,0.03,-0.11,0.44,1721206822607
4.52,-7.90,8.18,-0.19,0.09,0.22,1721206822617
2.21,1.82,15.13,0.21,-0.16,-0.03,1721206822627
0.61,2.49,5.61,0.26,-0.07,-0.11,1721206822637
-1.25,0.14,7.37,0.14,-0.03,-0.02,1721206822647
0.55,2.27,10.09,0.27,-0.04,0.19,1721206822657
2.71,3.07,11.32,0.08,0.03,0.22,1721206822667
2.99,1.83,21.19,-0.07,0.00,-0.07,1721206822677
1.67,-1.27,12.08,0.19,-0.11,-0.19,1721206822687
-0.10,-0.44,-0.04,0.07,0.02,-0.20,1721206822697
-0.78,0.64,10.25,0.01,0.14,-0.06,1721206822707
-1.19,-1.79,11.09,0.16,-0.04,-0.01,1721206822717
-0.70,1.31,8.55,0.26,-0.01,0.18,1721206822727
3.81,-1.18,9.50,0.07,0.24,0.16,1721206822737
3.74,0.51,22.28,0.03,0.05,-0.23,1721206822747
-0.35,8.75,15.24,0.46,-0.18,-0.31,1721206822757
-0.68,-4.90,-4.06,0.02,0.10,-0.01,1721206822767
-1.30,0.85,20.71,-0.00,0.32,-0.04,1721206822777
0.89,-2.36,12.28,0.26,-0.09,-0.20,1721206822787
-3.33,9.54,0.99,0.30,-0.05,-0.20,1721206822797
2.43,-6.04,1.13,-0.16,0.38,0.06,1721206822807
-2.72,-0.49,16.19,0.08,-0.10,0.00,1721206822817
-0.13,2.00,2.01,0.09,0.06,-0.15,1721206822827
-1.38,0.45,5.43,-0.09,0.03,-0.13,1721206822837
-1.90,-4.86,9.89,-0.29,0.11,-0.08,1721206822847
-0.99,-5.28,24.28,-0.29,0.16,-0.08,1721206822857
0.18,-0.35,17.64,0.20,-0.13,0.16,1721206822867
3.59,7.07,6.47,-0.05,0.32,-0.10,1721206822877
1.57,4.44,8.43,-0.12,-0.09,-0.32,1721206822887
-2.01,1.98,9.34,-0.21,0.08,-0.30,1721206822897
-1.95,-1.87,12.38,-0.22,0.14,-0.15,1721206822907
-1.87,0.36,6.01,-0.11,0.00,0.03,1721206822917
-0.11,0.93,5.27,-0.24,0.21,-0.01,1721206822927
0.34,-2.67,13.55,-0.31,0.03,-0.05,1721206822937
-0.47,6.08,18.54,-0.03,0.00,-0.19,1721206822947
-0.26,1.39,3.50,-0.12,-0.08,-0.14,1721206822957
-0.88,-3.35,15.45,-0.46,0.34,-0.09,1721206822967
0.50,5.08,22.27,-0.01,0.15,-0.12,1721206822977
-2.34,4.15,1.75,0.10,-0.24,-0.20,1721206822987
-1.12,-4.10,6.41,-0.16,0.41,-0.14,1721206822997
-1.39,-2.09,13.55,0.14,-0.18,0.20,1721206823007
0.17,4.50,7.22,0.09,0.10,0.13,1721206823017
2.44,-3.16,9.40,-0.13,0.05,-0.11,1721206823027
-0.55,5.05,12.32,0.20,-0.03,-0.19,1721206823037
0.06,-3.97,2.70,-0.08,0.10,-0.12,1721206823047
-3.69,-2.60,8.30,-0.22,-0.21,0.02,1721206823057
-0.66,-1.52,19.77,-0.19,0.41,0.03,1721206823067
-0.32,0.57,16.52,-0.02,-0.17,-0.02,1721206823077
-2.55,-3.89,7.97,-0.26,-0.12,-0.06,1721206823087
-2.50,-4.68,12.25,-0.16,0.03,0.19,1721206823097
-0.36,1.42,7.26,0.15,-0.03,0.34,1721206823107
3.34,-0.68,9.23,-0.13,0.12,0.17,1721206823117
1.58,0.45,16.22,-0.11,-0.24,-0.07,1721206823127
0.52,4.09,12.05,0.08,-0.05,-0.10,1721206823137
-0.82,-2.54,7.85,-0.12,-0.13,-0.09,1721206823147
-4.28,0.71,10.59,-0.04,-0.19,0.01,1721206823157
-2.03,0.68,11.59,0.03,0.03,0.07,1721206823167
-2.49,1.32,2.91,0.18,-0.27,0.23,1721206823177
-2.74,2.65,10.21,0.02,-0.11,0.02,1721206823192
2.14,0.83,12.57,0.05,-0.61,0.05,1721206823196
-2.04,4.92,6.61,0.11,0.11,-0.16,1721206823206
-0.31,-1.91,11.61,-0.09,-0.01,-0.21,1721206823216
-4.27,0.41,12.65,-0.00,-0.34,0.03,1721206823226
-2.30,1.57,8.21,0.05,0.01,0.18,1721206823236
0.36,-2.00,11.59,-0.00,-0.11,0.21,1721206823246
1.94,2.57,14.02,0.19,-0.01,0.01,1721206823256
1.08,3.40,5.75,0.24,-0.26,-0.15,1721206823266
-1.63,-0.76,8.27,-0.00,-0.09,-0.04,1721206823276
2.11,0.45,14.26,0.28,0.03,0.04,1721206823286
1.76,5.27,5.44,0.28,-0.12,-0.15,1721206823296
-1.42,3.10,7.81,-0.02,-0.12,-0.17,1721206823306
-0.99,-5.44,13.52,-0.07,-0.05,-0.04,1721206823316
0.16,3.02,12.89,0.30,-0.07,0.05,1721206823326
0.23,3.54,-1.48,0.11,-0.24,-0.07,1721206823336
-1.60,-2.20,8.65,-0.21,0.08,-0.15,1721206823346
-1.08,-2.40,15.35,0.09,-0.13,0.02,1721206823356
-1.19,4.34,5.09,0.27,-0.18,0.16,1721206823366
2.22,-0.23,6.32,-0.24,0.14,0.07,1721206823376
0.92,-5.66,23.55,-0.41,-0.20,0.05,1721206823386
-1.37,3.51,17.62,0.15,-0.24,0.01,1721206823396
0.23,-0.92,0.82,-0.20,-0.15,0.06,1721206823406
-1.35,3.14,11.31,-0.32,-0.11,0.16,1721206823416
2.23,-0.22,11.88,-0.12,-0.01,0.03,1721206823426
1.56,-4.21,3.33,-0.17,-0.19,-0.14,1721206823436
0.28,-0.67,11.56,-0.20,0.19,-0.29,1721206823446
-1.73,-2.65,12.29,-0.00,-0.26,-0.11,1721206823456
-3.83,6.30,9.98,0.12,-0.11,0.03,1721206823466
-0.05,4.69,0.48,0.10,-0.11,0.19,1721206823476
1.41,-7.37,6.31,-0.49,0.10,0.00,1721206823486
1.17,-9.15,25.64,-0.36,0.05,-0.41,1721206823496
-2.47,10.10,13.12,0.23,-0.45,-0.28,1721206823506
-0.66,3.53,-0.13,-0.18,0.19,0.06,1721206823516
0.40,-4.95,14.69,-0.15,-0.07,0.23,1721206823526
2.52,4.22,8.96,0.20,-0.05,0.01,1721206823536
3.77,2.60,5.62,-0.15,0.07,-0.36,1721206823546
-1.61,-7.93,13.56,-0.39,-0.26,-0.47,1721206823556
-4.80,-2.61,18.41,-0.17,-0.09,-0.25,1721206823566
-0.35,10.13,13.63,0.11,0.06,0.25,1721206823576
3.21,4.79,6.16,0.11,0.02,0.21,1721206823586
4.60,-10.86,8.68,-0.19,0.10,-0.24,1721206823596
0.28,-0.62,18.66,0.04,-0.04,-0.55,1721206823606
-2.11,11.70,13.04,0.29,-0.04,-0.42,1721206823616
-2.50,4.99,1.29,0.24,-0.09,-0.04,1721206823626
-0.35,-6.53,4.19,0.06,0.15,0.16,1721206823636
3.05,-11.48,3.50,0.05,0.13,-0.00,1721206823646
1.61,2.19,15.80,0.07,0.15,-0.48,1721206823656
-0.25,2.16,24.15,0.31,-0.00,-0.40,1721206823666
-3.07,9.63,7.93,0.60,-0.15,0.10,1721206823676
3.47,-0.71,-0.62,0.12,0.47,0.10,1721206823686
4.07,-3.34,17.60,-0.15,0.03,-0.38,1721206823696
-0.74,2.39,14.58,0.16,0.05,-0.58,1721206823706
-1.41,-1.87,4.91,0.10,0.14,-0.24,1721206823716
-1.02,-3.98,14.08,-0.11,0.22,-0.03,1721206823726
2.02,-2.43,15.15,0.31,0.16,-0.14,1721206823736
2.28,10.27,0.19,0.55,0.16,-0.33,1721206823746
1.81,2.61,4.23,0.03,0.36,-0.58,1721206823756
-3.63,-6.72,23.48,-0.08,0.08,-0.58,1721206823766
-6.24,4.10,13.30,0.51,0.16,-0.25,1721206823776
-1.52,-2.33,-5.30,0.02,0.25,0.16,1721206823786
0.27,3.12,9.87,-0.21,0.26,0.10,1721206823796
3.62,-2.44,20.39,-0.02,0.31,-0.33,1721206823806
0.74,-3.38,16.86,0.19,0.04,-0.42,1721206823816
-3.77,6.33,8.45,0.33,0.15,-0.35,1721206823826
-2.76,8.70,-4.33,0.15,0.12,-0.11,1721206823836
-0.13,1.65,4.49,-0.12,0.34,0.04,1721206823846
1.64,-4.63,2.93,-0.01,0.12,-0.04,1721206823856
-0.64,-3.92,8.22,-0.09,0.20,-0.32,1721206823866
-0.74,0.54,17.14,-0.02,0.19,-0.36,1721206823876
-1.90,-2.19,21.63,-0.29,0.10,-0.17,1721206823886
-2.51,7.52,22.25,0.16,0.12,0.07,1721206823896
2.34,2.36,-3.94,0.14,0.08,0.10,1721206823906
3.34,-1.57,4.70,-0.29,0.42,-0.10,1721206823916
1.34,-0.83,12.42,0.01,0.15,-0.45,1721206823926
-3.73,1.41,7.13,-0.07,0.11,-0.60,1721206823936
-7.54,-4.33,12.77,-0.26,0.20,-0.22,1721206823946
-5.22,-3.90,18.38,-0.15,0.15,0.53,1721206823956
2.73,8.91,14.20,0.14,0.29,0.67,1721206823966
7.29,0.74,-0.02,-0.07,0.02,0.16,1721206823976
5.54,-3.81,12.83,-0.29,0.41,-0.53,1721206823986
0.86,1.69,22.01,0.14,0.10,-0.62,1721206823996
-7.93,7.94,-0.06,0.39,-0.24,-0.26,1721206824006
-6.44,-5.69,0.34,-0.17,0.32,0.27,1721206824016
-2.53,-4.55,12.68,0.05,0.07,0.83,1721206824026
7.07,3.49,9.38,0.16,0.36,0.48,1721206824036
7.28,4.17,15.78,-0.10,-0.02,-0.27,1721206824046
-0.43,-0.28,8.58,-0.08,-0.22,-0.51,1721206824056
-3.10,-3.87,9.47,-0.06,0.37,-0.29,1721206824066
-3.75,-0.88,9.86,0.07,0.05,0.13,1721206824076
-4.30,1.12,3.62,-0.01,-0.07,0.29,1721206824086
-0.08,-2.66,9.42,-0.03,0.20,0.30,1721206824096
3.19,-3.35,15.54,-0.13,0.21,0.05,1721206824106
2.63,0.00,24.67,-0.10,0.04,-0.03,1721206824116
-0.61,11.69,10.97,0.29,-0.19,-0.18,1721206824126
-2.54,-3.16,-2.90,-0.18,-0.07,-0.07,1721206824136
-4.78,-9.39,12.34,-0.33,0.02,0.21,1721206824146
1.14,1.25,19.35,0.19,0.30,0.08,1721206824156
0.37,9.62,1.90,0.17,-0.29,-0.15,1721206824166
-0.39,1.96,9.67,-0.17,0.33,-0.06,1721206824176
0.39,-3.70,20.39,0.05,0.02,0.17,1721206824186
-0.69,2.43,5.13,0.18,-0.26,0.08,1721206824196
1.12,-1.14,4.25,-0.10,0.18,-0.09,1721206824206
-2.54,0.84,9.33,0.02,-0.32,-0.06,1721206824216
-2.49,3.76,9.15,0.13,0.09,-0.01,1721206824226
-1.50,-2.28,8.77,-0.01,-0.06,0.18,1721206824236
-1.19,-2.54,13.07,-0.01,-0.02,0.26,1721206824246
5.07,2.13,15.30,0.11,0.27,0.11,1721206824256
2.72,9.81,9.93,0.12,-0.25,-0.27,1721206824266
-1.98,2.18,6.27,-0.09,-0.10,-0.31,1721206824276
-4.01,-7.43,7.79,0.04,-0.15,0.09,1721206824286
-0.61,-2.87,5.55,0.09,0.13,0.40,1721206824296
2.45,7.07,8.76,0.11,-0.02,0.17,1721206824306
3.80,3.06,14.65,-0.07,0.10,-0.17,1721206824316
1.00,-3.13,19.91,0.01,-0.01,-0.20,1721206824326
-1.37,4.93,5.05,0.37,-0.15,-0.06,1721206824336
0.34,4.86,6.21,-0.18,0.17,0.01,1721206824346
-2.80,-4.64,15.86,-0.17,-0.42,0.16,1721206824356
-2.04,2.12,11.63,0.23,0.16,0.08,1721206824366
1.73,1.25,6.08,0.11,-0.09,0.16,1721206824376
-1.63,3.03,14.04,0.04,-0.06,0.12,1721206824386
0.73,-0.30,7.12,0.18,0.04,-0.05,1721206824396
-1.52,2.88,6.88,0.12,-0.16,0.11,1721206824406
0.29,1.66,7.53,0.15,0.03,0.25,1721206824416
1.92,-3.31,10.37,-0.01,-0.10,0.18,1721206824426
1.61,0.75,11.18,0.11,-0.04,-0.10,1721206824436
0.55,3.68,11.23,-0.10,-0.03,-0.19,1721206824446
-2.07,0.23,13.23,-0.13,-0.10,-0.10,1721206824456
-1.35,-11.08,12.50,-0.18,0.08,0.07,1721206824466
-1.33,1.59,10.13,0.17,-0.16,0.09,1721206824476
0.44,11.33,7.32,0.12,0.00,0.09,1721206824486
-0.31,3.13,6.85,-0.01,-0.19,0.09,1721206824496
0.21,-17.60,1.75,-0.32,0.02,-0.16,1721206824506
-1.57,2.56,15.91,0.07,0.07,-0.21,1721206824516
-1.65,8.64,8.64,0.10,-0.15,-0.07,1721206824526
-1.47,-6.83,10.34,-0.30,-0.01,0.18,1721206824536
0.78,-0.93,15.56,0.04,-0.01,0.21,1721206824546
3.83,4.48,-0.02,0.05,-0.11,0.09,1721206824556
3.55,-7.13,9.59,-0.48,0.14,-0.22,1721206824566
-0.70,-0.57,20.92,-0.05,-0.10,-0.35,1721206824576
-3.41,0.90,2.60,0.19,-0.20,-0.12,1721206824586
-2.54,4.04,12.84,-0.20,0.21,0.12,1721206824596
1.74,0.83,12.11,-0.02,-0.13,0.15,1721206824606
4.47,1.53,12.51,-0.19,0.14,-0.08,1721206824616
0.27,1.59,9.94,-0.08,-0.16,-0.20,1721206824626
